# 
#                 ----------------------------------------------------
#                 Data from a 3D direct N-body simulation. 
# 
#                 rows are i-particle; 
#                 coumns are :mass, tag, x ,y, z, vx, vy, vz, ax, ay, az
# 
#                 NTHU, Computational Physics 
# 
#                 ----------------------------------------------------
#                 Time = 0.0
0.000000000000000000e+00 1.000000000000000000e+00 2.000000000000000000e+00 3.000000000000000000e+00 4.000000000000000000e+00 5.000000000000000000e+00 6.000000000000000000e+00 7.000000000000000000e+00 8.000000000000000000e+00 9.000000000000000000e+00 1.000000000000000000e+01 1.100000000000000000e+01 1.200000000000000000e+01 1.300000000000000000e+01 1.400000000000000000e+01 1.500000000000000000e+01 1.600000000000000000e+01 1.700000000000000000e+01 1.800000000000000000e+01 1.900000000000000000e+01 2.000000000000000000e+01 2.100000000000000000e+01 2.200000000000000000e+01 2.300000000000000000e+01 2.400000000000000000e+01 2.500000000000000000e+01 2.600000000000000000e+01 2.700000000000000000e+01 2.800000000000000000e+01 2.900000000000000000e+01 3.000000000000000000e+01 3.100000000000000000e+01 3.200000000000000000e+01 3.300000000000000000e+01 3.400000000000000000e+01 3.500000000000000000e+01 3.600000000000000000e+01 3.700000000000000000e+01 3.800000000000000000e+01 3.900000000000000000e+01 4.000000000000000000e+01 4.100000000000000000e+01 4.200000000000000000e+01 4.300000000000000000e+01 4.400000000000000000e+01 4.500000000000000000e+01 4.600000000000000000e+01 4.700000000000000000e+01 4.800000000000000000e+01 4.900000000000000000e+01 5.000000000000000000e+01 5.100000000000000000e+01 5.200000000000000000e+01 5.300000000000000000e+01 5.400000000000000000e+01 5.500000000000000000e+01 5.600000000000000000e+01 5.700000000000000000e+01 5.800000000000000000e+01 5.900000000000000000e+01 6.000000000000000000e+01 6.100000000000000000e+01 6.200000000000000000e+01 6.300000000000000000e+01 6.400000000000000000e+01 6.500000000000000000e+01 6.600000000000000000e+01 6.700000000000000000e+01 6.800000000000000000e+01 6.900000000000000000e+01 7.000000000000000000e+01 7.100000000000000000e+01 7.200000000000000000e+01 7.300000000000000000e+01 7.400000000000000000e+01 7.500000000000000000e+01 7.600000000000000000e+01 7.700000000000000000e+01 7.800000000000000000e+01 7.900000000000000000e+01 8.000000000000000000e+01 8.100000000000000000e+01 8.200000000000000000e+01 8.300000000000000000e+01 8.400000000000000000e+01 8.500000000000000000e+01 8.600000000000000000e+01 8.700000000000000000e+01 8.800000000000000000e+01 8.900000000000000000e+01 9.000000000000000000e+01 9.100000000000000000e+01 9.200000000000000000e+01 9.300000000000000000e+01 9.400000000000000000e+01 9.500000000000000000e+01 9.600000000000000000e+01 9.700000000000000000e+01 9.800000000000000000e+01 9.900000000000000000e+01 1.000000000000000000e+02 1.010000000000000000e+02 1.020000000000000000e+02 1.030000000000000000e+02 1.040000000000000000e+02 1.050000000000000000e+02 1.060000000000000000e+02 1.070000000000000000e+02 1.080000000000000000e+02 1.090000000000000000e+02 1.100000000000000000e+02 1.110000000000000000e+02 1.120000000000000000e+02 1.130000000000000000e+02 1.140000000000000000e+02 1.150000000000000000e+02 1.160000000000000000e+02 1.170000000000000000e+02 1.180000000000000000e+02 1.190000000000000000e+02 1.200000000000000000e+02 1.210000000000000000e+02 1.220000000000000000e+02 1.230000000000000000e+02 1.240000000000000000e+02 1.250000000000000000e+02 1.260000000000000000e+02 1.270000000000000000e+02 1.280000000000000000e+02 1.290000000000000000e+02 1.300000000000000000e+02 1.310000000000000000e+02 1.320000000000000000e+02 1.330000000000000000e+02 1.340000000000000000e+02 1.350000000000000000e+02 1.360000000000000000e+02 1.370000000000000000e+02 1.380000000000000000e+02 1.390000000000000000e+02 1.400000000000000000e+02 1.410000000000000000e+02 1.420000000000000000e+02 1.430000000000000000e+02 1.440000000000000000e+02 1.450000000000000000e+02 1.460000000000000000e+02 1.470000000000000000e+02 1.480000000000000000e+02 1.490000000000000000e+02 1.500000000000000000e+02 1.510000000000000000e+02 1.520000000000000000e+02 1.530000000000000000e+02 1.540000000000000000e+02 1.550000000000000000e+02 1.560000000000000000e+02 1.570000000000000000e+02 1.580000000000000000e+02 1.590000000000000000e+02 1.600000000000000000e+02 1.610000000000000000e+02 1.620000000000000000e+02 1.630000000000000000e+02 1.640000000000000000e+02 1.650000000000000000e+02 1.660000000000000000e+02 1.670000000000000000e+02 1.680000000000000000e+02 1.690000000000000000e+02 1.700000000000000000e+02 1.710000000000000000e+02 1.720000000000000000e+02 1.730000000000000000e+02 1.740000000000000000e+02 1.750000000000000000e+02 1.760000000000000000e+02 1.770000000000000000e+02 1.780000000000000000e+02 1.790000000000000000e+02 1.800000000000000000e+02 1.810000000000000000e+02 1.820000000000000000e+02 1.830000000000000000e+02 1.840000000000000000e+02 1.850000000000000000e+02 1.860000000000000000e+02 1.870000000000000000e+02 1.880000000000000000e+02 1.890000000000000000e+02 1.900000000000000000e+02 1.910000000000000000e+02 1.920000000000000000e+02 1.930000000000000000e+02 1.940000000000000000e+02 1.950000000000000000e+02 1.960000000000000000e+02 1.970000000000000000e+02 1.980000000000000000e+02 1.990000000000000000e+02 2.000000000000000000e+02 2.010000000000000000e+02 2.020000000000000000e+02 2.030000000000000000e+02 2.040000000000000000e+02 2.050000000000000000e+02 2.060000000000000000e+02 2.070000000000000000e+02 2.080000000000000000e+02 2.090000000000000000e+02 2.100000000000000000e+02 2.110000000000000000e+02 2.120000000000000000e+02 2.130000000000000000e+02 2.140000000000000000e+02 2.150000000000000000e+02 2.160000000000000000e+02 2.170000000000000000e+02 2.180000000000000000e+02 2.190000000000000000e+02 2.200000000000000000e+02 2.210000000000000000e+02 2.220000000000000000e+02 2.230000000000000000e+02 2.240000000000000000e+02 2.250000000000000000e+02 2.260000000000000000e+02 2.270000000000000000e+02 2.280000000000000000e+02 2.290000000000000000e+02 2.300000000000000000e+02 2.310000000000000000e+02 2.320000000000000000e+02 2.330000000000000000e+02 2.340000000000000000e+02 2.350000000000000000e+02 2.360000000000000000e+02 2.370000000000000000e+02 2.380000000000000000e+02 2.390000000000000000e+02 2.400000000000000000e+02 2.410000000000000000e+02 2.420000000000000000e+02 2.430000000000000000e+02 2.440000000000000000e+02 2.450000000000000000e+02 2.460000000000000000e+02 2.470000000000000000e+02 2.480000000000000000e+02 2.490000000000000000e+02 2.500000000000000000e+02 2.510000000000000000e+02 2.520000000000000000e+02 2.530000000000000000e+02 2.540000000000000000e+02 2.550000000000000000e+02 2.560000000000000000e+02 2.570000000000000000e+02 2.580000000000000000e+02 2.590000000000000000e+02 2.600000000000000000e+02 2.610000000000000000e+02 2.620000000000000000e+02 2.630000000000000000e+02 2.640000000000000000e+02 2.650000000000000000e+02 2.660000000000000000e+02 2.670000000000000000e+02 2.680000000000000000e+02 2.690000000000000000e+02 2.700000000000000000e+02 2.710000000000000000e+02 2.720000000000000000e+02 2.730000000000000000e+02 2.740000000000000000e+02 2.750000000000000000e+02 2.760000000000000000e+02 2.770000000000000000e+02 2.780000000000000000e+02 2.790000000000000000e+02 2.800000000000000000e+02 2.810000000000000000e+02 2.820000000000000000e+02 2.830000000000000000e+02 2.840000000000000000e+02 2.850000000000000000e+02 2.860000000000000000e+02 2.870000000000000000e+02 2.880000000000000000e+02 2.890000000000000000e+02 2.900000000000000000e+02 2.910000000000000000e+02 2.920000000000000000e+02 2.930000000000000000e+02 2.940000000000000000e+02 2.950000000000000000e+02 2.960000000000000000e+02 2.970000000000000000e+02 2.980000000000000000e+02 2.990000000000000000e+02 3.000000000000000000e+02 3.010000000000000000e+02 3.020000000000000000e+02 3.030000000000000000e+02 3.040000000000000000e+02 3.050000000000000000e+02 3.060000000000000000e+02 3.070000000000000000e+02 3.080000000000000000e+02 3.090000000000000000e+02 3.100000000000000000e+02 3.110000000000000000e+02 3.120000000000000000e+02 3.130000000000000000e+02 3.140000000000000000e+02 3.150000000000000000e+02 3.160000000000000000e+02 3.170000000000000000e+02 3.180000000000000000e+02 3.190000000000000000e+02 3.200000000000000000e+02 3.210000000000000000e+02 3.220000000000000000e+02 3.230000000000000000e+02 3.240000000000000000e+02 3.250000000000000000e+02 3.260000000000000000e+02 3.270000000000000000e+02 3.280000000000000000e+02 3.290000000000000000e+02 3.300000000000000000e+02 3.310000000000000000e+02 3.320000000000000000e+02 3.330000000000000000e+02 3.340000000000000000e+02 3.350000000000000000e+02 3.360000000000000000e+02 3.370000000000000000e+02 3.380000000000000000e+02 3.390000000000000000e+02 3.400000000000000000e+02 3.410000000000000000e+02 3.420000000000000000e+02 3.430000000000000000e+02 3.440000000000000000e+02 3.450000000000000000e+02 3.460000000000000000e+02 3.470000000000000000e+02 3.480000000000000000e+02 3.490000000000000000e+02 3.500000000000000000e+02 3.510000000000000000e+02 3.520000000000000000e+02 3.530000000000000000e+02 3.540000000000000000e+02 3.550000000000000000e+02 3.560000000000000000e+02 3.570000000000000000e+02 3.580000000000000000e+02 3.590000000000000000e+02 3.600000000000000000e+02 3.610000000000000000e+02 3.620000000000000000e+02 3.630000000000000000e+02 3.640000000000000000e+02 3.650000000000000000e+02 3.660000000000000000e+02 3.670000000000000000e+02 3.680000000000000000e+02 3.690000000000000000e+02 3.700000000000000000e+02 3.710000000000000000e+02 3.720000000000000000e+02 3.730000000000000000e+02 3.740000000000000000e+02 3.750000000000000000e+02 3.760000000000000000e+02 3.770000000000000000e+02 3.780000000000000000e+02 3.790000000000000000e+02 3.800000000000000000e+02 3.810000000000000000e+02 3.820000000000000000e+02 3.830000000000000000e+02 3.840000000000000000e+02 3.850000000000000000e+02 3.860000000000000000e+02 3.870000000000000000e+02 3.880000000000000000e+02 3.890000000000000000e+02 3.900000000000000000e+02 3.910000000000000000e+02 3.920000000000000000e+02 3.930000000000000000e+02 3.940000000000000000e+02 3.950000000000000000e+02 3.960000000000000000e+02 3.970000000000000000e+02 3.980000000000000000e+02 3.990000000000000000e+02 4.000000000000000000e+02 4.010000000000000000e+02 4.020000000000000000e+02 4.030000000000000000e+02 4.040000000000000000e+02 4.050000000000000000e+02 4.060000000000000000e+02 4.070000000000000000e+02 4.080000000000000000e+02 4.090000000000000000e+02 4.100000000000000000e+02 4.110000000000000000e+02 4.120000000000000000e+02 4.130000000000000000e+02 4.140000000000000000e+02 4.150000000000000000e+02 4.160000000000000000e+02 4.170000000000000000e+02 4.180000000000000000e+02 4.190000000000000000e+02 4.200000000000000000e+02 4.210000000000000000e+02 4.220000000000000000e+02 4.230000000000000000e+02 4.240000000000000000e+02 4.250000000000000000e+02 4.260000000000000000e+02 4.270000000000000000e+02 4.280000000000000000e+02 4.290000000000000000e+02 4.300000000000000000e+02 4.310000000000000000e+02 4.320000000000000000e+02 4.330000000000000000e+02 4.340000000000000000e+02 4.350000000000000000e+02 4.360000000000000000e+02 4.370000000000000000e+02 4.380000000000000000e+02 4.390000000000000000e+02 4.400000000000000000e+02 4.410000000000000000e+02 4.420000000000000000e+02 4.430000000000000000e+02 4.440000000000000000e+02 4.450000000000000000e+02 4.460000000000000000e+02 4.470000000000000000e+02 4.480000000000000000e+02 4.490000000000000000e+02 4.500000000000000000e+02 4.510000000000000000e+02 4.520000000000000000e+02 4.530000000000000000e+02 4.540000000000000000e+02 4.550000000000000000e+02 4.560000000000000000e+02 4.570000000000000000e+02 4.580000000000000000e+02 4.590000000000000000e+02 4.600000000000000000e+02 4.610000000000000000e+02 4.620000000000000000e+02 4.630000000000000000e+02 4.640000000000000000e+02 4.650000000000000000e+02 4.660000000000000000e+02 4.670000000000000000e+02 4.680000000000000000e+02 4.690000000000000000e+02 4.700000000000000000e+02 4.710000000000000000e+02 4.720000000000000000e+02 4.730000000000000000e+02 4.740000000000000000e+02 4.750000000000000000e+02 4.760000000000000000e+02 4.770000000000000000e+02 4.780000000000000000e+02 4.790000000000000000e+02 4.800000000000000000e+02 4.810000000000000000e+02 4.820000000000000000e+02 4.830000000000000000e+02 4.840000000000000000e+02 4.850000000000000000e+02 4.860000000000000000e+02 4.870000000000000000e+02 4.880000000000000000e+02 4.890000000000000000e+02 4.900000000000000000e+02 4.910000000000000000e+02 4.920000000000000000e+02 4.930000000000000000e+02 4.940000000000000000e+02 4.950000000000000000e+02 4.960000000000000000e+02 4.970000000000000000e+02 4.980000000000000000e+02 4.990000000000000000e+02 5.000000000000000000e+02 5.010000000000000000e+02 5.020000000000000000e+02 5.030000000000000000e+02 5.040000000000000000e+02 5.050000000000000000e+02 5.060000000000000000e+02 5.070000000000000000e+02 5.080000000000000000e+02 5.090000000000000000e+02 5.100000000000000000e+02 5.110000000000000000e+02 5.120000000000000000e+02 5.130000000000000000e+02 5.140000000000000000e+02 5.150000000000000000e+02 5.160000000000000000e+02 5.170000000000000000e+02 5.180000000000000000e+02 5.190000000000000000e+02 5.200000000000000000e+02 5.210000000000000000e+02 5.220000000000000000e+02 5.230000000000000000e+02 5.240000000000000000e+02 5.250000000000000000e+02 5.260000000000000000e+02 5.270000000000000000e+02 5.280000000000000000e+02 5.290000000000000000e+02 5.300000000000000000e+02 5.310000000000000000e+02 5.320000000000000000e+02 5.330000000000000000e+02 5.340000000000000000e+02 5.350000000000000000e+02 5.360000000000000000e+02 5.370000000000000000e+02 5.380000000000000000e+02 5.390000000000000000e+02 5.400000000000000000e+02 5.410000000000000000e+02 5.420000000000000000e+02 5.430000000000000000e+02 5.440000000000000000e+02 5.450000000000000000e+02 5.460000000000000000e+02 5.470000000000000000e+02 5.480000000000000000e+02 5.490000000000000000e+02 5.500000000000000000e+02 5.510000000000000000e+02 5.520000000000000000e+02 5.530000000000000000e+02 5.540000000000000000e+02 5.550000000000000000e+02 5.560000000000000000e+02 5.570000000000000000e+02 5.580000000000000000e+02 5.590000000000000000e+02 5.600000000000000000e+02 5.610000000000000000e+02 5.620000000000000000e+02 5.630000000000000000e+02 5.640000000000000000e+02 5.650000000000000000e+02 5.660000000000000000e+02 5.670000000000000000e+02 5.680000000000000000e+02 5.690000000000000000e+02 5.700000000000000000e+02 5.710000000000000000e+02 5.720000000000000000e+02 5.730000000000000000e+02 5.740000000000000000e+02 5.750000000000000000e+02 5.760000000000000000e+02 5.770000000000000000e+02 5.780000000000000000e+02 5.790000000000000000e+02 5.800000000000000000e+02 5.810000000000000000e+02 5.820000000000000000e+02 5.830000000000000000e+02 5.840000000000000000e+02 5.850000000000000000e+02 5.860000000000000000e+02 5.870000000000000000e+02 5.880000000000000000e+02 5.890000000000000000e+02 5.900000000000000000e+02 5.910000000000000000e+02 5.920000000000000000e+02 5.930000000000000000e+02 5.940000000000000000e+02 5.950000000000000000e+02 5.960000000000000000e+02 5.970000000000000000e+02 5.980000000000000000e+02 5.990000000000000000e+02 6.000000000000000000e+02 6.010000000000000000e+02 6.020000000000000000e+02 6.030000000000000000e+02 6.040000000000000000e+02 6.050000000000000000e+02 6.060000000000000000e+02 6.070000000000000000e+02 6.080000000000000000e+02 6.090000000000000000e+02 6.100000000000000000e+02 6.110000000000000000e+02 6.120000000000000000e+02 6.130000000000000000e+02 6.140000000000000000e+02 6.150000000000000000e+02 6.160000000000000000e+02 6.170000000000000000e+02 6.180000000000000000e+02 6.190000000000000000e+02 6.200000000000000000e+02 6.210000000000000000e+02 6.220000000000000000e+02 6.230000000000000000e+02 6.240000000000000000e+02 6.250000000000000000e+02 6.260000000000000000e+02 6.270000000000000000e+02 6.280000000000000000e+02 6.290000000000000000e+02 6.300000000000000000e+02 6.310000000000000000e+02 6.320000000000000000e+02 6.330000000000000000e+02 6.340000000000000000e+02 6.350000000000000000e+02 6.360000000000000000e+02 6.370000000000000000e+02 6.380000000000000000e+02 6.390000000000000000e+02 6.400000000000000000e+02 6.410000000000000000e+02 6.420000000000000000e+02 6.430000000000000000e+02 6.440000000000000000e+02 6.450000000000000000e+02 6.460000000000000000e+02 6.470000000000000000e+02 6.480000000000000000e+02 6.490000000000000000e+02 6.500000000000000000e+02 6.510000000000000000e+02 6.520000000000000000e+02 6.530000000000000000e+02 6.540000000000000000e+02 6.550000000000000000e+02 6.560000000000000000e+02 6.570000000000000000e+02 6.580000000000000000e+02 6.590000000000000000e+02 6.600000000000000000e+02 6.610000000000000000e+02 6.620000000000000000e+02 6.630000000000000000e+02 6.640000000000000000e+02 6.650000000000000000e+02 6.660000000000000000e+02 6.670000000000000000e+02 6.680000000000000000e+02 6.690000000000000000e+02 6.700000000000000000e+02 6.710000000000000000e+02 6.720000000000000000e+02 6.730000000000000000e+02 6.740000000000000000e+02 6.750000000000000000e+02 6.760000000000000000e+02 6.770000000000000000e+02 6.780000000000000000e+02 6.790000000000000000e+02 6.800000000000000000e+02 6.810000000000000000e+02 6.820000000000000000e+02 6.830000000000000000e+02 6.840000000000000000e+02 6.850000000000000000e+02 6.860000000000000000e+02 6.870000000000000000e+02 6.880000000000000000e+02 6.890000000000000000e+02 6.900000000000000000e+02 6.910000000000000000e+02 6.920000000000000000e+02 6.930000000000000000e+02 6.940000000000000000e+02 6.950000000000000000e+02 6.960000000000000000e+02 6.970000000000000000e+02 6.980000000000000000e+02 6.990000000000000000e+02 7.000000000000000000e+02 7.010000000000000000e+02 7.020000000000000000e+02 7.030000000000000000e+02 7.040000000000000000e+02 7.050000000000000000e+02 7.060000000000000000e+02 7.070000000000000000e+02 7.080000000000000000e+02 7.090000000000000000e+02 7.100000000000000000e+02 7.110000000000000000e+02 7.120000000000000000e+02 7.130000000000000000e+02 7.140000000000000000e+02 7.150000000000000000e+02 7.160000000000000000e+02 7.170000000000000000e+02 7.180000000000000000e+02 7.190000000000000000e+02 7.200000000000000000e+02 7.210000000000000000e+02 7.220000000000000000e+02 7.230000000000000000e+02 7.240000000000000000e+02 7.250000000000000000e+02 7.260000000000000000e+02 7.270000000000000000e+02 7.280000000000000000e+02 7.290000000000000000e+02 7.300000000000000000e+02 7.310000000000000000e+02 7.320000000000000000e+02 7.330000000000000000e+02 7.340000000000000000e+02 7.350000000000000000e+02 7.360000000000000000e+02 7.370000000000000000e+02 7.380000000000000000e+02 7.390000000000000000e+02 7.400000000000000000e+02 7.410000000000000000e+02 7.420000000000000000e+02 7.430000000000000000e+02 7.440000000000000000e+02 7.450000000000000000e+02 7.460000000000000000e+02 7.470000000000000000e+02 7.480000000000000000e+02 7.490000000000000000e+02 7.500000000000000000e+02 7.510000000000000000e+02 7.520000000000000000e+02 7.530000000000000000e+02 7.540000000000000000e+02 7.550000000000000000e+02 7.560000000000000000e+02 7.570000000000000000e+02 7.580000000000000000e+02 7.590000000000000000e+02 7.600000000000000000e+02 7.610000000000000000e+02 7.620000000000000000e+02 7.630000000000000000e+02 7.640000000000000000e+02 7.650000000000000000e+02 7.660000000000000000e+02 7.670000000000000000e+02 7.680000000000000000e+02 7.690000000000000000e+02 7.700000000000000000e+02 7.710000000000000000e+02 7.720000000000000000e+02 7.730000000000000000e+02 7.740000000000000000e+02 7.750000000000000000e+02 7.760000000000000000e+02 7.770000000000000000e+02 7.780000000000000000e+02 7.790000000000000000e+02 7.800000000000000000e+02 7.810000000000000000e+02 7.820000000000000000e+02 7.830000000000000000e+02 7.840000000000000000e+02 7.850000000000000000e+02 7.860000000000000000e+02 7.870000000000000000e+02 7.880000000000000000e+02 7.890000000000000000e+02 7.900000000000000000e+02 7.910000000000000000e+02 7.920000000000000000e+02 7.930000000000000000e+02 7.940000000000000000e+02 7.950000000000000000e+02 7.960000000000000000e+02 7.970000000000000000e+02 7.980000000000000000e+02 7.990000000000000000e+02 8.000000000000000000e+02 8.010000000000000000e+02 8.020000000000000000e+02 8.030000000000000000e+02 8.040000000000000000e+02 8.050000000000000000e+02 8.060000000000000000e+02 8.070000000000000000e+02 8.080000000000000000e+02 8.090000000000000000e+02 8.100000000000000000e+02 8.110000000000000000e+02 8.120000000000000000e+02 8.130000000000000000e+02 8.140000000000000000e+02 8.150000000000000000e+02 8.160000000000000000e+02 8.170000000000000000e+02 8.180000000000000000e+02 8.190000000000000000e+02 8.200000000000000000e+02 8.210000000000000000e+02 8.220000000000000000e+02 8.230000000000000000e+02 8.240000000000000000e+02 8.250000000000000000e+02 8.260000000000000000e+02 8.270000000000000000e+02 8.280000000000000000e+02 8.290000000000000000e+02 8.300000000000000000e+02 8.310000000000000000e+02 8.320000000000000000e+02 8.330000000000000000e+02 8.340000000000000000e+02 8.350000000000000000e+02 8.360000000000000000e+02 8.370000000000000000e+02 8.380000000000000000e+02 8.390000000000000000e+02 8.400000000000000000e+02 8.410000000000000000e+02 8.420000000000000000e+02 8.430000000000000000e+02 8.440000000000000000e+02 8.450000000000000000e+02 8.460000000000000000e+02 8.470000000000000000e+02 8.480000000000000000e+02 8.490000000000000000e+02 8.500000000000000000e+02 8.510000000000000000e+02 8.520000000000000000e+02 8.530000000000000000e+02 8.540000000000000000e+02 8.550000000000000000e+02 8.560000000000000000e+02 8.570000000000000000e+02 8.580000000000000000e+02 8.590000000000000000e+02 8.600000000000000000e+02 8.610000000000000000e+02 8.620000000000000000e+02 8.630000000000000000e+02 8.640000000000000000e+02 8.650000000000000000e+02 8.660000000000000000e+02 8.670000000000000000e+02 8.680000000000000000e+02 8.690000000000000000e+02 8.700000000000000000e+02 8.710000000000000000e+02 8.720000000000000000e+02 8.730000000000000000e+02 8.740000000000000000e+02 8.750000000000000000e+02 8.760000000000000000e+02 8.770000000000000000e+02 8.780000000000000000e+02 8.790000000000000000e+02 8.800000000000000000e+02 8.810000000000000000e+02 8.820000000000000000e+02 8.830000000000000000e+02 8.840000000000000000e+02 8.850000000000000000e+02 8.860000000000000000e+02 8.870000000000000000e+02 8.880000000000000000e+02 8.890000000000000000e+02 8.900000000000000000e+02 8.910000000000000000e+02 8.920000000000000000e+02 8.930000000000000000e+02 8.940000000000000000e+02 8.950000000000000000e+02 8.960000000000000000e+02 8.970000000000000000e+02 8.980000000000000000e+02 8.990000000000000000e+02
1.111111111111111154e-02 1.111111111111111154e-02 1.111111111111111154e-02 1.111111111111111154e-02 1.111111111111111154e-02 1.111111111111111154e-02 1.111111111111111154e-02 1.111111111111111154e-02 1.111111111111111154e-02 1.111111111111111154e-02 1.111111111111111154e-02 1.111111111111111154e-02 1.111111111111111154e-02 1.111111111111111154e-02 1.111111111111111154e-02 1.111111111111111154e-02 1.111111111111111154e-02 1.111111111111111154e-02 1.111111111111111154e-02 1.111111111111111154e-02 1.111111111111111154e-02 1.111111111111111154e-02 1.111111111111111154e-02 1.111111111111111154e-02 1.111111111111111154e-02 1.111111111111111154e-02 1.111111111111111154e-02 1.111111111111111154e-02 1.111111111111111154e-02 1.111111111111111154e-02 1.111111111111111154e-02 1.111111111111111154e-02 1.111111111111111154e-02 1.111111111111111154e-02 1.111111111111111154e-02 1.111111111111111154e-02 1.111111111111111154e-02 1.111111111111111154e-02 1.111111111111111154e-02 1.111111111111111154e-02 1.111111111111111154e-02 1.111111111111111154e-02 1.111111111111111154e-02 1.111111111111111154e-02 1.111111111111111154e-02 1.111111111111111154e-02 1.111111111111111154e-02 1.111111111111111154e-02 1.111111111111111154e-02 1.111111111111111154e-02 1.111111111111111154e-02 1.111111111111111154e-02 1.111111111111111154e-02 1.111111111111111154e-02 1.111111111111111154e-02 1.111111111111111154e-02 1.111111111111111154e-02 1.111111111111111154e-02 1.111111111111111154e-02 1.111111111111111154e-02 1.111111111111111154e-02 1.111111111111111154e-02 1.111111111111111154e-02 1.111111111111111154e-02 1.111111111111111154e-02 1.111111111111111154e-02 1.111111111111111154e-02 1.111111111111111154e-02 1.111111111111111154e-02 1.111111111111111154e-02 1.111111111111111154e-02 1.111111111111111154e-02 1.111111111111111154e-02 1.111111111111111154e-02 1.111111111111111154e-02 1.111111111111111154e-02 1.111111111111111154e-02 1.111111111111111154e-02 1.111111111111111154e-02 1.111111111111111154e-02 1.111111111111111154e-02 1.111111111111111154e-02 1.111111111111111154e-02 1.111111111111111154e-02 1.111111111111111154e-02 1.111111111111111154e-02 1.111111111111111154e-02 1.111111111111111154e-02 1.111111111111111154e-02 1.111111111111111154e-02 1.111111111111111154e-02 1.111111111111111154e-02 1.111111111111111154e-02 1.111111111111111154e-02 1.111111111111111154e-02 1.111111111111111154e-02 1.111111111111111154e-02 1.111111111111111154e-02 1.111111111111111154e-02 1.111111111111111154e-02 1.111111111111111154e-02 1.111111111111111154e-02 1.111111111111111154e-02 1.111111111111111154e-02 1.111111111111111154e-02 1.111111111111111154e-02 1.111111111111111154e-02 1.111111111111111154e-02 1.111111111111111154e-02 1.111111111111111154e-02 1.111111111111111154e-02 1.111111111111111154e-02 1.111111111111111154e-02 1.111111111111111154e-02 1.111111111111111154e-02 1.111111111111111154e-02 1.111111111111111154e-02 1.111111111111111154e-02 1.111111111111111154e-02 1.111111111111111154e-02 1.111111111111111154e-02 1.111111111111111154e-02 1.111111111111111154e-02 1.111111111111111154e-02 1.111111111111111154e-02 1.111111111111111154e-02 1.111111111111111154e-02 1.111111111111111154e-02 1.111111111111111154e-02 1.111111111111111154e-02 1.111111111111111154e-02 1.111111111111111154e-02 1.111111111111111154e-02 1.111111111111111154e-02 1.111111111111111154e-02 1.111111111111111154e-02 1.111111111111111154e-02 1.111111111111111154e-02 1.111111111111111154e-02 1.111111111111111154e-02 1.111111111111111154e-02 1.111111111111111154e-02 1.111111111111111154e-02 1.111111111111111154e-02 1.111111111111111154e-02 1.111111111111111154e-02 1.111111111111111154e-02 1.111111111111111154e-02 1.111111111111111154e-02 1.111111111111111154e-02 1.111111111111111154e-02 1.111111111111111154e-02 1.111111111111111154e-02 1.111111111111111154e-02 1.111111111111111154e-02 1.111111111111111154e-02 1.111111111111111154e-02 1.111111111111111154e-02 1.111111111111111154e-02 1.111111111111111154e-02 1.111111111111111154e-02 1.111111111111111154e-02 1.111111111111111154e-02 1.111111111111111154e-02 1.111111111111111154e-02 1.111111111111111154e-02 1.111111111111111154e-02 1.111111111111111154e-02 1.111111111111111154e-02 1.111111111111111154e-02 1.111111111111111154e-02 1.111111111111111154e-02 1.111111111111111154e-02 1.111111111111111154e-02 1.111111111111111154e-02 1.111111111111111154e-02 1.111111111111111154e-02 1.111111111111111154e-02 1.111111111111111154e-02 1.111111111111111154e-02 1.111111111111111154e-02 1.111111111111111154e-02 1.111111111111111154e-02 1.111111111111111154e-02 1.111111111111111154e-02 1.111111111111111154e-02 1.111111111111111154e-02 1.111111111111111154e-02 1.111111111111111154e-02 1.111111111111111154e-02 1.111111111111111154e-02 1.111111111111111154e-02 1.111111111111111154e-02 1.111111111111111154e-02 1.111111111111111154e-02 1.111111111111111154e-02 1.111111111111111154e-02 1.111111111111111154e-02 1.111111111111111154e-02 1.111111111111111154e-02 1.111111111111111154e-02 1.111111111111111154e-02 1.111111111111111154e-02 1.111111111111111154e-02 1.111111111111111154e-02 1.111111111111111154e-02 1.111111111111111154e-02 1.111111111111111154e-02 1.111111111111111154e-02 1.111111111111111154e-02 1.111111111111111154e-02 1.111111111111111154e-02 1.111111111111111154e-02 1.111111111111111154e-02 1.111111111111111154e-02 1.111111111111111154e-02 1.111111111111111154e-02 1.111111111111111154e-02 1.111111111111111154e-02 1.111111111111111154e-02 1.111111111111111154e-02 1.111111111111111154e-02 1.111111111111111154e-02 1.111111111111111154e-02 1.111111111111111154e-02 1.111111111111111154e-02 1.111111111111111154e-02 1.111111111111111154e-02 1.111111111111111154e-02 1.111111111111111154e-02 1.111111111111111154e-02 1.111111111111111154e-02 1.111111111111111154e-02 1.111111111111111154e-02 1.111111111111111154e-02 1.111111111111111154e-02 1.111111111111111154e-02 1.111111111111111154e-02 1.111111111111111154e-02 1.111111111111111154e-02 1.111111111111111154e-02 1.111111111111111154e-02 1.111111111111111154e-02 1.111111111111111154e-02 1.111111111111111154e-02 1.111111111111111154e-02 1.111111111111111154e-02 1.111111111111111154e-02 1.111111111111111154e-02 1.111111111111111154e-02 1.111111111111111154e-02 1.111111111111111154e-02 1.111111111111111154e-02 1.111111111111111154e-02 1.111111111111111154e-02 1.111111111111111154e-02 1.111111111111111154e-02 1.111111111111111154e-02 1.111111111111111154e-02 1.111111111111111154e-02 1.111111111111111154e-02 1.111111111111111154e-02 1.111111111111111154e-02 1.111111111111111154e-02 1.111111111111111154e-02 1.111111111111111154e-02 1.111111111111111154e-02 1.111111111111111154e-02 1.111111111111111154e-02 1.111111111111111154e-02 1.111111111111111154e-02 1.111111111111111154e-02 1.111111111111111154e-02 1.111111111111111154e-02 1.111111111111111154e-02 1.111111111111111154e-02 1.111111111111111154e-02 1.111111111111111154e-02 1.111111111111111154e-02 1.111111111111111154e-02 1.111111111111111154e-02 1.111111111111111154e-02 1.111111111111111154e-02 1.111111111111111154e-02 1.111111111111111154e-02 1.111111111111111154e-02 1.111111111111111154e-02 1.111111111111111154e-02 1.111111111111111154e-02 1.111111111111111154e-02 1.111111111111111154e-02 1.111111111111111154e-02 1.111111111111111154e-02 1.111111111111111154e-02 1.111111111111111154e-02 1.111111111111111154e-02 1.111111111111111154e-02 1.111111111111111154e-02 1.111111111111111154e-02 1.111111111111111154e-02 1.111111111111111154e-02 1.111111111111111154e-02 1.111111111111111154e-02 1.111111111111111154e-02 1.111111111111111154e-02 1.111111111111111154e-02 1.111111111111111154e-02 1.111111111111111154e-02 1.111111111111111154e-02 1.111111111111111154e-02 1.111111111111111154e-02 1.111111111111111154e-02 1.111111111111111154e-02 1.111111111111111154e-02 1.111111111111111154e-02 1.111111111111111154e-02 1.111111111111111154e-02 1.111111111111111154e-02 1.111111111111111154e-02 1.111111111111111154e-02 1.111111111111111154e-02 1.111111111111111154e-02 1.111111111111111154e-02 1.111111111111111154e-02 1.111111111111111154e-02 1.111111111111111154e-02 1.111111111111111154e-02 1.111111111111111154e-02 1.111111111111111154e-02 1.111111111111111154e-02 1.111111111111111154e-02 1.111111111111111154e-02 1.111111111111111154e-02 1.111111111111111154e-02 1.111111111111111154e-02 1.111111111111111154e-02 1.111111111111111154e-02 1.111111111111111154e-02 1.111111111111111154e-02 1.111111111111111154e-02 1.111111111111111154e-02 1.111111111111111154e-02 1.111111111111111154e-02 1.111111111111111154e-02 1.111111111111111154e-02 1.111111111111111154e-02 1.111111111111111154e-02 1.111111111111111154e-02 1.111111111111111154e-02 1.111111111111111154e-02 1.111111111111111154e-02 1.111111111111111154e-02 1.111111111111111154e-02 1.111111111111111154e-02 1.111111111111111154e-02 1.111111111111111154e-02 1.111111111111111154e-02 1.111111111111111154e-02 1.111111111111111154e-02 1.111111111111111154e-02 1.111111111111111154e-02 1.111111111111111154e-02 1.111111111111111154e-02 1.111111111111111154e-02 1.111111111111111154e-02 1.111111111111111154e-02 1.111111111111111154e-02 1.111111111111111154e-02 1.111111111111111154e-02 1.111111111111111154e-02 1.111111111111111154e-02 1.111111111111111154e-02 1.111111111111111154e-02 1.111111111111111154e-02 1.111111111111111154e-02 1.111111111111111154e-02 1.111111111111111154e-02 1.111111111111111154e-02 1.111111111111111154e-02 1.111111111111111154e-02 1.111111111111111154e-02 1.111111111111111154e-02 1.111111111111111154e-02 1.111111111111111154e-02 1.111111111111111154e-02 1.111111111111111154e-02 1.111111111111111154e-02 1.111111111111111154e-02 1.111111111111111154e-02 1.111111111111111154e-02 1.111111111111111154e-02 1.111111111111111154e-02 1.111111111111111154e-02 1.111111111111111154e-02 1.111111111111111154e-02 1.111111111111111154e-02 1.111111111111111154e-02 1.111111111111111154e-02 1.111111111111111154e-02 1.111111111111111154e-02 1.111111111111111154e-02 1.111111111111111154e-02 1.111111111111111154e-02 1.111111111111111154e-02 1.111111111111111154e-02 1.111111111111111154e-02 1.111111111111111154e-02 1.111111111111111154e-02 1.111111111111111154e-02 1.111111111111111154e-02 1.111111111111111154e-02 1.111111111111111154e-02 1.111111111111111154e-02 1.111111111111111154e-02 1.111111111111111154e-02 1.111111111111111154e-02 1.111111111111111154e-02 1.111111111111111154e-02 1.111111111111111154e-02 1.111111111111111154e-02 1.111111111111111154e-02 1.111111111111111154e-02 1.111111111111111154e-02 1.111111111111111154e-02 1.111111111111111154e-02 1.111111111111111154e-02 1.111111111111111154e-02 1.111111111111111154e-02 1.111111111111111154e-02 1.111111111111111154e-02 1.111111111111111154e-02 1.111111111111111154e-02 1.111111111111111154e-02 1.111111111111111154e-02 1.111111111111111154e-02 1.111111111111111154e-02 1.111111111111111154e-02 1.111111111111111154e-02 1.111111111111111154e-02 1.111111111111111154e-02 1.111111111111111154e-02 1.111111111111111154e-02 1.111111111111111154e-02 1.111111111111111154e-02 1.111111111111111154e-02 1.111111111111111154e-02 1.111111111111111154e-02 1.111111111111111154e-02 1.111111111111111154e-02 1.111111111111111154e-02 1.111111111111111154e-02 1.111111111111111154e-02 1.111111111111111154e-02 1.111111111111111154e-02 1.111111111111111154e-02 1.111111111111111154e-02 1.111111111111111154e-02 1.111111111111111154e-02 1.111111111111111154e-02 1.111111111111111154e-02 1.111111111111111154e-02 1.111111111111111154e-02 1.111111111111111154e-02 1.111111111111111154e-02 1.111111111111111154e-02 1.111111111111111154e-02 1.111111111111111154e-02 1.111111111111111154e-02 1.111111111111111154e-02 1.111111111111111154e-02 1.111111111111111154e-02 1.111111111111111154e-02 1.111111111111111154e-02 1.111111111111111154e-02 1.111111111111111154e-02 1.111111111111111154e-02 1.111111111111111154e-02 1.111111111111111154e-02 1.111111111111111154e-02 1.111111111111111154e-02 1.111111111111111154e-02 1.111111111111111154e-02 1.111111111111111154e-02 1.111111111111111154e-02 1.111111111111111154e-02 1.111111111111111154e-02 1.111111111111111154e-02 1.111111111111111154e-02 1.111111111111111154e-02 1.111111111111111154e-02 1.111111111111111154e-02 1.111111111111111154e-02 1.111111111111111154e-02 1.111111111111111154e-02 1.111111111111111154e-02 1.111111111111111154e-02 1.111111111111111154e-02 1.111111111111111154e-02 1.111111111111111154e-02 1.111111111111111154e-02 1.111111111111111154e-02 1.111111111111111154e-02 1.111111111111111154e-02 1.111111111111111154e-02 1.111111111111111154e-02 1.111111111111111154e-02 1.111111111111111154e-02 1.111111111111111154e-02 1.111111111111111154e-02 1.111111111111111154e-02 1.111111111111111154e-02 1.111111111111111154e-02 1.111111111111111154e-02 1.111111111111111154e-02 1.111111111111111154e-02 1.111111111111111154e-02 1.111111111111111154e-02 1.111111111111111154e-02 1.111111111111111154e-02 1.111111111111111154e-02 1.111111111111111154e-02 1.111111111111111154e-02 1.111111111111111154e-02 1.111111111111111154e-02 1.111111111111111154e-02 1.111111111111111154e-02 1.111111111111111154e-02 1.111111111111111154e-02 1.111111111111111154e-02 1.111111111111111154e-02 1.111111111111111154e-02 1.111111111111111154e-02 1.111111111111111154e-02 1.111111111111111154e-02 1.111111111111111154e-02 1.111111111111111154e-02 1.111111111111111154e-02 1.111111111111111154e-02 1.111111111111111154e-02 1.111111111111111154e-02 1.111111111111111154e-02 1.111111111111111154e-02 1.111111111111111154e-02 1.111111111111111154e-02 1.111111111111111154e-02 1.111111111111111154e-02 1.111111111111111154e-02 1.111111111111111154e-02 1.111111111111111154e-02 1.111111111111111154e-02 1.111111111111111154e-02 1.111111111111111154e-02 1.111111111111111154e-02 1.111111111111111154e-02 1.111111111111111154e-02 1.111111111111111154e-02 1.111111111111111154e-02 1.111111111111111154e-02 1.111111111111111154e-02 1.111111111111111154e-02 1.111111111111111154e-02 1.111111111111111154e-02 1.111111111111111154e-02 1.111111111111111154e-02 1.111111111111111154e-02 1.111111111111111154e-02 1.111111111111111154e-02 1.111111111111111154e-02 1.111111111111111154e-02 1.111111111111111154e-02 1.111111111111111154e-02 1.111111111111111154e-02 1.111111111111111154e-02 1.111111111111111154e-02 1.111111111111111154e-02 1.111111111111111154e-02 1.111111111111111154e-02 1.111111111111111154e-02 1.111111111111111154e-02 1.111111111111111154e-02 1.111111111111111154e-02 1.111111111111111154e-02 1.111111111111111154e-02 1.111111111111111154e-02 1.111111111111111154e-02 1.111111111111111154e-02 1.111111111111111154e-02 1.111111111111111154e-02 1.111111111111111154e-02 1.111111111111111154e-02 1.111111111111111154e-02 1.111111111111111154e-02 1.111111111111111154e-02 1.111111111111111154e-02 1.111111111111111154e-02 1.111111111111111154e-02 1.111111111111111154e-02 1.111111111111111154e-02 1.111111111111111154e-02 1.111111111111111154e-02 1.111111111111111154e-02 1.111111111111111154e-02 1.111111111111111154e-02 1.111111111111111154e-02 1.111111111111111154e-02 1.111111111111111154e-02 1.111111111111111154e-02 1.111111111111111154e-02 1.111111111111111154e-02 1.111111111111111154e-02 1.111111111111111154e-02 1.111111111111111154e-02 1.111111111111111154e-02 1.111111111111111154e-02 1.111111111111111154e-02 1.111111111111111154e-02 1.111111111111111154e-02 1.111111111111111154e-02 1.111111111111111154e-02 1.111111111111111154e-02 1.111111111111111154e-02 1.111111111111111154e-02 1.111111111111111154e-02 1.111111111111111154e-02 1.111111111111111154e-02 1.111111111111111154e-02 1.111111111111111154e-02 1.111111111111111154e-02 1.111111111111111154e-02 1.111111111111111154e-02 1.111111111111111154e-02 1.111111111111111154e-02 1.111111111111111154e-02 1.111111111111111154e-02 1.111111111111111154e-02 1.111111111111111154e-02 1.111111111111111154e-02 1.111111111111111154e-02 1.111111111111111154e-02 1.111111111111111154e-02 1.111111111111111154e-02 1.111111111111111154e-02 1.111111111111111154e-02 1.111111111111111154e-02 1.111111111111111154e-02 1.111111111111111154e-02 1.111111111111111154e-02 1.111111111111111154e-02 1.111111111111111154e-02 1.111111111111111154e-02 1.111111111111111154e-02 1.111111111111111154e-02 1.111111111111111154e-02 1.111111111111111154e-02 1.111111111111111154e-02 1.111111111111111154e-02 1.111111111111111154e-02 1.111111111111111154e-02 1.111111111111111154e-02 1.111111111111111154e-02 1.111111111111111154e-02 1.111111111111111154e-02 1.111111111111111154e-02 1.111111111111111154e-02 1.111111111111111154e-02 1.111111111111111154e-02 1.111111111111111154e-02 1.111111111111111154e-02 1.111111111111111154e-02 1.111111111111111154e-02 1.111111111111111154e-02 1.111111111111111154e-02 1.111111111111111154e-02 1.111111111111111154e-02 1.111111111111111154e-02 1.111111111111111154e-02 1.111111111111111154e-02 1.111111111111111154e-02 1.111111111111111154e-02 1.111111111111111154e-02 1.111111111111111154e-02 1.111111111111111154e-02 1.111111111111111154e-02 1.111111111111111154e-02 1.111111111111111154e-02 1.111111111111111154e-02 1.111111111111111154e-02 1.111111111111111154e-02 1.111111111111111154e-02 1.111111111111111154e-02 1.111111111111111154e-02 1.111111111111111154e-02 1.111111111111111154e-02 1.111111111111111154e-02 1.111111111111111154e-02 1.111111111111111154e-02 1.111111111111111154e-02 1.111111111111111154e-02 1.111111111111111154e-02 1.111111111111111154e-02 1.111111111111111154e-02 1.111111111111111154e-02 1.111111111111111154e-02 1.111111111111111154e-02 1.111111111111111154e-02 1.111111111111111154e-02 1.111111111111111154e-02 1.111111111111111154e-02 1.111111111111111154e-02 1.111111111111111154e-02 1.111111111111111154e-02 1.111111111111111154e-02 1.111111111111111154e-02 1.111111111111111154e-02 1.111111111111111154e-02 1.111111111111111154e-02 1.111111111111111154e-02 1.111111111111111154e-02 1.111111111111111154e-02 1.111111111111111154e-02 1.111111111111111154e-02 1.111111111111111154e-02 1.111111111111111154e-02 1.111111111111111154e-02 1.111111111111111154e-02 1.111111111111111154e-02 1.111111111111111154e-02 1.111111111111111154e-02 1.111111111111111154e-02 1.111111111111111154e-02 1.111111111111111154e-02 1.111111111111111154e-02 1.111111111111111154e-02 1.111111111111111154e-02 1.111111111111111154e-02 1.111111111111111154e-02 1.111111111111111154e-02 1.111111111111111154e-02 1.111111111111111154e-02 1.111111111111111154e-02 1.111111111111111154e-02 1.111111111111111154e-02 1.111111111111111154e-02 1.111111111111111154e-02 1.111111111111111154e-02 1.111111111111111154e-02 1.111111111111111154e-02 1.111111111111111154e-02 1.111111111111111154e-02 1.111111111111111154e-02 1.111111111111111154e-02 1.111111111111111154e-02 1.111111111111111154e-02 1.111111111111111154e-02 1.111111111111111154e-02 1.111111111111111154e-02 1.111111111111111154e-02 1.111111111111111154e-02 1.111111111111111154e-02 1.111111111111111154e-02 1.111111111111111154e-02 1.111111111111111154e-02 1.111111111111111154e-02 1.111111111111111154e-02 1.111111111111111154e-02 1.111111111111111154e-02 1.111111111111111154e-02 1.111111111111111154e-02 1.111111111111111154e-02 1.111111111111111154e-02 1.111111111111111154e-02 1.111111111111111154e-02 1.111111111111111154e-02 1.111111111111111154e-02 1.111111111111111154e-02 1.111111111111111154e-02 1.111111111111111154e-02 1.111111111111111154e-02 1.111111111111111154e-02 1.111111111111111154e-02 1.111111111111111154e-02 1.111111111111111154e-02 1.111111111111111154e-02 1.111111111111111154e-02 1.111111111111111154e-02 1.111111111111111154e-02 1.111111111111111154e-02 1.111111111111111154e-02 1.111111111111111154e-02 1.111111111111111154e-02 1.111111111111111154e-02 1.111111111111111154e-02 1.111111111111111154e-02 1.111111111111111154e-02 1.111111111111111154e-02 1.111111111111111154e-02 1.111111111111111154e-02 1.111111111111111154e-02 1.111111111111111154e-02 1.111111111111111154e-02 1.111111111111111154e-02 1.111111111111111154e-02 1.111111111111111154e-02 1.111111111111111154e-02 1.111111111111111154e-02 1.111111111111111154e-02 1.111111111111111154e-02 1.111111111111111154e-02 1.111111111111111154e-02 1.111111111111111154e-02 1.111111111111111154e-02 1.111111111111111154e-02 1.111111111111111154e-02 1.111111111111111154e-02 1.111111111111111154e-02 1.111111111111111154e-02 1.111111111111111154e-02 1.111111111111111154e-02 1.111111111111111154e-02 1.111111111111111154e-02 1.111111111111111154e-02 1.111111111111111154e-02 1.111111111111111154e-02 1.111111111111111154e-02 1.111111111111111154e-02 1.111111111111111154e-02 1.111111111111111154e-02 1.111111111111111154e-02 1.111111111111111154e-02 1.111111111111111154e-02 1.111111111111111154e-02 1.111111111111111154e-02 1.111111111111111154e-02 1.111111111111111154e-02 1.111111111111111154e-02 1.111111111111111154e-02 1.111111111111111154e-02 1.111111111111111154e-02 1.111111111111111154e-02 1.111111111111111154e-02 1.111111111111111154e-02 1.111111111111111154e-02 1.111111111111111154e-02 1.111111111111111154e-02 1.111111111111111154e-02 1.111111111111111154e-02 1.111111111111111154e-02 1.111111111111111154e-02 1.111111111111111154e-02 1.111111111111111154e-02 1.111111111111111154e-02 1.111111111111111154e-02 1.111111111111111154e-02 1.111111111111111154e-02 1.111111111111111154e-02 1.111111111111111154e-02 1.111111111111111154e-02 1.111111111111111154e-02 1.111111111111111154e-02 1.111111111111111154e-02 1.111111111111111154e-02 1.111111111111111154e-02 1.111111111111111154e-02 1.111111111111111154e-02 1.111111111111111154e-02 1.111111111111111154e-02 1.111111111111111154e-02 1.111111111111111154e-02 1.111111111111111154e-02 1.111111111111111154e-02 1.111111111111111154e-02 1.111111111111111154e-02 1.111111111111111154e-02 1.111111111111111154e-02 1.111111111111111154e-02 1.111111111111111154e-02 1.111111111111111154e-02 1.111111111111111154e-02 1.111111111111111154e-02 1.111111111111111154e-02 1.111111111111111154e-02 1.111111111111111154e-02 1.111111111111111154e-02 1.111111111111111154e-02 1.111111111111111154e-02 1.111111111111111154e-02 1.111111111111111154e-02 1.111111111111111154e-02 1.111111111111111154e-02 1.111111111111111154e-02 1.111111111111111154e-02 1.111111111111111154e-02 1.111111111111111154e-02 1.111111111111111154e-02 1.111111111111111154e-02 1.111111111111111154e-02 1.111111111111111154e-02 1.111111111111111154e-02 1.111111111111111154e-02 1.111111111111111154e-02
6.408303135343321744e-01 -6.584101339306173972e-02 -5.373882822237346923e-01 -9.388043753871170294e-01 -3.482176927181745291e-02 4.121545573103376214e-01 6.571394442561574456e-01 1.845958713673623741e+00 8.667286151494327795e-01 1.408481016931291796e+00 -1.448766378827254508e-01 -8.092293758675805915e-01 -6.762311049986587941e-01 -3.344822365468040348e-01 1.627428924350542649e+00 9.194091289876189510e-01 8.617562833768358521e-01 4.789289489665969901e-01 -1.818392386018541917e-01 -3.651953959652871062e-01 2.957796057155289926e+00 -2.558098722361353161e+00 -2.382377668002053916e-01 -3.468184319524550419e-01 2.056620218619666096e-01 7.247794104111057734e-02 -7.292441325554626097e-01 -1.684272430157545131e+00 -2.648960789543673977e-01 -4.507779152689643243e-01 8.838957822515035312e-02 -1.403769217177912143e+00 4.291200122755148838e-01 -1.233465377319996392e+00 -1.279870662389306579e+00 -4.281584361593337475e-03 -8.212315986296199188e-01 1.145062217070234034e+00 -1.772605320641230886e+00 1.406869575579169362e+00 9.442045633295020890e-01 9.229380034329288662e-01 1.401203811385896003e+00 2.059356253255561153e+00 -1.338172449423999655e-01 -1.106914600036161406e-01 2.401441876639022754e-01 -2.803104306476794094e-01 1.710962065267320087e+00 2.515191966073251351e-01 6.664651563045909111e-01 1.789458731479863160e-02 1.172424080240055844e+00 -2.121880956188822720e-01 -6.280994426688665255e-01 7.362110028738306777e-01 -8.514875806103340272e-01 9.769054033658923775e-01 1.553395333421122571e-01 1.046959336254910777e+00 -5.155633911347319576e-02 1.938407842084195698e+00 5.205402655037468657e-02 2.863288124246089472e-01 -1.670850784448904836e-01 -1.130434285527990995e-01 5.434088276523182381e-01 8.073213300486983823e-02 -1.288546311497301700e-01 6.400316729427822926e-01 -8.139035106252903162e-01 -2.150843053469758459e+00 -1.091575112671549164e+00 -7.547741818953852821e-02 4.730125192259762024e-01 2.870920811085399205e+00 -1.161559453384222174e-01 -1.170139688804447520e+00 -5.413252932912741011e-01 -4.029648809016708744e-01 4.655753089379341958e-01 -7.559154189080923014e-02 3.734338767466691134e-01 3.874044259162119364e-01 -6.355601397620490589e-01 1.774848219960476037e+00 -1.375463189583274293e+00 4.389154819651217010e-01 4.188468104322298213e-01 9.526980386800906753e-02 -3.294136708615417741e-01 -2.224456066198710613e-01 -3.295363359050145768e-01 -3.585223513171486021e-01 -4.303722352195891998e-02 1.624099647834157389e+00 -1.981439102772244443e-01 -5.043939135063781887e-01 7.620050936163718092e-01 -1.393144904320632593e-01 1.945867206166902896e+00 1.507232496495056973e+00 2.333075383642455591e+00 3.566926447562495106e-01 -4.960775814801479111e-01 -7.172438363245303705e-02 1.883711121311150816e+00 1.044712888309625720e+00 -2.336903789593162417e-01 -4.395025959481241862e-01 -1.252993764965592227e+00 2.544173993322098037e-01 1.176261560964720676e+00 4.860020806800010029e-01 -5.465475023967368839e-01 -1.639290046255275635e-01 -3.755892836985764704e-01 1.247634592973934087e+00 -2.088931909163960488e-01 1.129218891593643859e+00 4.253308900613115839e-01 1.057122315775017446e-01 -4.356473681174677925e-01 1.940096828058647471e+00 1.030270305486588267e+00 1.959405578790816282e-01 -2.108957678675710268e-02 -1.203853287807840067e+00 -5.099617399875435719e-01 -1.164557710702061738e-01 5.055919798361477868e-01 1.335015538838358606e-01 -4.251849691275292886e-01 -5.862185323984420160e-01 7.362502621774852374e-01 -1.150911793294530527e+00 1.785340410488201801e+00 -1.066448256381466786e+00 6.619134472828274163e-01 7.014874519485227167e-02 -6.009711995680270258e-01 -8.019343071020746949e-01 -4.793692364384202209e-01 -1.443248783652250955e+00 -9.072881475308316457e-01 9.551217649007962551e-01 7.889992577840202470e-01 2.264059214197672656e-02 -5.552970451983207933e-01 -5.980207090193048192e-01 5.056216543921115969e-01 -1.090651855332420928e+00 -1.284197063227533908e+00 -1.260685506469819028e+00 8.031153452406305515e-01 4.013466633026135377e-01 -4.863815604826300376e-01 2.176961317632164217e-01 -2.445132166412679608e-01 1.925448443105244600e-01 1.186765438631003144e+00 -7.468378027380170314e-01 -6.303712453596077570e-01 -9.026499698667911353e-01 3.059546973730292718e-01 -2.236917991533732553e-01 -9.790069300486682335e-01 1.191993379542030940e-01 -4.393448275699714523e-01 -5.615019160794230135e-01 8.008646855751478943e-01 -6.983103107986297076e-01 1.641670677242749621e+00 2.003156166827014251e-01 7.661227899687046428e-01 2.386765835211508424e-01 -1.248808103336923159e+00 -1.464529319171148647e-01 -4.084481242131567935e-01 1.157726820915229382e+00 1.620061862836171540e-01 1.875631239981132792e+00 8.225691609004148752e-01 3.628477704397113923e-01 3.167748128260046148e-01 -4.032817607366052659e-01 -2.941084543185045960e-02 -1.364709483192216632e+00 2.832541545898444868e-01 -4.665601566864415739e-01 -5.355905914876831764e-01 9.547499469742218858e-01 3.266265585896845458e+00 4.995615687027816776e-01 9.040057701408482638e-01 -9.644327469175665302e-01 -2.227849666923805705e-01 1.894717249890646604e+00 -4.232249043197180427e-01 1.668840850401972942e+00 3.471747971976499314e-01 -9.387842850209122680e-01 -3.107347771780507029e-01 -9.561087133946691852e-01 5.502946425948855858e-01 2.008583005049906056e+00 3.764842260280452657e-01 4.066410932201964812e-01 1.109843457313790083e+00 8.993833133539007596e-01 -1.003226530688114959e+00 1.053047652260052924e+00 2.333241990133533950e+00 -4.515574522024343174e-02 2.538587131029315658e-02 1.568479798967717664e-01 2.745445148646170064e-01 3.183260692372116840e-01 -4.490774391484539940e-01 -2.261640062071994250e-01 2.972920655073199026e+00 7.309090735005293604e-01 6.633303693506288345e-01 4.125542901941928187e-01 -1.473953583621174790e-01 7.016150227110660165e-01 -2.323653927466505509e-01 2.575680033055488191e-02 3.369699233258849347e-02 7.949195030264334660e-02 -9.718490744008375648e-01 4.782906233904762328e-01 8.899749240962018249e-02 -2.477647521806874753e+00 -1.300447875948761212e+00 2.076736613748983440e-02 -3.083841857513801576e-01 -2.791120593637213404e-02 1.334729156876390821e+00 9.108610648137652754e-01 -2.107640889759752945e+00 -3.074040873686457176e-01 -4.446693694529776919e-01 2.098939827909113376e+00 -3.054789857413700016e-01 9.754740493882108066e-02 -1.380005230950906436e-01 -2.543867255191192278e-01 -1.604655080840196035e+00 2.214262099984430909e-01 1.426351303489304112e-01 1.803870990440364031e+00 -1.130905908990947228e+00 -1.664447809980869497e+00 -1.743422972773068513e-01 7.392382291804328043e-02 -5.369530943431753967e-01 1.345314025595661267e+00 -2.216918614039740387e-01 1.463861707218540309e-01 9.138444286049319798e-01 -1.376230990883704763e-01 -8.247672926227039847e-01 4.516126462442099920e-01 -7.909955565529294130e-01 -5.429269828704689216e-01 1.161763119556992407e+00 6.217097006109510993e-01 2.159055956927224962e+00 8.338793688593806874e-02 5.388698444514451458e-01 2.465795357688054246e-01 -3.207276016332815782e+00 -1.370658104762783880e-01 -8.704727891098797965e-01 -2.073777356916186587e+00 -2.136337593412567681e+00 -3.030786167201538484e-01 1.438888651714362643e+00 -6.845364783926882746e-02 5.372852523169772132e-01 1.473247941042449272e-01 -5.780735701653504366e-01 2.810580235302736485e-01 1.238669898962118099e-01 5.154002867917302499e-02 3.005252976808355236e-01 -3.975226242778887725e-02 -4.480340624787203935e-02 6.344775560881048271e-02 -1.839377459520574964e+00 -2.563885319933331131e-01 1.367508214790884136e+00 -4.931694748843911125e-01 1.929630143963629585e-01 6.770978902461239901e-01 6.222803762628456026e-01 -1.904843087664724599e-01 -1.566699209478633170e+00 7.587851563801863153e-02 1.841897390340750285e+00 1.529975665522653516e+00 4.133662804936442114e-01 -9.896938750365475573e-03 1.958802244463052400e+00 1.102816334474501891e+00 -1.051923684412851889e+00 -2.405433213301937656e-01 9.694951746462379116e-01 1.240095891701326059e+00 7.321590174496257764e-02 -3.891719913285159871e-01 2.321479457754626607e-01 -3.227090084861745645e+00 1.389143012234714147e+00 6.958851118500712918e-01 -7.181553085343433951e-02 9.739686456882805654e-01 -1.239376634582265213e+00 2.969935562305289767e-01 6.355127006524604605e-01 -7.538292213229269567e-02 2.239769943229970472e+00 4.840836101981069173e-01 -1.048192839265558618e+00 2.970442558678605960e-01 4.747888188986774671e-01 1.535289883686838719e+00 5.457095792156346770e-02 -1.300095941986423753e+00 -1.091243531220358998e+00 9.655391248361125944e-01 4.576387621599095068e-01 2.724066435673290210e-01 -2.039106960857361539e+00 6.920380237801045942e-01 -9.421710512555165895e-01 4.390395146665450055e-01 1.308462359369773509e+00 1.013022615197824994e-01 1.951165541927199598e+00 -1.275282499126612762e-02 -5.730462266721652043e-01 -1.016806835683950611e-01 -1.778788664972809297e+00 -6.448046900063816311e-01 -1.567089953269697578e+00 1.228518748934869675e+00 -3.535165571466461487e-01 -6.743412321422302680e-02 1.048121061389338138e+00 1.432433998690803234e+00 -4.819109943219115205e-02 -2.078861169499744976e-01 -2.246018965806825030e+00 -2.008002267140570340e-01 -3.273276593698309922e-01 -6.295100370539498114e-01 -4.760129011504378171e-01 -4.533401405070490719e-01 -1.946109276484467299e-01 -1.853139073420899119e-01 -8.114139911797123295e-03 3.376029929333364266e-02 -1.895163637566194548e-01 6.780202583818173423e-01 1.521229341744913532e-01 -7.703115541336070793e-01 -3.449445287056467913e-01 -4.066951194912161727e-01 -2.300247527214429877e-01 1.319117038581655299e+00 -2.530663162522928111e-01 -1.057634826659392902e+00 1.328604872821476324e+00 1.016928452877605027e+00 7.872953495006017599e-01 1.096017161580960186e+00 1.166819705158630427e-01 -7.141568649673010749e-02 1.512050045849668622e+00 -4.598898411882839654e-01 2.041502768311657778e+00 2.325341258854226822e+00 -6.203438458856695981e-01 7.582989299575544351e-01 5.332634873180311930e-01 4.676957814760571153e-02 3.588601734683408706e-01 -2.997311182264859597e-01 8.158935119907587685e-01 -1.014813416095080578e+00 -8.691395999411503093e-01 -6.650164965822444874e-01 3.865992727529317108e-01 6.521503823270438094e-01 5.846286709612555921e-01 -9.091558413092696300e-01 2.425625058359846820e-01 6.882635384539773638e-01 1.315748640518221269e+00 4.974108438707036672e-01 5.835641283915055794e-02 -2.699447369945303432e+00 5.735966145273855288e-01 4.893302578820452609e-01 1.615965165622806676e+00 4.046106005975292352e-01 4.649296732237531704e-01 -1.263820879484911730e+00 -1.672851903331546541e+00 6.043289730510400526e-01 4.483550276998772288e-01 -1.570434267017545293e-01 1.374730969959818694e+00 3.765147871379886935e-01 -3.170195165306202156e-01 3.822529385319591300e-01 -1.060956618423656156e-01 2.087490213877084777e+00 -1.048208676410515849e+00 -2.556537986967425180e+00 -4.725817769069725616e-01 -8.044731106353335548e-01 -5.055505089369940475e-01 -9.713576900621704313e-01 -2.893103809889545075e-01 -2.379078969872991112e-01 -2.353302435698640949e-01 -4.794110611280155143e-01 5.663439768779595651e-01 5.401458845838359446e-01 -3.817304878278364177e-01 8.535707576830654508e-01 -2.186161115744032490e-01 7.715185838839109245e-01 -4.341854634297999116e-01 3.621224752302544814e-01 2.042115697086527987e-02 1.147275305563230097e+00 -2.436811715691814539e-01 1.258700791546417230e+00 2.427366062810018266e-01 -2.466528809728433913e+00 1.114696404434055488e+00 2.630335549517091032e+00 3.658309356153092717e-01 4.754943377333077925e-01 7.235505063553944183e-01 3.242245471252274136e-01 4.944185507108815880e-01 -4.285765257620695323e-02 2.074968453297370896e+00 -1.054651046098194489e-01 -5.697798183401862060e-01 3.473976938773024603e-01 1.156378103740060143e-01 2.158243439353505710e+00 1.068843787084426733e+00 2.392172765693364178e-01 -3.863711459176140117e-01 6.795288608797163121e-01 4.950324446540714241e-01 1.334203998690592696e+00 -4.242847034399808703e-01 -4.290694852410677496e-01 -1.458490004306865595e+00 -5.104090568643847581e-01 2.797124733619794412e+00 -4.452665372479762129e-01 -1.529558927342297703e-01 -2.284632389271164854e+00 1.700263502781161673e+00 -2.714779519857583701e+00 -9.205732557768167013e-01 -1.800744380582728565e+00 4.660035925901781506e-01 -1.154702375354835109e+00 3.948789853980247955e-01 -5.571450542546537710e-01 -1.748475466595346139e-01 -5.459781609652550882e-01 -5.317232363890457281e-01 7.880693941962142457e-01 -1.772517738119913089e-01 -3.021948413713869130e-01 -1.225675001564806577e+00 2.802904198495743682e+00 -6.215271504854839035e-01 -2.166652978471730884e-01 1.027042943847223666e-01 -1.335040696021664308e+00 6.354464513139057580e-01 -6.210536699051323328e-01 1.939759968883960073e-01 2.197111782478647690e+00 -6.314685593857735091e-01 1.362489764916871016e+00 4.309840373547311199e-01 2.237763676497438181e-02 -7.381806276491226226e-01 4.707934071587224767e-01 6.491476032858544132e-01 7.572805683834458179e-01 -3.948676455231975857e-01 1.742514796791225784e-01 -1.818075487304482651e+00 -1.771031009847768289e-01 -6.170504957380650024e-02 -6.801697213012057874e-01 -6.412983035433789114e-01 -2.154153157642313965e-01 -4.322845689739862607e-01 -1.545837989766578324e-01 -4.200459532956755671e-01 -5.791881824884511643e-01 -1.743378153431156985e+00 -1.177668205348315900e-01 1.311373514787655403e-01 1.248450161047187867e+00 -1.597186637314132129e+00 1.417664171640950821e+00 -1.411018780573232823e+00 -8.374450321230613170e-01 -1.083117901730924482e+00 1.595619058625089570e+00 2.817753014031594561e-02 4.305750801707329267e-01 1.353454344885225868e+00 5.124647088355541724e-01 -3.998951368521417860e-01 1.531709203457175261e-01 8.544003661687942230e-01 1.583603969962219526e+00 6.094570104848008318e-01 -7.276552574441313981e-02 -9.607738814005660766e-01 -1.210917241067422656e-01 -4.379809175429104084e-01 -3.681352523000980259e-01 8.167695359024226831e-02 -5.341096387222566966e-01 -3.008116514279361442e-01 2.336032948345420746e+00 6.455130580474385815e-02 -2.473973445566050700e+00 -3.321541552465250846e-01 2.273311664201751903e+00 8.433996705812067951e-01 -5.348868890709795876e-01 5.948455923448197069e-01 2.529339746255397259e+00 6.200516282721894035e-01 3.589404328220859031e-02 7.489218432195799968e-01 -5.763027359487998824e-01 -3.792540034381549630e-01 3.226413923056267730e-01 9.093610078921839923e-01 -8.612436110616766838e-01 2.094435565226377083e+00 6.935162431185026843e-01 4.425258490313065951e-01 -2.654906161395632624e-01 2.835938359465400627e+00 -1.164669426367929361e+00 8.180731486360974802e-01 -1.695353251286737972e+00 1.097075822879951534e-01 1.558307622748065446e+00 3.135359524194716752e+00 -1.427068093951606942e+00 -1.109189341383548522e+00 2.019513092955576905e+00 6.048964517948851594e-01 7.950616877497480584e-01 1.652276851128023250e+00 -3.062671913698966630e-01 1.599803428467532207e-01 -4.419323078875454502e-01 5.765830524769134380e-01 2.673140244611804661e+00 5.646567764335667094e-01 3.134991489810953214e-01 1.031210180497394768e+00 2.620276720976473239e-01 7.542564138643121918e-01 -1.192070879164445651e+00 3.225597561055427720e-01 -2.736872028477024127e-02 -9.289886023517347491e-01 4.495647580179286396e-02 -2.868046967411918557e-01 -2.052000889812490847e+00 -5.747311320533278201e-01 2.270741764339178348e-01 8.782409740783700958e-01 3.629826152877399514e-01 1.449835935039472279e+00 -2.861711028827457759e-01 1.281088614026311134e-01 2.931859545884052953e-01 3.766524482776042321e-02 2.769294726507857685e-01 1.475439564019831278e-02 6.940038428105754775e-01 2.251558516361798379e+00 -2.506887159331982473e-01 -6.775877000359812330e-01 -3.581217957922753770e-01 1.656333962328086495e-01 9.654557190151987767e-01 -1.569318027865488796e+00 -1.029748295901635524e+00 -1.078528942358177423e+00 1.864963116875675841e-01 4.678943787579265545e-01 5.983173906096358463e-01 6.631355214911823781e-01 -6.309132116809751389e-01 4.026274793268384555e-01 -3.943480536193464947e-01 -5.693112601253844107e-02 4.621020076782680897e-01 8.219490269600340793e-02 -2.254890616983553198e+00 -5.703673403243153528e-01 -6.791935096112015069e-01 3.264613706476372501e-01 3.976609212786296199e-01 -1.598854868788982669e-02 -1.268312592997655530e+00 1.237112516970121145e+00 -9.030156593249570873e-01 -5.108588676243791538e-01 2.149053337467904390e-01 4.455551040519103445e+00 -3.175632801521999227e+00 -6.213419309616697861e-01 1.253976171172937804e+00 9.544401340728794203e-01 5.202572431895360339e-01 -1.336523991905090192e+00 -3.421234664817267568e-01 -1.030390286964449453e+00 1.124062219953092967e+00 5.869509465544028304e-01 1.176816931522751242e+00 5.698177733135743050e-01 4.303368464580214492e-01 -2.339486053094516974e-02 4.128769436268929227e-01 -9.530245550338265481e-01 -3.056597196463943233e-01 1.907246828222751087e-02 1.836912504278498171e+00 -8.543863813006716823e-01 7.019512435939837536e-01 4.338475387525153160e+00 2.952251630224284051e-01 -1.250180581565548898e+00 4.764995319164358478e-02 -3.577978812813927267e-01 1.039845137305794864e+00 5.113693572496519346e-01 1.378129710954997256e+00 1.014780167119561094e-02 5.574269104462337143e-01 6.247517639974023984e-01 5.055122435404566517e-01 2.800238209642574194e+00 -1.713174753522371807e+00 5.730252098074454237e-01 2.074668860061160969e-01 6.244368851072552573e-01 -5.856309703268245404e-01 2.284371929896885867e+00 -1.728933406993642397e+00 1.072544507816190817e+00 -6.092523615220155758e-02 -5.053503175242808343e-01 -7.902672509259769246e-03 -1.593382331499002685e-02 -5.505265044207299785e-04 -4.468966652735457262e-02 1.910128883057689575e-01 -1.742855733477026992e-01 -1.179720060818674421e+00 -7.901033284513225841e-01 5.089138744492733846e-01 7.489058812487869865e-02 1.929177824054404133e-01 2.545173643499651361e-01 5.887174262254911694e-01 5.620404713728950341e-01 9.562931949579657198e-01 -4.771401462374773028e-01 1.424821698468161868e+00 1.730697962622780584e-01 -8.766422568944112204e-01 -3.526668260001711852e-01 1.837093837560318299e+00 -5.681799571281751504e-01 -1.444286049270311567e+00 -1.469013910264296285e+00 6.098870304467138848e-01 -3.738953583267395908e-01 1.349779064221568570e+00 1.297716261546460137e+00 -8.208168739623439292e-01 -2.781780945628273827e-01 4.110244486299453825e+00 -4.059397861801467000e-02 -1.219124187149197125e+00 2.213063057163959790e-01 5.548268467335455423e-01 -1.707117664111768685e+00 9.506480771683982756e-01 -9.167729026659650060e-01 -3.056937912313959504e-01 8.595714569897533464e-02 -1.392995203964657813e+00 3.392670838059616223e+00 1.298971909652782530e+00 -2.187909856670757325e+00 -8.130167578692020225e-01 1.199107682769719574e+00 6.352937881848932378e-01 -1.484523664761710493e-01 -4.486275941601533646e+00 -3.766638209173527874e-01 -1.251214948043762210e+00 -2.503998891147312555e+00 2.793272442895905261e+00 -7.830630189299053745e-01 5.696066251735961705e-01 1.095923491917817127e+00 1.187761140369410162e+00 -3.355853939202616543e-01 5.977699246370586916e-01 -4.316841509967762058e-01 -1.694835671911706143e+00 4.130257925420444121e-02 2.855644643852794373e-01 -6.163948689733722563e-01 3.785792877342878948e-01 1.262414104128228853e+00 7.616789408894105717e-01 -2.026481370229653578e-01 -1.294719581345614712e+00 -2.449324135923345858e-01 3.856579208208871790e-01 -9.672246310138880032e-01 -4.532497386467572720e-01 -2.102203121516909690e+00 1.657479093697461936e+00 -1.201475250091838420e+00 2.047989218447717474e-01 -4.635536271383072782e-02 1.781498667821488913e-01 -1.351787027194311763e+00 -1.099515593478634479e+00 -8.669396581436270566e-01 -1.093126840330697555e-02 1.856616615646495827e+00 -1.236973117124607446e+00 -1.617488099751676955e+00 -1.290369598145072683e+00 -2.384648198707484956e-01 -7.164357828241800785e-01 1.056534331468875987e+00 7.546571078122170650e-01 1.633180884060087212e+00 3.561955461213335283e+00 -4.404782984875979523e-01 4.606465037977086063e-01 7.690978305831073225e-01 -1.101555035181570164e+00 2.648414512485847694e-01 6.404374464359271490e-01 1.728280069199149283e-01 -1.343075388141269366e+00 -3.862527337997050392e-01 1.083614653703275588e+00 7.119938266590478682e-01 4.665004303053447154e-01 -4.024252509410513046e-01 1.105320528263942226e+00 6.668729399787163281e-01 -2.626697392718539970e-01 -2.125676418457407291e+00 3.863046748312510270e-01 6.974537566885264939e-01 3.990707411929037551e-01 -6.374837883719333131e-01 -7.638210449810884928e-01 -4.805480255889460484e-01 8.587515884163121616e-02 -2.462743631091565799e+00 3.325848186579568599e-01 -3.085034413376887663e+00 1.199560907649841690e+00 6.753305953399509759e-03 -2.087551763349073941e-01 -1.447733943625879371e+00 7.612416052937022171e-01 2.097796981716777698e-01 1.492871286907401507e-01 8.674563448058597581e-01 2.024999740177571894e+00 -1.396483693349108268e+00 2.995981757459785122e+00 1.088750209320609397e+00 -1.180003077864942990e-01 -3.157249315591623695e+00 -1.596152799999880578e+00 4.044284293029520860e-01 2.542111166189162108e-01 -1.983408796224433446e-01 -5.028932226298400698e-02 -3.373297047838865192e-01 2.007005498292768197e-01 2.029027437313603688e+00 1.464793172613029493e-01 1.666568791259634530e+00 6.186638917308220353e-01 2.403241790044260640e+00 -6.207589990786942513e-01 -4.405756517349828094e-01 -9.435373156204956979e-01 1.138028824927963756e+00 4.811354571733873486e-01 7.900088595689729321e-01 6.293566792111605634e-01 -2.425920751316386070e+00 -3.812630892889990464e-01 9.846924784645755269e-02 5.230343735243495051e-02 -8.054333814456442475e-01 6.668306429490513665e-01 -9.972485312186214479e-01 -1.968941554516798753e+00 -9.556451913931500730e-01 2.699971865651912273e-01 -6.784364938577912563e-01 1.337399695949819181e-02 1.604221508039251676e+00 3.192752025420921846e-01 -1.399752896849644657e+00 1.712860855803443882e-01 6.807701656491906006e-02 1.094099504718115956e-01 -6.909128275252641727e-01 2.568790169611832597e-01 1.232389856734374511e+00 -2.669743956190538725e+00 2.930901558054677114e-01 -3.571377096872998536e-01 -1.577619065438443879e+00 2.434049715260691027e+00 6.361467897873387400e-01 -1.165417348926489849e+00 -2.190755608507445884e-01 5.984640731306319905e-01 -4.662449714956125035e-01 -9.573812406806088415e-02 -3.637631050192906279e-02 -3.028997920819159057e-02 -1.289137811311634962e+00 -5.804327278995660144e-01 2.338339153510330670e-01 8.274794967648395339e-02 5.171153843150210205e-01 -3.104004778855775193e+00 2.825993643710004832e+00 -1.486494175960472841e+00 -9.843036618027689588e-01 -1.502573572457777118e+00 2.622168909964766481e+00 2.888929192224079859e-02 -3.335070549883044078e-01 8.910124528834135749e-01 -7.950539772517212223e-01 -1.881578158650690918e-02 6.802205506461403428e-02 3.977137078301435369e-01 -9.571832751408133610e-01 -1.474898024212261891e-02 -2.667284398128585421e-01 5.029109727830111121e-02 1.238696733749169887e+00 -6.591450194037104526e-02 7.009747482944232999e-01 7.013967162934003907e-01 -2.289626470050725615e+00 9.659361242864721309e-01 -8.229347200736637502e-01 3.513874492817570805e-01 4.009209425376566993e-01 -2.004885916469993923e-01
-8.264873542000863438e-01 5.713220722409148022e-01 1.712017314877482127e-02 6.379187659784518738e-02 -1.401634839945933519e+00 1.026362451739826875e+00 2.078717087947402842e+00 -2.719921348552482243e+00 -1.112665975772736821e-01 -2.522339715732156429e-01 8.914915317999898559e-01 -4.578851785072177716e-01 5.663346292593217646e-01 2.173689193062691427e-01 -1.753275070928047574e+00 6.033944541176357035e-01 -1.295538396147014049e-02 -1.183966615493266206e+00 1.174357926162335197e-01 3.620828251010674848e-01 4.468771948429078655e+00 -9.956793714755142466e-02 -8.441107885031299274e-01 -1.384685048055699585e+00 1.636913566889292848e-01 -5.996373178605635124e-01 -2.234912085520058544e-01 4.096724936630347091e-01 2.427709904096670701e-01 1.051987243580955189e-01 -1.624002259753127841e-01 -1.597980332269007597e+00 1.078895247673235414e+00 1.774801446756606449e-01 5.495895034292688219e-01 1.432096418025162743e+00 -1.180187659470593869e-01 1.672132030242047818e-01 4.416713519264873211e-01 -1.058899501523784092e+00 -5.755683429875713825e-02 -1.769408622065377967e+00 2.726444600053929967e-01 1.102584478022313297e+00 4.637242446582535704e-01 7.235886270652855945e-01 4.831823216120743059e-01 -9.464159119482833116e-02 -3.076621519480398637e-01 6.016403943952183808e-02 -4.046620863878036545e-01 5.193854267726292218e-01 2.567930158419363673e-01 3.432029743758725493e-01 6.656246626039216130e-01 -2.372825306279481850e-01 1.409755923966117819e-01 1.165817196649034493e+00 1.675364760754005644e-01 8.852057409750001549e-01 8.893976064960944228e-03 9.056461918840329473e-01 5.250520830755841528e-01 2.972108187649260547e-01 -5.911693551280273740e-01 -1.713342582832797778e-01 5.052213578076987233e-01 -4.838832584923178359e-01 4.861835753957731709e-01 3.195548195509050338e-01 1.578877927556234240e-01 4.118476726418318079e-01 2.167895224581995350e+00 -1.779249316339235998e+00 -1.819426751999366765e+00 -4.894633952837622592e-01 3.788562874622688481e-01 -7.398017501921070327e-01 5.045548967244226635e-01 1.195777848129185195e+00 -1.267970156204028809e-01 -7.683917236806859785e-01 1.745707245700436200e-02 -5.854109519348859036e-01 -5.404368337949864154e-01 1.011680375527513442e+00 1.963465320729654406e+00 5.924854511001063917e-02 -1.998173413349437988e+00 9.708230356782990289e-02 6.863191998032708296e-02 -1.308735035365115595e-01 -4.565469140158301409e-02 1.618241469693128542e-01 1.831502248936647703e+00 4.799801891303727697e-01 1.465532709793715416e-01 8.046064311191583052e-01 1.145283206694466260e+00 7.952823846527952434e-02 -7.009504729260646050e-01 9.750326628137628848e-01 8.774860860615358860e-01 -1.314633028726336139e+00 2.769136343307431192e-01 -1.826998723794735768e-01 -1.778987098898766051e-01 -5.955383594202544595e-01 1.213824517258851543e+00 -3.292440513435330174e-01 -2.262203068270456363e-01 2.738046161044646043e-01 -7.625716462794773776e-01 -1.552169378897592766e+00 1.471633943129750266e+00 -3.140882184781069175e-01 1.896421665028405479e-01 4.712758170014008652e-01 3.302190461317998649e-01 -1.123020452066968211e+00 2.575320230891864903e-01 3.429772000493922501e-01 4.301495853367467287e-02 3.851678113114281876e-01 -4.128054235721361209e-01 -7.419685290513119424e-01 7.513242616347058922e-01 3.025276315733762544e-01 9.706602083279519677e-01 -1.307554015384430612e-01 -9.765421130226341340e-02 1.015574440379869436e+00 1.394346633951438319e+00 1.092016516188794695e+00 -1.729098220419735377e+00 1.581919300542430351e-01 3.566736314205719641e-03 -9.798106666021425548e-01 1.278556445394491092e+00 4.974762558441319649e-01 1.868609513526987564e+00 -1.032030557361401479e+00 -4.173497098863401256e-01 -5.241761482945982431e-01 4.903452760134404675e-01 2.890906016168531267e-01 2.100629878061436862e-01 -6.719075608549205381e-01 -5.600397329387932777e-01 4.306812638199457033e-01 -9.222442820782861261e-02 2.901745343956439349e+00 1.232320975937598373e+00 4.046641191349784061e-02 1.616250658504454707e+00 -1.802768591243798790e-01 -9.233757470383204824e-01 -1.659205639035415611e-02 -1.499345715358808562e+00 -2.596990122832416592e+00 2.229650941735308312e+00 -1.290347555799011836e+00 -1.138663728676401893e-01 3.401279879787481031e-01 6.295669994084354681e-02 -1.758460665376466447e-01 6.822132873731163727e-01 1.415166913565849838e-01 1.380531905098096868e-01 -7.141218996107389083e-01 2.374891945227608048e+00 1.095610038601407599e+00 -2.865725147852380861e+00 2.254303564366784141e+00 -2.728000299770705794e+00 4.504963383291791246e-01 -4.539268379427637612e+00 -2.420342232670153748e-01 -1.370575582052079022e-01 -2.047895903341193424e+00 6.671167286756440884e-01 -6.222551592314002900e-01 -1.368452993487203617e-01 -8.730387776007964007e-02 -5.750708010554737848e-02 2.219127184741834583e-02 -1.307145548399414769e+00 -5.089642432120163873e-01 1.187663015838030384e-01 4.656804356340951689e-02 7.133832080773663820e-02 -1.760940321977864320e+00 -9.503504118229951780e-01 6.094756064343146429e-01 -5.927665765045233431e-02 1.021797132339501868e+00 7.732365213557368389e-01 1.976879469197077910e+00 -7.277418864316350655e-01 3.293128967899086046e-01 3.018701427514570934e+00 1.470900969644457046e+00 -1.243897247756479141e-01 3.126697706966186652e-01 -2.592861324588525140e-01 -2.145121060161502835e-01 1.447456013916491036e-01 -6.980649135311119136e-02 8.655019012753573104e-01 1.487312846071064676e-01 -3.806404768212118483e+00 4.603536337552431856e-01 7.740826926371777716e-01 1.047123866958875826e+00 9.850783991543624607e-01 -1.212647972678759123e+00 1.379389557643381892e+00 -6.310363876077202949e-01 -1.736899542574223410e-01 2.257774524488844747e-01 1.520084981150026937e-01 6.192750478895263644e-01 1.141862800880883155e-01 6.085562277227635208e-01 8.324118835132078564e-02 2.557409889061503794e-01 1.306211491305389605e-01 2.169260904260615352e-01 -1.668794066383740005e-01 -1.586277161761490417e-01 -1.029456680163227000e+00 -1.779497122699361389e-01 2.327302106377234781e-01 2.455716467963879879e-01 -6.458157020744095256e-01 8.637495675367266035e-01 -2.091640861195864509e-01 -8.477929113160456165e-01 -1.264512103134682597e-01 2.710490046579894230e-01 -1.061177561937308944e+00 5.765171144786720436e-01 -8.181187188181531234e-01 -1.376262199077628257e+00 -5.782729247176482401e-01 -1.053659136207567432e-01 2.222016919201015919e-02 1.497924896658530125e+00 7.293089503417541364e-01 -4.528114349865864918e-01 -7.624797158206305658e-01 -1.041020510501434071e+00 -2.960804163225578378e+00 7.023385007600657648e-02 2.548715413473554015e-01 -6.685082402317664707e-01 -4.599695525464420759e-02 3.043236496608711650e-01 1.765197372851991631e+00 -1.147474174824673204e-01 -2.985652695890497643e+00 1.602733496857305096e-01 1.049482153446428256e-01 -4.575791365036250280e-01 -1.583832283728139056e-01 3.681915568076160827e+00 9.863002711572473880e-01 -4.175087121585133176e-01 -1.023574672022279586e+00 6.775451591333423451e-01 -4.266554016727402421e-01 1.872442945737187447e-01 -8.354647708570512865e-01 5.037544301306642186e-02 -4.968841754971146107e-01 -3.332594096000305761e+00 2.969335714858963304e-01 -6.108187696913731646e-01 1.196923896157602751e+00 4.390498855607565809e-01 4.041491769385216482e-01 -1.500320328612399390e+00 1.202711716072344839e+00 9.504370754472777350e-01 3.947491614168691099e-01 1.180529080266969344e-01 4.289483241816632875e-03 -7.854009681703150170e-01 6.955120755868550164e-01 3.062991461488732275e-02 9.020233587707145173e-02 1.365794937560546263e+00 6.071813019870646311e-02 -4.624352825988882199e-01 2.102908409122815070e-01 4.382932217840982969e-01 -5.906831571277932902e-01 2.995160991161857286e-02 3.604735055817537837e-01 1.685359470554877781e+00 5.537988424615979399e-01 -2.543049526528592952e-01 -4.863112183830836655e-01 -9.884180384666758634e-01 -5.584533321639078007e-01 -3.078521122741724736e-01 -1.820410470360881161e-01 -4.257322300014976801e-01 -7.048565973791967587e-02 1.568707860313308666e-01 4.260352917332790312e-01 -1.549050727760943047e-01 -1.200608734446831360e-01 4.423276927111420287e-01 7.175982078021338195e-02 1.585074128013697958e+00 -2.549391922739351890e-01 -8.776487299841166934e-01 8.380018274189053873e-01 7.237662972737661515e-02 3.237284709575279917e-01 6.243548607583587762e-01 -3.857215823985405967e-01 -6.564975072328524952e-01 6.287693097141169307e-01 1.254138488722490452e+00 1.279626794483221947e-02 -5.616536050100908728e-01 -4.236213867540489786e-01 -5.233661503149114047e-01 -3.099555196185344030e+00 4.673897230188470142e-01 -1.171360796517235903e+00 2.269679386583621228e-01 5.197587265387683120e-01 -3.033226944564466065e-01 -1.149759346196472576e+00 -1.782422571875905692e-01 -1.534272815297781645e-01 -1.345484926382317648e+00 1.710848762583231930e-01 -6.438692610759656487e-01 6.652867868849324795e-01 1.383914672385975653e+00 3.568263440493943950e+00 -1.313882361972246171e+00 -4.831277728807066851e-01 -2.290347668891754285e-01 -1.268903077348994268e-01 -2.273746227132382280e+00 5.414416799052430562e-01 -2.094986388741447714e-01 -4.064316579883961444e-01 1.024725042096387817e+00 -5.481138914085513791e-01 -5.239184551452582550e-01 -8.610989516037257374e-01 -5.265288462391157775e-01 6.176958793292700589e-01 1.562032339108667123e-01 6.811958495162505622e-01 -9.089199092414276815e-02 -3.968459641173105457e-01 4.546609498328922361e-01 7.481191942960621066e-01 4.511850321481163939e-01 -4.005550057832271693e-01 5.390270912296394323e-01 -6.870427671115358903e-02 2.721950710295013010e-01 -4.306147937662322400e-01 7.452432962064671207e-01 1.119557649955269740e+00 -2.889515652835463300e+00 -8.348726373932632283e-01 -1.173310835758982984e+00 4.740525029424424441e-01 -3.933956286021115023e+00 6.862266739933038373e-01 -5.551263508163962745e-01 1.184663104430514258e+00 2.411978593633738177e-01 -7.861731482855481845e-01 1.555945841413351127e+00 5.360159286971408754e-01 -1.033751783087396348e+00 5.946030392968362221e-01 2.430857804236996322e-01 5.308530921592318208e-01 9.052523147826905259e-01 3.322049841851606455e-01 -8.479512644251899767e-01 -3.902911341351117391e-01 3.355764155552573236e+00 -8.270482493509450084e-01 -3.085031158885197522e-01 8.049845980102507403e-02 -1.180946610011049724e+00 -5.753496711523959917e-01 -1.469814087373653599e+00 -4.844012895946144814e-01 1.544713330644809646e-01 -1.882928343713329011e-01 1.195551936613826527e+00 -2.894104804513686346e-02 -7.800779485973560745e-02 2.962170661188919668e-02 3.060628436023477561e-01 -6.619760510760159811e-01 -2.836782709861094709e+00 -1.626073690425187346e+00 2.544401025441571651e+00 -9.714824281286850161e-01 9.219408387072837163e-01 -4.341497105360170305e-01 -7.426106948978437039e-01 2.725809733150862169e+00 -1.061424989216097403e+00 -1.102887828048388363e-01 3.808270014955791871e-01 5.203220562695483054e-01 5.131639046671502280e-01 -6.881812908746678947e-02 3.620066289116147806e-01 1.808227765707037249e-01 1.500249592963096568e+00 7.972973543747766678e-01 -2.566153796343700333e-01 -1.172164769380222626e+00 -4.158758387676185775e-01 -5.139984437196410960e-01 -1.598991625353454404e+00 5.931212332143332988e-01 2.848866171598742003e+00 -4.538800040441214739e-02 2.033731212841386693e+00 -1.571120617119519114e-01 1.741352689802298792e-01 -6.820020515249770598e-01 -1.487400497620789686e-01 2.439394798954782395e+00 -1.327248669721104168e-01 1.345801853409051840e-01 2.114731786807051872e+00 1.210856757181669963e+00 -1.074071142174862104e+00 8.169868837442783027e-01 -4.045445117403643764e-01 1.563266244365861590e+00 5.625577972016425343e-02 1.352675274995862875e-01 8.658304586121131630e-01 8.064933460763478168e-01 4.904537363700280928e-01 1.360419512272127707e-01 1.740895759457827152e+00 -1.260389340063352348e+00 1.646326747010514069e+00 1.239551109836511511e+00 -8.152210658119088960e-01 -1.025500277315784387e-01 2.452020389089990260e-01 -2.082324887567880700e-01 3.033537788785620748e-01 1.146991601854838505e+00 -6.309420623061622047e-02 -2.375605400285921043e+00 -1.228053750310734576e-01 -1.151844246565254082e+00 7.880093393495732901e-01 5.574175299884059909e-01 1.452631094397355049e+00 3.883328280218811268e-01 -8.995981748348320650e-01 -1.237227952135100395e+00 2.737351910655497544e+00 5.195718302148697454e-01 9.900713682567028329e-01 4.717849975671385421e-01 1.232336439128292271e+00 1.392370416352784135e+00 5.200683862088788523e-01 6.029035955184686157e-01 -9.235480106925283983e-02 1.453485833638484478e-02 1.557076556012192137e-01 -1.754628602907578605e+00 -1.597479601857961784e+00 1.903191682898774051e+00 -1.343814955112139775e-01 2.568532726576296943e-01 1.672878834615418198e+00 -2.796318290806292794e-01 -6.682007856064778872e-01 2.434653494485369052e+00 9.345785926358214368e-01 2.227809835829359209e+00 -3.940064686204987066e-01 2.447158641082269603e-01 2.418650741048898878e-01 1.764186857551488519e+00 -4.954686527370646409e-01 4.768023327212018297e-02 -3.651365240195362794e-01 2.472969579017650910e-01 -1.577018635063930363e+00 1.549039315342464959e-02 6.828218996743650182e-01 -7.449092277820751340e-02 -4.317714290049424752e-01 -3.720078478634807340e-01 9.137798064364007766e-01 6.900810417106240102e-01 -1.249157053038378734e-01 1.651415374282692916e+00 -1.121026376386386192e-01 2.714755576890863775e-01 3.933684498568534305e-01 7.325283151770009549e-02 5.818827966434061416e-01 -9.483674085842772605e-01 4.431259589431320589e-01 -5.872312980104873459e-01 -1.758978786020958474e+00 -8.894145758119181844e-01 -6.176728914906011170e-01 1.428018749036986668e+00 -1.983372738831852555e-01 -1.359351601506544549e+00 1.136425538804765489e+00 -7.883611903377546470e-01 -1.305540993944276640e-01 1.168058694391738150e+00 -3.227690550051619534e-01 2.289242132995004952e-01 -8.448394377890976470e-01 -2.002126415858783426e-01 3.274876415343742631e-01 5.285755080971836772e-01 -2.989421057417861530e-02 -5.667831469535830058e-01 4.358448377887820802e-01 -3.662355512078370734e-01 -2.184057598518847954e+00 1.485447670147623356e+00 -2.890736908598414701e+00 -1.893384292751522646e-01 -2.045451155182283764e-01 6.712165779161570756e-01 -3.627069707638484464e-01 1.090382596383188574e+00 -5.138324817919565080e-01 1.605281719958623898e-01 -6.178807637096211947e-01 6.557187279882199515e-01 -1.674874098779475906e+00 -4.788048223201821219e-02 1.238828478629711682e+00 3.381520431749210354e-01 1.887961070165897981e+00 -2.380462229773275151e+00 -1.051625690282222303e+00 -1.091698647179179194e+00 1.112953680243057519e+00 5.116518350903503931e-01 7.180223762216401129e-01 -2.102079535077514827e-01 -1.987497243243190048e-01 -6.594936411674243715e-01 5.332571441428521908e-01 -2.868323782903542174e+00 1.429319493307009248e+00 -2.006047511819307072e+00 1.337189837985637841e-01 -2.157107811708026401e-01 -5.314494590325131995e-02 1.450625325677025401e+00 4.070715796635816730e+00 -4.051576471850090733e-01 -2.174960473403259320e-01 -1.617966740913741042e-01 4.742647615199943600e-01 -8.697512636793101048e-01 8.283314762450757485e-01 -5.174567812964074864e-01 -7.749320415488952785e-01 -9.896409697015643436e-01 -2.308693179606816637e-01 1.544013548032892036e-01 -1.339551255783492101e+00 -5.043736460868067928e-01 -9.879915284848200807e-02 -8.734414250841444627e-01 -1.033040459195798455e+00 1.340742544060407049e+00 5.799650132673186409e-01 -1.379678744024287251e+00 2.421257828709739990e-01 -3.861110292426158663e-01 -5.026251636943062095e-01 2.857597415237650429e-01 1.364849654997006168e+00 -1.837734060974749450e-01 -7.550963112844765179e-01 5.302572576488173706e-01 2.447688661816914024e+00 -2.472676301690868161e-01 3.894197632349334914e-01 3.680706880824628491e-01 -4.427857906330360804e-01 -2.829825281213660948e-01 3.483272399720459545e-01 -4.465893554167053914e+00 1.212733255029379453e+00 -7.343627546338703516e-01 9.849615510808791274e-01 4.934020253705466708e-01 1.822490447583698381e-01 1.150009530915504924e-01 1.010079739277023991e+00 2.079828442124858623e-01 -1.753868725897862399e-02 -6.042427568329342691e-01 -6.455488219052937238e-01 2.021117812899019484e+00 -5.901075354690574759e-01 2.272132788464405750e-01 2.600539988602161845e-01 7.662653477371181299e-02 -1.815065370810957424e+00 -5.652304485453637506e-01 1.172732269629605639e+00 -1.773940176348870745e-01 7.757819709087178106e-01 4.635324739193038557e-01 3.471024537083208239e-01 -1.784836398941321178e+00 3.145412809880084648e+00 -9.220014867822209359e-01 2.417475204474073713e+00 -1.901031394071704295e+00 1.220210275226137897e+00 4.980681312872550226e-01 3.124944655025829188e-01 -2.219412662359167565e-01 -3.632542085263795739e-01 2.459607890261673868e-01 -2.005225883186140479e+00 3.102130358043869052e+00 -2.757929667189029099e-01 7.713331045158697274e-02 1.182059059523514088e+00 -7.915674237796518908e-02 -1.503438546103376350e+00 7.875522653142891238e-02 -9.735600105660499604e-02 -1.669733360074171280e+00 -1.598156198409683260e+00 4.815562297736950548e-01 -4.525706216254332670e-01 -9.001713133755361307e-01 4.439732948948351687e-01 -9.258804048193645109e-01 -5.137660840393623030e-01 1.982704146722573668e+00 -1.800959528201233839e+00 3.070511893570223028e-01 -3.481497228419495882e-02 1.253776225497742924e+00 2.973274136538378021e-01 6.877681988636481780e-02 8.018798494999077597e-01 1.661846859705664106e-02 5.714715916232476767e-02 1.574506866648893499e+00 7.903832531700830666e-01 6.615829297618145421e-01 1.303903463392722006e+00 4.178670651740977737e-01 -5.939428981376765337e-01 8.310081418259877006e-01 5.924196140189166293e-01 4.917172658899786331e-02 -5.869665885379155013e-01 -1.512723726920808476e+00 7.076274908681281506e-01 -1.778712740574768802e-01 5.525583417354843485e-01 -1.932662142908602831e+00 2.005551562294833334e-01 1.386648999378135572e-01 -8.830280752465143046e-02 -1.630238360542514142e+00 -3.091597112344008913e-01 2.996220825637416318e+00 1.088115856972858619e+00 -2.533911915355874789e-01 2.311653351045870330e+00 5.170558559916844654e-01 1.517574571904243552e-01 1.837822272706677584e-01 3.979809170417524244e-01 6.605938977144659718e-01 -2.097741426510570495e+00 2.756973125646173806e-01 -7.269777028200783420e-01 2.737842847219155717e-01 7.631714859569431741e-01 -3.780613430833570932e-01 -5.708076506521240212e-01 -8.704225391663439337e-01 -2.397313453997167720e-01 -1.085480634351371210e+00 -1.400118819336777953e+00 -1.015661978546727351e+00 -5.063662807384726461e-02 -1.004861127329006454e+00 4.374711331617792132e-02 1.113308978049614706e-01 1.175703459496212078e-01 7.692700619783682248e-01 -4.049908021433313299e-01 -1.324274500017570189e+00 -1.684271152932046656e+00 6.425368706632967886e-01 -8.590941224502197660e-01 1.980540365000637681e+00 1.930240262961537556e-01 1.609191020179833731e-01 -5.990298609771993466e-02 -1.844369214540194646e-01 -1.363733262040234928e+00 -2.485735110669645920e+00 1.699050863245749943e+00 -6.471446086046193091e-01 1.566796692998823348e-01 6.075518165892868083e-02 -1.004794157403921639e+00 -3.137827848872978831e-01 3.945502191024753413e-01 -6.714530226617893005e-01 -3.138534672080745547e-01 4.094890518574279548e-01 8.917832572953321435e-01 -6.207870601110487829e-01 1.619070128366960848e+00 1.388181141577091993e-01 4.960881487325128902e-01 -2.100432868298497124e-01 3.039974300580103872e-01 -1.415469407197245399e-01 2.215744795231128439e+00 4.520348018956582337e+00 2.498762698280265065e-02 -4.103785661911872884e-01 1.952621523105997348e+00 1.066280151669952492e+00 4.241357037893999649e-01 -2.011388307951730292e-01 -6.480705991960175050e-01 -3.190390200691462397e+00 -5.191675984107361197e-01 4.702437069886443943e+00 3.180720990403981818e-01 -3.018238717731869802e-01 1.623984680196609798e+00 5.102369699906946776e-01 -1.950384720672480920e+00 8.920823174391591392e-02 -1.217941007543400955e+00 7.969041772116673972e-01 -1.818664423730364188e+00 1.928462338858750069e+00 1.649345527448059956e+00 -1.492256453403162597e+00 2.373710183623019554e-01 -2.706023432257954386e+00 3.702120112045076961e-01 -5.743365166757293805e-01 -7.577062767091298223e-01 2.376909371332338594e+00 1.633793430714056250e+00 1.963578477829420188e-01 9.775771538967712448e-01 1.634112504436328273e+00 1.425482656626760880e+00 2.231704395607408409e-01 -9.910058459106451112e-01 7.421153328473975019e-01 -2.116023021740985610e-01 5.931745002870748573e-01 -1.930690128357463786e+00 -9.536034819931817896e-01 -3.536874272280561837e-01 4.413884329655776151e-01 -2.348769590598251411e-01 4.882213355652697540e-01 8.542366078631986603e-01 1.404268395882449116e+00 -1.519913716843447116e+00 1.597177882334845478e+00 -7.932869696957116634e-01 -4.604215015256989396e-01 -6.439448281145706554e-01 9.222674588642741922e-01 -8.151370595317479761e-01 -7.952845426153150321e-02 2.610546805454515562e-01 -1.554625445769028946e+00 -2.407559955337148505e+00 -3.595820059886162268e-02 2.215311243054308932e+00 5.383045918927561457e-01 1.268950538071070833e-01 -1.839830158343695565e+00 1.236356000187141868e+00 5.141122701657051958e-02 3.224512327454413796e-02 -4.089670350430782975e-01 1.924049443938779802e-01 2.901252682377268299e-01 -1.358719148182021552e+00 3.859031194680260374e-02 1.363054969615732359e+00 -3.981809288623694432e-01 8.081287135515482500e-01 -1.082786028727785510e+00 -6.058155625849608317e-01 4.693309231605103937e-01 -1.216061383452246292e-01 -7.824344558215856615e-01 -2.443570888341430047e-01 -3.063636488496733201e-01 -1.817841850488121497e-03 -3.024666592602535120e-01 -2.601076713246349703e-01 7.374463151213670464e-01 -1.125241826099835585e+00 -1.749127347984778424e+00 4.906718451362930278e-01 -2.845179578760725025e+00 2.433097505055623166e+00 -3.655399615285382514e-02 2.148573203842905954e+00 8.230782838107096600e-02 -2.016902434051372761e-01 2.754732406732884442e+00 -1.095654310472802956e-01 -1.241778894429103719e+00 6.051478623215383879e-01 -9.838022751521392495e-01 -1.519130443480050385e-01 -2.859358187667593310e-01 -2.350345242079900920e-01 -8.032329864155240973e-01 2.174973318208049289e+00 9.056481643069477228e-01 2.066462153554562420e-01 2.356125052087354010e+00 -1.110276571438659099e+00 -1.277444015227419127e-01 3.252098486039242120e-01 1.069360924050202000e+00 8.978430794819269867e-01 1.729583672404981787e-01 -1.396337046061162934e-01 6.032250388590764123e-01 -7.832860911384015301e-02 -2.962441176646748442e+00 4.916557964713487161e-01 1.754816704652512493e+00 1.379775866081494273e+00 4.585163644649342118e-01 2.226462985094799674e+00 -1.623632702931961269e+00 -3.823652491506485118e-01 -7.429885696968170361e-01 -3.595448773869781012e-01 -3.117562517570172442e+00 1.263547334653360721e-01 -4.374146619856041918e-01 8.898741643040052329e-01 8.584515824011045293e-01 -1.651085415171867021e+00 3.426837503655293937e-01 -1.528275329180150965e-02 -1.899098538412310910e+00 1.019410413757668166e-01 1.897142748957860281e+00 -3.455686709917980437e+00 -1.919979376925593506e-01 -1.559735767181875399e-01 -5.712574112181717512e-01 2.111348257172892817e-01 8.127045124478059490e-01 -1.995330231506514118e-01 1.006409670046776395e+00 -1.686369718081089097e-01 -9.943692891388266064e-01 9.487363541565306813e-01
1.488796583442138222e-02 -1.706669842679018778e+00 2.316408049320131946e-01 1.152807041611962485e-01 -1.383159023132229937e-01 1.873242455612524893e+00 5.556590066358012558e-01 -9.760016520947234486e-01 -3.066348896793485990e-01 -1.352445683520639541e+00 1.712405490731739449e-02 -1.081129770504917209e-01 3.431334136867303930e-01 -9.269537887688107658e-02 1.208114564500317289e+00 3.773875623579760474e-01 4.316724730475235972e-01 -7.514007426223698882e-01 -7.863879142520553422e-01 1.847015585038767282e+00 -3.612102796205761024e+00 -5.815648614662985993e-01 7.211929161841863500e-01 8.827720479947837040e-01 -9.581701757498835015e-01 -5.457624240428686768e-01 1.544646115834742650e+00 -7.643756989360089849e-01 2.308083963567350017e-01 -2.342839782475327759e-01 -3.272326986833661300e-01 7.476734392807267426e-02 -8.300400395466961401e-01 -1.678643914852488983e+00 -7.995154772927942632e-01 -1.158807726535318189e-01 7.493524559595028389e-01 1.065208021616935730e+00 -3.013621498503006313e-01 1.481535756215303534e+00 1.829930620771004213e-01 -6.950281914072407030e-01 -9.959719809556433212e-01 1.113427308422657802e+00 5.858283764559941986e-02 -2.997149400319292223e-01 5.247853102720153595e-01 -4.446819959896738950e-01 7.345941363243205791e-01 -1.004943733672251094e+00 -1.009226236865094384e+00 -5.071098493668885904e-02 -9.357151052056805751e-01 -1.549681112130480570e-02 -6.634866697088946941e-01 2.427204422273409046e-01 1.482781716296230234e+00 3.643576408993863813e-01 -5.670025055522809332e-01 -5.355300434085553674e-01 3.811241123288990340e-01 2.003153723582476342e+00 8.910846126779251031e-02 -6.543143743842398941e-01 2.003564462484680453e-01 1.338332980427500360e-02 -5.699962403832653512e-02 1.932578543289795725e-01 1.658187519211938854e-01 1.177444950934423806e+00 -1.241505842310971053e+00 5.549335505918000511e-01 1.336347315145121062e+00 6.094283772380368891e-01 7.554084961550033839e-01 -7.239453074903098306e-01 1.672242083279785671e-02 1.522665363630639757e+00 3.879399689797012329e-01 1.482683392040204717e+00 2.823997907499988802e-01 1.034592480353436067e-01 -1.103671691107513952e+00 1.856328871487473720e+00 -3.330975378933265230e-02 -1.810229222795882054e+00 5.271349938030450710e-01 -3.896103789391581196e-01 1.802498297697637586e+00 3.587972398966953747e-01 -4.718252744247511954e-01 5.309367175190223831e-01 -8.634409978128623764e-02 -1.792353665215982716e-01 5.821919883909258964e-01 -1.179033528711203593e-01 5.223557233617565077e-01 -1.250317395173656809e+00 -6.758069391747499599e-02 5.655560126176015778e-01 -1.164627694903625832e+00 1.754405305023986061e+00 -2.063032146886700502e-01 8.414704699387242082e-01 -7.483274685076268806e-01 -7.387325153304963310e-01 2.827343213098234109e+00 -2.267535317792455096e-01 -1.401302602618893778e-01 3.017138675883744847e-01 4.547529479019409848e+00 2.600006568049739730e-01 -3.167307080099654448e-01 5.339415298128661336e-01 2.480123370175873365e+00 8.675574751496499815e-01 -8.683178180574381289e-01 1.266709144371364337e-01 -5.448967458983972056e-01 3.391960953059687700e+00 3.546818538540633114e-01 1.881962621400568858e-01 8.868223416737337494e-01 2.690539616521850252e+00 -2.295502448293479658e-01 -3.040707535351638291e-01 2.686766418582372043e-02 1.407153118126593050e+00 -2.030920445049628764e+00 1.340917123753971457e-02 -3.763557428327314325e-01 7.598835856365887542e-01 -1.365595995822919351e+00 3.253222087143274321e-01 6.070189831269462433e-01 3.509444675568886285e-01 1.353665024332483480e+00 -6.397871037525890703e-01 -4.110259519062881006e-01 5.440785862517157900e-01 -1.327489159614607950e-01 -9.423603895590558777e-01 -4.538347607682559626e-01 1.261396552720968733e+00 -3.283718299522333378e-02 1.418591194236220376e+00 1.941604779243268908e+00 -6.156282638288580467e-01 1.588198959275444189e-02 -1.831233217596285545e+00 2.167555300751854153e-01 -1.030611924854540756e-01 -1.304179479135769426e-01 -1.019235998459465942e-01 2.253840548554386203e+00 4.828622251948189170e-01 5.678949666104119443e-01 2.798049143895139923e-01 -5.112198930497658944e-01 -1.533655756558942596e-01 -1.478070777050230822e+00 -1.852798454005345929e+00 7.422756367178745540e-01 -7.450596278775825088e-01 -2.505455575063950113e-01 3.195712433990748336e-01 -9.289176919688808542e-01 -1.081019878090900832e-01 -2.662845437491225264e-01 -2.096676392723777482e-01 -1.712667080734902703e+00 3.884572929653011264e-01 -1.373344522538895385e+00 2.560074972787671932e+00 1.456336556519620684e-01 -6.679712162540832887e-01 4.929987553583556448e+00 -1.276018308641604149e+00 1.656982993296046425e-01 -5.897673568471109018e-01 -5.849286117994070278e-01 1.476899286867245330e-02 -4.469201377994419522e-01 1.587093276845769341e-01 9.454408045698348140e-02 2.519393920065058912e-01 1.295186307244936996e+00 -8.544499763079397292e-01 8.389602464846858398e-02 2.318813062940170144e-01 1.670377582805541716e-01 6.464658527326245796e-01 -1.133207046050468847e+00 -9.090352707071599481e-01 9.509852915224391579e-01 -1.010096797269418811e+00 -2.624500468148083243e-01 -3.276271473204355189e-01 -3.566812865584689796e-01 -8.120857803742856929e-01 -2.431786569512881080e+00 -7.862679069702593893e-01 7.413292426505602162e-02 -3.782584348018075415e-01 2.409041161639302875e-01 -1.683892363632307210e-01 -6.447342209389590739e-03 -6.583339933353639095e-01 -6.028433584529285794e-01 -1.875212959713810079e-01 2.129134781836876655e+00 1.133924262867018085e+00 -4.343955575043955686e-01 -6.719851903816763672e-01 4.500519869179223642e-01 8.832405652762633785e-01 1.842029284886899987e+00 5.622045002420523740e-01 2.696263726445042863e-01 2.640648676787343274e-01 -1.894495513427356448e+00 6.914724400344827993e-02 1.033979009808104310e+00 8.559689349980204032e-02 2.664973887353222493e-01 -1.578728319250229661e-01 4.685367808654321564e-01 2.558833345969588335e-01 -1.672938326860766045e+00 -9.466232769837985561e-01 -7.600691833214940907e-01 4.069198567925186860e-01 2.116861651844547776e+00 -8.800323928073401358e-01 7.306032602454489711e-01 -6.356909330300669625e-01 1.982624711677755669e-01 -2.848957512488472510e+00 -3.010396722648891910e+00 9.837368704134913378e-02 7.304745154797183115e-01 -3.882799624542123684e-01 3.508413067105704830e-02 3.455355569574549701e-01 3.336563641106830569e-01 -1.820517379831007587e-03 -1.286737658030384923e-01 -1.395828730369843840e-01 -1.554653760897966919e+00 -2.013333135107928662e-01 9.026100466977207137e-01 -1.628689799289319229e+00 -1.163914689272373293e+00 -5.589164923409539742e-01 -8.745215203981143715e-01 -5.727777024207154899e-02 -5.278866987975728425e-02 -8.955722383693726085e-01 -2.391977071179968384e+00 4.289968725122342286e-02 3.908392285881628347e-01 6.059331573707452678e-01 -4.728595432741991011e-01 1.864942898620239320e-01 -4.386863260948766774e-01 -3.349548145880638206e+00 -4.654064264170741649e-02 -2.336315226111574384e-01 5.913486252410686539e-02 -4.440485004219977272e-01 3.305199847892866805e-01 6.054076210112763201e-02 -3.004716853545709387e+00 -2.747428488189805340e-01 3.498910434713751738e-01 -1.775297286385337348e+00 3.644999756401163360e+00 1.340128270785813314e+00 8.006533027491574694e-01 7.711225090662042481e-02 7.891705274184078744e-01 -2.233896970485498845e-01 2.872894826750206909e-01 2.021842063591421379e+00 4.533838065939647249e-02 -1.434229168646620756e-01 -2.319346519274507190e-01 7.043874389445228257e-01 1.756007881251695490e-01 2.035946555740145714e-01 -8.632698183375473455e-01 -4.095453860316390915e-01 -1.923351390738304578e-01 -1.888881128281212574e+00 5.700012675060917022e-01 -2.553630748951695728e-01 -5.001075147358640116e-01 -2.770723410299264611e+00 -1.254736390706858273e+00 7.228024965858990125e-01 2.532221568963571173e-02 1.022804960806492858e+00 2.315567950809117037e-01 -5.205664646777979215e-02 9.103112268955177999e-01 -1.090005178851332301e+00 1.460628991120628828e-01 -2.373333228566037179e-01 -1.214340581899716054e-01 9.684462683160799390e-01 3.928169499290104505e-01 -1.090947374984488683e+00 -4.675516987863398422e-02 -2.750797196264119115e+00 8.769363505902617595e-01 1.149763325286944582e+00 7.811011867057829905e-01 1.005144390136929605e-01 9.116284709916259998e-02 3.555104262505108803e-01 -2.452602264767044654e-02 -2.111263587745890458e-01 2.597552988564328036e+00 3.314856482822296502e-01 -9.662294778783071525e-01 -1.514169772992979279e+00 6.140702949933156685e-01 1.045837289491291511e+00 -1.041173364764399756e-01 -9.774561970166252278e-01 1.069952794623418191e+00 1.674447289565661190e-01 -2.618790387838260125e-01 2.081376121091863762e+00 1.486822083078690460e+00 -1.942288809853563114e+00 6.066423850316746691e-01 -1.406672433884445794e-01 1.288500981890263075e+00 -5.184830499868416931e-01 -8.093857988328170272e-01 2.972778849396798262e-01 -5.261042540974019133e-01 9.539437374409143189e-01 -7.406416108352607830e-02 -1.269913498564851695e+00 9.482832388040768334e-02 -1.501892896935576038e-01 4.361050294436885633e-01 -1.290854950996253026e+00 8.507513348229788219e-01 -5.531677402876818972e-01 -3.682857024383485167e-01 -1.288011975623696959e+00 -2.410594635282191367e-01 -3.832509254629036799e-01 7.032212187013471560e-02 -1.734405536005798887e-01 -7.013954192621528749e-01 -5.936060961240711142e-01 8.245932607247999369e-02 -5.939841073802339111e-02 -6.190563199037768527e-01 3.716017824678370662e-02 6.038291317729082008e-01 -4.655061960687545963e-01 -3.072564798443319645e-02 -1.008647055205339926e+00 -8.924609476599756341e-01 -1.257781611245375464e-01 8.156337357264339949e-02 2.494973649435373309e-01 -7.080938998911827653e-01 3.661688217257998534e+00 -9.461630872603917775e-01 -2.289446044073914166e+00 -9.697028938346352600e-02 -4.809991712569155475e-01 -5.471025315685910106e-01 1.414888076164914743e+00 1.343090669492267075e+00 9.043181829302205932e-01 4.371455162511569958e-01 -5.412964570177694057e-01 3.965793360667794865e+00 8.307306264419711539e-01 1.287034921659624132e-01 -9.727396551194561480e-01 2.146386084738930999e-01 -4.695947256008167203e-01 -1.003779881776275751e+00 -2.887597701026709096e+00 5.412699488831083233e-02 1.159055197033977080e+00 1.928193822827226067e-01 4.717094516508288371e-01 2.941165206509707697e-01 1.818615754792794748e-02 -2.758546218792604782e-02 9.661826283785891478e-01 1.139208652813298306e+00 -1.757696285104917433e-01 6.900041584642251091e-02 -2.018499042884970063e+00 3.694585273319505592e-01 5.111283470956066166e-01 5.863409261739699341e-01 -7.297234557085654494e-01 -1.076864216827417398e+00 1.172459552402079330e+00 -1.679756466312327001e+00 -2.322261782444548228e-01 2.409552326069025474e-01 5.765534458530041650e-01 6.715031431636543369e-01 -6.739425666358204170e-01 1.149923581800707417e+00 -4.709844780873352343e-01 1.318210172444013450e-01 -3.509586025929849917e+00 -1.281877687663503407e+00 1.275211945153411630e+00 6.259683055519451589e-01 2.742020414791445093e-01 2.323031072798336982e+00 -8.662583702217223625e-01 6.330445588522021216e-02 -7.198240150112559244e-01 2.731058758445438883e+00 5.938846653614413690e-02 1.766323237583486971e-01 1.853471785875962619e+00 2.629442198277411880e-01 1.144884823179884936e+00 -6.737905040906018161e-01 5.661464121747804557e-01 -4.968021580991013875e-02 -7.485931172419890700e-01 -6.164596704062490495e-01 -1.644999451674780788e+00 -7.327387574833750250e-01 -1.088609154953504410e+00 -9.373183903855869525e-01 7.856383787411549413e-01 4.574437928354680993e-01 2.081150047393125924e+00 -7.238737847650190682e-01 2.221128104205003645e-02 3.847957055288145911e-01 1.094282021039028274e+00 2.247624260775000493e-01 9.409211034714475008e-03 8.732298295461933257e-01 -6.321042258042906814e-02 3.169527966820498976e-01 2.398309287867687045e-01 -1.733102133603218853e+00 1.499063806762743978e+00 1.432130267970999959e+00 3.148113717043191651e-01 8.624212212515711684e-01 -5.894550504884615849e-01 2.342109205914434666e-01 -9.126389348622232500e-01 5.045154959380573345e-01 6.840331655541506128e-01 1.377964991013840290e+00 -1.310335111923785767e-01 3.227525091165963644e+00 -1.588890654507343347e-01 8.640916922987471049e-02 1.534348257865721044e+00 1.080625090887152195e+00 1.127618396143572399e+00 9.111689490595711316e-01 2.573678967024750186e+00 -6.895819430258719462e-01 -1.648851177449731420e+00 -7.477768822724963904e-01 -2.072310605189903399e+00 8.927757965427456366e-01 -2.271148541726332459e-01 -7.519546573705820913e-02 4.063112816250764037e-01 1.493473178016350156e-01 3.339898684693328179e-01 -1.318335034088711666e+00 -2.169478947327790230e+00 3.123964935584220282e-01 -4.369569737222899763e-01 -1.011526624683560360e+00 -8.701919510736015606e-02 5.865578954182515403e-02 2.567148674187308410e-01 1.478982725492264949e+00 -3.374945156956051795e-01 1.421746393898801308e+00 -4.956108463104253459e-01 2.694019803523070578e-01 1.731879168653043255e-01 -7.547204555860911185e-03 2.007504233793882820e-01 -2.350165043449311819e-01 1.126834563482711049e+00 4.694384359099540993e-01 3.656040176139619957e-01 -1.129627162430209691e-01 3.268203636052898764e-01 -7.790887511518669317e-01 -1.765340966563649028e+00 6.989613360888730087e-01 -2.253941526307015053e-01 1.076974359280957527e+00 -7.924742174814245477e-01 2.825890406592378667e+00 -2.051147871991657046e-02 -1.318228348755356993e+00 2.152180646329892255e+00 2.683372299158394703e-01 1.263242169447546859e+00 1.121159067660332465e+00 1.704543399458330555e+00 -1.023474460826708343e+00 1.782147663634628065e+00 1.771823569848860747e-01 1.237419397466975185e-01 -2.917851210738066081e-01 3.124806990036940041e-02 1.126939893489816935e+00 2.135011309783530375e+00 8.776176515953192370e-01 -1.004245477291022537e+00 4.626292550606217469e-01 -1.992848135569577295e+00 -8.088994015949165783e-01 9.707907692721702564e-02 3.566639274707724128e-01 -3.124857396174495205e-01 3.106113938162727850e-01 8.603082190147511854e-01 -2.395800612527027029e-01 5.019689195619333466e-01 4.819215745232037218e-01 3.108395530279158825e-01 1.316827922068732004e+00 1.062225471432368007e+00 3.434436724292990739e-01 2.121034318709192235e+00 -5.565653515322295519e-02 -1.733114073253103071e-01 2.310095488981708911e+00 3.534101814327008650e+00 -7.310871738069296688e-01 -1.389315899539342647e+00 4.222916519143016800e-01 -6.073932790466021192e-01 -2.404567515337106554e-01 -4.110468320507867368e-01 5.707860024403855759e-01 -2.733512633456019358e+00 -2.321255782605390561e+00 1.029568465583445835e+00 -7.642059988936577009e-01 2.654975499775878323e+00 1.620111197378075296e+00 1.074851028345268356e+00 -6.615485380839225549e-01 -9.997284272544277872e-01 8.353826047347187034e-01 -7.817873334669255270e-01 -7.364222686229064951e-01 6.643011262084550506e-01 -4.870417490495668744e-01 2.601060239009706176e+00 1.426407728623313165e-01 3.465914761591117332e-01 4.519431620490428902e-01 8.412792662850114844e-01 -6.505745871554059478e-01 -2.615166817677972988e-01 7.301509939254435810e-01 1.187891509776435539e+00 3.381674336127406533e-01 1.498790523631517158e-01 5.412959187374165593e-01 2.166380073217173685e-02 -3.948834939194982852e-01 -2.331818953478940748e-01 -4.696131630300249826e-01 2.687488508677931542e-01 1.217435075345360440e+00 5.830801892729815528e-01 1.737781825543452396e-01 -1.669130126616802379e-01 -4.251153886231948120e-01 -1.857172972043857201e-02 -1.542878966467144286e+00 2.847223321207662527e-01 -1.890568528515660096e-01 1.048034071078539409e+00 4.281207798474157555e-01 6.316388229308560476e-01 -2.708866890836824637e-01 -3.526767235364975384e-01 -1.218186790218892673e-01 2.360586795041583308e+00 -2.779882157796816911e-01 2.253834707960679362e-01 1.078964392232263814e+00 -1.658401818609457345e-01 -1.940998860689646943e-01 1.181417099063926779e+00 -5.843055309969480415e-01 -5.880232261314413122e-01 3.176213944374097320e+00 2.308528305607410180e-01 3.216388230718120411e+00 -9.278467683277177303e-01 -1.018495088740241528e+00 -2.305057135070142094e-01 -2.431377263432407398e-01 5.914438781996953498e-01 -4.762595042870196860e-01 -9.783222432320907158e-01 -3.611895356666133261e-01 -9.374903849413589452e-01 1.082042375966353998e+00 3.279465734816935929e-01 -1.589286944707927640e+00 1.731385695649066747e+00 1.500919051436389040e-01 1.881066531248859253e+00 -8.813608937998927972e-01 1.083274392868524005e+00 7.901423071051995040e-01 3.613880421538678278e-01 -1.223583668978123429e+00 1.010122859153123498e+00 -1.374589284925968213e+00 -1.481560834270401195e+00 1.109605483637200241e+00 1.742131422451277389e+00 -1.065652570329371773e+00 -1.008281061111655941e+00 -3.421278303004207100e-01 5.179581815423767860e-02 -1.912451378801505175e-01 -1.051127044569615671e-01 3.723289792292736600e-01 1.137014680361088770e+00 4.500278978293942855e-01 2.455912212327835686e-01 -1.433038691943113244e-02 1.233202321909204979e+00 2.043624198437094253e-01 1.012425705145636901e+00 5.750912350816539398e-01 1.410033056152532049e+00 -4.629738143538883466e-01 -6.120066395480634747e-02 5.670433353700615742e-01 -8.488880921984195416e-01 -2.217522440827385533e-01 9.067560675962484940e-01 -6.899832578199013300e-01 8.985133692526787730e-01 -1.418785896379978484e-01 4.948643377232023188e-01 -7.030194096451334307e-01 -3.473270634354057029e-01 -5.120876827677507404e-01 -1.110614216036258206e+00 -3.330820809539237343e-02 -6.907775925409672668e-01 -5.005784295462548661e-01 1.542329642243429055e-01 -3.855008509052201271e-01 4.182614331304146393e-01 -5.703353258856331751e-03 -9.590365379526433198e-02 -1.527117952566449943e-01 3.350521490459666962e-01 3.430383144764789227e-01 1.597871163353646873e-01 -5.730910007854178589e-01 9.600591374912943454e-01 -6.791111291381402015e-01 3.435630702621887689e-02 -1.459333603104316368e-01 -2.627802599375367865e-01 -3.099854624969695938e-02 2.842826063586030294e-01 -8.100738869968688860e-01 -5.568128168301046399e-01 -2.724272016055951706e+00 4.233852109800402830e-01 -6.990205865877274771e-01 -2.201173458671536132e+00 -4.389429865454060331e-01 -9.053659828434102996e-01 -2.828475321158820943e-01 5.132106042769528642e-01 3.803031574044593577e-01 1.531176944736158285e+00 2.606051374074305760e-01 9.773612997855959938e-02 1.459104978955213516e-01 -2.929714370028848602e+00 -1.053101146544991096e+00 -3.691565785293400292e-01 5.156406675901602510e-01 4.507320420172321596e-01 -7.927911682376673763e-01 2.261042322301340946e-01 -3.004560526485741123e-01 2.652633839507066993e-01 -9.388641559469302900e-01 8.973392285961240278e-02 3.611447517097299831e-01 -1.830641100895945561e-01 -1.017761597038335575e+00 -2.361254855630341876e+00 2.461880361609039003e-01 -3.915982351293113561e-01 -3.184640180410858723e-01 1.199313357403581470e+00 2.918864780162540029e+00 7.313234915131382463e-01 8.908725341084444693e-01 -1.103833751572011801e+00 -4.236229123691805376e-01 -2.045653037845696076e-01 -9.594015739410990395e-01 4.555751298104555036e-01 6.735235170525364357e-01 9.678868523901347498e-02 -1.091576013846758952e-01 7.777787361150619860e-01 -5.659985705903928244e-01 -5.590931011069197876e-01 -1.761728355073916702e-02 1.639051884436412421e-01 7.974385706810055430e-01 -1.208228006901230500e-01 5.637253658314516080e-01 1.062197635236471482e+00 -4.431221913442589533e-01 -6.715347198693208952e-01 1.465689457395606410e-01 -1.295132319172727087e+00 -1.684647887618155315e-01 8.207475831243704611e-01 -5.557822753835411911e-01 -1.434762103695918223e-01 2.098903396598977178e+00 7.293897988484755457e-01 2.638836847597920698e+00 2.548239940111569624e-01 5.270693720686540074e-01 -5.023196456637746277e-01 1.042359558850339152e+00 8.486900210718761883e-01 3.340666825964769965e-02 -3.653684986985136218e-01 1.159137270308903789e+00 4.343282762641347272e-01 -1.836257555227465144e+00 -2.282851612515478246e-01 2.147484665440306251e-01 -2.507431897338701643e-01 -2.192873903710328143e-01 7.341388936950433708e-01 2.233792188861154049e+00 -5.798172924355708968e-01 -8.517765804396767448e-01 -2.121971930046296917e-01 -1.789080800457763187e+00 -2.040014513609293978e-01 -3.447624860377819234e-01 2.146452108171856277e-01 2.764737226741268566e-02 -1.947819695243789839e+00 6.060628090077890828e-01 -1.046775113121150014e+00 -3.089506776473519789e+00 -4.522483924411913603e-01 4.664592451423037467e-01 1.849612787821888760e-02 4.668565456777523104e-01 -1.934736724376316386e-01 3.648009162415918188e-02 8.808155553853369568e-01 -1.059888175233278718e+00 -6.872904656786670285e-01 7.434295210079880922e-01 -6.944829911504807329e-01 8.563799637217768546e-02 2.963301128471376167e+00 -1.477953672877005298e+00 -2.318598000515935453e+00 -7.695309512323919021e-01 -2.343430406853057590e-01 -1.357603881907961108e-01 9.656856705043066480e-01 -9.113732715562539166e-01 3.602712053507320933e-01 1.072699057167560421e-01 -2.413854678827628553e-01 -1.163456118517387949e+00 -1.554474406656240815e+00 4.035183694431420109e-01 -1.978734054958145028e-01 8.629143457280830098e-01 1.109994333522935916e-01 1.486518397355183763e-01 3.717832031677984483e-01 -1.591833700382669636e-01 2.530211906637981900e-01 -7.518385502703706091e-01 -6.113445576864759978e-01 -1.185427922820729563e-01 2.285100355583338516e-01 -1.412359900695918657e+00 -9.732358472451728693e-01 -4.116334944235831156e-02 -4.343693732392864271e-01 -5.751969417981983579e-02 -3.175851329094099840e-01 4.976670485037218428e-01 1.286074199208431690e+00 -9.674661914125763928e-01 -1.926657637674293044e-01 2.564168966560575469e-01 -7.158092683110952592e-01 -1.280738921801358732e-01 1.530289750684496131e+00 -7.404942576837911794e-01 8.404591234876211958e-01 4.038526868313223606e-01 6.080397809531263853e-01 1.300754657116558022e+00 1.444585514573820006e+00 2.458749269860875386e-01 -4.663693134048909061e-01 2.350499377412798574e-01 -1.436916754861764234e-01 1.292534933696516397e+00 -5.033942085952880507e-02 6.890041581420248695e-01 -6.540237540006894612e-01 -1.565689368385241531e+00 -2.653539473434695095e-01 4.282513153115660165e-01 -6.989334085419740550e-01 8.365637540536743355e-01 -4.048928261129052686e+00 -7.284434928880260118e-01 4.553225960548539231e-01 4.963806754763763762e-01 -1.389087911212200099e+00 -1.892604751609256786e+00 4.761094913619696722e-01 -4.758018597509559022e-01 -4.381973733765014423e-01 6.606865931501314237e-02 -1.379472508478993276e-01 -2.314317609080217553e-01 -1.142743862149118023e-01 -1.433253797117063577e+00 6.669935624388997897e-02 6.668226665393786057e-01 -3.168049116753022254e+00 1.531923541489131624e-01 2.994168260553547345e+00 2.504007063298173907e+00 -1.170282725055167283e+00 6.445355651525320750e-01 -6.329489069146674307e-01 2.414142722719134326e+00 5.292993124353857493e-01 -1.228621328571921634e-01 -2.794135142051962784e-01 -6.606616315674459505e-01 -1.015235823590510816e-01 -1.041878955931475614e+00 5.500105545699875975e-01 1.432112794941539091e+00 5.751717523944026578e-01 3.652557990100396834e-02 2.390448516760278697e+00 4.020184244109196170e-01 3.336494297831800182e-01 -1.268806644150806684e-01 -5.058943654473095908e-01 -8.356948199935342325e-01 -1.143609073100168905e+00 -1.385520927617056808e+00 -6.224306987317114181e-01 1.142144919573870876e+00 -5.430245058804061831e-01
