# 
#                 ----------------------------------------------------
#                 Data from a 3D direct N-body simulation. 
# 
#                 rows are i-particle; 
#                 coumns are :mass, tag, x ,y, z, vx, vy, vz, ax, ay, az
# 
#                 NTHU, Computational Physics 
# 
#                 ----------------------------------------------------
#                 Time = 0.0
0.000000000000000000e+00 1.000000000000000000e+00 2.000000000000000000e+00 3.000000000000000000e+00 4.000000000000000000e+00 5.000000000000000000e+00 6.000000000000000000e+00 7.000000000000000000e+00 8.000000000000000000e+00 9.000000000000000000e+00 1.000000000000000000e+01 1.100000000000000000e+01 1.200000000000000000e+01 1.300000000000000000e+01 1.400000000000000000e+01 1.500000000000000000e+01 1.600000000000000000e+01 1.700000000000000000e+01 1.800000000000000000e+01 1.900000000000000000e+01 2.000000000000000000e+01 2.100000000000000000e+01 2.200000000000000000e+01 2.300000000000000000e+01 2.400000000000000000e+01 2.500000000000000000e+01 2.600000000000000000e+01 2.700000000000000000e+01 2.800000000000000000e+01 2.900000000000000000e+01 3.000000000000000000e+01 3.100000000000000000e+01 3.200000000000000000e+01 3.300000000000000000e+01 3.400000000000000000e+01 3.500000000000000000e+01 3.600000000000000000e+01 3.700000000000000000e+01 3.800000000000000000e+01 3.900000000000000000e+01 4.000000000000000000e+01 4.100000000000000000e+01 4.200000000000000000e+01 4.300000000000000000e+01 4.400000000000000000e+01 4.500000000000000000e+01 4.600000000000000000e+01 4.700000000000000000e+01 4.800000000000000000e+01 4.900000000000000000e+01 5.000000000000000000e+01 5.100000000000000000e+01 5.200000000000000000e+01 5.300000000000000000e+01 5.400000000000000000e+01 5.500000000000000000e+01 5.600000000000000000e+01 5.700000000000000000e+01 5.800000000000000000e+01 5.900000000000000000e+01 6.000000000000000000e+01 6.100000000000000000e+01 6.200000000000000000e+01 6.300000000000000000e+01 6.400000000000000000e+01 6.500000000000000000e+01 6.600000000000000000e+01 6.700000000000000000e+01 6.800000000000000000e+01 6.900000000000000000e+01 7.000000000000000000e+01 7.100000000000000000e+01 7.200000000000000000e+01 7.300000000000000000e+01 7.400000000000000000e+01 7.500000000000000000e+01 7.600000000000000000e+01 7.700000000000000000e+01 7.800000000000000000e+01 7.900000000000000000e+01 8.000000000000000000e+01 8.100000000000000000e+01 8.200000000000000000e+01 8.300000000000000000e+01 8.400000000000000000e+01 8.500000000000000000e+01 8.600000000000000000e+01 8.700000000000000000e+01 8.800000000000000000e+01 8.900000000000000000e+01 9.000000000000000000e+01 9.100000000000000000e+01 9.200000000000000000e+01 9.300000000000000000e+01 9.400000000000000000e+01 9.500000000000000000e+01 9.600000000000000000e+01 9.700000000000000000e+01 9.800000000000000000e+01 9.900000000000000000e+01 1.000000000000000000e+02 1.010000000000000000e+02 1.020000000000000000e+02 1.030000000000000000e+02 1.040000000000000000e+02 1.050000000000000000e+02 1.060000000000000000e+02 1.070000000000000000e+02 1.080000000000000000e+02 1.090000000000000000e+02 1.100000000000000000e+02 1.110000000000000000e+02 1.120000000000000000e+02 1.130000000000000000e+02 1.140000000000000000e+02 1.150000000000000000e+02 1.160000000000000000e+02 1.170000000000000000e+02 1.180000000000000000e+02 1.190000000000000000e+02 1.200000000000000000e+02 1.210000000000000000e+02 1.220000000000000000e+02 1.230000000000000000e+02 1.240000000000000000e+02 1.250000000000000000e+02 1.260000000000000000e+02 1.270000000000000000e+02 1.280000000000000000e+02 1.290000000000000000e+02 1.300000000000000000e+02 1.310000000000000000e+02 1.320000000000000000e+02 1.330000000000000000e+02 1.340000000000000000e+02 1.350000000000000000e+02 1.360000000000000000e+02 1.370000000000000000e+02 1.380000000000000000e+02 1.390000000000000000e+02 1.400000000000000000e+02 1.410000000000000000e+02 1.420000000000000000e+02 1.430000000000000000e+02 1.440000000000000000e+02 1.450000000000000000e+02 1.460000000000000000e+02 1.470000000000000000e+02 1.480000000000000000e+02 1.490000000000000000e+02 1.500000000000000000e+02 1.510000000000000000e+02 1.520000000000000000e+02 1.530000000000000000e+02 1.540000000000000000e+02 1.550000000000000000e+02 1.560000000000000000e+02 1.570000000000000000e+02 1.580000000000000000e+02 1.590000000000000000e+02 1.600000000000000000e+02 1.610000000000000000e+02 1.620000000000000000e+02 1.630000000000000000e+02 1.640000000000000000e+02 1.650000000000000000e+02 1.660000000000000000e+02 1.670000000000000000e+02 1.680000000000000000e+02 1.690000000000000000e+02 1.700000000000000000e+02 1.710000000000000000e+02 1.720000000000000000e+02 1.730000000000000000e+02 1.740000000000000000e+02 1.750000000000000000e+02 1.760000000000000000e+02 1.770000000000000000e+02 1.780000000000000000e+02 1.790000000000000000e+02 1.800000000000000000e+02 1.810000000000000000e+02 1.820000000000000000e+02 1.830000000000000000e+02 1.840000000000000000e+02 1.850000000000000000e+02 1.860000000000000000e+02 1.870000000000000000e+02 1.880000000000000000e+02 1.890000000000000000e+02 1.900000000000000000e+02 1.910000000000000000e+02 1.920000000000000000e+02 1.930000000000000000e+02 1.940000000000000000e+02 1.950000000000000000e+02 1.960000000000000000e+02 1.970000000000000000e+02 1.980000000000000000e+02 1.990000000000000000e+02 2.000000000000000000e+02 2.010000000000000000e+02 2.020000000000000000e+02 2.030000000000000000e+02 2.040000000000000000e+02 2.050000000000000000e+02 2.060000000000000000e+02 2.070000000000000000e+02 2.080000000000000000e+02 2.090000000000000000e+02 2.100000000000000000e+02 2.110000000000000000e+02 2.120000000000000000e+02 2.130000000000000000e+02 2.140000000000000000e+02 2.150000000000000000e+02 2.160000000000000000e+02 2.170000000000000000e+02 2.180000000000000000e+02 2.190000000000000000e+02 2.200000000000000000e+02 2.210000000000000000e+02 2.220000000000000000e+02 2.230000000000000000e+02 2.240000000000000000e+02 2.250000000000000000e+02 2.260000000000000000e+02 2.270000000000000000e+02 2.280000000000000000e+02 2.290000000000000000e+02 2.300000000000000000e+02 2.310000000000000000e+02 2.320000000000000000e+02 2.330000000000000000e+02 2.340000000000000000e+02 2.350000000000000000e+02 2.360000000000000000e+02 2.370000000000000000e+02 2.380000000000000000e+02 2.390000000000000000e+02 2.400000000000000000e+02 2.410000000000000000e+02 2.420000000000000000e+02 2.430000000000000000e+02 2.440000000000000000e+02 2.450000000000000000e+02 2.460000000000000000e+02 2.470000000000000000e+02 2.480000000000000000e+02 2.490000000000000000e+02 2.500000000000000000e+02 2.510000000000000000e+02 2.520000000000000000e+02 2.530000000000000000e+02 2.540000000000000000e+02 2.550000000000000000e+02 2.560000000000000000e+02 2.570000000000000000e+02 2.580000000000000000e+02 2.590000000000000000e+02 2.600000000000000000e+02 2.610000000000000000e+02 2.620000000000000000e+02 2.630000000000000000e+02 2.640000000000000000e+02 2.650000000000000000e+02 2.660000000000000000e+02 2.670000000000000000e+02 2.680000000000000000e+02 2.690000000000000000e+02 2.700000000000000000e+02 2.710000000000000000e+02 2.720000000000000000e+02 2.730000000000000000e+02 2.740000000000000000e+02 2.750000000000000000e+02 2.760000000000000000e+02 2.770000000000000000e+02 2.780000000000000000e+02 2.790000000000000000e+02 2.800000000000000000e+02 2.810000000000000000e+02 2.820000000000000000e+02 2.830000000000000000e+02 2.840000000000000000e+02 2.850000000000000000e+02 2.860000000000000000e+02 2.870000000000000000e+02 2.880000000000000000e+02 2.890000000000000000e+02 2.900000000000000000e+02 2.910000000000000000e+02 2.920000000000000000e+02 2.930000000000000000e+02 2.940000000000000000e+02 2.950000000000000000e+02 2.960000000000000000e+02 2.970000000000000000e+02 2.980000000000000000e+02 2.990000000000000000e+02 3.000000000000000000e+02 3.010000000000000000e+02 3.020000000000000000e+02 3.030000000000000000e+02 3.040000000000000000e+02 3.050000000000000000e+02 3.060000000000000000e+02 3.070000000000000000e+02 3.080000000000000000e+02 3.090000000000000000e+02 3.100000000000000000e+02 3.110000000000000000e+02 3.120000000000000000e+02 3.130000000000000000e+02 3.140000000000000000e+02 3.150000000000000000e+02 3.160000000000000000e+02 3.170000000000000000e+02 3.180000000000000000e+02 3.190000000000000000e+02 3.200000000000000000e+02 3.210000000000000000e+02 3.220000000000000000e+02 3.230000000000000000e+02 3.240000000000000000e+02 3.250000000000000000e+02 3.260000000000000000e+02 3.270000000000000000e+02 3.280000000000000000e+02 3.290000000000000000e+02 3.300000000000000000e+02 3.310000000000000000e+02 3.320000000000000000e+02 3.330000000000000000e+02 3.340000000000000000e+02 3.350000000000000000e+02 3.360000000000000000e+02 3.370000000000000000e+02 3.380000000000000000e+02 3.390000000000000000e+02 3.400000000000000000e+02 3.410000000000000000e+02 3.420000000000000000e+02 3.430000000000000000e+02 3.440000000000000000e+02 3.450000000000000000e+02 3.460000000000000000e+02 3.470000000000000000e+02 3.480000000000000000e+02 3.490000000000000000e+02 3.500000000000000000e+02 3.510000000000000000e+02 3.520000000000000000e+02 3.530000000000000000e+02 3.540000000000000000e+02 3.550000000000000000e+02 3.560000000000000000e+02 3.570000000000000000e+02 3.580000000000000000e+02 3.590000000000000000e+02 3.600000000000000000e+02 3.610000000000000000e+02 3.620000000000000000e+02 3.630000000000000000e+02 3.640000000000000000e+02 3.650000000000000000e+02 3.660000000000000000e+02 3.670000000000000000e+02 3.680000000000000000e+02 3.690000000000000000e+02 3.700000000000000000e+02 3.710000000000000000e+02 3.720000000000000000e+02 3.730000000000000000e+02 3.740000000000000000e+02 3.750000000000000000e+02 3.760000000000000000e+02 3.770000000000000000e+02 3.780000000000000000e+02 3.790000000000000000e+02 3.800000000000000000e+02 3.810000000000000000e+02 3.820000000000000000e+02 3.830000000000000000e+02 3.840000000000000000e+02 3.850000000000000000e+02 3.860000000000000000e+02 3.870000000000000000e+02 3.880000000000000000e+02 3.890000000000000000e+02 3.900000000000000000e+02 3.910000000000000000e+02 3.920000000000000000e+02 3.930000000000000000e+02 3.940000000000000000e+02 3.950000000000000000e+02 3.960000000000000000e+02 3.970000000000000000e+02 3.980000000000000000e+02 3.990000000000000000e+02 4.000000000000000000e+02 4.010000000000000000e+02 4.020000000000000000e+02 4.030000000000000000e+02 4.040000000000000000e+02 4.050000000000000000e+02 4.060000000000000000e+02 4.070000000000000000e+02 4.080000000000000000e+02 4.090000000000000000e+02 4.100000000000000000e+02 4.110000000000000000e+02 4.120000000000000000e+02 4.130000000000000000e+02 4.140000000000000000e+02 4.150000000000000000e+02 4.160000000000000000e+02 4.170000000000000000e+02 4.180000000000000000e+02 4.190000000000000000e+02 4.200000000000000000e+02 4.210000000000000000e+02 4.220000000000000000e+02 4.230000000000000000e+02 4.240000000000000000e+02 4.250000000000000000e+02 4.260000000000000000e+02 4.270000000000000000e+02 4.280000000000000000e+02 4.290000000000000000e+02 4.300000000000000000e+02 4.310000000000000000e+02 4.320000000000000000e+02 4.330000000000000000e+02 4.340000000000000000e+02 4.350000000000000000e+02 4.360000000000000000e+02 4.370000000000000000e+02 4.380000000000000000e+02 4.390000000000000000e+02 4.400000000000000000e+02 4.410000000000000000e+02 4.420000000000000000e+02 4.430000000000000000e+02 4.440000000000000000e+02 4.450000000000000000e+02 4.460000000000000000e+02 4.470000000000000000e+02 4.480000000000000000e+02 4.490000000000000000e+02 4.500000000000000000e+02 4.510000000000000000e+02 4.520000000000000000e+02 4.530000000000000000e+02 4.540000000000000000e+02 4.550000000000000000e+02 4.560000000000000000e+02 4.570000000000000000e+02 4.580000000000000000e+02 4.590000000000000000e+02 4.600000000000000000e+02 4.610000000000000000e+02 4.620000000000000000e+02 4.630000000000000000e+02 4.640000000000000000e+02 4.650000000000000000e+02 4.660000000000000000e+02 4.670000000000000000e+02 4.680000000000000000e+02 4.690000000000000000e+02 4.700000000000000000e+02 4.710000000000000000e+02 4.720000000000000000e+02 4.730000000000000000e+02 4.740000000000000000e+02 4.750000000000000000e+02 4.760000000000000000e+02 4.770000000000000000e+02 4.780000000000000000e+02 4.790000000000000000e+02 4.800000000000000000e+02 4.810000000000000000e+02 4.820000000000000000e+02 4.830000000000000000e+02 4.840000000000000000e+02 4.850000000000000000e+02 4.860000000000000000e+02 4.870000000000000000e+02 4.880000000000000000e+02 4.890000000000000000e+02 4.900000000000000000e+02 4.910000000000000000e+02 4.920000000000000000e+02 4.930000000000000000e+02 4.940000000000000000e+02 4.950000000000000000e+02 4.960000000000000000e+02 4.970000000000000000e+02 4.980000000000000000e+02 4.990000000000000000e+02 5.000000000000000000e+02 5.010000000000000000e+02 5.020000000000000000e+02 5.030000000000000000e+02 5.040000000000000000e+02 5.050000000000000000e+02 5.060000000000000000e+02 5.070000000000000000e+02 5.080000000000000000e+02 5.090000000000000000e+02 5.100000000000000000e+02 5.110000000000000000e+02 5.120000000000000000e+02 5.130000000000000000e+02 5.140000000000000000e+02 5.150000000000000000e+02 5.160000000000000000e+02 5.170000000000000000e+02 5.180000000000000000e+02 5.190000000000000000e+02 5.200000000000000000e+02 5.210000000000000000e+02 5.220000000000000000e+02 5.230000000000000000e+02 5.240000000000000000e+02 5.250000000000000000e+02 5.260000000000000000e+02 5.270000000000000000e+02 5.280000000000000000e+02 5.290000000000000000e+02 5.300000000000000000e+02 5.310000000000000000e+02 5.320000000000000000e+02 5.330000000000000000e+02 5.340000000000000000e+02 5.350000000000000000e+02 5.360000000000000000e+02 5.370000000000000000e+02 5.380000000000000000e+02 5.390000000000000000e+02 5.400000000000000000e+02 5.410000000000000000e+02 5.420000000000000000e+02 5.430000000000000000e+02 5.440000000000000000e+02 5.450000000000000000e+02 5.460000000000000000e+02 5.470000000000000000e+02 5.480000000000000000e+02 5.490000000000000000e+02 5.500000000000000000e+02 5.510000000000000000e+02 5.520000000000000000e+02 5.530000000000000000e+02 5.540000000000000000e+02 5.550000000000000000e+02 5.560000000000000000e+02 5.570000000000000000e+02 5.580000000000000000e+02 5.590000000000000000e+02 5.600000000000000000e+02 5.610000000000000000e+02 5.620000000000000000e+02 5.630000000000000000e+02 5.640000000000000000e+02 5.650000000000000000e+02 5.660000000000000000e+02 5.670000000000000000e+02 5.680000000000000000e+02 5.690000000000000000e+02 5.700000000000000000e+02 5.710000000000000000e+02 5.720000000000000000e+02 5.730000000000000000e+02 5.740000000000000000e+02 5.750000000000000000e+02 5.760000000000000000e+02 5.770000000000000000e+02 5.780000000000000000e+02 5.790000000000000000e+02 5.800000000000000000e+02 5.810000000000000000e+02 5.820000000000000000e+02 5.830000000000000000e+02 5.840000000000000000e+02 5.850000000000000000e+02 5.860000000000000000e+02 5.870000000000000000e+02 5.880000000000000000e+02 5.890000000000000000e+02 5.900000000000000000e+02 5.910000000000000000e+02 5.920000000000000000e+02 5.930000000000000000e+02 5.940000000000000000e+02 5.950000000000000000e+02 5.960000000000000000e+02 5.970000000000000000e+02 5.980000000000000000e+02 5.990000000000000000e+02 6.000000000000000000e+02 6.010000000000000000e+02 6.020000000000000000e+02 6.030000000000000000e+02 6.040000000000000000e+02 6.050000000000000000e+02 6.060000000000000000e+02 6.070000000000000000e+02 6.080000000000000000e+02 6.090000000000000000e+02 6.100000000000000000e+02 6.110000000000000000e+02 6.120000000000000000e+02 6.130000000000000000e+02 6.140000000000000000e+02 6.150000000000000000e+02 6.160000000000000000e+02 6.170000000000000000e+02 6.180000000000000000e+02 6.190000000000000000e+02 6.200000000000000000e+02 6.210000000000000000e+02 6.220000000000000000e+02 6.230000000000000000e+02 6.240000000000000000e+02 6.250000000000000000e+02 6.260000000000000000e+02 6.270000000000000000e+02 6.280000000000000000e+02 6.290000000000000000e+02 6.300000000000000000e+02 6.310000000000000000e+02 6.320000000000000000e+02 6.330000000000000000e+02 6.340000000000000000e+02 6.350000000000000000e+02 6.360000000000000000e+02 6.370000000000000000e+02 6.380000000000000000e+02 6.390000000000000000e+02 6.400000000000000000e+02 6.410000000000000000e+02 6.420000000000000000e+02 6.430000000000000000e+02 6.440000000000000000e+02 6.450000000000000000e+02 6.460000000000000000e+02 6.470000000000000000e+02 6.480000000000000000e+02 6.490000000000000000e+02 6.500000000000000000e+02 6.510000000000000000e+02 6.520000000000000000e+02 6.530000000000000000e+02 6.540000000000000000e+02 6.550000000000000000e+02 6.560000000000000000e+02 6.570000000000000000e+02 6.580000000000000000e+02 6.590000000000000000e+02 6.600000000000000000e+02 6.610000000000000000e+02 6.620000000000000000e+02 6.630000000000000000e+02 6.640000000000000000e+02 6.650000000000000000e+02 6.660000000000000000e+02 6.670000000000000000e+02 6.680000000000000000e+02 6.690000000000000000e+02 6.700000000000000000e+02 6.710000000000000000e+02 6.720000000000000000e+02 6.730000000000000000e+02 6.740000000000000000e+02 6.750000000000000000e+02 6.760000000000000000e+02 6.770000000000000000e+02 6.780000000000000000e+02 6.790000000000000000e+02 6.800000000000000000e+02 6.810000000000000000e+02 6.820000000000000000e+02 6.830000000000000000e+02 6.840000000000000000e+02 6.850000000000000000e+02 6.860000000000000000e+02 6.870000000000000000e+02 6.880000000000000000e+02 6.890000000000000000e+02 6.900000000000000000e+02 6.910000000000000000e+02 6.920000000000000000e+02 6.930000000000000000e+02 6.940000000000000000e+02 6.950000000000000000e+02 6.960000000000000000e+02 6.970000000000000000e+02 6.980000000000000000e+02 6.990000000000000000e+02 7.000000000000000000e+02 7.010000000000000000e+02 7.020000000000000000e+02 7.030000000000000000e+02 7.040000000000000000e+02 7.050000000000000000e+02 7.060000000000000000e+02 7.070000000000000000e+02 7.080000000000000000e+02 7.090000000000000000e+02 7.100000000000000000e+02 7.110000000000000000e+02 7.120000000000000000e+02 7.130000000000000000e+02 7.140000000000000000e+02 7.150000000000000000e+02 7.160000000000000000e+02 7.170000000000000000e+02 7.180000000000000000e+02 7.190000000000000000e+02 7.200000000000000000e+02 7.210000000000000000e+02 7.220000000000000000e+02 7.230000000000000000e+02 7.240000000000000000e+02 7.250000000000000000e+02 7.260000000000000000e+02 7.270000000000000000e+02 7.280000000000000000e+02 7.290000000000000000e+02 7.300000000000000000e+02 7.310000000000000000e+02 7.320000000000000000e+02 7.330000000000000000e+02 7.340000000000000000e+02 7.350000000000000000e+02 7.360000000000000000e+02 7.370000000000000000e+02 7.380000000000000000e+02 7.390000000000000000e+02 7.400000000000000000e+02 7.410000000000000000e+02 7.420000000000000000e+02 7.430000000000000000e+02 7.440000000000000000e+02 7.450000000000000000e+02 7.460000000000000000e+02 7.470000000000000000e+02 7.480000000000000000e+02 7.490000000000000000e+02 7.500000000000000000e+02 7.510000000000000000e+02 7.520000000000000000e+02 7.530000000000000000e+02 7.540000000000000000e+02 7.550000000000000000e+02 7.560000000000000000e+02 7.570000000000000000e+02 7.580000000000000000e+02 7.590000000000000000e+02 7.600000000000000000e+02 7.610000000000000000e+02 7.620000000000000000e+02 7.630000000000000000e+02 7.640000000000000000e+02 7.650000000000000000e+02 7.660000000000000000e+02 7.670000000000000000e+02 7.680000000000000000e+02 7.690000000000000000e+02 7.700000000000000000e+02 7.710000000000000000e+02 7.720000000000000000e+02 7.730000000000000000e+02 7.740000000000000000e+02 7.750000000000000000e+02 7.760000000000000000e+02 7.770000000000000000e+02 7.780000000000000000e+02 7.790000000000000000e+02 7.800000000000000000e+02 7.810000000000000000e+02 7.820000000000000000e+02 7.830000000000000000e+02 7.840000000000000000e+02 7.850000000000000000e+02 7.860000000000000000e+02 7.870000000000000000e+02 7.880000000000000000e+02 7.890000000000000000e+02 7.900000000000000000e+02 7.910000000000000000e+02 7.920000000000000000e+02 7.930000000000000000e+02 7.940000000000000000e+02 7.950000000000000000e+02 7.960000000000000000e+02 7.970000000000000000e+02 7.980000000000000000e+02 7.990000000000000000e+02 8.000000000000000000e+02 8.010000000000000000e+02 8.020000000000000000e+02 8.030000000000000000e+02 8.040000000000000000e+02 8.050000000000000000e+02 8.060000000000000000e+02 8.070000000000000000e+02 8.080000000000000000e+02 8.090000000000000000e+02 8.100000000000000000e+02 8.110000000000000000e+02 8.120000000000000000e+02 8.130000000000000000e+02 8.140000000000000000e+02 8.150000000000000000e+02 8.160000000000000000e+02 8.170000000000000000e+02 8.180000000000000000e+02 8.190000000000000000e+02 8.200000000000000000e+02 8.210000000000000000e+02 8.220000000000000000e+02 8.230000000000000000e+02 8.240000000000000000e+02 8.250000000000000000e+02 8.260000000000000000e+02 8.270000000000000000e+02 8.280000000000000000e+02 8.290000000000000000e+02 8.300000000000000000e+02 8.310000000000000000e+02 8.320000000000000000e+02 8.330000000000000000e+02 8.340000000000000000e+02 8.350000000000000000e+02 8.360000000000000000e+02 8.370000000000000000e+02 8.380000000000000000e+02 8.390000000000000000e+02 8.400000000000000000e+02 8.410000000000000000e+02 8.420000000000000000e+02 8.430000000000000000e+02 8.440000000000000000e+02 8.450000000000000000e+02 8.460000000000000000e+02 8.470000000000000000e+02 8.480000000000000000e+02 8.490000000000000000e+02 8.500000000000000000e+02 8.510000000000000000e+02 8.520000000000000000e+02 8.530000000000000000e+02 8.540000000000000000e+02 8.550000000000000000e+02 8.560000000000000000e+02 8.570000000000000000e+02 8.580000000000000000e+02 8.590000000000000000e+02 8.600000000000000000e+02 8.610000000000000000e+02 8.620000000000000000e+02 8.630000000000000000e+02 8.640000000000000000e+02 8.650000000000000000e+02 8.660000000000000000e+02 8.670000000000000000e+02 8.680000000000000000e+02 8.690000000000000000e+02 8.700000000000000000e+02 8.710000000000000000e+02 8.720000000000000000e+02 8.730000000000000000e+02 8.740000000000000000e+02 8.750000000000000000e+02 8.760000000000000000e+02 8.770000000000000000e+02 8.780000000000000000e+02 8.790000000000000000e+02 8.800000000000000000e+02 8.810000000000000000e+02 8.820000000000000000e+02 8.830000000000000000e+02 8.840000000000000000e+02 8.850000000000000000e+02 8.860000000000000000e+02 8.870000000000000000e+02 8.880000000000000000e+02 8.890000000000000000e+02 8.900000000000000000e+02 8.910000000000000000e+02 8.920000000000000000e+02 8.930000000000000000e+02 8.940000000000000000e+02 8.950000000000000000e+02 8.960000000000000000e+02 8.970000000000000000e+02 8.980000000000000000e+02 8.990000000000000000e+02 9.000000000000000000e+02 9.010000000000000000e+02 9.020000000000000000e+02 9.030000000000000000e+02 9.040000000000000000e+02 9.050000000000000000e+02 9.060000000000000000e+02 9.070000000000000000e+02 9.080000000000000000e+02 9.090000000000000000e+02 9.100000000000000000e+02 9.110000000000000000e+02 9.120000000000000000e+02 9.130000000000000000e+02 9.140000000000000000e+02 9.150000000000000000e+02 9.160000000000000000e+02 9.170000000000000000e+02 9.180000000000000000e+02 9.190000000000000000e+02 9.200000000000000000e+02 9.210000000000000000e+02 9.220000000000000000e+02 9.230000000000000000e+02 9.240000000000000000e+02 9.250000000000000000e+02 9.260000000000000000e+02 9.270000000000000000e+02 9.280000000000000000e+02 9.290000000000000000e+02 9.300000000000000000e+02 9.310000000000000000e+02 9.320000000000000000e+02 9.330000000000000000e+02 9.340000000000000000e+02 9.350000000000000000e+02 9.360000000000000000e+02 9.370000000000000000e+02 9.380000000000000000e+02 9.390000000000000000e+02 9.400000000000000000e+02 9.410000000000000000e+02 9.420000000000000000e+02 9.430000000000000000e+02 9.440000000000000000e+02 9.450000000000000000e+02 9.460000000000000000e+02 9.470000000000000000e+02 9.480000000000000000e+02 9.490000000000000000e+02 9.500000000000000000e+02 9.510000000000000000e+02 9.520000000000000000e+02 9.530000000000000000e+02 9.540000000000000000e+02 9.550000000000000000e+02 9.560000000000000000e+02 9.570000000000000000e+02 9.580000000000000000e+02 9.590000000000000000e+02 9.600000000000000000e+02 9.610000000000000000e+02 9.620000000000000000e+02 9.630000000000000000e+02 9.640000000000000000e+02 9.650000000000000000e+02 9.660000000000000000e+02 9.670000000000000000e+02 9.680000000000000000e+02 9.690000000000000000e+02 9.700000000000000000e+02 9.710000000000000000e+02 9.720000000000000000e+02 9.730000000000000000e+02 9.740000000000000000e+02 9.750000000000000000e+02 9.760000000000000000e+02 9.770000000000000000e+02 9.780000000000000000e+02 9.790000000000000000e+02 9.800000000000000000e+02 9.810000000000000000e+02 9.820000000000000000e+02 9.830000000000000000e+02 9.840000000000000000e+02 9.850000000000000000e+02 9.860000000000000000e+02 9.870000000000000000e+02 9.880000000000000000e+02 9.890000000000000000e+02 9.900000000000000000e+02 9.910000000000000000e+02 9.920000000000000000e+02 9.930000000000000000e+02 9.940000000000000000e+02 9.950000000000000000e+02 9.960000000000000000e+02 9.970000000000000000e+02 9.980000000000000000e+02 9.990000000000000000e+02
1.000000000000000000e+00 1.000000000000000000e+00 1.000000000000000000e+00 1.000000000000000000e+00 1.000000000000000000e+00 1.000000000000000000e+00 1.000000000000000000e+00 1.000000000000000000e+00 1.000000000000000000e+00 1.000000000000000000e+00 1.000000000000000000e+00 1.000000000000000000e+00 1.000000000000000000e+00 1.000000000000000000e+00 1.000000000000000000e+00 1.000000000000000000e+00 1.000000000000000000e+00 1.000000000000000000e+00 1.000000000000000000e+00 1.000000000000000000e+00 1.000000000000000000e+00 1.000000000000000000e+00 1.000000000000000000e+00 1.000000000000000000e+00 1.000000000000000000e+00 1.000000000000000000e+00 1.000000000000000000e+00 1.000000000000000000e+00 1.000000000000000000e+00 1.000000000000000000e+00 1.000000000000000000e+00 1.000000000000000000e+00 1.000000000000000000e+00 1.000000000000000000e+00 1.000000000000000000e+00 1.000000000000000000e+00 1.000000000000000000e+00 1.000000000000000000e+00 1.000000000000000000e+00 1.000000000000000000e+00 1.000000000000000000e+00 1.000000000000000000e+00 1.000000000000000000e+00 1.000000000000000000e+00 1.000000000000000000e+00 1.000000000000000000e+00 1.000000000000000000e+00 1.000000000000000000e+00 1.000000000000000000e+00 1.000000000000000000e+00 1.000000000000000000e+00 1.000000000000000000e+00 1.000000000000000000e+00 1.000000000000000000e+00 1.000000000000000000e+00 1.000000000000000000e+00 1.000000000000000000e+00 1.000000000000000000e+00 1.000000000000000000e+00 1.000000000000000000e+00 1.000000000000000000e+00 1.000000000000000000e+00 1.000000000000000000e+00 1.000000000000000000e+00 1.000000000000000000e+00 1.000000000000000000e+00 1.000000000000000000e+00 1.000000000000000000e+00 1.000000000000000000e+00 1.000000000000000000e+00 1.000000000000000000e+00 1.000000000000000000e+00 1.000000000000000000e+00 1.000000000000000000e+00 1.000000000000000000e+00 1.000000000000000000e+00 1.000000000000000000e+00 1.000000000000000000e+00 1.000000000000000000e+00 1.000000000000000000e+00 1.000000000000000000e+00 1.000000000000000000e+00 1.000000000000000000e+00 1.000000000000000000e+00 1.000000000000000000e+00 1.000000000000000000e+00 1.000000000000000000e+00 1.000000000000000000e+00 1.000000000000000000e+00 1.000000000000000000e+00 1.000000000000000000e+00 1.000000000000000000e+00 1.000000000000000000e+00 1.000000000000000000e+00 1.000000000000000000e+00 1.000000000000000000e+00 1.000000000000000000e+00 1.000000000000000000e+00 1.000000000000000000e+00 1.000000000000000000e+00 1.000000000000000000e+00 1.000000000000000000e+00 1.000000000000000000e+00 1.000000000000000000e+00 1.000000000000000000e+00 1.000000000000000000e+00 1.000000000000000000e+00 1.000000000000000000e+00 1.000000000000000000e+00 1.000000000000000000e+00 1.000000000000000000e+00 1.000000000000000000e+00 1.000000000000000000e+00 1.000000000000000000e+00 1.000000000000000000e+00 1.000000000000000000e+00 1.000000000000000000e+00 1.000000000000000000e+00 1.000000000000000000e+00 1.000000000000000000e+00 1.000000000000000000e+00 1.000000000000000000e+00 1.000000000000000000e+00 1.000000000000000000e+00 1.000000000000000000e+00 1.000000000000000000e+00 1.000000000000000000e+00 1.000000000000000000e+00 1.000000000000000000e+00 1.000000000000000000e+00 1.000000000000000000e+00 1.000000000000000000e+00 1.000000000000000000e+00 1.000000000000000000e+00 1.000000000000000000e+00 1.000000000000000000e+00 1.000000000000000000e+00 1.000000000000000000e+00 1.000000000000000000e+00 1.000000000000000000e+00 1.000000000000000000e+00 1.000000000000000000e+00 1.000000000000000000e+00 1.000000000000000000e+00 1.000000000000000000e+00 1.000000000000000000e+00 1.000000000000000000e+00 1.000000000000000000e+00 1.000000000000000000e+00 1.000000000000000000e+00 1.000000000000000000e+00 1.000000000000000000e+00 1.000000000000000000e+00 1.000000000000000000e+00 1.000000000000000000e+00 1.000000000000000000e+00 1.000000000000000000e+00 1.000000000000000000e+00 1.000000000000000000e+00 1.000000000000000000e+00 1.000000000000000000e+00 1.000000000000000000e+00 1.000000000000000000e+00 1.000000000000000000e+00 1.000000000000000000e+00 1.000000000000000000e+00 1.000000000000000000e+00 1.000000000000000000e+00 1.000000000000000000e+00 1.000000000000000000e+00 1.000000000000000000e+00 1.000000000000000000e+00 1.000000000000000000e+00 1.000000000000000000e+00 1.000000000000000000e+00 1.000000000000000000e+00 1.000000000000000000e+00 1.000000000000000000e+00 1.000000000000000000e+00 1.000000000000000000e+00 1.000000000000000000e+00 1.000000000000000000e+00 1.000000000000000000e+00 1.000000000000000000e+00 1.000000000000000000e+00 1.000000000000000000e+00 1.000000000000000000e+00 1.000000000000000000e+00 1.000000000000000000e+00 1.000000000000000000e+00 1.000000000000000000e+00 1.000000000000000000e+00 1.000000000000000000e+00 1.000000000000000000e+00 1.000000000000000000e+00 1.000000000000000000e+00 1.000000000000000000e+00 1.000000000000000000e+00 1.000000000000000000e+00 1.000000000000000000e+00 1.000000000000000000e+00 1.000000000000000000e+00 1.000000000000000000e+00 1.000000000000000000e+00 1.000000000000000000e+00 1.000000000000000000e+00 1.000000000000000000e+00 1.000000000000000000e+00 1.000000000000000000e+00 1.000000000000000000e+00 1.000000000000000000e+00 1.000000000000000000e+00 1.000000000000000000e+00 1.000000000000000000e+00 1.000000000000000000e+00 1.000000000000000000e+00 1.000000000000000000e+00 1.000000000000000000e+00 1.000000000000000000e+00 1.000000000000000000e+00 1.000000000000000000e+00 1.000000000000000000e+00 1.000000000000000000e+00 1.000000000000000000e+00 1.000000000000000000e+00 1.000000000000000000e+00 1.000000000000000000e+00 1.000000000000000000e+00 1.000000000000000000e+00 1.000000000000000000e+00 1.000000000000000000e+00 1.000000000000000000e+00 1.000000000000000000e+00 1.000000000000000000e+00 1.000000000000000000e+00 1.000000000000000000e+00 1.000000000000000000e+00 1.000000000000000000e+00 1.000000000000000000e+00 1.000000000000000000e+00 1.000000000000000000e+00 1.000000000000000000e+00 1.000000000000000000e+00 1.000000000000000000e+00 1.000000000000000000e+00 1.000000000000000000e+00 1.000000000000000000e+00 1.000000000000000000e+00 1.000000000000000000e+00 1.000000000000000000e+00 1.000000000000000000e+00 1.000000000000000000e+00 1.000000000000000000e+00 1.000000000000000000e+00 1.000000000000000000e+00 1.000000000000000000e+00 1.000000000000000000e+00 1.000000000000000000e+00 1.000000000000000000e+00 1.000000000000000000e+00 1.000000000000000000e+00 1.000000000000000000e+00 1.000000000000000000e+00 1.000000000000000000e+00 1.000000000000000000e+00 1.000000000000000000e+00 1.000000000000000000e+00 1.000000000000000000e+00 1.000000000000000000e+00 1.000000000000000000e+00 1.000000000000000000e+00 1.000000000000000000e+00 1.000000000000000000e+00 1.000000000000000000e+00 1.000000000000000000e+00 1.000000000000000000e+00 1.000000000000000000e+00 1.000000000000000000e+00 1.000000000000000000e+00 1.000000000000000000e+00 1.000000000000000000e+00 1.000000000000000000e+00 1.000000000000000000e+00 1.000000000000000000e+00 1.000000000000000000e+00 1.000000000000000000e+00 1.000000000000000000e+00 1.000000000000000000e+00 1.000000000000000000e+00 1.000000000000000000e+00 1.000000000000000000e+00 1.000000000000000000e+00 1.000000000000000000e+00 1.000000000000000000e+00 1.000000000000000000e+00 1.000000000000000000e+00 1.000000000000000000e+00 1.000000000000000000e+00 1.000000000000000000e+00 1.000000000000000000e+00 1.000000000000000000e+00 1.000000000000000000e+00 1.000000000000000000e+00 1.000000000000000000e+00 1.000000000000000000e+00 1.000000000000000000e+00 1.000000000000000000e+00 1.000000000000000000e+00 1.000000000000000000e+00 1.000000000000000000e+00 1.000000000000000000e+00 1.000000000000000000e+00 1.000000000000000000e+00 1.000000000000000000e+00 1.000000000000000000e+00 1.000000000000000000e+00 1.000000000000000000e+00 1.000000000000000000e+00 1.000000000000000000e+00 1.000000000000000000e+00 1.000000000000000000e+00 1.000000000000000000e+00 1.000000000000000000e+00 1.000000000000000000e+00 1.000000000000000000e+00 1.000000000000000000e+00 1.000000000000000000e+00 1.000000000000000000e+00 1.000000000000000000e+00 1.000000000000000000e+00 1.000000000000000000e+00 1.000000000000000000e+00 1.000000000000000000e+00 1.000000000000000000e+00 1.000000000000000000e+00 1.000000000000000000e+00 1.000000000000000000e+00 1.000000000000000000e+00 1.000000000000000000e+00 1.000000000000000000e+00 1.000000000000000000e+00 1.000000000000000000e+00 1.000000000000000000e+00 1.000000000000000000e+00 1.000000000000000000e+00 1.000000000000000000e+00 1.000000000000000000e+00 1.000000000000000000e+00 1.000000000000000000e+00 1.000000000000000000e+00 1.000000000000000000e+00 1.000000000000000000e+00 1.000000000000000000e+00 1.000000000000000000e+00 1.000000000000000000e+00 1.000000000000000000e+00 1.000000000000000000e+00 1.000000000000000000e+00 1.000000000000000000e+00 1.000000000000000000e+00 1.000000000000000000e+00 1.000000000000000000e+00 1.000000000000000000e+00 1.000000000000000000e+00 1.000000000000000000e+00 1.000000000000000000e+00 1.000000000000000000e+00 1.000000000000000000e+00 1.000000000000000000e+00 1.000000000000000000e+00 1.000000000000000000e+00 1.000000000000000000e+00 1.000000000000000000e+00 1.000000000000000000e+00 1.000000000000000000e+00 1.000000000000000000e+00 1.000000000000000000e+00 1.000000000000000000e+00 1.000000000000000000e+00 1.000000000000000000e+00 1.000000000000000000e+00 1.000000000000000000e+00 1.000000000000000000e+00 1.000000000000000000e+00 1.000000000000000000e+00 1.000000000000000000e+00 1.000000000000000000e+00 1.000000000000000000e+00 1.000000000000000000e+00 1.000000000000000000e+00 1.000000000000000000e+00 1.000000000000000000e+00 1.000000000000000000e+00 1.000000000000000000e+00 1.000000000000000000e+00 1.000000000000000000e+00 1.000000000000000000e+00 1.000000000000000000e+00 1.000000000000000000e+00 1.000000000000000000e+00 1.000000000000000000e+00 1.000000000000000000e+00 1.000000000000000000e+00 1.000000000000000000e+00 1.000000000000000000e+00 1.000000000000000000e+00 1.000000000000000000e+00 1.000000000000000000e+00 1.000000000000000000e+00 1.000000000000000000e+00 1.000000000000000000e+00 1.000000000000000000e+00 1.000000000000000000e+00 1.000000000000000000e+00 1.000000000000000000e+00 1.000000000000000000e+00 1.000000000000000000e+00 1.000000000000000000e+00 1.000000000000000000e+00 1.000000000000000000e+00 1.000000000000000000e+00 1.000000000000000000e+00 1.000000000000000000e+00 1.000000000000000000e+00 1.000000000000000000e+00 1.000000000000000000e+00 1.000000000000000000e+00 1.000000000000000000e+00 1.000000000000000000e+00 1.000000000000000000e+00 1.000000000000000000e+00 1.000000000000000000e+00 1.000000000000000000e+00 1.000000000000000000e+00 1.000000000000000000e+00 1.000000000000000000e+00 1.000000000000000000e+00 1.000000000000000000e+00 1.000000000000000000e+00 1.000000000000000000e+00 1.000000000000000000e+00 1.000000000000000000e+00 1.000000000000000000e+00 1.000000000000000000e+00 1.000000000000000000e+00 1.000000000000000000e+00 1.000000000000000000e+00 1.000000000000000000e+00 1.000000000000000000e+00 1.000000000000000000e+00 1.000000000000000000e+00 1.000000000000000000e+00 1.000000000000000000e+00 1.000000000000000000e+00 1.000000000000000000e+00 1.000000000000000000e+00 1.000000000000000000e+00 1.000000000000000000e+00 1.000000000000000000e+00 1.000000000000000000e+00 1.000000000000000000e+00 1.000000000000000000e+00 1.000000000000000000e+00 1.000000000000000000e+00 1.000000000000000000e+00 1.000000000000000000e+00 1.000000000000000000e+00 1.000000000000000000e+00 1.000000000000000000e+00 1.000000000000000000e+00 1.000000000000000000e+00 1.000000000000000000e+00 1.000000000000000000e+00 1.000000000000000000e+00 1.000000000000000000e+00 1.000000000000000000e+00 1.000000000000000000e+00 1.000000000000000000e+00 1.000000000000000000e+00 1.000000000000000000e+00 1.000000000000000000e+00 1.000000000000000000e+00 1.000000000000000000e+00 1.000000000000000000e+00 1.000000000000000000e+00 1.000000000000000000e+00 1.000000000000000000e+00 1.000000000000000000e+00 1.000000000000000000e+00 1.000000000000000000e+00 1.000000000000000000e+00 1.000000000000000000e+00 1.000000000000000000e+00 1.000000000000000000e+00 1.000000000000000000e+00 1.000000000000000000e+00 1.000000000000000000e+00 1.000000000000000000e+00 1.000000000000000000e+00 1.000000000000000000e+00 1.000000000000000000e+00 1.000000000000000000e+00 1.000000000000000000e+00 1.000000000000000000e+00 1.000000000000000000e+00 1.000000000000000000e+00 1.000000000000000000e+00 1.000000000000000000e+00 1.000000000000000000e+00 1.000000000000000000e+00 1.000000000000000000e+00 1.000000000000000000e+00 1.000000000000000000e+00 1.000000000000000000e+00 1.000000000000000000e+00 1.000000000000000000e+00 1.000000000000000000e+00 1.000000000000000000e+00 1.000000000000000000e+00 1.000000000000000000e+00 1.000000000000000000e+00 1.000000000000000000e+00 1.000000000000000000e+00 1.000000000000000000e+00 1.000000000000000000e+00 1.000000000000000000e+00 1.000000000000000000e+00 1.000000000000000000e+00 1.000000000000000000e+00 1.000000000000000000e+00 1.000000000000000000e+00 1.000000000000000000e+00 1.000000000000000000e+00 1.000000000000000000e+00 1.000000000000000000e+00 1.000000000000000000e+00 1.000000000000000000e+00 1.000000000000000000e+00 1.000000000000000000e+00 1.000000000000000000e+00 1.000000000000000000e+00 1.000000000000000000e+00 1.000000000000000000e+00 1.000000000000000000e+00 1.000000000000000000e+00 1.000000000000000000e+00 1.000000000000000000e+00 1.000000000000000000e+00 1.000000000000000000e+00 1.000000000000000000e+00 1.000000000000000000e+00 1.000000000000000000e+00 1.000000000000000000e+00 1.000000000000000000e+00 1.000000000000000000e+00 1.000000000000000000e+00 1.000000000000000000e+00 1.000000000000000000e+00 1.000000000000000000e+00 1.000000000000000000e+00 1.000000000000000000e+00 1.000000000000000000e+00 1.000000000000000000e+00 1.000000000000000000e+00 1.000000000000000000e+00 1.000000000000000000e+00 1.000000000000000000e+00 1.000000000000000000e+00 1.000000000000000000e+00 1.000000000000000000e+00 1.000000000000000000e+00 1.000000000000000000e+00 1.000000000000000000e+00 1.000000000000000000e+00 1.000000000000000000e+00 1.000000000000000000e+00 1.000000000000000000e+00 1.000000000000000000e+00 1.000000000000000000e+00 1.000000000000000000e+00 1.000000000000000000e+00 1.000000000000000000e+00 1.000000000000000000e+00 1.000000000000000000e+00 1.000000000000000000e+00 1.000000000000000000e+00 1.000000000000000000e+00 1.000000000000000000e+00 1.000000000000000000e+00 1.000000000000000000e+00 1.000000000000000000e+00 1.000000000000000000e+00 1.000000000000000000e+00 1.000000000000000000e+00 1.000000000000000000e+00 1.000000000000000000e+00 1.000000000000000000e+00 1.000000000000000000e+00 1.000000000000000000e+00 1.000000000000000000e+00 1.000000000000000000e+00 1.000000000000000000e+00 1.000000000000000000e+00 1.000000000000000000e+00 1.000000000000000000e+00 1.000000000000000000e+00 1.000000000000000000e+00 1.000000000000000000e+00 1.000000000000000000e+00 1.000000000000000000e+00 1.000000000000000000e+00 1.000000000000000000e+00 1.000000000000000000e+00 1.000000000000000000e+00 1.000000000000000000e+00 1.000000000000000000e+00 1.000000000000000000e+00 1.000000000000000000e+00 1.000000000000000000e+00 1.000000000000000000e+00 1.000000000000000000e+00 1.000000000000000000e+00 1.000000000000000000e+00 1.000000000000000000e+00 1.000000000000000000e+00 1.000000000000000000e+00 1.000000000000000000e+00 1.000000000000000000e+00 1.000000000000000000e+00 1.000000000000000000e+00 1.000000000000000000e+00 1.000000000000000000e+00 1.000000000000000000e+00 1.000000000000000000e+00 1.000000000000000000e+00 1.000000000000000000e+00 1.000000000000000000e+00 1.000000000000000000e+00 1.000000000000000000e+00 1.000000000000000000e+00 1.000000000000000000e+00 1.000000000000000000e+00 1.000000000000000000e+00 1.000000000000000000e+00 1.000000000000000000e+00 1.000000000000000000e+00 1.000000000000000000e+00 1.000000000000000000e+00 1.000000000000000000e+00 1.000000000000000000e+00 1.000000000000000000e+00 1.000000000000000000e+00 1.000000000000000000e+00 1.000000000000000000e+00 1.000000000000000000e+00 1.000000000000000000e+00 1.000000000000000000e+00 1.000000000000000000e+00 1.000000000000000000e+00 1.000000000000000000e+00 1.000000000000000000e+00 1.000000000000000000e+00 1.000000000000000000e+00 1.000000000000000000e+00 1.000000000000000000e+00 1.000000000000000000e+00 1.000000000000000000e+00 1.000000000000000000e+00 1.000000000000000000e+00 1.000000000000000000e+00 1.000000000000000000e+00 1.000000000000000000e+00 1.000000000000000000e+00 1.000000000000000000e+00 1.000000000000000000e+00 1.000000000000000000e+00 1.000000000000000000e+00 1.000000000000000000e+00 1.000000000000000000e+00 1.000000000000000000e+00 1.000000000000000000e+00 1.000000000000000000e+00 1.000000000000000000e+00 1.000000000000000000e+00 1.000000000000000000e+00 1.000000000000000000e+00 1.000000000000000000e+00 1.000000000000000000e+00 1.000000000000000000e+00 1.000000000000000000e+00 1.000000000000000000e+00 1.000000000000000000e+00 1.000000000000000000e+00 1.000000000000000000e+00 1.000000000000000000e+00 1.000000000000000000e+00 1.000000000000000000e+00 1.000000000000000000e+00 1.000000000000000000e+00 1.000000000000000000e+00 1.000000000000000000e+00 1.000000000000000000e+00 1.000000000000000000e+00 1.000000000000000000e+00 1.000000000000000000e+00 1.000000000000000000e+00 1.000000000000000000e+00 1.000000000000000000e+00 1.000000000000000000e+00 1.000000000000000000e+00 1.000000000000000000e+00 1.000000000000000000e+00 1.000000000000000000e+00 1.000000000000000000e+00 1.000000000000000000e+00 1.000000000000000000e+00 1.000000000000000000e+00 1.000000000000000000e+00 1.000000000000000000e+00 1.000000000000000000e+00 1.000000000000000000e+00 1.000000000000000000e+00 1.000000000000000000e+00 1.000000000000000000e+00 1.000000000000000000e+00 1.000000000000000000e+00 1.000000000000000000e+00 1.000000000000000000e+00 1.000000000000000000e+00 1.000000000000000000e+00 1.000000000000000000e+00 1.000000000000000000e+00 1.000000000000000000e+00 1.000000000000000000e+00 1.000000000000000000e+00 1.000000000000000000e+00 1.000000000000000000e+00 1.000000000000000000e+00 1.000000000000000000e+00 1.000000000000000000e+00 1.000000000000000000e+00 1.000000000000000000e+00 1.000000000000000000e+00 1.000000000000000000e+00 1.000000000000000000e+00 1.000000000000000000e+00 1.000000000000000000e+00 1.000000000000000000e+00 1.000000000000000000e+00 1.000000000000000000e+00 1.000000000000000000e+00 1.000000000000000000e+00 1.000000000000000000e+00 1.000000000000000000e+00 1.000000000000000000e+00 1.000000000000000000e+00 1.000000000000000000e+00 1.000000000000000000e+00 1.000000000000000000e+00 1.000000000000000000e+00 1.000000000000000000e+00 1.000000000000000000e+00 1.000000000000000000e+00 1.000000000000000000e+00 1.000000000000000000e+00 1.000000000000000000e+00 1.000000000000000000e+00 1.000000000000000000e+00 1.000000000000000000e+00 1.000000000000000000e+00 1.000000000000000000e+00 1.000000000000000000e+00 1.000000000000000000e+00 1.000000000000000000e+00 1.000000000000000000e+00 1.000000000000000000e+00 1.000000000000000000e+00 1.000000000000000000e+00 1.000000000000000000e+00 1.000000000000000000e+00 1.000000000000000000e+00 1.000000000000000000e+00 1.000000000000000000e+00 1.000000000000000000e+00 1.000000000000000000e+00 1.000000000000000000e+00 1.000000000000000000e+00 1.000000000000000000e+00 1.000000000000000000e+00 1.000000000000000000e+00 1.000000000000000000e+00 1.000000000000000000e+00 1.000000000000000000e+00 1.000000000000000000e+00 1.000000000000000000e+00 1.000000000000000000e+00 1.000000000000000000e+00 1.000000000000000000e+00 1.000000000000000000e+00 1.000000000000000000e+00 1.000000000000000000e+00 1.000000000000000000e+00 1.000000000000000000e+00 1.000000000000000000e+00 1.000000000000000000e+00 1.000000000000000000e+00 1.000000000000000000e+00 1.000000000000000000e+00 1.000000000000000000e+00 1.000000000000000000e+00 1.000000000000000000e+00 1.000000000000000000e+00 1.000000000000000000e+00 1.000000000000000000e+00 1.000000000000000000e+00 1.000000000000000000e+00 1.000000000000000000e+00 1.000000000000000000e+00 1.000000000000000000e+00 1.000000000000000000e+00 1.000000000000000000e+00 1.000000000000000000e+00 1.000000000000000000e+00 1.000000000000000000e+00 1.000000000000000000e+00 1.000000000000000000e+00 1.000000000000000000e+00 1.000000000000000000e+00 1.000000000000000000e+00 1.000000000000000000e+00 1.000000000000000000e+00 1.000000000000000000e+00 1.000000000000000000e+00 1.000000000000000000e+00 1.000000000000000000e+00 1.000000000000000000e+00 1.000000000000000000e+00 1.000000000000000000e+00 1.000000000000000000e+00 1.000000000000000000e+00 1.000000000000000000e+00 1.000000000000000000e+00 1.000000000000000000e+00 1.000000000000000000e+00 1.000000000000000000e+00 1.000000000000000000e+00 1.000000000000000000e+00 1.000000000000000000e+00 1.000000000000000000e+00 1.000000000000000000e+00 1.000000000000000000e+00 1.000000000000000000e+00 1.000000000000000000e+00 1.000000000000000000e+00 1.000000000000000000e+00 1.000000000000000000e+00 1.000000000000000000e+00 1.000000000000000000e+00 1.000000000000000000e+00 1.000000000000000000e+00 1.000000000000000000e+00 1.000000000000000000e+00 1.000000000000000000e+00 1.000000000000000000e+00 1.000000000000000000e+00 1.000000000000000000e+00 1.000000000000000000e+00 1.000000000000000000e+00 1.000000000000000000e+00 1.000000000000000000e+00 1.000000000000000000e+00 1.000000000000000000e+00 1.000000000000000000e+00 1.000000000000000000e+00 1.000000000000000000e+00 1.000000000000000000e+00 1.000000000000000000e+00 1.000000000000000000e+00 1.000000000000000000e+00 1.000000000000000000e+00 1.000000000000000000e+00 1.000000000000000000e+00 1.000000000000000000e+00 1.000000000000000000e+00 1.000000000000000000e+00 1.000000000000000000e+00 1.000000000000000000e+00 1.000000000000000000e+00 1.000000000000000000e+00 1.000000000000000000e+00 1.000000000000000000e+00 1.000000000000000000e+00 1.000000000000000000e+00 1.000000000000000000e+00 1.000000000000000000e+00 1.000000000000000000e+00 1.000000000000000000e+00 1.000000000000000000e+00 1.000000000000000000e+00 1.000000000000000000e+00 1.000000000000000000e+00 1.000000000000000000e+00 1.000000000000000000e+00 1.000000000000000000e+00 1.000000000000000000e+00 1.000000000000000000e+00 1.000000000000000000e+00 1.000000000000000000e+00 1.000000000000000000e+00 1.000000000000000000e+00 1.000000000000000000e+00 1.000000000000000000e+00 1.000000000000000000e+00 1.000000000000000000e+00 1.000000000000000000e+00 1.000000000000000000e+00 1.000000000000000000e+00 1.000000000000000000e+00 1.000000000000000000e+00 1.000000000000000000e+00 1.000000000000000000e+00 1.000000000000000000e+00 1.000000000000000000e+00 1.000000000000000000e+00 1.000000000000000000e+00 1.000000000000000000e+00 1.000000000000000000e+00 1.000000000000000000e+00 1.000000000000000000e+00 1.000000000000000000e+00 1.000000000000000000e+00 1.000000000000000000e+00 1.000000000000000000e+00 1.000000000000000000e+00 1.000000000000000000e+00 1.000000000000000000e+00 1.000000000000000000e+00 1.000000000000000000e+00 1.000000000000000000e+00 1.000000000000000000e+00 1.000000000000000000e+00 1.000000000000000000e+00 1.000000000000000000e+00 1.000000000000000000e+00 1.000000000000000000e+00 1.000000000000000000e+00 1.000000000000000000e+00 1.000000000000000000e+00 1.000000000000000000e+00 1.000000000000000000e+00 1.000000000000000000e+00 1.000000000000000000e+00 1.000000000000000000e+00 1.000000000000000000e+00 1.000000000000000000e+00 1.000000000000000000e+00 1.000000000000000000e+00 1.000000000000000000e+00 1.000000000000000000e+00 1.000000000000000000e+00 1.000000000000000000e+00 1.000000000000000000e+00 1.000000000000000000e+00 1.000000000000000000e+00 1.000000000000000000e+00 1.000000000000000000e+00 1.000000000000000000e+00 1.000000000000000000e+00 1.000000000000000000e+00 1.000000000000000000e+00 1.000000000000000000e+00 1.000000000000000000e+00 1.000000000000000000e+00 1.000000000000000000e+00 1.000000000000000000e+00 1.000000000000000000e+00 1.000000000000000000e+00 1.000000000000000000e+00 1.000000000000000000e+00 1.000000000000000000e+00 1.000000000000000000e+00 1.000000000000000000e+00 1.000000000000000000e+00 1.000000000000000000e+00 1.000000000000000000e+00 1.000000000000000000e+00 1.000000000000000000e+00 1.000000000000000000e+00 1.000000000000000000e+00 1.000000000000000000e+00 1.000000000000000000e+00 1.000000000000000000e+00 1.000000000000000000e+00 1.000000000000000000e+00 1.000000000000000000e+00 1.000000000000000000e+00 1.000000000000000000e+00 1.000000000000000000e+00 1.000000000000000000e+00 1.000000000000000000e+00
3.117278781641811408e-02 5.204237245679823598e-01 -2.455935598979479551e-01 7.555525664858361301e-01 5.167006761222603384e-01 5.016715462348382282e-01 6.070343463457129607e-01 3.098974222386289279e-01 5.362801624906585740e-01 5.138639205316336556e-01 1.081519305831157407e+00 -7.014475175777209470e-01 1.407418394574783571e+00 4.561186080298078593e-01 5.142922588374131410e-01 3.980794465171590968e-01 8.775606681200744941e-01 9.778885886956742990e-01 7.177861623635714006e-01 5.204937906884197218e-01 3.858528378068653009e-01 9.853699453146175236e-01 4.011501537423060593e-01 5.016167730544006664e-01 8.809143381811640472e-02 6.709260993586281252e-01 3.813266551109780744e-01 6.741270081909054301e-01 5.564777562245220022e-01 1.586318510209302479e+00 5.078640682363904091e-01 6.097531472826848153e-01 7.191762785743577302e-01 5.188037328197712128e-01 7.027555914762393385e-01 4.525928546964958499e-01 5.097928434903644668e-01 1.800721492654268507e+00 -7.377913683232635578e-02 5.088844361591268184e-01 -1.803536488612641486e-01 -5.614775646323229008e-01 7.486939862622510322e-01 2.272305004107543491e-01 2.914849594453036152e-01 5.105920066570486249e-01 7.555111029639570708e-01 5.282889567909920814e-01 6.325267350784414822e-01 1.596992141496260745e-02 1.622672737923991360e-02 8.092548466230122806e-01 6.772379572056888009e-01 4.380557255028331709e-01 4.585115814113787103e-01 1.792475960707683516e-02 5.041085964133517061e-01 5.252146106416291094e-01 1.926484627030830565e-01 4.783732398518647511e-01 9.172344626464357109e-01 5.111058070746200555e-01 5.361875387377609270e-01 4.011503130895980318e-01 6.798088817920958649e-01 5.963634842905266575e-01 5.204066016148890528e-01 3.313756196519235808e-01 5.638955424455565080e-01 1.198326490911247148e-02 4.272735771890455170e-01 5.656486648372501813e-01 5.150284573112947628e-01 1.265345653872824994e-02 1.510193280078544253e+00 5.506808004755934238e-01 6.354034285644766245e-01 7.300885317436386357e-01 5.152991706602223498e-01 1.384267219188078712e+00 5.200557972769760395e-01 3.227668657931501150e-01 1.410226455115770827e+00 7.277413946184720928e-01 4.985994250828943430e-01 7.551307205954476132e-01 8.041189320659366535e-01 5.499086565874816701e-01 4.148718846164215490e-01 5.760769535181842205e-01 2.879850412646824953e-01 2.187127187679390516e+00 7.558053324951249374e-01 -6.655501028660786716e-03 5.079681106578634031e-01 4.733350850350186989e-01 5.618594049864187312e-01 4.782722207707582052e-01 1.895982311149391197e-01 6.629644740480419296e-01 1.612482553602547108e+00 6.892302243481250867e-01 5.481758573735527884e-01 6.881236956679445127e-01 8.596437336954869668e-01 -2.079351214968548245e+00 -1.222722123239602388e+00 5.388864002014061017e-01 5.978486200489252500e-01 9.708639514755900146e-01 5.660458413902693664e-01 4.354781286274493901e-01 1.693563366364019274e-01 4.927839147128975639e-01 5.229451418928108275e-01 4.978382654905436633e-01 4.798052233719403703e-01 5.328140981231266338e-01 9.375311316028122066e-01 5.199876924721917870e-01 1.305477636559921661e+00 5.497581638538333593e-01 5.985933675945268595e-01 -4.552134180469483704e-01 5.117735010128759976e-01 1.951351383920465921e+00 5.557627756214903458e-01 5.542528034966582862e-01 6.837809100962033426e-01 5.192261663659262227e-01 5.212479869053885384e-01 5.122491687512288339e-01 4.240152346760930335e-01 3.640231428830637550e-01 -3.038815122128795121e-01 -1.670565886955938939e-01 6.484550558075364846e-01 5.197317955154009267e-02 1.001580763870401070e+00 6.208427426971852015e-01 5.085732077607534318e-01 8.663276565460287237e-01 5.861109097554064729e-01 5.679863153844728618e-01 5.158116756491146759e-01 5.099934350256556809e-02 9.272216299039125476e-01 -3.792425800255815743e-02 4.439223081798998605e-01 -8.947287896809961172e-01 7.672899076752541792e-01 -2.931165390286893935e-01 5.105891821179241452e-01 5.612838876359186324e-01 4.514729254372789047e-01 5.162779869689771983e-01 1.960774575630889860e+00 -1.150383766672287700e-01 8.163864425737415997e-01 6.853017035646443711e-01 5.344024787525335496e-01 4.149129093480022901e-01 4.956263344370011592e-01 5.139324023122249230e-01 1.078385602289666068e+00 1.992443792302198702e-01 8.504377629414938689e-01 3.577672993542150848e-01 4.672950693669999933e-01 6.582834519581469701e-01 5.217870096267982483e-01 7.547291494065698769e-01 5.106082985324261747e-01 5.178473156264443711e-01 4.044653843828620032e-01 4.623791253871780554e-02 1.972864439734987041e-01 9.289692631934746980e-02 7.485430647211456234e-01 1.142504989988931019e+00 6.946636962528532910e-01 5.289481306820147388e-01 -1.760635724303345750e-01 4.397611645428293747e-01 6.138132504325430894e-01 5.391187738914497984e-01 5.119463875248250195e-01 5.041296401433034147e-01 2.803099854323721551e+00 5.487564091897041418e-01 5.434334333007060369e-01 -8.958847891093756344e-01 5.272567124592731913e-01 5.437138407750776725e-01 1.901384700786211690e-01 5.121418170365554801e-01 9.365383647041286563e-01 5.262212965253673103e-01 5.913799565938382408e-01 4.468749378850601639e-01 6.291759882650889146e-01 4.933310618217240928e-01 9.104103276864119465e-01 6.012038999003503914e-01 5.432247638083599339e-01 5.913799034321370884e-01 2.366385947236721021e-01 1.290269965098586491e+00 5.539094220464220175e-01 4.065845432277898075e-01 4.303758082011990282e-01 -8.542836881075335786e-02 4.844738632374278042e-01 1.577912054277491039e-01 5.046302197664160882e-01 5.106314384382063531e-01 5.202999396079338590e-01 5.154429646169281787e-01 5.188488808660016716e-01 5.184391418412339636e-01 4.371164058133883423e-01 5.885818825966883105e-01 -7.093549110053412043e-01 6.034585064388749975e-01 3.908514641617821250e-01 3.729631872216751520e-01 7.904815646405247143e-02 1.310075257078868738e+00 9.611137899377764082e-01 4.959313044808119075e-01 -1.032785030899032730e-01 1.057323052912954919e+00 5.132049382343720767e-01 4.468737220220638795e-01 5.946344953237140407e-01 4.117902987502418122e-01 3.189316305137840368e-01 1.815634506907660428e-01 -1.558838203436219982e-01 -9.388702126561447592e-02 3.992936719428623604e-01 5.293323357487647041e-01 -1.087635533067650151e-01 4.315809800291629528e-01 5.192763215936838650e-01 4.877200512463663040e-01 -9.896262017101972730e-02 7.541931803230348397e-01 -2.292689864180240455e+00 6.124689428136466107e-01 -6.105735368203962787e-01 4.975590962962501140e-01 5.189612212649359346e-01 4.011493504068130989e-01 4.750169374702564173e-01 5.651482085507747444e-01 5.427359799937738760e-01 7.639139131246798220e-01 5.565004631166274862e-01 1.692721133322857785e+00 6.794072727844300275e-01 6.902690410915782726e-01 4.743643435158039767e-01 3.592062834771067581e-01 9.172345045106239381e-01 4.184589325595289844e-01 2.686422286468748588e+00 4.983209907105136671e-01 2.309885701999149499e-01 7.329875428612538935e-01 5.053469467481316313e-01 9.166271354063159071e-01 5.156275246708753590e-01 5.631840091392863457e-01 5.155454873242550917e-01 1.106978087012462364e+00 7.697320983955308060e-01 8.618484469509080093e-01 8.075940905348775178e-01 4.752052808128712225e-01 6.799315103629707258e-01 5.207124421119062596e-01 3.836830164303777768e-01 -7.245774018162518537e-01 3.864155453754102854e-01 5.875080413673332558e-01 5.629548255769988296e-01 5.119247733852859694e-01 4.978382007741435356e-01 6.082295547247655865e-01 5.487116857233684808e-01 -8.491535930958958867e-01 7.281735703321603470e-01 5.497446067418295668e-01 1.266517570230872580e-02 5.502609728850916815e-01 1.851200803880449275e+00 5.039483109483704482e-01 5.137965738561386386e-01 4.439099122977697154e-01 -3.425109840704219533e+00 5.200622771126335309e-01 2.829012143555505787e+00 7.552276271573571398e-01 5.325111978491596787e-01 -5.763056625959520618e-01 5.102810616315504033e-01 5.159755867859523448e-01 4.405372118641246448e-01 4.518201860051218599e-01 3.584701720154300220e-01 6.435807559876296491e-01 3.142921619645250297e-01 5.209737376758399874e-01 5.171743449492592903e-01 3.521242215036572976e-01 5.331604398159817126e-01 7.555238956228307323e-01 5.191471674132009939e-01 1.201091249245437309e+00 1.114470691195457511e-02 2.221570941125828647e+00 2.643650840793725809e+00 5.100962457117261817e-01 -2.163846522215563395e-01 4.090145293882983535e-01 4.014069833251350250e-01 7.326578175188132036e-01 1.379246850898477428e+00 5.349554666463631758e-01 1.127213291019349084e+00 5.150820508055297120e-01 1.230752999603693942e-01 1.254161591654044283e+00 4.646912754012326174e-01 5.416363753067173770e-01 5.041126695303824734e-01 8.975909332228023674e-01 -3.731837983364569400e+00 1.635985981121816701e+00 5.161494609007214462e-01 6.374034386645966999e-01 5.171178437600353339e-01 1.800721485737461158e+00 3.029136882521732410e-01 5.523911528330294196e-01 5.291487881077334698e-01 4.787986564544516321e-01 1.376954207377461659e+00 5.737929346095816951e-01 5.913797278866459450e-01 4.315857279957670545e-01 6.012039023514131886e-01 5.428624198217173458e-01 5.677590142580030141e-01 8.974478627096922345e-01 5.153925113663744284e-01 3.853528592534350983e-01 1.808462616362127295e-01 6.608932347706583110e-01 5.190651335995936089e-01 3.611844575115225608e-01 5.523911837728354701e-01 6.547873429072664786e-01 5.197788860185211801e-01 1.023355678471516317e+00 9.710259151151717782e-01 1.139620388609196677e+00 5.164226253883292816e-01 2.256042792913921513e-01 9.172351689983125889e-01 -1.092964403013901992e-01 9.335104103551192800e-01 6.293284834037773390e-01 9.950715031479722208e-03 5.741169850431302457e-01 9.500417489869807941e-01 3.875667555424387456e-01 5.059032226114393849e-01 2.881136376434431101e-01 -3.353301234332569658e-01 -2.471678235991399131e+00 4.898299450932541155e-01 6.012039021988604404e-01 6.012038718466676812e-01 4.982301773234811271e-01 4.020817927638753453e-01 -2.220597910081581472e-01 3.063669556732078747e-01 5.188585895439382645e-01 6.950206324234613486e-01 5.171377531236568403e-01 1.043371325192959498e+00 5.913799697021905333e-01 5.159024641179674742e-01 4.861582978166266167e-01 2.737649138376477831e-01 6.560703572590249610e-01 5.244417367498942495e-01 5.171209800064875406e-01 5.331218084270356039e-01 2.909256550887102111e-01 1.726705097881240519e-02 6.012039014935333103e-01 6.606533942890070454e-01 5.142729152134640769e-01 4.074424142643828795e-01 8.589722996941776545e-01 7.244548251408973183e-01 5.638119576555061796e-01 1.864239776615304267e+00 5.069714642614215894e-01 -3.084726131013658890e+00 7.551878188908719425e-01 1.524260403311044287e+00 5.623933548440436248e-01 -1.075429514277765231e+00 7.804111279500638432e-01 4.478192740026410434e-01 5.246886343097910688e-01 5.394370873399406685e-01 -3.542284481143172514e-01 5.182169506058369457e-01 1.070927078586223491e+00 5.317344584484181569e-01 -3.636050447873937497e-01 5.178372488765144999e-01 5.180341024448102960e-01 7.833089412742392232e-01 5.203442593107314718e-01 5.634200851666525400e-01 -5.260626682845881419e-01 5.610673180241251279e-01 5.100339030991066780e-01 6.430248977732662130e-01 5.320164226249380901e-01 7.675680715018501354e-01 5.119620966780678017e-01 6.034168672333458661e-01 6.068394877219627226e-01 5.234241482729727890e-01 2.837723053719404809e-01 2.978863165646029598e-01 3.359657685758963286e-01 9.633414528824358891e-01 5.517767096825931805e-01 3.205153073837345712e+00 6.589957292420700607e-01 6.390886542660011438e-01 5.526695211787242545e-01 5.932006790662738283e-01 2.637225608022531961e-02 4.878221511731825610e-01 5.004950831833213654e-01 5.181522069349282500e-01 1.161857161600075461e+00 7.672673845312640850e-01 5.205703254863933704e-01 4.430713698956030289e-01 1.117644520996335045e+00 5.361594467296938449e-01 5.663550027623652783e-01 5.471440990723391851e-01 7.920878045814830903e-01 5.166408983995633974e-01 9.330196128016143842e-01 5.156947053427520800e-01 5.149441956411554555e-01 1.244735624768742235e-02 5.199640955480779869e-01 7.691285641037092294e-03 3.242368163675745651e-01 4.070391763894892212e-01 5.753880459376391476e-01 7.806414661695912915e-01 5.221126636667986487e-01 3.898310394865457384e-01 7.986036288329947941e-02 5.201825369576759117e-01 5.473128688655385377e-01 4.595169112473099227e-01 3.731050179078983231e-02 5.135681380887582304e-01 2.479906871591027184e-01 5.149396595584463387e-01 4.151338597340511472e-01 1.258297440483800989e+00 7.766585162494685779e-01 5.479223030127009508e-01 2.588439209287854981e-01 7.238321715608717621e-01 4.305977292034138815e-01 9.945765724002413322e-01 6.031139788944087643e-01 5.944112258129784498e-01 6.956503990848970087e-01 1.997156034364728772e+00 4.643500459102458677e-01 4.733329182881667041e-01 5.126240095720663303e-01 7.283705081442658491e-01 5.273749534934953909e-01 8.461316702644772203e-01 -5.738434328765534831e-01 3.525474514766981371e-01 5.120898440447796407e-01 4.275275917326440966e-01 3.791332047980982001e-01 -6.189738014341926720e-01 3.877733865804874336e-01 5.183035827307653776e-01 7.351158218143331036e-01 6.671744337328553431e-01 1.487170490873063855e+00 5.178669449315341788e-01 5.206594338334799010e-01 -7.067949100398445150e-01 5.148539010540646998e-01 1.221328198880600180e+00 7.103715455498678111e-01 2.711858547388553142e-01 2.567372750524156699e-01 -1.704394513635035135e+00 5.208107166769203600e-01 1.854035306945833461e-01 1.100832381475991939e+00 8.185458611966265341e-01 5.163632895147873825e-01 5.243996754270161542e-01 6.210574738652318016e-01 7.550706940488166596e-01 4.407256404710555020e-01 5.591338026844895337e-01 2.976697468022473231e-02 5.205397970619252135e-01 6.033274230160566853e-01 5.471043791485201702e-01 5.076337581563402646e-01 4.924122784442352407e-01 1.213024775474596417e+00 -1.032022975402299009e-01 -2.363742087555973370e-01 4.201043762536522119e-01 5.503072981506191841e-01 5.417794571827653227e-01 5.144903762545367520e-01 -8.587402549365282800e-01 3.170112967301896845e+00 5.398288991083356470e-01 4.463541991741385440e-01 4.261326132270983891e-01 5.112482082728991850e-01 5.112064680715511233e-01 5.684979103122147492e-01 3.257465373983727819e-01 5.955318996245764218e-01 5.142747132034585222e-01 5.816935809981524930e-01 3.453234422058527597e-01 4.176433187754162168e-01 5.538087327597173148e-01 4.056982627875227454e-01 5.081541717993267593e-01 5.508948477448858405e-01 6.626064292923781185e-01 1.012561356857687445e+00 2.318955445674937277e+00 5.345319531867568363e-01 4.972254436369620834e-01 4.256209865163632644e-01 4.925792296281011340e-01 3.684267007427735052e-01 5.137961580682588458e-01 5.155468206930985398e-01 5.155282124998106230e-01 5.329771370582101486e-01 4.775655735395171186e-01 7.553690918963369416e-01 3.656450578252873340e-01 4.585076100602002991e-01 4.511572477761973676e-01 5.332778883319990726e-01 1.157402896254601798e-01 9.172344853807643528e-01 5.657997689068526848e-01 1.155330381336192730e-01 1.911381074814379577e+00 2.874789923443720752e-01 4.231940342611338890e-01 5.908639267661310868e-01 6.320136068766962767e-02 5.287155826844558426e-01 1.515194420269639020e+00 7.811253632584088669e-01 7.436830469366898511e-01 5.172653833475268081e-01 5.477216675156956205e-01 4.625169518364513066e-01 6.582927499533581805e-01 5.380289967261321360e-01 5.186952692117182684e-01 -2.171865699212005285e-01 5.327034091368333391e-01 -1.488423702517299940e+00 4.861310313882685752e-01 5.060578167199751842e-01 5.139954086068083683e-01 4.438993301267971647e-01 9.172344854289905536e-01 2.204184477877641490e-01 5.390634253540025345e-01 1.341900904388726445e+00 -5.579775928093166915e-01 5.187536822584762897e-01 1.137444118878442101e+00 1.519471817146930581e+00 4.777476491782172707e-01 5.166091615098924450e-01 -5.544521864285979068e-02 -1.681168808580221663e+00 2.757817978171644979e-01 7.961522616509402184e-01 5.129845914767144910e-01 5.127752701397820800e-01 5.898998895519991237e-01 4.842624601767078762e-01 -4.082054054148756550e-01 8.206820856240898410e-01 4.978390609021033919e-01 3.311718905535388502e-01 5.462539956824287168e-01 -1.068273551859417678e-02 -1.708050484935844382e-01 1.793576751410297376e+00 4.137701800049533585e-01 5.094060790078509537e-01 5.189602395960216663e-01 3.261841275900997927e-01 5.791511813397189901e-01 -7.949169367350880644e-02 -1.166404810006693937e+00 5.118454692793028560e-01 5.363503990612310535e-01 5.200261099190749414e-01 6.147561863346781008e-01 5.154620210081508613e-01 5.452451721112614447e-01 5.607669558921415387e-01 5.718810507033880164e-01 1.032451211676293168e+00 7.228122186398058258e-01 5.156662771478460749e-01 5.945529021656044133e-01 4.603366387147233008e-01 4.422017873845346947e-01 3.498074533553600235e-02 5.523911641958844099e-01 4.783036618751647651e-01 4.904650265782716234e-01 7.576548688886309835e-01 9.099197818207618305e-01 8.461319689397525101e-01 -5.065684737509698055e-01 5.145812950970003463e-01 4.530341612607340918e-01 5.192272113898357411e-01 5.885378017834281827e-01 9.076044960366577152e-01 5.610327601189794011e-01 5.276208448009230834e-01 -2.569818967930309062e-01 -8.703049325155839400e-01 2.298165840674640137e+00 5.081652368253508634e-01 8.964559123595271517e-01 4.316653392983739734e-01 5.734586339101059860e-01 3.802653763384430952e-01 1.505083962566425848e-01 5.175886784458022527e-01 5.476642256805925868e-01 -4.704496387427830120e-03 5.176483413232453312e-01 4.314634300631952635e-01 5.140005425261673366e-01 6.389406602912774957e-01 5.195064729278711102e-01 6.124477146596617461e-01 4.077047063243815495e-01 5.093642605821339098e-01 4.251978509721822119e-01 5.179293049915958402e-01 4.166081846776853448e-01 5.354346050071844276e-01 -2.715042420004592505e-01 5.119622663098519766e-01 6.425493465843902241e-01 4.824029591792868832e-01 7.556616727801648281e-01 9.172342426077392252e-01 7.305065987192630450e-01 -5.985076797390735948e-01 9.863743319151244693e-01 1.800721492679414171e+00 4.927121743495408990e-01 4.638136171713537759e-01 1.078505836869103618e+00 5.656156575503322737e-01 7.558024319082921050e-01 5.186503942836024894e-01 1.833704096067793499e+00 5.165064843438939013e-01 4.315818683005863687e-01 1.234403073769243075e+00 -6.138570200461963139e-02 5.525645436215735895e-01 -1.614315423178361020e-01 -9.616352005025170513e-01 -1.705300167681009504e-01 7.737783524322914275e-01 5.696803784006565508e-01 5.117963903780167190e-01 -3.273787424798860202e-01 4.967853397203702004e-01 5.117620159667365942e-02 -3.814379569744376086e-01 5.001063646434867893e-01 5.131878764510864332e-01 5.246526177199291041e-01 5.511597948599405994e-01 5.364171171529680260e-01 9.102091622216574862e-01 -4.124127812962428696e-01 5.170540127098184335e-01 5.492555524735142081e-01 6.110738564252362615e-01 1.167263040905881732e+00 4.979599671653890947e-01 6.507523426628607499e-01 5.165517086282506165e-01 4.309215467207483385e-02 -3.545290722224202495e-01 5.353656318311994511e-01 5.348524484102150645e-01 6.800480828004480394e-01 5.076859899435108847e-01 3.482105132348292664e-01 5.164791043114815849e-01 5.185197045579869046e-01 3.705600977836185916e-01 5.218236663194064651e-01 8.392903038035862684e-01 2.557611202545665652e+00 -2.433505787426075706e-01 6.630712905360403031e-01 3.303909301709527235e-01 2.094631257748242603e-01 6.700096423304922055e-01 -5.729902088775436220e-02 -1.537911666021899437e+00 5.251137138922108427e-01 2.619209319325438212e+00 5.296715759363603837e-01 1.569597963396963669e-01 1.679188512878148354e-01 4.978382656417267293e-01 5.801756232529597934e-01 1.561223158991326132e+00 4.969025315259830711e-01 1.260710557449617186e-01 4.294446030760445954e-01 1.702973775391126932e+00 5.971754545036848105e-01 7.583306682365829055e-01 5.003996536222916625e-01 7.393642715576929092e-01 4.590343669417352723e-01 5.697871343423596135e-01 1.795930275905974552e-02 5.219767188445934014e-01 4.968459565573749570e-01 -5.739558190892798395e-01 -6.827521769416369790e-02 1.175816513872833591e+00 2.373226058712366582e-01 4.848552357602475826e-01 7.004202541644385382e-01 5.506979339136783835e-01 2.004849927241798113e+00 6.882217543430833029e-01 2.504716859016885289e-02 3.052123549699435889e-01 3.962954867682111915e-01 1.119616317478287604e+00 5.071081760619038370e-01 -2.722467086580818152e-02 5.027907208883853896e-01 -1.569735231413443496e-02 5.226593493804327917e-01 5.194338706799165317e-01 1.503623147778868942e-03 -4.968584325665457296e-02 6.672962339692657396e-01 5.862940837579164732e-01 5.721356557857691927e-01 2.477776725181049244e-01 4.488189763875461424e-01 5.014129344775793973e-01 5.321847777873457419e-01 5.489220904866574102e-01 4.794366333942018388e-01 6.119030880252469551e-01 1.017121324964963103e+00 3.131061763991693780e+00 9.329148214020636098e-01 5.205306820950944546e-01 6.281633218903814875e-01 2.145170913812697866e-01 5.171078141248156568e-01 8.481210115192299170e-01 4.975348336982325370e-01 1.316697316579737542e+00 4.488141372785191541e-01 -5.782693356096076931e-01 -1.741321104153933930e-02 4.081878292669284813e-01 6.133067338221595000e-01 5.192589988415881042e-01 5.115798019371706751e-01 4.134650966043141446e-02 5.145822135702863287e-01 4.150306112026464489e-01 -3.690829971380890306e+00 4.813505847974007268e-01 5.242734526870851397e-01 1.128573069564850595e+00 5.158633123819476030e-01 5.126768416095049963e-01 6.822467352849123090e-01 -8.864548898690909340e-01 -5.035161234992319157e-01 4.066341920968311041e-02 5.153463010372012487e-01 4.477279207236137815e-01 2.171027720289332719e-01 5.073806179659424709e-01 -3.384870765438870444e-01 6.065295450130925303e-01 5.041200902741401757e-01 6.950770518346494065e-01 5.442629350033437730e-01 4.717764274807823566e-01 1.555252033681500390e-01 -7.567526118784568823e-01 6.551224332881981915e-01 5.213497841995552440e-01 1.606935206812677153e-01 5.173585477457455228e-01 5.666478071069303013e-01 5.355618053364494813e-01 6.714040668731637851e-01 5.733609845830703877e-01 5.434246949647825176e-01 5.010100908250487706e-01 1.800721496034079383e+00 3.611168377664842333e-01 5.461729986507019019e-01 -1.211605965234300447e-01 5.513711176943091319e-01 6.286950317743781325e-01 5.308461846124760131e-01 4.931093526211185463e-01 3.540933257580464733e-01 9.364297515988905252e-01 1.203954652387206670e+00 5.565526846188086907e-01 5.795345435187450045e-01 5.963557582285249348e-01 4.711665755636195163e-01 4.942609360165058363e-01 5.158013402218593058e-01 9.863400724028874578e-01 7.146562069747027790e-01 -4.565620509618979472e-01 4.538307647283118529e-01 9.128094538311520845e-01 5.115494427716105186e-01 -1.898060373588387334e-02 5.233965033613870999e-01 1.340956700541463098e+00 -1.388509514909426756e-01 5.978827241822420868e-01 2.440148673246060052e-01 5.178064565774893602e-01 8.389675014672687281e-01 5.139075088738135344e-01 3.698335999247163719e-01 1.400432232904766705e+00 4.747460354526520931e-01 5.297616445329373924e-01 -6.603421256516549542e-01 4.505431358020061672e-01 1.041869781897705627e+00 6.045030093068403110e-01 8.212224687467933881e-02 9.697121596572634283e-01 -4.213020221833743695e-02 6.511590143922200147e-01 1.620330862734623345e+00 -8.584537425260165833e-01 5.712371441400582173e-01 5.162252085935681301e-01 -4.570540391906463551e-01 3.122134706946696481e-01 6.021204584479901145e-01 4.842727845135454401e-01 5.092926770832741923e-01 3.765224811506560076e-01 2.633149257070049321e-01 3.445680448743209112e-01 5.707280625606576674e-01 5.204360514970172158e-01 6.859291190518752683e-03 -1.083097733078191155e-01 5.199090174973524103e-01 1.063498381507647528e+00 4.625365590542089844e-01 -5.743335079728001391e-01 5.472068735723506494e-01 5.148143129224804770e-01 5.354251048140674651e-01 4.175319224273192631e-02 3.314382239300985855e-01 5.180388895208651867e-01 5.157191015177781113e-01 4.519522433517673132e-01 1.350204604269907536e-02 5.135988132335765899e-01 5.182891046431897797e-01 6.282103030098644680e-01 2.086143211347686766e+00 6.015306091801483727e-03 3.851901466641844962e-01 5.273793019337753574e-01 1.832236580130540693e+00 5.793075088082958457e-01 4.981470385883274288e-01 1.734224182056416305e-02 5.523911524672994178e-01 5.186532964467487350e-01 4.756107678097650782e-01 3.828210425687358920e-01 5.015114962729860792e-01 4.674232869933441781e-01 5.539454943951274135e-01 -5.328272796793173116e-01 5.144965253569715458e-01 5.443205433723348197e-01 5.451042994597831148e-01 1.105744587802694578e+00 5.245768550630829363e-01 -2.444344317890060070e-01 1.084664336616363522e+00 -1.267511782540193366e+00 -5.230325725338448306e-01 5.232190209353393406e-01 5.172516380854966789e-01 6.530914768229483247e-01 5.164629099974707982e-01 4.161500187989739530e-01 5.867584769753003693e-01 5.523911504121402638e-01 5.175878157096356347e-01 5.103258983000529270e-01 5.881963130305546406e-01 5.159612423467895281e-01 2.977655117031068888e-01 5.022665563010391132e-01 5.208537835654423187e-01 3.837888162801045278e-01 5.251964435577372026e-01 5.207102217274227618e-01 5.497843841699003864e-01 6.482529419754782252e-01 5.140777531948022006e-01 6.895820712683236042e-01 4.930137113631061774e-01 5.072530939943348249e-01 5.422162263898919754e-01 3.728270441136076196e-01 4.035623843802492172e-01 2.417691271118289187e+00 4.808575812004147743e-01 5.960783414966551730e-01 3.041247623219510698e-01 5.829248900956711665e-01 1.112532910985918999e+00 4.527548546669323271e-01 7.031124904661283370e-01 5.143106411452801341e-01
7.018207853791270656e-01 3.149081921259206940e-01 4.288504269808685043e-01 3.212474659940367863e-03 3.094865269293423093e-01 3.103496735691955721e-01 5.334032055482574863e-01 4.286293388520364123e-01 2.850511681178345968e-01 3.072857508669978865e-01 2.052570916710173332e+00 1.715657079007158581e+00 -1.443521477084814153e+00 6.169610446424201866e-01 3.161988915289297708e-01 4.321773293009814054e-01 1.307459504227616864e-01 4.346954398448189538e-01 4.352391999692910018e-01 3.110738607031964253e-01 4.564153013806070969e-01 2.115724212664945370e+00 3.842658480717366376e-01 3.680455784329921820e-01 7.302339352383200310e-01 -2.145902777029309871e-01 4.428548162477697892e-01 2.171938175064636045e-01 2.785597624682837892e-01 -8.816014465764363539e-01 3.603402029630937142e-01 -1.336639210150367407e-01 2.889755862901090544e-01 3.084402480674806601e-01 -4.221170833069392558e-01 4.764914077357150224e-01 3.167093712358114987e-01 -3.588267763193012660e-01 -3.236203224718358751e+00 2.973008051231705862e-01 1.153344179123828139e+00 1.423285643268610012e-01 -1.663555110587153774e-01 7.917963386487221200e-01 6.113831110208078901e-01 3.239267844442931810e-01 3.155688940326019116e-03 3.390243318955364349e-01 2.041331410962232695e-01 6.643366680472152508e-01 6.780281400067472708e-01 4.813139272208074027e-01 -2.196167432243101292e-01 2.147946783538696169e-01 6.022097361794971349e-01 6.534946596906859861e-01 3.538166110013383769e-01 2.488238970697754515e-01 3.465022083738015790e-01 3.588318055968798270e-01 4.267698269220125962e-01 4.149900327307943781e-01 3.066313614091314421e-01 3.842658297682711166e-01 -3.461186460592471370e-01 1.578568282245755572e-01 3.041644802860131169e-01 3.244833621361108422e-01 2.067594003157643134e-01 7.236796177589693846e-01 1.248140099648793605e-01 2.605181700802941536e-01 3.296919526352481977e-01 7.267127568391308357e-01 1.918153445749839703e+00 4.761608961851622190e-01 4.722727329800578966e-01 4.810171069854098369e-01 3.112183736243936405e-01 -1.337089571916023401e+00 3.167673945388252421e-01 5.958995180900608091e-01 2.324281784112684601e+00 9.348225288015116208e-02 2.675591668996170625e-01 -3.938275384369131493e-01 1.285916000084137978e-01 2.680593494138730493e-01 -5.769243652151582191e-01 -8.873910341129122026e-01 6.120715727200140011e-01 1.577966833669578461e+00 7.367615869983229482e-02 6.895334554516107106e-01 2.994301969526672047e-01 3.203975569349036268e-01 2.694657552852782745e-01 7.549864764154340380e-01 7.378055449627847207e-01 -2.196993854884666253e-01 -1.737805435247750663e-01 5.483100364497914964e-02 2.583078869007390255e-01 2.146965512734204384e-01 -2.230864166463155870e-02 3.104043161310088283e+00 -2.861080243840382065e-01 1.807628359586197775e-01 1.266050457733198242e-01 8.097135598715409222e-01 2.451798938905700442e-01 4.766505154068882977e-01 1.643275097172766375e-01 4.377003499907122785e-01 -4.840749670345573796e-01 2.146064032497808083e-01 1.858143097608382921e-01 4.326787864685770479e-01 1.069592441834962271e+00 3.051166906551291969e-01 -1.451336120920728945e+00 1.991457960907860869e-01 1.379910034435175015e-01 1.383796772028126343e+00 3.240579108484779591e-01 2.167618588581960548e+00 2.588740546615737603e-01 2.795956895674501785e-01 3.019172690637089151e-01 3.006911835106825248e-01 3.333183800501466343e-01 3.070454168313890286e-01 6.757141341484070862e-01 4.178734789910579783e-01 1.724607844597038364e-01 8.667476372373291715e-01 7.127668748069351246e-01 7.198494660181223859e-01 -3.341767488848567669e-01 2.038654369549247336e-01 3.507835441219583905e-01 3.217121277757328257e-01 3.032599538804723327e-01 2.633941611332551447e-01 3.104544147095346096e-01 6.950085434403080464e-01 -1.487764488528352802e-01 3.189296986355910635e-01 4.450583515266242629e-01 3.990298641386101908e-01 -2.455148548572839706e-01 2.362487799986039139e-02 3.239291512478665314e-01 2.657420648559941645e-01 3.227428121398405181e-01 3.037806400514829197e-01 -2.360316800846010921e+00 4.562526444691716310e-01 -5.958839506377915374e-01 -2.238920498448250529e-01 2.227339296790148693e-01 2.765097694187799715e-01 3.260244338053517876e-01 3.108474322627507447e-01 1.184313468742886066e-01 8.531852867843771338e-02 3.161799874300591506e-01 4.492674923534523135e-01 3.654248036935051069e-01 3.303108462723695071e-01 1.825766049497477561e-01 2.260033459107240773e-03 3.239295997320002507e-01 3.157411729954136548e-01 -2.498059375552383887e+00 6.916630420558776970e-01 6.077967616957117292e-01 9.609741682279461239e-01 -4.564790618668887467e-01 1.171641467221221200e+00 4.484975976388847797e-03 3.068953238656765281e-01 1.236229828576165923e+00 3.023530699716679426e-01 3.081561226657267283e-01 2.611918828007492310e-01 3.694991456397411222e-01 2.975429421516493922e-01 -4.774929499265407884e-01 2.948736579671757396e-01 2.612199633020130252e-01 8.128719962070336535e-01 3.117825230281712212e-01 2.989756172839272419e-01 2.345795211063854413e-01 3.107021119974266998e-01 -1.650829642628933280e+00 2.953836952900221191e-01 2.580507440515582007e-01 3.508104058787638313e-01 7.273262265502195012e-02 3.007444654433690800e-01 3.840290288348803815e-01 1.383889954566568381e-01 -7.828684228275967216e-01 2.580507705193667567e-01 4.700231100076170399e-01 -5.128608425179645991e-01 3.623625129905969633e-01 1.722361633819028681e-01 2.491381710276011074e-01 -3.243089560930064064e+00 4.500029271113948348e-01 9.276676034050718167e-01 3.155972690516693491e-01 3.166170046348691369e-01 3.113423590626073767e-01 3.349797861590406156e-01 3.127350555278193278e-01 3.097054083416682091e-01 3.464111495905881077e-01 1.265330900769360278e-01 6.643563507061412965e-01 1.120109276672254517e-01 5.011732545627202162e-01 4.837102503927754316e-01 3.940082032940690482e-01 -6.675036672511454050e-01 2.281163016832347346e+00 3.933828339238398253e-01 1.238984078911956166e+00 -1.388745562519388299e+00 3.086705844547588673e-01 2.242204354209674233e-01 3.532653924944040846e-01 1.168043960142080007e+00 5.063333415211607180e-01 8.109964053067332257e-01 2.828816526695388522e-01 6.694786779410166755e-01 2.832930132781898980e-01 3.028488879893748154e-01 -1.166228305431966428e+00 4.001375854731226700e-01 3.120577573345285072e-01 4.895677607310109369e-01 8.982718061012825439e-01 -3.591559130535393329e-01 3.142865586557157087e+00 4.918126194238561788e-01 1.256700696347103241e+00 -1.893122230600736422e-01 3.214842418144109315e-01 3.842632040398779036e-01 3.251831115005124340e-01 2.385194279398102357e-01 3.745680956679347529e-01 -1.232009133728550615e-01 1.243942037872783624e-01 5.616952583837632185e-01 2.653839123641722475e-01 9.429572958661291970e-02 2.495869864026029061e-01 4.061873823738694766e-01 4.267697916036116146e-01 2.612425522911485110e-01 3.224312289525630870e+00 3.704765693656812964e-01 6.537408861518968495e-01 5.379457554799960128e-01 2.278449509563474917e-01 4.272270907284873576e-01 3.088009246743690372e-01 2.885617443732182430e-01 3.119036586476103823e-01 -5.578247821918590477e-01 4.511765895069851373e-01 2.853707348200982818e-01 1.309117926408896182e-01 2.827673206907005965e-01 1.531273346957528148e+00 3.100599023678802246e-01 2.977753521222147315e-01 1.993264367921262936e+00 4.999303315567662498e-01 2.854017138840627132e-01 2.643188244797960995e-01 3.385459834862135642e-01 2.146057425465354995e-01 -2.057736677331139408e+00 2.603040504988797244e-01 1.526490441002663401e+00 -3.574662640991531359e-02 3.424586436356686914e-01 6.950137993485920873e-01 2.907608903571424763e-01 -7.208038069664617353e-01 4.123982211285415755e-01 3.049136382516402510e-01 4.450215963954657350e-01 -3.892127277898305704e-01 2.936372600030301427e-01 -2.224520783979015537e+00 2.811569877318250907e-03 3.000958816684730079e-01 6.026671351646070152e-01 3.128838178740803166e-01 3.108969989227904351e-01 4.770885105767992962e-01 1.950753241507303670e-01 -1.079121569262544433e-01 -7.625469811042087098e-01 1.505070275054521105e-03 6.862945869851840852e-01 3.232016855274266742e-01 4.990835796580768147e-01 2.933446927513873592e-01 3.159795117455601633e-03 3.044948238276536379e-01 2.434812943118567663e+00 6.918789050459566159e-01 2.468320250460006859e-01 -1.154280693322085716e+00 2.235062710608100855e-01 4.668052622150797859e+00 3.597354526387268048e-01 -1.466364105743693524e-01 5.700794872014005588e-01 -5.564997115643929959e+00 5.146335573935217900e-01 1.543351982784580523e+00 3.098926817223492391e-01 5.347037923445169261e-01 -4.424470188277886962e-01 4.178942507768504955e-01 3.194210980094151497e-01 2.818094869331939090e-01 2.360541927013303787e-01 2.919780033799478147e+00 -3.711870927637156425e-01 3.174297775218857254e-01 -1.911647629629951162e+00 3.102950750156189819e-01 -3.588267718511247151e-01 7.482404717809372219e-01 5.325187164509008753e-01 2.776995827564333608e-01 2.969749013219810663e-01 1.277129645851897477e+00 1.428255225867746669e-01 2.580509087275246194e-01 4.001320399936562078e-01 1.383889953034400933e-01 2.986774159727974554e-01 3.934643099987406023e-01 -6.094967708767606851e-01 3.108890711835008425e-01 5.500998467058714203e-01 3.850939488746027428e-01 1.670150053671395629e-01 3.099270927331053693e-01 4.811400106717023673e-01 5.325187077555300075e-01 4.303953902402045117e-01 3.092974282373883166e-01 1.878397789430329701e-01 4.230086904936332104e-01 3.401360898856871984e+00 3.031483961285895701e-01 1.398094699183569933e-01 4.267688036857911205e-01 8.471633480160712937e-01 4.666526314444583989e-01 -1.937432820493388275e-01 6.835722566421793545e-01 3.094276992917468494e-01 1.173956932899086758e-01 4.036908199558473798e-01 6.672230589353375096e-01 6.093395679138318144e-01 7.828674433657929477e-01 8.135321165787376962e-01 3.678568377010119073e-01 1.383889955602675970e-01 1.383890430897213308e-01 2.377891867341554999e-01 1.509660293368934036e-01 1.119999923652327478e+00 4.037489187144730485e-01 3.168793897301969698e-01 3.337690006369022910e-01 3.126676412805440286e-01 7.697209796489236089e-01 2.580508568549635395e-01 3.100756484162887627e-01 4.424905853361120744e-01 2.592983907328821336e-01 -6.343742829999987620e-01 3.020882863216811653e-01 3.053545076495687849e-01 3.789710969948079655e-01 6.926201926413488863e-01 7.171793089449868264e-01 1.383889957963449213e-01 7.952843677686564916e-02 3.144403977644043002e-01 4.782342766714571813e-01 -5.915265797485005361e-01 1.920293007447785028e-01 -3.501019838432011699e+00 1.955811552967223310e+00 6.342996234136240030e-01 -4.578183452857548796e-01 3.218528758956983645e-03 2.048838098822585163e+00 3.112040146380196104e-01 6.394926658658265373e-01 -5.382598354918138872e-04 3.368609532920534555e-01 4.346170744229908012e-01 3.117741507803982737e-01 -4.735739273780755765e-01 2.865935435063661774e-01 2.052860493787385998e+00 3.401594016712697344e-01 -4.237898471401442824e-01 3.287611153059789015e-01 3.196385210586478176e-01 -1.453007653085416795e+00 3.233665409451590422e-01 3.605607935748390558e-01 4.030760410243071634e-01 1.635271291422779050e-01 3.149432056571297434e-01 2.139378177997783570e-01 3.237434658371896035e-01 -1.609466295445103057e-01 3.229534642937538225e-01 1.120721312242386747e-01 3.218769578476697868e-01 3.117172594135043107e-01 1.600171344524840486e-02 4.159491453991442378e-01 5.782060515308634630e-01 -1.381476391025416417e+00 -5.653727974447896321e-01 -1.107643625850056185e-01 8.865881066979593161e-02 2.458000794080183737e-01 4.293585360527896189e-01 3.622774692512416017e-01 7.308787466264214938e-01 -1.222085602994698039e-01 3.051608659429141945e-01 3.272702397547531117e-01 9.325902096695112831e-02 -1.606312504933294916e-01 3.267739121168025118e-01 4.545379924130540927e-01 4.794096708676927610e-01 3.078224583138827186e-01 2.644142066692292681e-01 3.177860927442694994e-01 2.540847446894164974e-01 3.110986568447697831e-01 5.048594934566065229e-01 4.080336397363876766e-01 3.109964520712183433e-01 6.828885482174692489e-01 3.314677566079322624e-01 7.358049356564851928e-01 4.934523307139092319e-02 5.253025140998739406e-01 2.428396975145635794e-01 -1.447317115427809942e+00 3.132022846521333448e-01 6.446748524836446448e-01 3.728702947223822561e-01 3.043406984180389574e-01 2.541716815235632865e-01 2.129668675499103991e-01 6.867658083612170339e-01 3.172210548883955261e-01 3.922162792665956355e-01 3.124653345911709290e-01 2.826597526087845091e-01 2.028002450926937039e-01 5.089273498851707433e-01 2.919292931488946530e-01 2.274766559284188416e-01 1.239995147803180098e-01 6.172035243611242311e-02 1.633000880180416337e+00 2.412948871468441336e-01 3.661420484753949989e-01 3.805325134578317336e-01 -8.402831544008456666e-01 3.914369218686785112e-01 2.886640799211969144e-01 4.533729465887428867e-01 -3.624404679358397829e-02 3.106832970854719322e-01 1.581730783656151385e+00 8.902038088504160562e-01 4.293540271810947773e-01 3.117733391696698164e-01 3.587116107938461140e-01 3.366495373589613593e-01 9.191679389319400428e-01 3.028293955871275589e+00 3.114263094857484537e-01 3.703232215768580832e-02 5.915466334708158191e-01 -1.965888522278662065e-01 3.120405017387435365e-01 3.148896605648278668e-01 1.067715065394569285e+00 3.121672658112233933e-01 -3.229114091146255139e-01 3.784424472192934874e-01 1.241868762822365552e-01 6.457634467970646552e-01 1.756983934447392093e+00 2.927152525841611452e-01 2.545371746705086813e-01 1.656285168696040477e+00 4.040340695872290389e-01 3.254505104384812220e-01 2.029041400092527758e-01 2.741008692361274757e-01 3.554480064572310225e-03 4.890949820163908446e-01 2.391294528731767177e-01 7.299810245783378004e-01 2.669656633076378238e-01 2.701297404948374004e-01 3.056691657482167868e-01 4.436654392180629514e-01 3.320086475643734825e-01 2.571431799648195571e-01 9.058225541635841482e-01 5.081928317659456518e-01 4.529283464967943096e-01 2.653850392178327966e-01 2.775813578729030007e-01 3.055882413410263010e-01 5.872410817409660089e-01 7.713771272443672444e-01 3.547450777315043768e-01 2.959693586357493578e-01 4.982853770522606141e-01 3.092574727835644133e-01 7.277410465212056367e-01 2.385859401756233733e-01 4.565136291353689701e-01 -3.147597437290015621e-01 3.132690771595610379e-01 2.987996640194862108e-01 4.262792663193316622e-01 2.861723510152437977e-01 2.715920041315054712e-01 1.778305442633953737e+00 7.472922323463365712e-02 2.669045134088074422e-01 -1.785512335134381290e-01 1.635023185856515848e+00 1.148171726219682887e+00 4.857027531845196228e-02 -4.560179318601941256e-01 4.085335348027557822e-01 3.522528321751536851e-01 5.125000913599159214e-01 3.097126955377385582e-01 3.100048270508068970e-01 1.990021167730599838e-01 3.426603522195745266e-01 3.709016901661315035e-01 3.479192055854489745e-03 -2.009909860892961087e-01 3.671291045150811838e-01 3.000165724515501675e-01 2.160897873676466685e-01 8.671050566928218961e-01 4.267698084939591241e-01 2.445601253889178317e-01 8.399943224446486667e-01 4.759357269465859241e-01 6.119716469618373678e-01 4.593507939910562721e-01 6.911452974110373626e-01 1.468839264740111838e+00 3.386948545053113935e-01 2.073667400877289513e+00 -2.273502030623355402e-02 1.423598175377313590e-01 3.099366086917705876e-01 2.584971188429572297e-01 3.450926703904515502e-01 3.302887722322792596e-01 3.110429465100613688e-01 3.092357879401965159e-01 3.602362512799784922e-01 1.912130698689463448e-01 -3.112872279881640503e-01 2.463913297325902863e-01 -7.457111078848409347e-02 3.193443778749743833e-01 4.449521873830613594e-01 4.267698084577585815e-01 2.107313748115186569e-01 1.988976572785728925e-01 -1.232806622467062407e+00 1.950048883233804764e+00 3.118875333130075034e-01 -7.196622712160515301e-01 2.974979377462794727e-01 3.078151940564198275e-01 3.153733555118883314e-01 -4.747557525684755753e+00 3.515220471381792500e+00 6.252642927698471853e-01 6.893508673311507517e-02 3.154066710661230233e-01 3.154672678895800164e-01 2.902575003360726158e-01 2.604578257312368361e+00 6.212342169973448236e-01 3.196637723221472660e-01 2.146061948125211061e-01 2.685892047304831443e-01 2.621297812470603783e-01 8.670412037978569852e-01 -3.770233398414731263e-01 -1.175709748919231634e+00 -1.206721858827010330e+00 3.100390078283679074e-01 3.168578621046338473e-01 7.190873745910013604e-01 3.630239545179665406e-01 1.363911575386131503e+00 4.739671779547989794e-01 3.122190002317527524e-01 3.023557548290473629e-01 3.341943793086956660e-01 3.019135901818078005e-01 3.178802095405776629e-01 6.482614336546426159e-01 2.730020767907495038e-01 6.544801858645370451e-01 2.230412362712156094e-01 3.472766684499269119e-02 3.177396130004750407e-01 1.895708159134560367e-01 3.562962887965929748e-01 2.861082475837543049e-01 6.620724984959086568e-01 5.325186931903611587e-01 4.125249854347580736e-01 3.455000848366740485e-01 3.130349362460442264e-01 2.626712621088598265e-01 1.581706747099295596e+00 1.870719061044691767e+00 3.183222385620043116e-01 3.682277181420950951e-01 3.109933315703011791e-01 1.626546071851291408e-01 2.313840708151951309e-01 2.766919335064355057e-01 2.885290042784245390e-01 3.234336062151346725e-01 7.970817647680175089e-01 8.772199486067550067e-01 2.328908689734789095e-01 1.857256449843334600e+00 2.501882529532741817e-01 -2.030750560243301805e-01 -2.729589589779337078e-01 -3.158452575967790610e-01 3.106021165320476118e-01 2.596408638464172691e-01 7.085930997918304941e-01 3.091970714581583901e-01 4.590589751137328367e-01 2.885420326110565981e-01 3.692623223697819590e-01 3.843969157736782383e-01 -1.140937714154606833e-03 1.019380753923702310e+00 3.309974053773824254e-01 4.418311179180738346e-01 3.112342679996660810e-01 3.602176505857203614e-01 3.048039044591677182e-01 3.906663003782214760e-01 -1.037299593200595310e-01 2.229232824703916704e-01 3.289313669395311779e-01 2.962402252923600297e-03 4.267700212704594320e-01 1.110652879385984670e+00 9.542855169167892004e-01 -7.315438962979861071e-01 -3.588267764026886741e-01 6.522762714746245249e-01 -3.302479715917141956e+00 1.565286556841855692e+00 2.653526023950509849e-01 3.049946750381773639e-03 3.143013484926450718e-01 8.838870557376173887e-01 3.165020135039201543e-01 4.001373449811460037e-01 -4.364927368954472087e-01 8.254880447534144183e-01 2.834151069153494906e-01 8.802813167337950606e-01 2.079643612441736789e+00 -3.769895079758047718e-01 -1.451144130626341955e+00 2.425464761242932532e-01 3.230434675020154023e-01 7.670376241824193864e-01 3.453224848203836905e-01 7.042940997151527771e-01 4.691074877042681335e-01 1.999328053947845574e-01 3.165503589795211625e-01 3.092588480749728919e-01 2.296125235645830875e-01 3.189189007398673392e-01 1.399612313260863994e+00 1.617841329255792049e+00 3.125232752252725121e-01 2.714239268096296787e-01 1.010812835599986803e-01 -2.412040009782014383e-01 2.093954913677900376e-01 -1.663773187986935728e-02 3.149212149665382987e-01 7.065273718324768248e-01 -4.725737688796327052e-01 2.803465531668219990e-01 2.946497354116250911e-01 1.534088756256803132e-01 3.259665728100617499e-01 2.363148870330895046e-01 3.113401642912976830e-01 3.140748583011569450e-01 3.961861810079215195e-04 2.678536617556623867e-01 4.382969685011584571e-01 1.115244418819092420e+00 1.102452582932155867e+00 9.306197712399042477e-01 1.959420871736201053e-01 7.794881480172661803e-01 1.375878701684288274e-01 4.747854445614922425e-01 -2.106097013523605010e+00 3.072152441892614383e-01 6.553092866816565554e-01 2.775428482345311809e-01 9.549300047455773210e-01 1.365122932141255463e+00 2.146064041546670853e-01 2.707460621470134110e-01 3.736590144445591788e-01 3.054582253243786627e-01 5.525573926673622571e-01 8.692856821652095167e-01 -7.756100955693852050e-01 1.741712128684498595e-01 8.365100814305398425e-02 3.242668812314565829e-01 3.423890963155274969e-01 7.707257859179671433e-01 -2.034073661091054253e-01 3.969497881296261133e-01 3.037512403120423699e-01 3.388731784874933206e-01 8.897943442234939049e-01 4.267850886959448919e-01 -2.108379973296427845e-01 8.592950070288648545e-01 -4.583650789513183527e-02 5.718394070168322241e-01 2.595055849366453282e-01 1.282679421778286866e+00 5.708927806829703355e-01 7.309772621501340328e-01 4.387779889808147704e-01 4.860207005533465630e-01 -5.449334573736764886e-01 2.549277892576262139e-01 7.626909448395697844e-01 3.129210288638550885e-01 6.300454954347998182e-01 2.586979430287658088e-01 3.091512058124951667e-01 7.282878751057750844e-01 1.393729072510924427e-01 -2.039598229017847153e+00 2.292748862319225478e-01 2.697218742916216438e-01 8.192312519541892213e-01 3.908812689838336296e-01 4.041648462433113931e-01 3.363821746191735795e-01 2.898402248346435561e-01 3.810226347291228999e-01 5.607197533394451400e-02 -1.617927695706604663e+00 7.518043478348456210e-01 2.550251965254070052e-01 3.286171754125728484e-01 2.008876737689411773e-01 8.228938417019013851e-01 3.088425782147674603e-01 -1.408855217282250216e-01 3.279946901647395885e-01 1.119140887012375574e+00 2.691201305610534944e-01 4.153309020035557131e-01 1.056225082547081584e+00 3.677796307950427224e-01 2.764420589633572067e+00 3.404469362214690431e-01 3.234321052000700414e-01 6.939098895919157961e-01 3.013870431242601788e-01 3.133691129054675395e-01 -2.081429448879966504e+00 4.175849502824957593e-01 3.316847177399147029e-01 5.150463834989229550e-01 3.198314927279247155e-01 2.327116348207456387e-01 -2.157912578815600335e-01 2.044010881941753510e+00 -5.199261325751435292e-01 8.286770150733109297e-01 3.122900952929298923e-01 3.292974965960988043e-01 7.976510757830422849e-01 3.619516250032481786e-01 1.328148760271526507e+00 1.863777374794541308e-01 3.295956693859704023e-01 -8.822565945885095795e-01 -1.330057429918298506e-01 -4.061002186501856404e-01 -3.918063661988011592e+00 2.937999668486546145e+00 4.493714990037151608e-02 3.206270868988815304e-01 -1.616881033563925874e+00 3.109450748837919165e-01 3.067588140571775313e-01 2.796342358745895207e-01 1.549209900952049912e-01 6.399053175783062652e-01 5.972483167261073422e-01 1.031051255658138155e+00 -3.588267779949079195e-01 -2.235132928659576412e-01 2.170496743486690083e-01 -1.183437359366727781e+00 2.689062548508632799e-01 -6.417812518633053687e-01 2.933099740119965437e-01 4.658656512825025131e-01 6.745428281759115186e-02 4.415155668022960334e-01 2.687658109851515653e-01 -7.330703121055938409e-02 2.116571571400332474e-01 2.952005114408880471e-01 3.597740104573514675e-01 3.016814878663608979e-01 3.126067528167180143e-01 -7.316603326343221747e-01 5.364983100518191383e-01 1.535203003486261819e+00 6.360814271893322491e-02 2.393332786543714008e-01 3.716387379638765309e-01 1.210227043027476412e+00 3.224923059334757758e-01 1.312014160090062553e-01 8.931918371153990677e-01 2.888051663738963049e-01 1.854025592205360118e+00 2.929789455495868666e-01 1.259728389980157237e+00 3.251978914917533769e-01 7.364862179435516243e-01 1.348261156930235849e+00 3.349698759993443020e-01 3.915623749105219265e-01 9.243151509414168077e-01 -1.881520322072933460e-01 -5.645475413430683931e-02 1.938691729630492022e-01 2.997840107299153400e-01 3.530026639569677771e-01 1.428271795192902482e-01 1.798540423797075904e-01 -3.640786389341615914e-01 1.292562444749685735e+00 2.797126626754639633e-01 3.088265050080060137e-01 -3.160155324495802276e+00 5.218642083969813328e-01 3.179092131511051522e-01 4.252034719053512379e-01 4.165199694369202121e-01 4.823701519536925941e-01 -1.073441759117417016e+00 6.139362748097194622e-01 2.800667187594618190e-01 3.061703384258837035e-01 1.033978437576217768e+00 4.549071251356095469e-01 3.092176585222039531e-01 -1.397016470058413562e+00 4.167426634467563118e-01 8.896725441226110975e-01 2.930339831905736103e-01 3.207281731559094018e-01 3.600461671497208749e-01 7.095717316351082271e-01 -7.077264031002616917e-02 3.085334469032878224e-01 3.148303334771789252e-01 7.946656607128448069e-02 6.784646620764729352e-01 3.295865173127504599e-01 7.205550180225315238e-01 1.710281121464386211e-01 6.884437803760965480e-01 -2.252462221567967660e-01 -1.505711900352642241e+00 3.190756128709901773e-01 -1.740623011745865908e-02 3.360250541409761094e-01 3.771426280618549454e-01 5.461535897657045224e-02 5.325187150732532126e-01 3.063809023431074974e-01 8.430202304590773965e-02 4.519139709271701166e-01 2.489106785804656996e-01 3.255720947710166180e-01 2.722609348822578323e-01 -8.294830985859718009e-01 3.146931157129513323e-01 3.400765355336700657e-01 3.104336499956071860e-01 -1.940088684038478728e-01 3.095689908641613419e-01 8.123641918552850782e-01 -5.429991424110007792e-01 1.108897479555134735e+00 6.092448499422664643e-01 2.466482591572331795e-01 3.094320858942964381e-01 -2.037374531455653059e+00 3.326764347811345113e-01 1.935340711566201632e-01 2.548319566442400763e-01 5.325187199480793110e-01 3.108689448442004122e-01 2.806767749572520732e-01 8.683712618564022601e-02 3.131337634085601951e-01 4.360359923454787956e-01 3.898798193248432797e-01 3.157264238226322184e-01 2.943145640952086750e-01 3.089508447005900327e-01 3.102666393878947271e-01 2.668728469534420444e-01 5.675254862892800678e-02 3.149003296557298937e-01 6.091723224331400122e-01 1.968639672073289604e-01 3.226106255456218097e-01 -1.328514708491366492e-01 1.547109884278415892e-01 5.632739519137153206e-01 4.434149782995911337e+00 3.309118382236789779e-01 1.021461374235617531e-01 5.461861370436568164e-01 1.964544947961338051e-01 1.547055261145642957e+00 3.562925013936389940e-01 6.498431560530352202e-01 3.057413869426623965e-01
