# 
#                 ----------------------------------------------------
#                 Data from a 3D direct N-body simulation. 
# 
#                 rows are i-particle; 
#                 coumns are :mass, tag, x ,y, z, vx, vy, vz, ax, ay, az
# 
#                 NTHU, Computational Physics 
# 
#                 ----------------------------------------------------
#                 Time = 0.0
0.000000000000000000e+00 1.000000000000000000e+00 2.000000000000000000e+00 3.000000000000000000e+00 4.000000000000000000e+00 5.000000000000000000e+00 6.000000000000000000e+00 7.000000000000000000e+00 8.000000000000000000e+00 9.000000000000000000e+00 1.000000000000000000e+01 1.100000000000000000e+01 1.200000000000000000e+01 1.300000000000000000e+01 1.400000000000000000e+01 1.500000000000000000e+01 1.600000000000000000e+01 1.700000000000000000e+01 1.800000000000000000e+01 1.900000000000000000e+01 2.000000000000000000e+01 2.100000000000000000e+01 2.200000000000000000e+01 2.300000000000000000e+01 2.400000000000000000e+01 2.500000000000000000e+01 2.600000000000000000e+01 2.700000000000000000e+01 2.800000000000000000e+01 2.900000000000000000e+01 3.000000000000000000e+01 3.100000000000000000e+01 3.200000000000000000e+01 3.300000000000000000e+01 3.400000000000000000e+01 3.500000000000000000e+01 3.600000000000000000e+01 3.700000000000000000e+01 3.800000000000000000e+01 3.900000000000000000e+01 4.000000000000000000e+01 4.100000000000000000e+01 4.200000000000000000e+01 4.300000000000000000e+01 4.400000000000000000e+01 4.500000000000000000e+01 4.600000000000000000e+01 4.700000000000000000e+01 4.800000000000000000e+01 4.900000000000000000e+01 5.000000000000000000e+01 5.100000000000000000e+01 5.200000000000000000e+01 5.300000000000000000e+01 5.400000000000000000e+01 5.500000000000000000e+01 5.600000000000000000e+01 5.700000000000000000e+01 5.800000000000000000e+01 5.900000000000000000e+01 6.000000000000000000e+01 6.100000000000000000e+01 6.200000000000000000e+01 6.300000000000000000e+01 6.400000000000000000e+01 6.500000000000000000e+01 6.600000000000000000e+01 6.700000000000000000e+01 6.800000000000000000e+01 6.900000000000000000e+01 7.000000000000000000e+01 7.100000000000000000e+01 7.200000000000000000e+01 7.300000000000000000e+01 7.400000000000000000e+01 7.500000000000000000e+01 7.600000000000000000e+01 7.700000000000000000e+01 7.800000000000000000e+01 7.900000000000000000e+01 8.000000000000000000e+01 8.100000000000000000e+01 8.200000000000000000e+01 8.300000000000000000e+01 8.400000000000000000e+01 8.500000000000000000e+01 8.600000000000000000e+01 8.700000000000000000e+01 8.800000000000000000e+01 8.900000000000000000e+01 9.000000000000000000e+01 9.100000000000000000e+01 9.200000000000000000e+01 9.300000000000000000e+01 9.400000000000000000e+01 9.500000000000000000e+01 9.600000000000000000e+01 9.700000000000000000e+01 9.800000000000000000e+01 9.900000000000000000e+01 1.000000000000000000e+02 1.010000000000000000e+02 1.020000000000000000e+02 1.030000000000000000e+02 1.040000000000000000e+02 1.050000000000000000e+02 1.060000000000000000e+02 1.070000000000000000e+02 1.080000000000000000e+02 1.090000000000000000e+02 1.100000000000000000e+02 1.110000000000000000e+02 1.120000000000000000e+02 1.130000000000000000e+02 1.140000000000000000e+02 1.150000000000000000e+02 1.160000000000000000e+02 1.170000000000000000e+02 1.180000000000000000e+02 1.190000000000000000e+02 1.200000000000000000e+02 1.210000000000000000e+02 1.220000000000000000e+02 1.230000000000000000e+02 1.240000000000000000e+02 1.250000000000000000e+02 1.260000000000000000e+02 1.270000000000000000e+02 1.280000000000000000e+02 1.290000000000000000e+02 1.300000000000000000e+02 1.310000000000000000e+02 1.320000000000000000e+02 1.330000000000000000e+02 1.340000000000000000e+02 1.350000000000000000e+02 1.360000000000000000e+02 1.370000000000000000e+02 1.380000000000000000e+02 1.390000000000000000e+02 1.400000000000000000e+02 1.410000000000000000e+02 1.420000000000000000e+02 1.430000000000000000e+02 1.440000000000000000e+02 1.450000000000000000e+02 1.460000000000000000e+02 1.470000000000000000e+02 1.480000000000000000e+02 1.490000000000000000e+02 1.500000000000000000e+02 1.510000000000000000e+02 1.520000000000000000e+02 1.530000000000000000e+02 1.540000000000000000e+02 1.550000000000000000e+02 1.560000000000000000e+02 1.570000000000000000e+02 1.580000000000000000e+02 1.590000000000000000e+02 1.600000000000000000e+02 1.610000000000000000e+02 1.620000000000000000e+02 1.630000000000000000e+02 1.640000000000000000e+02 1.650000000000000000e+02 1.660000000000000000e+02 1.670000000000000000e+02 1.680000000000000000e+02 1.690000000000000000e+02 1.700000000000000000e+02 1.710000000000000000e+02 1.720000000000000000e+02 1.730000000000000000e+02 1.740000000000000000e+02 1.750000000000000000e+02 1.760000000000000000e+02 1.770000000000000000e+02 1.780000000000000000e+02 1.790000000000000000e+02 1.800000000000000000e+02 1.810000000000000000e+02 1.820000000000000000e+02 1.830000000000000000e+02 1.840000000000000000e+02 1.850000000000000000e+02 1.860000000000000000e+02 1.870000000000000000e+02 1.880000000000000000e+02 1.890000000000000000e+02 1.900000000000000000e+02 1.910000000000000000e+02 1.920000000000000000e+02 1.930000000000000000e+02 1.940000000000000000e+02 1.950000000000000000e+02 1.960000000000000000e+02 1.970000000000000000e+02 1.980000000000000000e+02 1.990000000000000000e+02 2.000000000000000000e+02 2.010000000000000000e+02 2.020000000000000000e+02 2.030000000000000000e+02 2.040000000000000000e+02 2.050000000000000000e+02 2.060000000000000000e+02 2.070000000000000000e+02 2.080000000000000000e+02 2.090000000000000000e+02 2.100000000000000000e+02 2.110000000000000000e+02 2.120000000000000000e+02 2.130000000000000000e+02 2.140000000000000000e+02 2.150000000000000000e+02 2.160000000000000000e+02 2.170000000000000000e+02 2.180000000000000000e+02 2.190000000000000000e+02 2.200000000000000000e+02 2.210000000000000000e+02 2.220000000000000000e+02 2.230000000000000000e+02 2.240000000000000000e+02 2.250000000000000000e+02 2.260000000000000000e+02 2.270000000000000000e+02 2.280000000000000000e+02 2.290000000000000000e+02 2.300000000000000000e+02 2.310000000000000000e+02 2.320000000000000000e+02 2.330000000000000000e+02 2.340000000000000000e+02 2.350000000000000000e+02 2.360000000000000000e+02 2.370000000000000000e+02 2.380000000000000000e+02 2.390000000000000000e+02 2.400000000000000000e+02 2.410000000000000000e+02 2.420000000000000000e+02 2.430000000000000000e+02 2.440000000000000000e+02 2.450000000000000000e+02 2.460000000000000000e+02 2.470000000000000000e+02 2.480000000000000000e+02 2.490000000000000000e+02 2.500000000000000000e+02 2.510000000000000000e+02 2.520000000000000000e+02 2.530000000000000000e+02 2.540000000000000000e+02 2.550000000000000000e+02 2.560000000000000000e+02 2.570000000000000000e+02 2.580000000000000000e+02 2.590000000000000000e+02 2.600000000000000000e+02 2.610000000000000000e+02 2.620000000000000000e+02 2.630000000000000000e+02 2.640000000000000000e+02 2.650000000000000000e+02 2.660000000000000000e+02 2.670000000000000000e+02 2.680000000000000000e+02 2.690000000000000000e+02 2.700000000000000000e+02 2.710000000000000000e+02 2.720000000000000000e+02 2.730000000000000000e+02 2.740000000000000000e+02 2.750000000000000000e+02 2.760000000000000000e+02 2.770000000000000000e+02 2.780000000000000000e+02 2.790000000000000000e+02 2.800000000000000000e+02 2.810000000000000000e+02 2.820000000000000000e+02 2.830000000000000000e+02 2.840000000000000000e+02 2.850000000000000000e+02 2.860000000000000000e+02 2.870000000000000000e+02 2.880000000000000000e+02 2.890000000000000000e+02 2.900000000000000000e+02 2.910000000000000000e+02 2.920000000000000000e+02 2.930000000000000000e+02 2.940000000000000000e+02 2.950000000000000000e+02 2.960000000000000000e+02 2.970000000000000000e+02 2.980000000000000000e+02 2.990000000000000000e+02 3.000000000000000000e+02 3.010000000000000000e+02 3.020000000000000000e+02 3.030000000000000000e+02 3.040000000000000000e+02 3.050000000000000000e+02 3.060000000000000000e+02 3.070000000000000000e+02 3.080000000000000000e+02 3.090000000000000000e+02 3.100000000000000000e+02 3.110000000000000000e+02 3.120000000000000000e+02 3.130000000000000000e+02 3.140000000000000000e+02 3.150000000000000000e+02 3.160000000000000000e+02 3.170000000000000000e+02 3.180000000000000000e+02 3.190000000000000000e+02 3.200000000000000000e+02 3.210000000000000000e+02 3.220000000000000000e+02 3.230000000000000000e+02 3.240000000000000000e+02 3.250000000000000000e+02 3.260000000000000000e+02 3.270000000000000000e+02 3.280000000000000000e+02 3.290000000000000000e+02 3.300000000000000000e+02 3.310000000000000000e+02 3.320000000000000000e+02 3.330000000000000000e+02 3.340000000000000000e+02 3.350000000000000000e+02 3.360000000000000000e+02 3.370000000000000000e+02 3.380000000000000000e+02 3.390000000000000000e+02 3.400000000000000000e+02 3.410000000000000000e+02 3.420000000000000000e+02 3.430000000000000000e+02 3.440000000000000000e+02 3.450000000000000000e+02 3.460000000000000000e+02 3.470000000000000000e+02 3.480000000000000000e+02 3.490000000000000000e+02 3.500000000000000000e+02 3.510000000000000000e+02 3.520000000000000000e+02 3.530000000000000000e+02 3.540000000000000000e+02 3.550000000000000000e+02 3.560000000000000000e+02 3.570000000000000000e+02 3.580000000000000000e+02 3.590000000000000000e+02 3.600000000000000000e+02 3.610000000000000000e+02 3.620000000000000000e+02 3.630000000000000000e+02 3.640000000000000000e+02 3.650000000000000000e+02 3.660000000000000000e+02 3.670000000000000000e+02 3.680000000000000000e+02 3.690000000000000000e+02 3.700000000000000000e+02 3.710000000000000000e+02 3.720000000000000000e+02 3.730000000000000000e+02 3.740000000000000000e+02 3.750000000000000000e+02 3.760000000000000000e+02 3.770000000000000000e+02 3.780000000000000000e+02 3.790000000000000000e+02 3.800000000000000000e+02 3.810000000000000000e+02 3.820000000000000000e+02 3.830000000000000000e+02 3.840000000000000000e+02 3.850000000000000000e+02 3.860000000000000000e+02 3.870000000000000000e+02 3.880000000000000000e+02 3.890000000000000000e+02 3.900000000000000000e+02 3.910000000000000000e+02 3.920000000000000000e+02 3.930000000000000000e+02 3.940000000000000000e+02 3.950000000000000000e+02 3.960000000000000000e+02 3.970000000000000000e+02 3.980000000000000000e+02 3.990000000000000000e+02 4.000000000000000000e+02 4.010000000000000000e+02 4.020000000000000000e+02 4.030000000000000000e+02 4.040000000000000000e+02 4.050000000000000000e+02 4.060000000000000000e+02 4.070000000000000000e+02 4.080000000000000000e+02 4.090000000000000000e+02 4.100000000000000000e+02 4.110000000000000000e+02 4.120000000000000000e+02 4.130000000000000000e+02 4.140000000000000000e+02 4.150000000000000000e+02 4.160000000000000000e+02 4.170000000000000000e+02 4.180000000000000000e+02 4.190000000000000000e+02 4.200000000000000000e+02 4.210000000000000000e+02 4.220000000000000000e+02 4.230000000000000000e+02 4.240000000000000000e+02 4.250000000000000000e+02 4.260000000000000000e+02 4.270000000000000000e+02 4.280000000000000000e+02 4.290000000000000000e+02 4.300000000000000000e+02 4.310000000000000000e+02 4.320000000000000000e+02 4.330000000000000000e+02 4.340000000000000000e+02 4.350000000000000000e+02 4.360000000000000000e+02 4.370000000000000000e+02 4.380000000000000000e+02 4.390000000000000000e+02 4.400000000000000000e+02 4.410000000000000000e+02 4.420000000000000000e+02 4.430000000000000000e+02 4.440000000000000000e+02 4.450000000000000000e+02 4.460000000000000000e+02 4.470000000000000000e+02 4.480000000000000000e+02 4.490000000000000000e+02 4.500000000000000000e+02 4.510000000000000000e+02 4.520000000000000000e+02 4.530000000000000000e+02 4.540000000000000000e+02 4.550000000000000000e+02 4.560000000000000000e+02 4.570000000000000000e+02 4.580000000000000000e+02 4.590000000000000000e+02 4.600000000000000000e+02 4.610000000000000000e+02 4.620000000000000000e+02 4.630000000000000000e+02 4.640000000000000000e+02 4.650000000000000000e+02 4.660000000000000000e+02 4.670000000000000000e+02 4.680000000000000000e+02 4.690000000000000000e+02 4.700000000000000000e+02 4.710000000000000000e+02 4.720000000000000000e+02 4.730000000000000000e+02 4.740000000000000000e+02 4.750000000000000000e+02 4.760000000000000000e+02 4.770000000000000000e+02 4.780000000000000000e+02 4.790000000000000000e+02 4.800000000000000000e+02 4.810000000000000000e+02 4.820000000000000000e+02 4.830000000000000000e+02 4.840000000000000000e+02 4.850000000000000000e+02 4.860000000000000000e+02 4.870000000000000000e+02 4.880000000000000000e+02 4.890000000000000000e+02 4.900000000000000000e+02 4.910000000000000000e+02 4.920000000000000000e+02 4.930000000000000000e+02 4.940000000000000000e+02 4.950000000000000000e+02 4.960000000000000000e+02 4.970000000000000000e+02 4.980000000000000000e+02 4.990000000000000000e+02 5.000000000000000000e+02 5.010000000000000000e+02 5.020000000000000000e+02 5.030000000000000000e+02 5.040000000000000000e+02 5.050000000000000000e+02 5.060000000000000000e+02 5.070000000000000000e+02 5.080000000000000000e+02 5.090000000000000000e+02 5.100000000000000000e+02 5.110000000000000000e+02 5.120000000000000000e+02 5.130000000000000000e+02 5.140000000000000000e+02 5.150000000000000000e+02 5.160000000000000000e+02 5.170000000000000000e+02 5.180000000000000000e+02 5.190000000000000000e+02 5.200000000000000000e+02 5.210000000000000000e+02 5.220000000000000000e+02 5.230000000000000000e+02 5.240000000000000000e+02 5.250000000000000000e+02 5.260000000000000000e+02 5.270000000000000000e+02 5.280000000000000000e+02 5.290000000000000000e+02 5.300000000000000000e+02 5.310000000000000000e+02 5.320000000000000000e+02 5.330000000000000000e+02 5.340000000000000000e+02 5.350000000000000000e+02 5.360000000000000000e+02 5.370000000000000000e+02 5.380000000000000000e+02 5.390000000000000000e+02 5.400000000000000000e+02 5.410000000000000000e+02 5.420000000000000000e+02 5.430000000000000000e+02 5.440000000000000000e+02 5.450000000000000000e+02 5.460000000000000000e+02 5.470000000000000000e+02 5.480000000000000000e+02 5.490000000000000000e+02 5.500000000000000000e+02 5.510000000000000000e+02 5.520000000000000000e+02 5.530000000000000000e+02 5.540000000000000000e+02 5.550000000000000000e+02 5.560000000000000000e+02 5.570000000000000000e+02 5.580000000000000000e+02 5.590000000000000000e+02 5.600000000000000000e+02 5.610000000000000000e+02 5.620000000000000000e+02 5.630000000000000000e+02 5.640000000000000000e+02 5.650000000000000000e+02 5.660000000000000000e+02 5.670000000000000000e+02 5.680000000000000000e+02 5.690000000000000000e+02 5.700000000000000000e+02 5.710000000000000000e+02 5.720000000000000000e+02 5.730000000000000000e+02 5.740000000000000000e+02 5.750000000000000000e+02 5.760000000000000000e+02 5.770000000000000000e+02 5.780000000000000000e+02 5.790000000000000000e+02 5.800000000000000000e+02 5.810000000000000000e+02 5.820000000000000000e+02 5.830000000000000000e+02 5.840000000000000000e+02 5.850000000000000000e+02 5.860000000000000000e+02 5.870000000000000000e+02 5.880000000000000000e+02 5.890000000000000000e+02 5.900000000000000000e+02 5.910000000000000000e+02 5.920000000000000000e+02 5.930000000000000000e+02 5.940000000000000000e+02 5.950000000000000000e+02 5.960000000000000000e+02 5.970000000000000000e+02 5.980000000000000000e+02 5.990000000000000000e+02 6.000000000000000000e+02 6.010000000000000000e+02 6.020000000000000000e+02 6.030000000000000000e+02 6.040000000000000000e+02 6.050000000000000000e+02 6.060000000000000000e+02 6.070000000000000000e+02 6.080000000000000000e+02 6.090000000000000000e+02 6.100000000000000000e+02 6.110000000000000000e+02 6.120000000000000000e+02 6.130000000000000000e+02 6.140000000000000000e+02 6.150000000000000000e+02 6.160000000000000000e+02 6.170000000000000000e+02 6.180000000000000000e+02 6.190000000000000000e+02 6.200000000000000000e+02 6.210000000000000000e+02 6.220000000000000000e+02 6.230000000000000000e+02 6.240000000000000000e+02 6.250000000000000000e+02 6.260000000000000000e+02 6.270000000000000000e+02 6.280000000000000000e+02 6.290000000000000000e+02 6.300000000000000000e+02 6.310000000000000000e+02 6.320000000000000000e+02 6.330000000000000000e+02 6.340000000000000000e+02 6.350000000000000000e+02 6.360000000000000000e+02 6.370000000000000000e+02 6.380000000000000000e+02 6.390000000000000000e+02 6.400000000000000000e+02 6.410000000000000000e+02 6.420000000000000000e+02 6.430000000000000000e+02 6.440000000000000000e+02 6.450000000000000000e+02 6.460000000000000000e+02 6.470000000000000000e+02 6.480000000000000000e+02 6.490000000000000000e+02 6.500000000000000000e+02 6.510000000000000000e+02 6.520000000000000000e+02 6.530000000000000000e+02 6.540000000000000000e+02 6.550000000000000000e+02 6.560000000000000000e+02 6.570000000000000000e+02 6.580000000000000000e+02 6.590000000000000000e+02 6.600000000000000000e+02 6.610000000000000000e+02 6.620000000000000000e+02 6.630000000000000000e+02 6.640000000000000000e+02 6.650000000000000000e+02 6.660000000000000000e+02 6.670000000000000000e+02 6.680000000000000000e+02 6.690000000000000000e+02 6.700000000000000000e+02 6.710000000000000000e+02 6.720000000000000000e+02 6.730000000000000000e+02 6.740000000000000000e+02 6.750000000000000000e+02 6.760000000000000000e+02 6.770000000000000000e+02 6.780000000000000000e+02 6.790000000000000000e+02 6.800000000000000000e+02 6.810000000000000000e+02 6.820000000000000000e+02 6.830000000000000000e+02 6.840000000000000000e+02 6.850000000000000000e+02 6.860000000000000000e+02 6.870000000000000000e+02 6.880000000000000000e+02 6.890000000000000000e+02 6.900000000000000000e+02 6.910000000000000000e+02 6.920000000000000000e+02 6.930000000000000000e+02 6.940000000000000000e+02 6.950000000000000000e+02 6.960000000000000000e+02 6.970000000000000000e+02 6.980000000000000000e+02 6.990000000000000000e+02 7.000000000000000000e+02 7.010000000000000000e+02 7.020000000000000000e+02 7.030000000000000000e+02 7.040000000000000000e+02 7.050000000000000000e+02 7.060000000000000000e+02 7.070000000000000000e+02 7.080000000000000000e+02 7.090000000000000000e+02 7.100000000000000000e+02 7.110000000000000000e+02 7.120000000000000000e+02 7.130000000000000000e+02 7.140000000000000000e+02 7.150000000000000000e+02 7.160000000000000000e+02 7.170000000000000000e+02 7.180000000000000000e+02 7.190000000000000000e+02 7.200000000000000000e+02 7.210000000000000000e+02 7.220000000000000000e+02 7.230000000000000000e+02 7.240000000000000000e+02 7.250000000000000000e+02 7.260000000000000000e+02 7.270000000000000000e+02 7.280000000000000000e+02 7.290000000000000000e+02 7.300000000000000000e+02 7.310000000000000000e+02 7.320000000000000000e+02 7.330000000000000000e+02 7.340000000000000000e+02 7.350000000000000000e+02 7.360000000000000000e+02 7.370000000000000000e+02 7.380000000000000000e+02 7.390000000000000000e+02 7.400000000000000000e+02 7.410000000000000000e+02 7.420000000000000000e+02 7.430000000000000000e+02 7.440000000000000000e+02 7.450000000000000000e+02 7.460000000000000000e+02 7.470000000000000000e+02 7.480000000000000000e+02 7.490000000000000000e+02 7.500000000000000000e+02 7.510000000000000000e+02 7.520000000000000000e+02 7.530000000000000000e+02 7.540000000000000000e+02 7.550000000000000000e+02 7.560000000000000000e+02 7.570000000000000000e+02 7.580000000000000000e+02 7.590000000000000000e+02 7.600000000000000000e+02 7.610000000000000000e+02 7.620000000000000000e+02 7.630000000000000000e+02 7.640000000000000000e+02 7.650000000000000000e+02 7.660000000000000000e+02 7.670000000000000000e+02 7.680000000000000000e+02 7.690000000000000000e+02 7.700000000000000000e+02 7.710000000000000000e+02 7.720000000000000000e+02 7.730000000000000000e+02 7.740000000000000000e+02 7.750000000000000000e+02 7.760000000000000000e+02 7.770000000000000000e+02 7.780000000000000000e+02 7.790000000000000000e+02 7.800000000000000000e+02 7.810000000000000000e+02 7.820000000000000000e+02 7.830000000000000000e+02 7.840000000000000000e+02 7.850000000000000000e+02 7.860000000000000000e+02 7.870000000000000000e+02 7.880000000000000000e+02 7.890000000000000000e+02 7.900000000000000000e+02 7.910000000000000000e+02 7.920000000000000000e+02 7.930000000000000000e+02 7.940000000000000000e+02 7.950000000000000000e+02 7.960000000000000000e+02 7.970000000000000000e+02 7.980000000000000000e+02 7.990000000000000000e+02 8.000000000000000000e+02 8.010000000000000000e+02 8.020000000000000000e+02 8.030000000000000000e+02 8.040000000000000000e+02 8.050000000000000000e+02 8.060000000000000000e+02 8.070000000000000000e+02 8.080000000000000000e+02 8.090000000000000000e+02 8.100000000000000000e+02 8.110000000000000000e+02 8.120000000000000000e+02 8.130000000000000000e+02 8.140000000000000000e+02 8.150000000000000000e+02 8.160000000000000000e+02 8.170000000000000000e+02 8.180000000000000000e+02 8.190000000000000000e+02 8.200000000000000000e+02 8.210000000000000000e+02 8.220000000000000000e+02 8.230000000000000000e+02 8.240000000000000000e+02 8.250000000000000000e+02 8.260000000000000000e+02 8.270000000000000000e+02 8.280000000000000000e+02 8.290000000000000000e+02 8.300000000000000000e+02 8.310000000000000000e+02 8.320000000000000000e+02 8.330000000000000000e+02 8.340000000000000000e+02 8.350000000000000000e+02 8.360000000000000000e+02 8.370000000000000000e+02 8.380000000000000000e+02 8.390000000000000000e+02 8.400000000000000000e+02 8.410000000000000000e+02 8.420000000000000000e+02 8.430000000000000000e+02 8.440000000000000000e+02 8.450000000000000000e+02 8.460000000000000000e+02 8.470000000000000000e+02 8.480000000000000000e+02 8.490000000000000000e+02 8.500000000000000000e+02 8.510000000000000000e+02 8.520000000000000000e+02 8.530000000000000000e+02 8.540000000000000000e+02 8.550000000000000000e+02 8.560000000000000000e+02 8.570000000000000000e+02 8.580000000000000000e+02 8.590000000000000000e+02 8.600000000000000000e+02 8.610000000000000000e+02 8.620000000000000000e+02 8.630000000000000000e+02 8.640000000000000000e+02 8.650000000000000000e+02 8.660000000000000000e+02 8.670000000000000000e+02 8.680000000000000000e+02 8.690000000000000000e+02 8.700000000000000000e+02 8.710000000000000000e+02 8.720000000000000000e+02 8.730000000000000000e+02 8.740000000000000000e+02 8.750000000000000000e+02 8.760000000000000000e+02 8.770000000000000000e+02 8.780000000000000000e+02 8.790000000000000000e+02 8.800000000000000000e+02 8.810000000000000000e+02 8.820000000000000000e+02 8.830000000000000000e+02 8.840000000000000000e+02 8.850000000000000000e+02 8.860000000000000000e+02 8.870000000000000000e+02 8.880000000000000000e+02 8.890000000000000000e+02 8.900000000000000000e+02 8.910000000000000000e+02 8.920000000000000000e+02 8.930000000000000000e+02 8.940000000000000000e+02 8.950000000000000000e+02 8.960000000000000000e+02 8.970000000000000000e+02 8.980000000000000000e+02 8.990000000000000000e+02 9.000000000000000000e+02 9.010000000000000000e+02 9.020000000000000000e+02 9.030000000000000000e+02 9.040000000000000000e+02 9.050000000000000000e+02 9.060000000000000000e+02 9.070000000000000000e+02 9.080000000000000000e+02 9.090000000000000000e+02 9.100000000000000000e+02 9.110000000000000000e+02 9.120000000000000000e+02 9.130000000000000000e+02 9.140000000000000000e+02 9.150000000000000000e+02 9.160000000000000000e+02 9.170000000000000000e+02 9.180000000000000000e+02 9.190000000000000000e+02 9.200000000000000000e+02 9.210000000000000000e+02 9.220000000000000000e+02 9.230000000000000000e+02 9.240000000000000000e+02 9.250000000000000000e+02 9.260000000000000000e+02 9.270000000000000000e+02 9.280000000000000000e+02 9.290000000000000000e+02 9.300000000000000000e+02 9.310000000000000000e+02 9.320000000000000000e+02 9.330000000000000000e+02 9.340000000000000000e+02 9.350000000000000000e+02 9.360000000000000000e+02 9.370000000000000000e+02 9.380000000000000000e+02 9.390000000000000000e+02 9.400000000000000000e+02 9.410000000000000000e+02 9.420000000000000000e+02 9.430000000000000000e+02 9.440000000000000000e+02 9.450000000000000000e+02 9.460000000000000000e+02 9.470000000000000000e+02 9.480000000000000000e+02 9.490000000000000000e+02 9.500000000000000000e+02 9.510000000000000000e+02 9.520000000000000000e+02 9.530000000000000000e+02 9.540000000000000000e+02 9.550000000000000000e+02 9.560000000000000000e+02 9.570000000000000000e+02 9.580000000000000000e+02 9.590000000000000000e+02 9.600000000000000000e+02 9.610000000000000000e+02 9.620000000000000000e+02 9.630000000000000000e+02 9.640000000000000000e+02 9.650000000000000000e+02 9.660000000000000000e+02 9.670000000000000000e+02 9.680000000000000000e+02 9.690000000000000000e+02 9.700000000000000000e+02 9.710000000000000000e+02 9.720000000000000000e+02 9.730000000000000000e+02 9.740000000000000000e+02 9.750000000000000000e+02 9.760000000000000000e+02 9.770000000000000000e+02 9.780000000000000000e+02 9.790000000000000000e+02 9.800000000000000000e+02 9.810000000000000000e+02 9.820000000000000000e+02 9.830000000000000000e+02 9.840000000000000000e+02 9.850000000000000000e+02 9.860000000000000000e+02 9.870000000000000000e+02 9.880000000000000000e+02 9.890000000000000000e+02 9.900000000000000000e+02 9.910000000000000000e+02 9.920000000000000000e+02 9.930000000000000000e+02 9.940000000000000000e+02 9.950000000000000000e+02 9.960000000000000000e+02 9.970000000000000000e+02 9.980000000000000000e+02 9.990000000000000000e+02
1.000000000000000000e+00 1.000000000000000000e+00 1.000000000000000000e+00 1.000000000000000000e+00 1.000000000000000000e+00 1.000000000000000000e+00 1.000000000000000000e+00 1.000000000000000000e+00 1.000000000000000000e+00 1.000000000000000000e+00 1.000000000000000000e+00 1.000000000000000000e+00 1.000000000000000000e+00 1.000000000000000000e+00 1.000000000000000000e+00 1.000000000000000000e+00 1.000000000000000000e+00 1.000000000000000000e+00 1.000000000000000000e+00 1.000000000000000000e+00 1.000000000000000000e+00 1.000000000000000000e+00 1.000000000000000000e+00 1.000000000000000000e+00 1.000000000000000000e+00 1.000000000000000000e+00 1.000000000000000000e+00 1.000000000000000000e+00 1.000000000000000000e+00 1.000000000000000000e+00 1.000000000000000000e+00 1.000000000000000000e+00 1.000000000000000000e+00 1.000000000000000000e+00 1.000000000000000000e+00 1.000000000000000000e+00 1.000000000000000000e+00 1.000000000000000000e+00 1.000000000000000000e+00 1.000000000000000000e+00 1.000000000000000000e+00 1.000000000000000000e+00 1.000000000000000000e+00 1.000000000000000000e+00 1.000000000000000000e+00 1.000000000000000000e+00 1.000000000000000000e+00 1.000000000000000000e+00 1.000000000000000000e+00 1.000000000000000000e+00 1.000000000000000000e+00 1.000000000000000000e+00 1.000000000000000000e+00 1.000000000000000000e+00 1.000000000000000000e+00 1.000000000000000000e+00 1.000000000000000000e+00 1.000000000000000000e+00 1.000000000000000000e+00 1.000000000000000000e+00 1.000000000000000000e+00 1.000000000000000000e+00 1.000000000000000000e+00 1.000000000000000000e+00 1.000000000000000000e+00 1.000000000000000000e+00 1.000000000000000000e+00 1.000000000000000000e+00 1.000000000000000000e+00 1.000000000000000000e+00 1.000000000000000000e+00 1.000000000000000000e+00 1.000000000000000000e+00 1.000000000000000000e+00 1.000000000000000000e+00 1.000000000000000000e+00 1.000000000000000000e+00 1.000000000000000000e+00 1.000000000000000000e+00 1.000000000000000000e+00 1.000000000000000000e+00 1.000000000000000000e+00 1.000000000000000000e+00 1.000000000000000000e+00 1.000000000000000000e+00 1.000000000000000000e+00 1.000000000000000000e+00 1.000000000000000000e+00 1.000000000000000000e+00 1.000000000000000000e+00 1.000000000000000000e+00 1.000000000000000000e+00 1.000000000000000000e+00 1.000000000000000000e+00 1.000000000000000000e+00 1.000000000000000000e+00 1.000000000000000000e+00 1.000000000000000000e+00 1.000000000000000000e+00 1.000000000000000000e+00 1.000000000000000000e+00 1.000000000000000000e+00 1.000000000000000000e+00 1.000000000000000000e+00 1.000000000000000000e+00 1.000000000000000000e+00 1.000000000000000000e+00 1.000000000000000000e+00 1.000000000000000000e+00 1.000000000000000000e+00 1.000000000000000000e+00 1.000000000000000000e+00 1.000000000000000000e+00 1.000000000000000000e+00 1.000000000000000000e+00 1.000000000000000000e+00 1.000000000000000000e+00 1.000000000000000000e+00 1.000000000000000000e+00 1.000000000000000000e+00 1.000000000000000000e+00 1.000000000000000000e+00 1.000000000000000000e+00 1.000000000000000000e+00 1.000000000000000000e+00 1.000000000000000000e+00 1.000000000000000000e+00 1.000000000000000000e+00 1.000000000000000000e+00 1.000000000000000000e+00 1.000000000000000000e+00 1.000000000000000000e+00 1.000000000000000000e+00 1.000000000000000000e+00 1.000000000000000000e+00 1.000000000000000000e+00 1.000000000000000000e+00 1.000000000000000000e+00 1.000000000000000000e+00 1.000000000000000000e+00 1.000000000000000000e+00 1.000000000000000000e+00 1.000000000000000000e+00 1.000000000000000000e+00 1.000000000000000000e+00 1.000000000000000000e+00 1.000000000000000000e+00 1.000000000000000000e+00 1.000000000000000000e+00 1.000000000000000000e+00 1.000000000000000000e+00 1.000000000000000000e+00 1.000000000000000000e+00 1.000000000000000000e+00 1.000000000000000000e+00 1.000000000000000000e+00 1.000000000000000000e+00 1.000000000000000000e+00 1.000000000000000000e+00 1.000000000000000000e+00 1.000000000000000000e+00 1.000000000000000000e+00 1.000000000000000000e+00 1.000000000000000000e+00 1.000000000000000000e+00 1.000000000000000000e+00 1.000000000000000000e+00 1.000000000000000000e+00 1.000000000000000000e+00 1.000000000000000000e+00 1.000000000000000000e+00 1.000000000000000000e+00 1.000000000000000000e+00 1.000000000000000000e+00 1.000000000000000000e+00 1.000000000000000000e+00 1.000000000000000000e+00 1.000000000000000000e+00 1.000000000000000000e+00 1.000000000000000000e+00 1.000000000000000000e+00 1.000000000000000000e+00 1.000000000000000000e+00 1.000000000000000000e+00 1.000000000000000000e+00 1.000000000000000000e+00 1.000000000000000000e+00 1.000000000000000000e+00 1.000000000000000000e+00 1.000000000000000000e+00 1.000000000000000000e+00 1.000000000000000000e+00 1.000000000000000000e+00 1.000000000000000000e+00 1.000000000000000000e+00 1.000000000000000000e+00 1.000000000000000000e+00 1.000000000000000000e+00 1.000000000000000000e+00 1.000000000000000000e+00 1.000000000000000000e+00 1.000000000000000000e+00 1.000000000000000000e+00 1.000000000000000000e+00 1.000000000000000000e+00 1.000000000000000000e+00 1.000000000000000000e+00 1.000000000000000000e+00 1.000000000000000000e+00 1.000000000000000000e+00 1.000000000000000000e+00 1.000000000000000000e+00 1.000000000000000000e+00 1.000000000000000000e+00 1.000000000000000000e+00 1.000000000000000000e+00 1.000000000000000000e+00 1.000000000000000000e+00 1.000000000000000000e+00 1.000000000000000000e+00 1.000000000000000000e+00 1.000000000000000000e+00 1.000000000000000000e+00 1.000000000000000000e+00 1.000000000000000000e+00 1.000000000000000000e+00 1.000000000000000000e+00 1.000000000000000000e+00 1.000000000000000000e+00 1.000000000000000000e+00 1.000000000000000000e+00 1.000000000000000000e+00 1.000000000000000000e+00 1.000000000000000000e+00 1.000000000000000000e+00 1.000000000000000000e+00 1.000000000000000000e+00 1.000000000000000000e+00 1.000000000000000000e+00 1.000000000000000000e+00 1.000000000000000000e+00 1.000000000000000000e+00 1.000000000000000000e+00 1.000000000000000000e+00 1.000000000000000000e+00 1.000000000000000000e+00 1.000000000000000000e+00 1.000000000000000000e+00 1.000000000000000000e+00 1.000000000000000000e+00 1.000000000000000000e+00 1.000000000000000000e+00 1.000000000000000000e+00 1.000000000000000000e+00 1.000000000000000000e+00 1.000000000000000000e+00 1.000000000000000000e+00 1.000000000000000000e+00 1.000000000000000000e+00 1.000000000000000000e+00 1.000000000000000000e+00 1.000000000000000000e+00 1.000000000000000000e+00 1.000000000000000000e+00 1.000000000000000000e+00 1.000000000000000000e+00 1.000000000000000000e+00 1.000000000000000000e+00 1.000000000000000000e+00 1.000000000000000000e+00 1.000000000000000000e+00 1.000000000000000000e+00 1.000000000000000000e+00 1.000000000000000000e+00 1.000000000000000000e+00 1.000000000000000000e+00 1.000000000000000000e+00 1.000000000000000000e+00 1.000000000000000000e+00 1.000000000000000000e+00 1.000000000000000000e+00 1.000000000000000000e+00 1.000000000000000000e+00 1.000000000000000000e+00 1.000000000000000000e+00 1.000000000000000000e+00 1.000000000000000000e+00 1.000000000000000000e+00 1.000000000000000000e+00 1.000000000000000000e+00 1.000000000000000000e+00 1.000000000000000000e+00 1.000000000000000000e+00 1.000000000000000000e+00 1.000000000000000000e+00 1.000000000000000000e+00 1.000000000000000000e+00 1.000000000000000000e+00 1.000000000000000000e+00 1.000000000000000000e+00 1.000000000000000000e+00 1.000000000000000000e+00 1.000000000000000000e+00 1.000000000000000000e+00 1.000000000000000000e+00 1.000000000000000000e+00 1.000000000000000000e+00 1.000000000000000000e+00 1.000000000000000000e+00 1.000000000000000000e+00 1.000000000000000000e+00 1.000000000000000000e+00 1.000000000000000000e+00 1.000000000000000000e+00 1.000000000000000000e+00 1.000000000000000000e+00 1.000000000000000000e+00 1.000000000000000000e+00 1.000000000000000000e+00 1.000000000000000000e+00 1.000000000000000000e+00 1.000000000000000000e+00 1.000000000000000000e+00 1.000000000000000000e+00 1.000000000000000000e+00 1.000000000000000000e+00 1.000000000000000000e+00 1.000000000000000000e+00 1.000000000000000000e+00 1.000000000000000000e+00 1.000000000000000000e+00 1.000000000000000000e+00 1.000000000000000000e+00 1.000000000000000000e+00 1.000000000000000000e+00 1.000000000000000000e+00 1.000000000000000000e+00 1.000000000000000000e+00 1.000000000000000000e+00 1.000000000000000000e+00 1.000000000000000000e+00 1.000000000000000000e+00 1.000000000000000000e+00 1.000000000000000000e+00 1.000000000000000000e+00 1.000000000000000000e+00 1.000000000000000000e+00 1.000000000000000000e+00 1.000000000000000000e+00 1.000000000000000000e+00 1.000000000000000000e+00 1.000000000000000000e+00 1.000000000000000000e+00 1.000000000000000000e+00 1.000000000000000000e+00 1.000000000000000000e+00 1.000000000000000000e+00 1.000000000000000000e+00 1.000000000000000000e+00 1.000000000000000000e+00 1.000000000000000000e+00 1.000000000000000000e+00 1.000000000000000000e+00 1.000000000000000000e+00 1.000000000000000000e+00 1.000000000000000000e+00 1.000000000000000000e+00 1.000000000000000000e+00 1.000000000000000000e+00 1.000000000000000000e+00 1.000000000000000000e+00 1.000000000000000000e+00 1.000000000000000000e+00 1.000000000000000000e+00 1.000000000000000000e+00 1.000000000000000000e+00 1.000000000000000000e+00 1.000000000000000000e+00 1.000000000000000000e+00 1.000000000000000000e+00 1.000000000000000000e+00 1.000000000000000000e+00 1.000000000000000000e+00 1.000000000000000000e+00 1.000000000000000000e+00 1.000000000000000000e+00 1.000000000000000000e+00 1.000000000000000000e+00 1.000000000000000000e+00 1.000000000000000000e+00 1.000000000000000000e+00 1.000000000000000000e+00 1.000000000000000000e+00 1.000000000000000000e+00 1.000000000000000000e+00 1.000000000000000000e+00 1.000000000000000000e+00 1.000000000000000000e+00 1.000000000000000000e+00 1.000000000000000000e+00 1.000000000000000000e+00 1.000000000000000000e+00 1.000000000000000000e+00 1.000000000000000000e+00 1.000000000000000000e+00 1.000000000000000000e+00 1.000000000000000000e+00 1.000000000000000000e+00 1.000000000000000000e+00 1.000000000000000000e+00 1.000000000000000000e+00 1.000000000000000000e+00 1.000000000000000000e+00 1.000000000000000000e+00 1.000000000000000000e+00 1.000000000000000000e+00 1.000000000000000000e+00 1.000000000000000000e+00 1.000000000000000000e+00 1.000000000000000000e+00 1.000000000000000000e+00 1.000000000000000000e+00 1.000000000000000000e+00 1.000000000000000000e+00 1.000000000000000000e+00 1.000000000000000000e+00 1.000000000000000000e+00 1.000000000000000000e+00 1.000000000000000000e+00 1.000000000000000000e+00 1.000000000000000000e+00 1.000000000000000000e+00 1.000000000000000000e+00 1.000000000000000000e+00 1.000000000000000000e+00 1.000000000000000000e+00 1.000000000000000000e+00 1.000000000000000000e+00 1.000000000000000000e+00 1.000000000000000000e+00 1.000000000000000000e+00 1.000000000000000000e+00 1.000000000000000000e+00 1.000000000000000000e+00 1.000000000000000000e+00 1.000000000000000000e+00 1.000000000000000000e+00 1.000000000000000000e+00 1.000000000000000000e+00 1.000000000000000000e+00 1.000000000000000000e+00 1.000000000000000000e+00 1.000000000000000000e+00 1.000000000000000000e+00 1.000000000000000000e+00 1.000000000000000000e+00 1.000000000000000000e+00 1.000000000000000000e+00 1.000000000000000000e+00 1.000000000000000000e+00 1.000000000000000000e+00 1.000000000000000000e+00 1.000000000000000000e+00 1.000000000000000000e+00 1.000000000000000000e+00 1.000000000000000000e+00 1.000000000000000000e+00 1.000000000000000000e+00 1.000000000000000000e+00 1.000000000000000000e+00 1.000000000000000000e+00 1.000000000000000000e+00 1.000000000000000000e+00 1.000000000000000000e+00 1.000000000000000000e+00 1.000000000000000000e+00 1.000000000000000000e+00 1.000000000000000000e+00 1.000000000000000000e+00 1.000000000000000000e+00 1.000000000000000000e+00 1.000000000000000000e+00 1.000000000000000000e+00 1.000000000000000000e+00 1.000000000000000000e+00 1.000000000000000000e+00 1.000000000000000000e+00 1.000000000000000000e+00 1.000000000000000000e+00 1.000000000000000000e+00 1.000000000000000000e+00 1.000000000000000000e+00 1.000000000000000000e+00 1.000000000000000000e+00 1.000000000000000000e+00 1.000000000000000000e+00 1.000000000000000000e+00 1.000000000000000000e+00 1.000000000000000000e+00 1.000000000000000000e+00 1.000000000000000000e+00 1.000000000000000000e+00 1.000000000000000000e+00 1.000000000000000000e+00 1.000000000000000000e+00 1.000000000000000000e+00 1.000000000000000000e+00 1.000000000000000000e+00 1.000000000000000000e+00 1.000000000000000000e+00 1.000000000000000000e+00 1.000000000000000000e+00 1.000000000000000000e+00 1.000000000000000000e+00 1.000000000000000000e+00 1.000000000000000000e+00 1.000000000000000000e+00 1.000000000000000000e+00 1.000000000000000000e+00 1.000000000000000000e+00 1.000000000000000000e+00 1.000000000000000000e+00 1.000000000000000000e+00 1.000000000000000000e+00 1.000000000000000000e+00 1.000000000000000000e+00 1.000000000000000000e+00 1.000000000000000000e+00 1.000000000000000000e+00 1.000000000000000000e+00 1.000000000000000000e+00 1.000000000000000000e+00 1.000000000000000000e+00 1.000000000000000000e+00 1.000000000000000000e+00 1.000000000000000000e+00 1.000000000000000000e+00 1.000000000000000000e+00 1.000000000000000000e+00 1.000000000000000000e+00 1.000000000000000000e+00 1.000000000000000000e+00 1.000000000000000000e+00 1.000000000000000000e+00 1.000000000000000000e+00 1.000000000000000000e+00 1.000000000000000000e+00 1.000000000000000000e+00 1.000000000000000000e+00 1.000000000000000000e+00 1.000000000000000000e+00 1.000000000000000000e+00 1.000000000000000000e+00 1.000000000000000000e+00 1.000000000000000000e+00 1.000000000000000000e+00 1.000000000000000000e+00 1.000000000000000000e+00 1.000000000000000000e+00 1.000000000000000000e+00 1.000000000000000000e+00 1.000000000000000000e+00 1.000000000000000000e+00 1.000000000000000000e+00 1.000000000000000000e+00 1.000000000000000000e+00 1.000000000000000000e+00 1.000000000000000000e+00 1.000000000000000000e+00 1.000000000000000000e+00 1.000000000000000000e+00 1.000000000000000000e+00 1.000000000000000000e+00 1.000000000000000000e+00 1.000000000000000000e+00 1.000000000000000000e+00 1.000000000000000000e+00 1.000000000000000000e+00 1.000000000000000000e+00 1.000000000000000000e+00 1.000000000000000000e+00 1.000000000000000000e+00 1.000000000000000000e+00 1.000000000000000000e+00 1.000000000000000000e+00 1.000000000000000000e+00 1.000000000000000000e+00 1.000000000000000000e+00 1.000000000000000000e+00 1.000000000000000000e+00 1.000000000000000000e+00 1.000000000000000000e+00 1.000000000000000000e+00 1.000000000000000000e+00 1.000000000000000000e+00 1.000000000000000000e+00 1.000000000000000000e+00 1.000000000000000000e+00 1.000000000000000000e+00 1.000000000000000000e+00 1.000000000000000000e+00 1.000000000000000000e+00 1.000000000000000000e+00 1.000000000000000000e+00 1.000000000000000000e+00 1.000000000000000000e+00 1.000000000000000000e+00 1.000000000000000000e+00 1.000000000000000000e+00 1.000000000000000000e+00 1.000000000000000000e+00 1.000000000000000000e+00 1.000000000000000000e+00 1.000000000000000000e+00 1.000000000000000000e+00 1.000000000000000000e+00 1.000000000000000000e+00 1.000000000000000000e+00 1.000000000000000000e+00 1.000000000000000000e+00 1.000000000000000000e+00 1.000000000000000000e+00 1.000000000000000000e+00 1.000000000000000000e+00 1.000000000000000000e+00 1.000000000000000000e+00 1.000000000000000000e+00 1.000000000000000000e+00 1.000000000000000000e+00 1.000000000000000000e+00 1.000000000000000000e+00 1.000000000000000000e+00 1.000000000000000000e+00 1.000000000000000000e+00 1.000000000000000000e+00 1.000000000000000000e+00 1.000000000000000000e+00 1.000000000000000000e+00 1.000000000000000000e+00 1.000000000000000000e+00 1.000000000000000000e+00 1.000000000000000000e+00 1.000000000000000000e+00 1.000000000000000000e+00 1.000000000000000000e+00 1.000000000000000000e+00 1.000000000000000000e+00 1.000000000000000000e+00 1.000000000000000000e+00 1.000000000000000000e+00 1.000000000000000000e+00 1.000000000000000000e+00 1.000000000000000000e+00 1.000000000000000000e+00 1.000000000000000000e+00 1.000000000000000000e+00 1.000000000000000000e+00 1.000000000000000000e+00 1.000000000000000000e+00 1.000000000000000000e+00 1.000000000000000000e+00 1.000000000000000000e+00 1.000000000000000000e+00 1.000000000000000000e+00 1.000000000000000000e+00 1.000000000000000000e+00 1.000000000000000000e+00 1.000000000000000000e+00 1.000000000000000000e+00 1.000000000000000000e+00 1.000000000000000000e+00 1.000000000000000000e+00 1.000000000000000000e+00 1.000000000000000000e+00 1.000000000000000000e+00 1.000000000000000000e+00 1.000000000000000000e+00 1.000000000000000000e+00 1.000000000000000000e+00 1.000000000000000000e+00 1.000000000000000000e+00 1.000000000000000000e+00 1.000000000000000000e+00 1.000000000000000000e+00 1.000000000000000000e+00 1.000000000000000000e+00 1.000000000000000000e+00 1.000000000000000000e+00 1.000000000000000000e+00 1.000000000000000000e+00 1.000000000000000000e+00 1.000000000000000000e+00 1.000000000000000000e+00 1.000000000000000000e+00 1.000000000000000000e+00 1.000000000000000000e+00 1.000000000000000000e+00 1.000000000000000000e+00 1.000000000000000000e+00 1.000000000000000000e+00 1.000000000000000000e+00 1.000000000000000000e+00 1.000000000000000000e+00 1.000000000000000000e+00 1.000000000000000000e+00 1.000000000000000000e+00 1.000000000000000000e+00 1.000000000000000000e+00 1.000000000000000000e+00 1.000000000000000000e+00 1.000000000000000000e+00 1.000000000000000000e+00 1.000000000000000000e+00 1.000000000000000000e+00 1.000000000000000000e+00 1.000000000000000000e+00 1.000000000000000000e+00 1.000000000000000000e+00 1.000000000000000000e+00 1.000000000000000000e+00 1.000000000000000000e+00 1.000000000000000000e+00 1.000000000000000000e+00 1.000000000000000000e+00 1.000000000000000000e+00 1.000000000000000000e+00 1.000000000000000000e+00 1.000000000000000000e+00 1.000000000000000000e+00 1.000000000000000000e+00 1.000000000000000000e+00 1.000000000000000000e+00 1.000000000000000000e+00 1.000000000000000000e+00 1.000000000000000000e+00 1.000000000000000000e+00 1.000000000000000000e+00 1.000000000000000000e+00 1.000000000000000000e+00 1.000000000000000000e+00 1.000000000000000000e+00 1.000000000000000000e+00 1.000000000000000000e+00 1.000000000000000000e+00 1.000000000000000000e+00 1.000000000000000000e+00 1.000000000000000000e+00 1.000000000000000000e+00 1.000000000000000000e+00 1.000000000000000000e+00 1.000000000000000000e+00 1.000000000000000000e+00 1.000000000000000000e+00 1.000000000000000000e+00 1.000000000000000000e+00 1.000000000000000000e+00 1.000000000000000000e+00 1.000000000000000000e+00 1.000000000000000000e+00 1.000000000000000000e+00 1.000000000000000000e+00 1.000000000000000000e+00 1.000000000000000000e+00 1.000000000000000000e+00 1.000000000000000000e+00 1.000000000000000000e+00 1.000000000000000000e+00 1.000000000000000000e+00 1.000000000000000000e+00 1.000000000000000000e+00 1.000000000000000000e+00 1.000000000000000000e+00 1.000000000000000000e+00 1.000000000000000000e+00 1.000000000000000000e+00 1.000000000000000000e+00 1.000000000000000000e+00 1.000000000000000000e+00 1.000000000000000000e+00 1.000000000000000000e+00 1.000000000000000000e+00 1.000000000000000000e+00 1.000000000000000000e+00 1.000000000000000000e+00 1.000000000000000000e+00 1.000000000000000000e+00 1.000000000000000000e+00 1.000000000000000000e+00 1.000000000000000000e+00 1.000000000000000000e+00 1.000000000000000000e+00 1.000000000000000000e+00 1.000000000000000000e+00 1.000000000000000000e+00 1.000000000000000000e+00 1.000000000000000000e+00 1.000000000000000000e+00 1.000000000000000000e+00 1.000000000000000000e+00 1.000000000000000000e+00 1.000000000000000000e+00 1.000000000000000000e+00 1.000000000000000000e+00 1.000000000000000000e+00 1.000000000000000000e+00 1.000000000000000000e+00 1.000000000000000000e+00 1.000000000000000000e+00 1.000000000000000000e+00 1.000000000000000000e+00 1.000000000000000000e+00 1.000000000000000000e+00 1.000000000000000000e+00 1.000000000000000000e+00 1.000000000000000000e+00 1.000000000000000000e+00 1.000000000000000000e+00 1.000000000000000000e+00 1.000000000000000000e+00 1.000000000000000000e+00 1.000000000000000000e+00 1.000000000000000000e+00 1.000000000000000000e+00 1.000000000000000000e+00 1.000000000000000000e+00 1.000000000000000000e+00 1.000000000000000000e+00 1.000000000000000000e+00 1.000000000000000000e+00 1.000000000000000000e+00 1.000000000000000000e+00 1.000000000000000000e+00 1.000000000000000000e+00 1.000000000000000000e+00 1.000000000000000000e+00 1.000000000000000000e+00 1.000000000000000000e+00 1.000000000000000000e+00 1.000000000000000000e+00 1.000000000000000000e+00 1.000000000000000000e+00 1.000000000000000000e+00 1.000000000000000000e+00 1.000000000000000000e+00 1.000000000000000000e+00 1.000000000000000000e+00 1.000000000000000000e+00 1.000000000000000000e+00 1.000000000000000000e+00 1.000000000000000000e+00 1.000000000000000000e+00 1.000000000000000000e+00 1.000000000000000000e+00 1.000000000000000000e+00 1.000000000000000000e+00 1.000000000000000000e+00 1.000000000000000000e+00 1.000000000000000000e+00 1.000000000000000000e+00 1.000000000000000000e+00 1.000000000000000000e+00 1.000000000000000000e+00 1.000000000000000000e+00 1.000000000000000000e+00 1.000000000000000000e+00 1.000000000000000000e+00 1.000000000000000000e+00 1.000000000000000000e+00 1.000000000000000000e+00 1.000000000000000000e+00 1.000000000000000000e+00 1.000000000000000000e+00 1.000000000000000000e+00 1.000000000000000000e+00 1.000000000000000000e+00 1.000000000000000000e+00 1.000000000000000000e+00 1.000000000000000000e+00 1.000000000000000000e+00 1.000000000000000000e+00 1.000000000000000000e+00 1.000000000000000000e+00 1.000000000000000000e+00 1.000000000000000000e+00 1.000000000000000000e+00 1.000000000000000000e+00 1.000000000000000000e+00 1.000000000000000000e+00 1.000000000000000000e+00 1.000000000000000000e+00 1.000000000000000000e+00 1.000000000000000000e+00 1.000000000000000000e+00 1.000000000000000000e+00 1.000000000000000000e+00 1.000000000000000000e+00 1.000000000000000000e+00 1.000000000000000000e+00 1.000000000000000000e+00 1.000000000000000000e+00 1.000000000000000000e+00 1.000000000000000000e+00 1.000000000000000000e+00 1.000000000000000000e+00 1.000000000000000000e+00 1.000000000000000000e+00 1.000000000000000000e+00 1.000000000000000000e+00 1.000000000000000000e+00 1.000000000000000000e+00 1.000000000000000000e+00 1.000000000000000000e+00 1.000000000000000000e+00 1.000000000000000000e+00 1.000000000000000000e+00 1.000000000000000000e+00 1.000000000000000000e+00 1.000000000000000000e+00 1.000000000000000000e+00 1.000000000000000000e+00 1.000000000000000000e+00 1.000000000000000000e+00 1.000000000000000000e+00 1.000000000000000000e+00 1.000000000000000000e+00 1.000000000000000000e+00 1.000000000000000000e+00 1.000000000000000000e+00 1.000000000000000000e+00 1.000000000000000000e+00 1.000000000000000000e+00 1.000000000000000000e+00 1.000000000000000000e+00 1.000000000000000000e+00 1.000000000000000000e+00 1.000000000000000000e+00 1.000000000000000000e+00 1.000000000000000000e+00 1.000000000000000000e+00 1.000000000000000000e+00 1.000000000000000000e+00 1.000000000000000000e+00 1.000000000000000000e+00 1.000000000000000000e+00 1.000000000000000000e+00 1.000000000000000000e+00 1.000000000000000000e+00 1.000000000000000000e+00 1.000000000000000000e+00 1.000000000000000000e+00 1.000000000000000000e+00 1.000000000000000000e+00 1.000000000000000000e+00 1.000000000000000000e+00 1.000000000000000000e+00 1.000000000000000000e+00 1.000000000000000000e+00 1.000000000000000000e+00 1.000000000000000000e+00 1.000000000000000000e+00 1.000000000000000000e+00 1.000000000000000000e+00 1.000000000000000000e+00 1.000000000000000000e+00 1.000000000000000000e+00 1.000000000000000000e+00 1.000000000000000000e+00 1.000000000000000000e+00 1.000000000000000000e+00 1.000000000000000000e+00 1.000000000000000000e+00 1.000000000000000000e+00 1.000000000000000000e+00 1.000000000000000000e+00 1.000000000000000000e+00 1.000000000000000000e+00 1.000000000000000000e+00 1.000000000000000000e+00 1.000000000000000000e+00 1.000000000000000000e+00 1.000000000000000000e+00 1.000000000000000000e+00 1.000000000000000000e+00 1.000000000000000000e+00 1.000000000000000000e+00 1.000000000000000000e+00 1.000000000000000000e+00 1.000000000000000000e+00 1.000000000000000000e+00 1.000000000000000000e+00 1.000000000000000000e+00 1.000000000000000000e+00 1.000000000000000000e+00 1.000000000000000000e+00 1.000000000000000000e+00 1.000000000000000000e+00 1.000000000000000000e+00 1.000000000000000000e+00 1.000000000000000000e+00 1.000000000000000000e+00
3.004321789020000105e-02 5.058502873015244816e-01 -1.133651205771583209e-02 5.049808919387070993e-01 5.259224475002868271e-01 6.273013754533384168e-01 7.296591905488812868e-01 1.853897720706183805e-01 4.594777209736677914e-01 5.276551903389131715e-01 1.060053474301209553e+00 -5.724368603292082636e-01 1.335397450820735799e+00 4.498046240486960334e-01 5.271851679483924302e-01 7.377770131390137820e-01 9.815746183675975178e-01 8.944444379547863422e-01 3.814785190547185789e-01 5.325971518678672689e-01 6.106371331646929246e-01 9.469507801991663420e-01 7.120055086888146256e-01 6.535997943367686247e-01 2.341864603355672536e-01 7.218553755934856708e-01 3.431748440274176581e-01 5.083599124090696364e-01 5.165661458313861587e-01 1.385876021863771124e+00 5.168166430684907331e-01 5.955226244897898757e-01 7.336308546748512294e-01 5.305080803814715695e-01 7.408589966374741209e-01 6.036315424479083980e-01 6.062998988146238721e-01 1.543008482491934785e+00 -1.688842934589642950e-02 5.172548262695494392e-01 5.602977012190590855e-03 -5.389191455178642398e-01 7.559308123712048522e-01 2.104725002061257622e-01 2.453189476821480974e-01 5.079501979810191470e-01 5.049312546892050779e-01 4.924999198147685386e-01 4.645256843527182378e-01 1.545699558169173760e-02 6.954968159185863016e-03 8.512980530012846936e-01 6.347466351338378887e-01 5.120326051389317845e-01 4.423933597096108561e-01 8.419260989257626795e-03 5.870900089705666236e-01 5.623770378004122605e-01 1.674718716785623951e-01 4.917929327334971124e-01 8.780306659410528347e-01 4.999180075361046582e-01 5.046683328902831223e-01 7.120052204748252844e-01 6.833438496885748670e-01 3.914249458919689673e-01 5.119750293785879647e-01 3.215313950678129196e-01 4.867043818064967220e-01 2.275631775250398434e-02 5.081843088827449062e-01 5.713634246654297755e-01 5.596485997280086222e-01 1.206659475056674410e-02 1.436372493246390825e+00 5.439530272293351398e-01 6.216032390392663975e-01 7.721313512376948296e-01 5.201817991451834766e-01 1.359195073017598121e+00 5.395633834971573783e-01 1.986753328830533627e-01 1.241310027644269232e+00 4.455063907026102776e-01 4.928846442520766757e-01 7.591139686489644101e-01 8.351930896057956355e-01 5.351334126357342180e-01 3.721939487285908510e-01 5.731695326161514448e-01 2.358480574118856921e-01 1.973532209002497817e+00 4.483190864238720819e-01 -1.030171580894919808e-01 4.488567699229806807e-01 5.325273514900344951e-01 5.563724093944988347e-01 4.550908277154181447e-01 1.937803345695627011e-01 7.163574291519235748e-01 1.449477886663596449e+00 6.602228140114297927e-01 5.394026512299798792e-01 9.490751672056729760e-01 7.944998371518603442e-01 -1.788424564923790205e+00 -1.098846922113580815e+00 5.669161724292587357e-01 4.610277604017004038e-01 9.727742293791695749e-01 4.707073484520835072e-01 5.804084731560212873e-01 2.543002741993259930e-01 4.336922880722622331e-01 5.002640413666697983e-01 4.508118669762211650e-01 4.562539258187192637e-01 4.064951974405430768e-01 6.338369846463143276e-01 4.964364342048205869e-01 1.246770243579447657e+00 5.607280828621181712e-01 4.594946149847070616e-01 -4.677963640497715542e-02 5.076621351444985386e-01 1.832703853140857486e+00 5.082530110146014080e-01 5.567457563459425884e-01 5.720352953472488400e-01 5.245598098628475592e-01 6.633193113736165492e-01 5.209536334469467844e-01 3.895786970971667484e-01 1.093484204713017216e-01 8.614662229352060274e-02 -1.155193132325677968e-01 5.145730557799825799e-01 -1.080638731471480693e-02 9.606303869007812857e-01 6.835170034064630418e-01 5.018727073354178891e-01 8.232551266067021922e-01 6.210926774452369958e-01 5.184169153381663619e-01 5.219243632552443835e-01 -5.513079337891145515e-02 6.380809563245792848e-01 6.090519996273298098e-01 5.023624822854805272e-01 -7.557648325710010218e-01 7.860097255043145825e-01 -2.938988443996562450e-01 5.079639661841616194e-01 5.658640850975228398e-01 6.678533124281672562e-01 4.924902321317488063e-01 1.609214667486666750e+00 1.171929659935335988e-01 7.950928003603520144e-01 7.256027223719823116e-01 4.684562134041765913e-01 5.888397053350620247e-01 5.367161921427019422e-01 5.029295894135978884e-01 1.120115251792102695e+00 2.677784998913101955e-02 8.123137508185296340e-01 5.258424763164749605e-01 6.148154629489578360e-01 4.248373722902934468e-01 3.529115184827789631e-01 5.049609121121422239e-01 5.079113082195652051e-01 5.107774397490021379e-01 4.121456576117578652e-01 2.922257285587001249e-03 1.415786306473849898e-01 4.399140660224785254e-02 7.064156907407476149e-01 1.126941918624257744e+00 7.332814427408497204e-01 5.419349837222423583e-01 -2.118751513267422559e-01 5.064434922297179620e-01 5.925689128170771314e-01 5.042659079845536185e-01 5.254998904432804929e-01 5.402780201684790340e-01 2.500897370334965952e+00 4.501882137244165860e-01 4.462625159564730937e-01 -7.495903836402771914e-01 5.175587348516524910e-01 4.733762302152847989e-01 1.480564962928108130e-01 5.023773764696387589e-01 8.921540075368959988e-01 5.123887143084112639e-01 7.656783013355782375e-01 6.140531738865058209e-01 3.723555514544057421e-01 5.806718775044965586e-01 1.059666392913446886e+00 5.931536641897723339e-01 5.432991924577652565e-01 7.656782994468807058e-01 5.057931047775293676e-01 1.237658713963031065e+00 5.296670883404760444e-01 3.518829351121424143e-01 5.377108207550120866e-01 -1.485346310093298150e-02 5.705690699816393652e-01 1.940294707365208815e-01 5.292908754782474912e-01 5.412384091905823036e-01 5.299725968686594957e-01 5.138478261780968781e-01 5.633076721951589816e-01 5.138536490271882196e-01 5.190160214245989057e-01 3.373672094750420070e-01 -6.373190979653953203e-01 4.352344139411822299e-01 1.987096395397985327e-01 5.319661912517960056e-01 4.104924703853284340e-01 1.158585543013419539e+00 9.092421274815317700e-01 5.591159687306608284e-01 -1.081181451266259030e-01 1.009586770335529682e+00 5.244234588508749351e-01 4.580494238857051315e-01 1.901330555539609835e-01 4.367944977786292760e-01 5.753793369959067094e-01 2.578302850989662720e-01 -1.113076968353344798e-01 -1.790276910521791942e-01 2.228922444739778741e-01 5.626306851922939778e-01 -6.398813888658841376e-02 6.078713322491606785e-01 5.032178407309051416e-01 6.711531506552705917e-01 -1.167902770013301839e-01 6.859843390152271514e-01 -1.917469349081914798e+00 5.022950195086886005e-01 -3.351521420435795151e-01 4.995166223031656250e-01 5.127935506813720012e-01 7.120046667607313751e-01 5.241968410664273881e-01 5.580210016073714474e-01 4.459106571684633424e-01 5.817167017677171703e-01 5.412519320243380783e-01 1.638831032259589371e+00 6.310729988734797846e-01 6.817929358599564837e-01 5.232744056482033779e-01 5.839027297802040772e-01 8.780304872387755255e-01 3.226046791148198811e-01 2.425653521957599867e+00 5.545443759474877332e-01 2.796029825375145328e-01 4.435888277150568104e-01 5.476935960941223813e-01 8.788834847127067196e-01 5.166607636073476950e-01 5.558176775607529541e-01 5.203246993174127644e-01 8.976324844585736873e-01 6.365908525769481408e-01 8.798904983128157387e-01 8.287383403848077590e-01 1.136861911322224611e-01 6.562170959372042311e-01 4.680416595222819942e-01 4.420102346310142982e-01 -6.145123019711883350e-01 3.684476276773206993e-01 8.363962012215667707e-01 4.839052797301899300e-01 5.695797063455958487e-01 4.508118763288397890e-01 6.096957371137388115e-01 5.390920531852944064e-01 -5.005569958045092971e-01 5.307310049686628783e-01 5.069276538760044692e-01 -9.200520730481262510e-03 4.822813175765314764e-01 1.799915010328712928e+00 4.721332559225692171e-01 5.115837208347701059e-01 5.023932031312167146e-01 -3.053785026622363841e+00 5.168292915446073277e-01 2.297894305741036369e+00 5.047730486696501151e-01 5.158110747545456842e-01 -5.915114046823489735e-01 5.220983299377964792e-01 5.016936821292783399e-01 6.644621593453989838e-01 4.945688332047600277e-01 4.803479581059256764e-01 6.105873896920934740e-01 3.176608499591009882e-01 5.029944814874219849e-01 4.995944896634887944e-01 5.625580423793791196e-01 5.270117729424927955e-01 5.056005267644901879e-01 5.332920764975566108e-01 1.142711047190488216e+00 1.625223937904635152e-02 2.129125494134072927e+00 2.450849624240187818e+00 3.593906116774933657e-01 -1.267207145136336754e-01 5.043277814341533549e-01 4.312945275006612178e-01 6.793714636655567851e-01 1.294757925543722932e+00 5.497974137709877862e-01 1.083290642501644419e+00 5.094438836248075253e-01 1.619916647661560627e-01 1.213095984221300716e+00 5.056206068609679916e-01 4.941775688975749703e-01 5.349413846631061453e-01 6.650789724852396168e-01 -3.210347257324263293e+00 1.525392181802138758e+00 5.051345965593947440e-01 6.471839128815722875e-01 5.169265700345102577e-01 1.543008447033830555e+00 3.381346237596226101e-01 4.699573553620238209e-01 3.362744710679445026e-01 5.553591443123847560e-01 1.394269105463182168e+00 7.466907571808000244e-01 7.656782994814124166e-01 6.078693497257562361e-01 5.931536414540184987e-01 7.292083711609499419e-01 5.277154222556851293e-01 8.454154363098330682e-01 5.117046395194972952e-01 5.075625539580465029e-01 5.968943929069014942e-01 5.024059593403509272e-01 5.269069317199799318e-01 5.733288648470612481e-01 4.699574217329433035e-01 5.110496735591437689e-01 5.182772989065895786e-01 8.244153000842618928e-01 1.071697105766614921e+00 1.046729962656344659e+00 5.092659552466277662e-01 3.537663353617066520e-01 8.780035583141091449e-01 -1.144480417282555396e-01 9.251345233070825680e-01 6.104327314769139035e-01 1.457308834149000781e-02 4.462284920279370737e-01 1.106805151094018669e+00 4.214818625628161675e-01 6.019603654322921438e-01 2.524588520573213812e-01 -3.060004024593281358e-01 -2.218077832794117743e+00 4.482277459207964498e-01 5.931536643519647045e-01 5.931536644813826253e-01 5.627530611977638042e-01 6.739530184444495475e-01 -1.451664197202571227e-01 5.364038664855703686e-01 5.248489365130223350e-01 3.677821048933267445e-01 5.313507632754480570e-01 1.111859269260009997e+00 7.656782995717433815e-01 5.304014280873468046e-01 5.711398890706602671e-01 3.244765871094672516e-01 5.942892156747151544e-01 5.013774446603406210e-01 5.243790113580750756e-01 5.275500904274947889e-01 2.353976439794300546e-01 2.311056831037729131e-02 5.931536401157875282e-01 6.543353726304630413e-01 5.295391186757393287e-01 7.182591254860266616e-01 8.507411721622880618e-01 4.947759702758514067e-01 5.599232034562481308e-01 1.608084098536211481e+00 5.524487867809686481e-01 -2.571801559699143702e+00 5.070443252221463748e-01 1.419048143613221402e+00 5.413606602680519631e-01 -8.965465674263363161e-01 4.815550418619814477e-01 6.135966335497262669e-01 4.793722120245523799e-01 5.299350768345668650e-01 4.190053627404293629e-02 5.606105900592871505e-01 1.037859464343382498e+00 4.534665742646201703e-01 -1.601149128258882171e-01 5.323767319732034542e-01 4.913351359163104504e-01 7.556129467013094070e-01 5.689705459218312722e-01 6.363263173761152247e-01 -4.052597489059970304e-01 5.163729111792083604e-01 5.234102249438165044e-01 6.954813305353486630e-01 5.040546637113769712e-01 7.526727652700455629e-01 5.347252325861435729e-01 4.351871824659185872e-01 9.150801272910000783e-01 5.033581855864701637e-01 6.030758491318043424e-01 1.740220119248392650e-01 1.966796807373032974e-01 9.174471701582165295e-01 5.217569203807321809e-01 2.957501586603390464e+00 6.341241362021042827e-01 4.256134182474530236e-01 5.824071399882640998e-01 7.268755175103263078e-01 2.020751518329748711e-02 4.910828559363142332e-01 5.405756596453629159e-01 5.221996829179194055e-01 1.164737694427715020e+00 7.522539112786414961e-01 5.090234084869053044e-01 5.734852377626513675e-01 1.089888075526768363e+00 5.132257203559439374e-01 5.579141958681193003e-01 5.076302031744985843e-01 4.041520579532070778e-01 5.259625680491188948e-01 8.620253323242397236e-01 5.247660951952752839e-01 5.194797218081266266e-01 1.526974635549083539e-02 5.095715432055626382e-01 1.376889032201965984e-03 5.453158669576446682e-01 5.694158107414446501e-01 4.873305248556861757e-01 7.491773617632576654e-01 5.010470181204036422e-01 4.820522310412950207e-01 -1.678087257800892074e-02 5.131476574268803992e-01 5.428232766266184450e-01 4.504704598403991289e-01 -1.597885800522301850e-02 5.087987058350672553e-01 3.444450011894846231e-01 5.087831638178963445e-01 6.111870294629156986e-01 1.192208418145877635e+00 7.749334984917541913e-01 5.739263673791173970e-01 3.985839739762762624e-01 3.646307627535436136e-01 4.151514921702105787e-01 9.540459842658304268e-01 4.235834447154455673e-01 3.531756099967161000e-01 6.450825146144971711e-01 1.847123618720328819e+00 5.055127586296745967e-01 3.783830837304543726e-01 5.119123001712830856e-01 5.309307575020735248e-01 5.435188414946507951e-01 7.317926562369492238e-01 -5.160142412392004774e-01 3.296980854310572751e-01 3.575858208186294962e-01 5.840061522903993163e-01 5.775542540181604068e-01 -5.103865895277449605e-01 4.001674385418031998e-01 5.038662826465627465e-01 6.897923603176653318e-01 6.484950266078675085e-01 1.149476496178851948e+00 5.222962375429135440e-01 4.849010142616075325e-01 -5.711915419961174356e-01 5.213826244933708054e-01 1.108315347219359870e+00 6.125115207001681217e-01 1.897324402054024195e-01 3.892511845005998117e-01 -1.056707922231791663e+00 5.322573789881144268e-01 3.426299536610984409e-01 1.056671546525015604e+00 8.097730030035537041e-01 4.982835804202893626e-01 4.721393605494099144e-01 3.814011303514482920e-01 5.077183065360355574e-01 6.083986650542603236e-01 5.895039302844814477e-01 2.457028699908096400e-02 5.616615296197922103e-01 3.627587341363780471e-01 7.368699972170000834e-01 5.872414890544359611e-01 4.950956985311260605e-01 1.035268634766709273e+00 -1.306731680861625833e-01 -1.899331839166525371e-01 5.811351178863647382e-01 5.180465038146077061e-01 3.811421256555686532e-01 5.477806680411022588e-01 -7.247345537380630587e-01 2.912481429523946286e+00 3.995447060725608734e-01 5.173545692958992914e-01 6.656257029718819496e-01 5.194691344821679158e-01 5.299349458737931950e-01 5.807459730182674695e-01 3.734332371733201095e-01 5.131693535258926575e-01 5.201062996876720801e-01 5.991090379095279639e-01 4.923551474091201197e-01 6.839977499659487536e-01 4.984128914147055722e-01 4.085216612626447752e-01 4.122269975588284674e-01 5.365568155452028476e-01 5.679201951760548539e-01 9.456775953201216334e-01 2.178664878974011287e+00 6.532692248285931758e-01 4.846322306371085853e-01 5.826854238429404198e-01 5.086963125589805124e-01 4.406089901932637720e-01 5.147656441442279851e-01 5.170287113020972658e-01 3.811464974031692488e-01 5.314717445287515662e-01 5.243315019524713572e-01 5.064142080399635093e-01 4.162229337151087671e-01 7.509185389617721862e-01 7.396276071029953547e-01 7.256772517150413826e-01 1.638542539676298704e-01 8.780306881649699857e-01 5.081320936567693680e-01 2.907367231458138912e-01 1.880854461600712568e+00 2.367707933061775627e-01 5.096187197429822291e-01 5.618563720563480857e-01 5.105925235290521835e-02 6.241589880506220878e-01 1.427735539764281691e+00 5.644953009101550956e-01 8.959727446874560242e-01 5.261354497552779286e-01 5.423467293116762677e-01 4.755222781002249044e-01 4.248709921466396477e-01 5.257870923634857530e-01 5.260351689696111110e-01 9.999262059116673096e-02 5.788722570968929393e-01 -9.366950530183386636e-01 5.571311697799352647e-01 4.649544323356646358e-01 4.964008077669039842e-01 5.024122191710054253e-01 8.780306894283856911e-01 3.123935089370818430e-01 4.055490002268976601e-01 1.190253737299856951e+00 -4.387840815367194947e-01 5.125422978687176334e-01 1.031558109080158214e+00 1.310746143323238799e+00 3.476274383423561543e-01 5.341542225543349787e-01 -5.097244399120575038e-03 -1.482438460955448400e+00 3.120212919795897766e-01 4.749671654343737282e-01 5.249583879667714115e-01 5.162166800737304495e-01 4.519691339616864756e-01 5.029921456297407056e-01 -3.162290725505862432e-01 7.793997461847205210e-01 4.508118936005875987e-01 4.690840536890248935e-01 5.412168349336736739e-01 -6.704279220920833504e-02 -1.886501244041173808e-01 1.597716618304682701e+00 4.295287781653908676e-01 3.941429076584241908e-01 5.137135532661233350e-01 3.548511198521377974e-01 3.853195043400547415e-01 2.201741186217714419e-01 -3.694188856548658029e-01 5.107071762165218409e-01 5.646995139269905817e-01 4.670347569075816718e-01 5.122744082906796059e-01 5.064886587195756018e-01 5.175503922017989922e-01 5.039031354882147484e-01 5.602798991553056274e-01 9.892823889687332173e-01 6.958083382582926912e-01 5.052324430203884997e-01 4.555124875393676831e-01 5.749264943526259941e-01 5.116968697147861178e-01 1.515366923762961893e-02 4.699573922327499598e-01 7.308878658842680176e-01 5.216710504111536917e-01 5.631977189428428732e-01 1.116619106146866658e+00 7.317866134536621381e-01 -3.195921139235880504e-01 5.055625651751712857e-01 5.632564150693178950e-01 4.938891648001871859e-01 4.294357518093789849e-01 8.218760974778114292e-01 4.900310172224155436e-01 5.068578662396781009e-01 3.436169459153270295e-02 -7.214364584324757246e-01 2.064295342420248591e+00 5.434251814683044302e-01 8.534855174361732910e-01 6.901952092189723720e-01 5.429513176438007793e-01 3.052355396155517209e-01 1.461004383930365469e-01 5.076874019542305660e-01 5.439010981545867596e-01 2.614424088358157164e-02 5.143857271410789966e-01 5.353262845494694000e-01 5.072214112975204081e-01 9.597973245826124655e-01 5.504413821284588337e-01 5.155381395010077972e-01 3.199151469834472516e-01 5.988888444746627293e-01 1.916612928929176674e-01 5.232500089960473444e-01 6.398409332979517750e-01 4.841662679579200601e-01 -3.614780373460937946e-01 4.868636782451689071e-01 6.384136743472371700e-01 5.661372641802343564e-01 5.066612175565644582e-01 8.780403298696664027e-01 7.481852845935965668e-01 -5.099519964173608866e-01 1.012661459322659718e+00 1.543008482598529296e+00 4.461157046656912262e-01 4.641209195172451007e-01 1.029555204607158991e+00 5.631637560046673929e-01 5.058738427875224541e-01 5.114536214514961987e-01 1.588272061555422443e+00 5.413165149267287202e-01 6.078686493569510629e-01 1.224952085813877600e+00 1.101527276336261053e-02 5.130931860512593090e-01 -1.193913645788081124e-01 -8.308316759575049559e-01 -1.882911433696957682e-01 7.372707768192390265e-01 5.602769494541748330e-01 6.230087030456269437e-01 -3.515213591325622167e-01 4.834747553687910315e-01 -2.281892677788508253e-02 -2.081158848755408908e-01 4.104096950020864609e-01 5.116084587084410717e-01 4.952228542393234401e-01 4.069649267464551801e-01 5.046801628473275292e-01 8.677463629944510703e-01 -2.574992289150034863e-01 5.220255832991126388e-01 4.931110964055775425e-01 6.555254280700903990e-01 1.124701334148735521e+00 5.960896456989502878e-01 4.699068709884057782e-01 5.085009911510920411e-01 1.400124140771509540e-02 4.124489635973163648e-02 5.579672831636836028e-01 5.290636534084385278e-01 4.826792648441641798e-01 5.958191211484714644e-01 3.670569414622887328e-01 5.262026449540796458e-01 5.423493443010327653e-01 2.547130124366037141e-01 5.480409180975813754e-01 8.264648918428273427e-01 2.362419461356982886e+00 -2.046468004640108196e-01 6.750899336205514745e-01 4.911030926326566681e-01 2.985236815196896099e-01 7.243082790499351109e-01 -2.996462823075117521e-02 -1.271427384591257814e+00 5.460305793032796950e-01 2.421214986870170005e+00 4.669926519585055891e-01 1.234183471693101747e-01 2.308246056691417858e-01 4.508118671377849274e-01 5.034534700567602217e-01 1.435740431548526264e+00 5.426737739501309443e-01 1.202157266376748662e-01 5.104766592314444740e-01 1.503514587418202764e+00 5.426343899360955847e-01 4.262091848934283500e-01 4.939422913031465967e-01 7.667587484374925877e-01 4.399598268584613558e-01 5.333189562573880105e-01 -1.055402990351569925e-02 5.168292561290125375e-01 6.463526022201780963e-01 -5.162671451279851054e-01 1.378017087133856511e-01 1.131836375231260794e+00 2.298369664545260316e-01 5.351409098227157823e-01 5.068664823104546135e-01 5.367793205940288859e-01 1.911515553049737859e+00 6.989681479958470556e-01 2.149836575411447070e-02 2.286316078266924789e-01 5.085494816569047227e-01 9.864823173196912709e-01 4.445381501036780869e-01 3.260619173653860753e-02 5.048618898097598784e-01 -4.990231836323966164e-02 5.738879462805837051e-01 4.865905643980624751e-01 4.695538989713320122e-02 -1.206297211538946978e-01 6.361310595716974658e-01 3.941362704531758410e-01 5.499010570314298851e-01 5.490759338369065601e-01 5.114156168777813649e-01 6.054435809874542107e-01 4.876007398084148958e-01 4.891482679105634834e-01 5.073388277814270264e-01 7.203387493861076463e-01 9.964029079153876589e-01 2.904152974732475467e+00 6.356432000015508343e-01 5.646321977021288019e-01 6.379299906231883366e-01 1.971547600761233698e-01 5.268615932588168738e-01 7.682304045094082712e-01 5.608996235427353705e-01 1.309315891111827668e+00 5.296734262560096607e-01 -5.048641731694151202e-01 1.893014810381347252e-02 6.314302446277796355e-01 6.014982867988405424e-01 5.235117094943679827e-01 5.268726646295417426e-01 3.249096913052374608e-02 5.185262908189387510e-01 5.630898769733004849e-01 -3.001738983796258253e+00 5.530894993470355514e-01 5.425162264421672376e-01 1.073858332798734105e+00 5.568669559879034781e-01 5.219618306972557686e-01 7.321603892246681955e-01 -7.595183593370889996e-01 -5.088836029279810713e-01 8.543352073800077051e-02 5.352409102949716724e-01 4.618758102946942667e-01 2.943914168061197989e-01 5.293028655799048021e-01 -2.917048588549984167e-01 7.835869179827050779e-01 6.345264920782631712e-01 6.852705675392385398e-01 5.140557082264443078e-01 5.535343989678440657e-01 2.044164607923730781e-01 -6.235019769712446536e-01 4.549803949036952955e-01 5.291217155307526010e-01 1.904053669508314062e-01 5.068493634982766949e-01 5.373737905346666066e-01 5.095954203496663171e-01 6.246074497627551736e-01 5.411366978822430562e-01 5.096505104477763171e-01 4.845058495965895440e-01 1.543008479387899312e+00 4.156292684317665631e-01 5.129650103847249731e-01 -4.151043647588276847e-02 5.657664783195225366e-01 6.078250285446759049e-01 5.097528696079421939e-01 5.350652899207871682e-01 3.838556555928132052e-01 7.932586211400883824e-01 1.028279549409020888e+00 5.525705227489671190e-01 4.960988969192873244e-01 5.864068468658676370e-01 6.116967664861024945e-01 5.288032169315088904e-01 5.091582860425448720e-01 1.012632259289442782e+00 7.264228178545529824e-01 -4.102759270889311805e-01 4.065429417166284698e-01 9.254415465885063030e-01 5.608014545005350904e-01 6.752930551231524359e-02 5.398799456474627778e-01 5.614968929354462457e-01 -1.457904833563027358e-01 5.699447180786709755e-01 2.866296793886227712e-01 5.497312495781742081e-01 6.817654636361816234e-01 5.163117795666956056e-01 3.595716087513748382e-01 1.345821507148441398e+00 6.222186833885490209e-01 4.850850076194867522e-01 -4.215022799319729785e-01 5.174335712465762960e-01 1.050869322252671267e+00 5.073844094548710659e-01 2.821398637337181325e-01 8.129063116358676844e-01 -1.334283484508293760e-01 3.765252711840150202e-01 1.441962227730612778e+00 -8.080689391605804239e-01 5.466072877881983372e-01 5.232258128623682447e-01 -3.485921312292471486e-01 6.102987016103968987e-01 5.173022795388808603e-01 4.977971052729582846e-01 4.997837079945385286e-01 3.560716288337959501e-01 2.698997292430257433e-01 4.361822768792920635e-01 5.498196934688438509e-01 5.267427289936486012e-01 -8.108604008670362330e-04 1.932462966867994902e-01 5.160197182593959653e-01 1.037347544832021295e+00 2.701918195097920972e-01 -5.152210448910204965e-01 4.584306477863635543e-01 5.106600214164832563e-01 3.828047915290063719e-01 1.450938372653471590e-03 4.116711485382943958e-01 5.266018594692728483e-01 5.038804364929400093e-01 4.818756083269581936e-01 4.695013547501575811e-03 5.684635396872157465e-01 4.517636852135454850e-01 5.927662624034119032e-01 1.976718618522890214e+00 1.192751191313906611e-01 3.676238244918893505e-01 5.246580371821017996e-01 1.715535443728300358e+00 4.246264412335619687e-01 5.129337950746182262e-01 5.201862172661970984e-02 4.699574129680372803e-01 5.223565877059365148e-01 4.519376939169500451e-01 4.790249964249999048e-01 5.468910181982811203e-01 5.255817594898879452e-01 4.948706666722408887e-01 -3.924822978158625242e-01 5.436227433612937920e-01 4.849963418027742890e-01 5.170515085469925554e-01 4.362607941801296407e-01 5.320145528032483861e-01 -2.099574775065816967e-01 8.771549860233757157e-01 -1.030434620485515484e+00 -4.243126714317288495e-01 5.441647695676562480e-01 5.132149785046825619e-01 6.400144483829929287e-01 5.604060806928276017e-01 2.672823194335924857e-01 6.768587922082625052e-01 4.699573557756853703e-01 5.151964237325860063e-01 4.651100977429338257e-01 4.504017235479411130e-01 5.403965752983629356e-01 3.312077368178824033e-01 5.987933628678183684e-01 5.431861501477318610e-01 2.864967938152125915e-01 5.142656011441470998e-01 5.314672815312306842e-01 5.378122664501250316e-01 5.498365053090907839e-01 5.168300696431845642e-01 4.531971168386060289e-01 4.215156191520473272e-01 5.341221403623437336e-01 5.617736630182599278e-01 2.098816237814896124e-01 5.973079752883175830e-01 2.144489719422754792e+00 4.837178437697048361e-01 4.375102568663621350e-01 5.694470709790735441e-01 4.727336742472870168e-01 1.075859219092552665e+00 5.689327009551192749e-01 7.509900935037541192e-01 5.186340363529241548e-01
7.768772730703040752e-01 3.985388741786821121e-01 3.204560851257091669e-01 3.250573030919781670e-01 2.943598281756090729e-01 1.602860853364695970e-01 4.857309343964809623e-01 5.121785548771923269e-01 4.464285472607264493e-01 2.897342347575428412e-01 1.913990204366686987e+00 1.617235780363454722e+00 -1.289907581412623960e+00 4.981925123154481994e-01 2.964896640307695397e-01 2.537924993769843374e-01 1.360991441559997184e-01 3.850608880075423457e-01 3.694908053931015846e-01 2.867531481492154311e-01 3.301739464829118731e-01 1.937993222945571192e+00 3.499810744423975661e-01 1.950926251125853494e-01 5.815475469916117079e-01 -3.884233251443687807e-01 5.018135605404679955e-01 2.843941702974418506e-01 3.150425557330983617e-01 -6.590772407156351154e-01 3.367121210744839499e-01 1.389945460755827034e-01 2.983959111596125036e-01 3.274971369558622447e-01 -4.227342820754144137e-01 2.242022405614700342e-01 3.593830708186889766e-01 -1.971250262380012108e-01 -2.919505057012910854e+00 3.083378728350089637e-01 9.337658925157464873e-01 1.281505098204208104e-01 -1.468911179333771688e-01 7.829114099097382873e-01 7.707169105249249696e-01 3.415006428249919845e-01 3.242956803167866275e-01 3.291757501557462384e-01 4.605974295599768453e-01 7.534829407066456763e-01 7.722163155189816219e-01 2.973599817307402970e-01 -4.564692694771798065e-01 3.891329026263427027e-01 5.069465846597184244e-01 8.057532652859445976e-01 2.601365453844327602e-01 4.235051602367743695e-01 3.544399899739041904e-01 3.336840419037179761e-01 4.029884450048754618e-01 3.517657899701213675e-01 3.296284060372449143e-01 3.499811031756407953e-01 -3.084281801410639345e-01 4.578586172712973967e-01 2.970156546792369068e-01 3.861566477951028364e-01 2.632682870513062268e-01 7.074482731437844452e-01 3.146902713534220353e-01 2.814511587270973059e-01 2.669184503488061799e-01 6.683674082202131217e-01 1.782451927462175290e+00 5.389514923606728569e-01 4.447077299675024631e-01 4.627409391690860962e-01 3.043903443120734575e-01 -1.227175526776995929e+00 2.790524325046582765e-01 7.861264724500445222e-01 1.964517893296864992e+00 4.567107715187787020e-01 3.132783946203355763e-01 -5.393068425610079153e-01 7.391775894074527342e-02 2.763497063173869228e-01 -5.338123608493527961e-01 -7.644666829711932454e-01 7.722354313101261747e-01 1.411056301368077470e+00 3.704791154850842205e-01 7.661001146271949613e-01 3.822461270587769189e-01 2.381022782738339005e-01 2.714171671910096673e-01 5.844161877451514719e-01 7.443550053558494195e-01 -3.986964922945116507e-01 -1.265071378911897804e-01 8.111016941002373304e-02 2.871260168078513808e-01 2.340381808926217944e-01 1.933199911583022845e-01 2.787641133438183871e+00 -2.429117452434640390e-01 -2.254937909133364060e-01 4.150394027739758296e-01 7.877983128759814546e-01 3.821325302926185663e-01 2.346670453301971659e-01 2.355895286447910464e-01 4.904735204656958114e-01 -5.258021940484604029e-01 3.923634893310157246e-01 5.270090174153529983e-01 2.976681231027683561e-01 5.120491351651723644e-01 3.660200682386139936e-01 -1.331862566865817055e+00 4.626651489262885719e-01 3.965184741751398012e-01 9.341265619906266027e-01 3.073600901646076911e-01 1.987521061011455092e+00 2.252967017622699020e-01 2.941205832351319049e-01 2.835964106103798787e-01 3.091084784059471291e-01 2.308820431071271495e-01 3.081145970434933656e-01 6.103899170417849129e-01 3.033832585981627861e-01 2.355714158453464380e-01 9.152841220337057937e-01 5.753378882188190380e-01 7.290010241216668962e-01 -3.021699212560069459e-01 2.001062127085361519e-01 2.770821344198291514e-01 3.198323913174302424e-01 1.255057445780021763e-01 2.347917801020740214e-01 2.735509475065737162e-01 7.579383972942359549e-01 8.949326557739814558e-02 2.639494271165220840e-01 1.453252216557451848e-01 3.780498617092798996e-01 -4.138445850480518828e-01 1.659114942683083752e-02 3.415011537979893985e-01 2.739459941437784596e-01 4.721287459415113852e-01 3.438035740576035337e-01 -1.718866242733230187e+00 3.984502542038370621e-01 -5.359984626164602250e-01 -3.978338639544479194e-01 3.580525769470173647e-01 1.415093480159886341e-01 2.845926539977425840e-01 2.721767362305249627e-01 7.048954682889396750e-02 -2.707272342810135637e-02 3.180656852519416211e-01 1.976293536509379500e-01 1.865470469890971317e-01 1.888543207722089556e-01 4.011670609372978147e-01 3.232227743177506496e-01 3.415487886032314568e-01 2.846401863672780586e-01 -2.302501807046016147e+00 6.783338749430424253e-01 7.232258972329291824e-01 1.038916955694235922e+00 -4.290605301408985661e-01 1.146601027602325740e+00 -4.426229885710911138e-02 2.720213009862318954e-01 1.176640518776864930e+00 3.513606813595358536e-01 2.943370319064270713e-01 2.617287942798561806e-01 2.933611511701515462e-01 3.285671088955901542e-01 -3.682362128506759258e-01 3.726944060378314383e-01 1.095178880048481990e-01 7.521783218805365712e-01 3.166334458379633232e-01 4.073120577010063692e-01 1.732215063305329317e-01 3.145925322615271136e-01 -1.432507221188445756e+00 3.139261691321172387e-01 4.290624216609374014e-02 2.312781560766603572e-01 4.262460328457320924e-01 2.863498346887395907e-01 3.301657972321407342e-01 8.974840325567462473e-02 -8.716092624609971251e-01 4.290622993053624240e-02 3.135469637977735813e-01 -4.584322737085244626e-01 2.885050657850791733e-01 2.104983360435730144e-01 3.035636017109099027e-01 -2.916691536683210018e+00 2.562537901474427060e-01 9.534336850295037635e-01 2.984428050169763424e-01 2.804807471586311385e-01 3.066735626849852459e-01 3.031323856571890296e-01 2.606414968530807452e-01 3.164705436751627521e-01 2.844505189453175875e-01 3.695002846615730308e-01 6.246082537258131895e-01 4.131971355453687988e-01 5.333057943921057920e-01 2.815290859589026362e-01 3.236251039077248648e-01 -4.769308426913234089e-01 2.031857860504730162e+00 1.969930479961624903e-01 1.175309117928110325e+00 -1.321549464456724499e+00 3.109529399184426390e-01 3.536755096651059138e-01 3.117884817209398696e-01 1.011049353281874730e+00 6.405766493014142249e-02 7.042090304985727522e-01 2.580835225196879690e-01 6.608270721067388553e-01 5.152424291556011449e-01 2.726618818175747805e-01 -1.055432530481121844e+00 2.609725990743820834e-01 3.211811568119103399e-01 1.783814346346684898e-01 9.890342415543746935e-01 -2.159872490885252627e-01 2.765144974256424248e+00 1.977586926793740707e-01 1.021202700863852897e+00 3.709474472878872553e-01 3.145799876942931839e-01 3.499814039505002583e-01 2.901769903538491957e-01 2.777712568616055311e-01 2.219513099477016249e-01 1.818760775994390233e-01 3.976435790122248570e-01 5.542756335499370302e-01 3.680081853917650525e-01 1.191401702947128965e-01 3.510882815669701396e-01 1.421187283490445152e-01 4.029889219974804315e-01 3.223065555162763496e-01 2.872170173529421167e+00 3.181107079874878618e-01 6.635777468849627381e-01 4.118321089361748344e-01 2.668859256907200606e-01 4.022571259113561504e-01 3.150007593605229084e-01 2.760729367590816219e-01 3.057644684062397755e-01 -2.620515228597019020e-01 4.911563740885940832e-01 2.856034270639716266e-01 6.702832952909751341e-02 1.438290007231738110e-01 1.423430401924843824e+00 3.437150530037496043e-01 1.988747386174589404e-01 1.905014359258388579e+00 4.508802435349199000e-01 5.378996786162645316e-01 3.637984567749876774e-01 3.264149889947166039e-01 3.923634903991224387e-01 -1.956735341062506572e+00 2.835693939449671075e-01 1.209225777624008735e+00 2.779813266389865034e-01 -8.016113402830318813e-02 7.434959652805943620e-01 3.380751359657405697e-01 -6.638335637429945146e-01 4.493145748809040385e-01 3.076560757523671974e-01 1.453817445301056888e-01 -3.237261400837815883e-01 3.049350204246337182e-01 -1.638693269233377547e+00 3.233426430013118802e-01 3.059840353765551635e-01 6.236943703260607874e-01 3.070889242448406886e-01 3.241030537405832357e-01 2.271236858517771684e-01 4.260478465385057478e-01 -1.530201081606635261e-01 -6.993028276416701772e-01 2.595311204804030825e-02 6.115171494582772871e-01 3.256545971194167999e-01 2.620232685714659060e-01 2.926873268967278841e-01 3.226524933884377111e-01 3.069650645528308464e-01 2.234299376654539149e+00 7.710272790294180334e-01 2.451594929619362040e-01 -1.023075619110762169e+00 4.496755957283725680e-01 4.144538243335977867e+00 2.904642356956783078e-01 9.586951441751910552e-02 5.574615094335496623e-01 -5.002801369750840443e+00 4.361021875651197033e-01 1.383761587576526342e+00 3.163878333390138797e-01 5.688039143344224557e-01 -4.117310784025778880e-01 1.477983738893064725e-01 1.432612614900097003e-01 2.954983683374474146e-01 3.223642161092362679e-01 2.598360218562929980e+00 -3.198694250600380151e-01 3.996080636732959879e-01 -1.796606999145694994e+00 3.349441289099408525e-01 -1.971250165057526482e-01 6.943685568362498728e-01 5.728170011219064772e-01 4.611851442245566979e-01 3.920319996004093532e-01 1.319606401009705499e+00 1.319994715124533646e-01 4.290624970557671558e-02 2.609727024727342970e-01 8.974844798020277514e-02 1.547551601089434126e-01 4.113041635213990355e-01 -5.449575571259434037e-01 3.048714858025994290e-01 3.429877956865542976e-01 3.018812359159883663e-01 3.834733221511659740e-01 3.090940312443848925e-01 1.278871626887590207e-01 5.728168322813389501e-01 1.092536713729859443e-01 3.023845966041123212e-01 2.828407006950611202e-01 5.718764085250418461e-01 2.899567379934531619e+00 3.291424903622871545e-01 3.087737373096008930e-01 4.030189152516485129e-01 8.942066207056010851e-01 4.406478259713153545e-01 -1.343591518499334392e-01 7.801969471692038471e-01 2.704973058596052415e-01 1.079703317296819148e-01 3.226759485582027520e-01 5.241947390920852490e-01 7.831877521025703004e-01 7.223522425490025434e-01 7.743431866977267264e-01 3.547618170518647140e-01 8.974840248087319339e-02 8.974840236462799936e-02 2.512744499260680109e-01 1.392759401618335058e-01 1.118161919745785715e+00 3.706502397884639532e-01 2.986172106410291405e-01 4.714403744522495665e-01 3.006715433662823789e-01 8.417075563559146545e-01 4.290622576667314780e-02 3.044168098294799951e-01 2.509669851917634142e-01 4.712766742055869984e-01 -5.902304588472369051e-01 3.409851119718294021e-01 2.991945026433862065e-01 3.298410707999017144e-01 6.958977405846917819e-01 7.301045034527432476e-01 8.974844652750604834e-02 -1.048695667129899978e-01 2.964959845419115614e-01 6.721995530381880135e-02 -5.717529466053846710e-01 4.331523684324536938e-01 -3.158588307913897886e+00 1.652581798404422209e+00 3.933867949536213882e-01 -3.488325277706296190e-01 3.235897855284749491e-01 1.884533644413109554e+00 2.468082792985273333e-01 5.888991514283139495e-01 5.046870627275306109e-01 2.316918683345425278e-01 5.297341522011094206e-01 3.099801382251530235e-01 -1.333897230857939709e-01 2.679098232845085747e-01 1.882144401847153370e+00 2.930891562092998726e-01 -2.589340917935659681e-01 2.915425343133747349e-01 3.183499788793241470e-01 -1.345877545692465871e+00 2.571121607951837862e-01 6.134032856429164765e-02 4.005872824063385074e-01 4.382551258973723107e-01 3.160127025601734974e-01 3.638714249602892914e-01 3.462980533247537740e-01 -1.557090031825180965e-01 3.049449880807200142e-01 4.132536808113774218e-01 3.703040448213487656e-01 4.030107969211049745e-01 2.398879282153123238e-01 5.558009613480832112e-01 7.753521516982117001e-01 -1.206278579195752210e+00 -1.159570406429886319e-01 -7.530424367066167191e-02 -1.053180910115275454e-01 5.089951681909403725e-01 3.996378970449834256e-01 3.550356353291532763e-01 6.693367876003911698e-01 1.224583738893912366e-01 3.584784518647119445e-01 3.130084443857035770e-01 8.955093887010778797e-02 -1.553498740193996475e-01 2.832367803274936646e-01 2.714459127212881517e-01 4.715588707015158088e-01 3.217795882755688508e-01 2.723006728698460499e-01 3.144827080686146692e-01 3.036450110606123132e-01 3.017184469480190256e-01 5.295849026081946853e-01 2.839914282982854421e-01 3.159779979663511762e-01 7.788489057472106625e-01 3.239143686680286960e-01 6.686232265953129250e-01 3.892414449525231079e-01 2.576639783041527743e-01 3.232309845062194542e-01 -1.342598972597446538e+00 3.213754953580614804e-01 4.968420234524988932e-01 4.573363091102153333e-01 2.908161124687472787e-01 2.859902027399379154e-01 5.374465658936391499e-01 7.448191624038922320e-01 3.242867674721321980e-01 2.350288900593658636e-01 3.132687215275152259e-01 1.958253579304559400e-01 2.998273119010529952e-01 5.397016398833545114e-01 2.664198162166763750e-01 4.520136613084802524e-01 3.908096643023121208e-01 8.455439091859530756e-03 1.483728530363400466e+00 5.340826037054828834e-01 3.550377174064112684e-01 3.409748937387612200e-01 -7.300848654719520603e-01 3.377227790776832772e-01 4.734038589196840618e-01 6.287505967176268973e-01 2.771024220846244335e-01 3.484278846455209355e-01 1.105648935291864809e+00 8.653921552493384350e-01 1.992600478928202579e-01 3.726146016829866014e-01 1.533785145147043560e-01 2.497684095505399993e-01 8.511365161119518463e-01 2.761406559989012077e+00 2.967645719328592113e-01 1.903015106655598920e-01 6.064106581267127982e-01 -9.310140095593794768e-03 3.065213650204077767e-01 3.428452935868302465e-01 9.766236594410341310e-01 3.261646944520400493e-01 -2.296770053051639671e-01 3.272737430791886615e-01 7.665795465739720649e-02 6.830509681163507985e-01 1.337473442276638780e+00 2.490929407752712210e-01 1.994121675591821463e-01 1.578147896733272271e+00 4.543929742874829314e-01 3.275920200639854674e-01 2.516746422699246977e-01 4.932552560566069166e-01 3.248836289131878940e-01 1.148834498755409023e-01 2.160137858450077719e-01 6.695385010452931107e-01 4.851531738080963052e-01 3.486090968324377926e-01 2.975062514856977591e-01 1.604953191393029277e-01 2.784618700860945761e-01 2.343595270344073500e-01 9.768637201812997439e-01 4.692725786895305951e-01 2.887330388326435071e-01 3.341023145374891756e-01 2.681518114060570390e-01 2.788715999746897434e-01 5.642327224153275145e-01 7.251805422881303365e-01 2.169604439074769575e-01 3.260239978993091925e-01 1.927346973248788842e-01 3.092034383674562292e-01 7.542604282726350640e-01 2.751283756801675140e-01 3.431138935975165394e-01 -2.834234099171483168e-01 3.061036418988136720e-01 1.100334028341918291e-01 3.046514482905658405e-01 1.839490548175474749e-01 3.301431399697888347e-01 1.583326403189253107e+00 4.469459400900269164e-01 2.763266261138482838e-01 2.626711493121083180e-02 1.413124586019417039e+00 1.083806250325524134e+00 3.281719350780906153e-01 -4.611402899999847982e-01 -4.232838162573994423e-02 6.709722087750213948e-02 3.816433306515227275e-01 3.038545342377237946e-01 3.177511610898777761e-01 4.554365623964227172e-01 2.696718997686167185e-01 2.939982977475020243e-01 3.253738929898770116e-01 3.786451497521959447e-02 2.993220848818263780e-01 5.753765953573816150e-01 1.061098683500856371e-01 8.040201366093117086e-01 4.029886549983746624e-01 3.925998625801526143e-01 7.001325670400357915e-01 4.761736693205032012e-01 7.715570341572910440e-01 1.307955000378663579e-01 6.577929616698743320e-01 1.403174297788527092e+00 1.905167620351450042e-01 1.870867361194704204e+00 1.492401035169131640e-01 1.048898726908300549e-01 2.953874595053559982e-01 2.806015484071687216e-01 3.236715355682079354e-01 1.888396994539576768e-01 2.651524822874569698e-01 3.024298953111353438e-01 3.197117841749281264e-01 2.979018579470272265e-01 -1.338111266556221701e-01 2.680604379342433896e-01 1.417632096495003227e-02 3.926903760389430786e-01 1.454958469672676669e-01 4.029886554062137027e-01 1.699498681218088170e-01 4.937734368039966570e-01 -9.620105117258745953e-01 1.798185397453910817e+00 3.067178150076046994e-01 -5.455164800341057996e-01 3.006172197457396833e-01 3.332651495266503727e-01 3.065714336365908399e-01 -4.285951795779757489e+00 3.222885645442073788e+00 5.866353147205192187e-01 4.431981372480779946e-01 4.489481997165054028e-01 3.069953862215827889e-01 4.505108628405918303e-01 2.380409003729902828e+00 5.810332256309748145e-01 3.295767487531979234e-01 3.923634754284088255e-01 1.886928694955123664e-01 2.761515525673943205e-01 9.068792739202934383e-01 -3.822679043092495621e-01 -9.516745639925546785e-01 -1.061720432670698822e+00 3.736473555998129359e-01 3.066937511577439435e-01 6.331141087724336813e-01 3.066566882224273649e-01 8.125705637213610499e-01 4.044262843782737704e-01 3.186870637408358298e-01 2.623591322994299202e-01 2.893065072838005847e-01 3.843012007887414150e-01 3.974551081528873708e-01 6.458083759307404748e-01 3.189128357682838311e-01 4.049902514854120672e-01 1.806500028814649605e-01 2.902144411520333339e-02 3.989248110792949498e-01 3.762986920457670470e-01 2.596600359335488051e-01 2.236633510073082198e-01 7.756845543774100182e-01 5.728169452915934379e-01 5.563335148748260739e-01 2.952686094466902000e-01 3.381840371603451745e-01 2.235052251635371579e-01 1.105619848719718856e+00 1.592476880427645458e+00 3.979467179141048527e-01 2.434618584442344302e-01 3.310346138337965649e-01 4.909740912925225631e-01 2.816848178563932659e-01 2.549284073835776376e-01 3.224632740951101084e-01 3.123275550900888597e-01 7.439860999322255308e-01 7.988293631061395006e-01 4.596717542526537748e-01 1.711543964008748198e+00 9.969552964624869840e-02 1.439015839769206273e-01 -2.230133911945998693e-01 -3.558422708120654865e-01 3.114340226591720273e-01 2.836868981798770228e-01 7.038553249765018283e-01 3.028272591494820531e-01 2.906570780752751326e-01 2.932327736090279413e-01 3.652780293097808717e-01 2.665879570896669271e-01 3.516836096867216321e-01 9.999499664284721145e-01 2.727021045990150605e-01 5.916282847684403157e-01 3.099583295821165541e-01 5.479232563099090125e-02 3.320919144711258486e-01 3.700030440801994613e-01 -1.884033242949046949e-01 2.272424623979897584e-01 2.539865837094528178e-01 3.260100364034492215e-01 4.029783564603075519e-01 1.152794067069173867e+00 8.831509961135292075e-01 -7.579811922313992589e-01 -1.971250260874303772e-01 5.072833087918737771e-01 -2.991525633868019618e+00 1.491800668375818484e+00 2.752172579256335072e-01 3.259508708563772506e-01 3.133028364232154361e-01 7.932603222373975083e-01 2.979430583215341710e-01 2.609732346154048366e-01 -4.007835282788859699e-01 7.923850364893295639e-01 3.589315717522056359e-01 9.093676887576801482e-01 1.939173757920438668e+00 -3.821643886075618557e-01 -1.348474892881182940e+00 2.730302002797892480e-01 1.288405232466417472e-01 8.338067541378003655e-01 3.419807975369185127e-01 7.379339771745802024e-01 4.666015265720924177e-01 1.026784675717489492e-01 3.185728650964022579e-01 3.333254116815612678e-01 3.945540746535366461e-01 4.393162402479943163e-01 1.252917204027912179e+00 1.412609571379956463e+00 3.038530215933085699e-01 3.287515898204589337e-01 -1.630841727053430334e-01 -1.877421510248956094e-01 1.779022102773865355e-01 2.388377203831784090e-01 3.370703662154556635e-01 7.100366897014412926e-01 -1.318061097296694129e-01 2.745627995498001184e-01 2.574177766698755310e-01 3.799480470510887553e-01 3.158418788786331866e-01 4.518374070928521946e-01 2.968658055548565877e-01 2.881544912849297035e-01 -9.438973213953498476e-02 2.831911042550543378e-01 4.569159054783430429e-01 1.033270445734740584e+00 1.065179459519056904e+00 9.400873281898474154e-01 3.100502901560057145e-01 6.418095314690591691e-01 5.457317087277283041e-02 3.569516166106503907e-01 -1.792139536170578751e+00 2.832199394302324369e-01 6.246772485395027941e-01 3.510825248894604567e-01 9.431221927995119270e-01 1.288973172833093095e+00 3.923634885847492315e-01 1.798571852611088318e-01 3.636252313371292066e-01 5.262747652708153062e-02 5.846507233399916847e-01 3.566027169943842279e-01 -5.928864105226371306e-01 3.849609695212407590e-01 3.854347114923660778e-01 3.403614719479075568e-01 3.499565720703805560e-01 6.755124721926832887e-01 1.370613860550279894e-01 3.414802240765927310e-01 3.099162916925432554e-01 2.179795872827559045e-01 8.660272711241097099e-01 3.925504661810694795e-01 -1.803097740541331762e-01 8.507082574375908202e-01 7.160897887645190085e-02 4.660114674914480615e-01 2.776878353465491722e-01 1.219825024227713772e+00 3.436962620097329668e-01 6.690642048939188236e-01 3.682844157317013423e-01 3.631847792007374398e-01 -3.392903332150374318e-01 3.952912996244877797e-01 7.185540431410756268e-01 2.941830341813040928e-01 7.168737302099613684e-01 2.665731948967032250e-01 3.450664215281092906e-01 7.280296509787211878e-01 5.458275952735886644e-02 -1.906697247278445362e+00 3.347918034586372382e-01 2.712653932169757365e-01 2.426561623888777164e-01 1.156716039603560148e-01 2.355088153751014601e-01 3.488599084552532759e-01 3.639892413975663876e-01 2.909239858746398011e-01 -4.719604869315725815e-02 -1.544751589170807016e+00 7.082702077228119064e-01 3.211230880714464608e-01 2.614419163589067896e-01 1.835125391237249215e-01 8.138970939497734980e-01 3.100132717665801119e-01 -5.084088822751074016e-02 2.639080484307940178e-01 1.085143890520801291e+00 3.564163715630710438e-01 4.106245346143039265e-01 1.073969880374276542e+00 2.983873190480360593e-01 2.416810322876965955e+00 2.892672429243285381e-01 2.873830909423478741e-01 7.852602110827696658e-01 3.019826933727489671e-01 2.572526869824159901e-01 -1.694247081162433943e+00 2.664031617161308763e-01 2.844743250192598438e-01 4.963035969556205407e-01 2.853736009507292226e-01 5.376950170739792645e-01 -3.792741780868253976e-01 1.880595557924126471e+00 -5.146116444972745896e-01 7.690196820910375486e-01 3.349610117486719885e-01 4.438500063906453685e-01 5.220987703039549066e-01 2.794075255844145067e-01 1.238316637927776576e+00 4.372108810300242426e-02 1.589593704532216989e-01 -8.386793627100356252e-01 -1.500249187652161892e-02 4.001567145296888173e-01 -3.299546700634596430e+00 2.660949585305016463e+00 3.943619113942882226e-01 3.221529980412149996e-01 -1.400571450948403074e+00 3.203948296788570738e-01 -3.843494026030068109e-03 3.004524258188022157e-01 9.221455283678356429e-02 6.240265620103615518e-01 5.572257579190161847e-01 7.356229475021196507e-01 -1.971250251839629652e-01 -1.506346087016069146e-01 3.277317536701015999e-01 -1.106851020697381838e+00 2.617135136123093231e-01 -5.823227826739491020e-01 3.037255003247348872e-01 5.241801486795343301e-01 9.690762254316993146e-03 3.461912782204523142e-01 2.937275575501344660e-01 -1.768569933028715235e-01 4.070817835293562559e-01 3.409273957858871551e-01 1.633050348217514047e-01 2.389681211953589846e-01 3.105486381507814864e-01 -7.581929097385210481e-01 6.635933128686865023e-01 1.472271050098630463e+00 2.244087492139511253e-02 2.546473541690323361e-01 2.637226051698073337e-01 1.228167315698683204e+00 2.846819309752042781e-01 3.075589402074639378e-01 9.076039939195317263e-01 2.647564395412658755e-01 1.692350289523335771e+00 3.174371676256269592e-01 7.897553124787697332e-01 3.161401185266222158e-01 7.239927764711745484e-01 1.303819709108845926e+00 3.605736709147002172e-01 1.941650290604911844e-01 8.095777353049024017e-01 -9.099157521525987058e-02 -1.198041719579951564e-02 -1.540490222350545182e-02 2.847841404869185244e-01 2.987969148472555125e-01 1.398863450469632064e-01 4.736777821757439666e-01 -2.642010285741888120e-01 1.288318410928398272e+00 2.757211420919729594e-01 3.019714035531742558e-01 -2.741011556942799299e+00 2.423420980684702908e-01 2.435009720510810105e-01 3.325134216775099127e-01 1.422303101942649084e-01 4.644875161919208018e-01 -8.477408151081508025e-01 3.899796431468062763e-01 2.782247516130486042e-01 3.012217542692672834e-01 1.103770080580780855e+00 3.799213781703006942e-01 3.083937342980676011e-01 -1.298152343784177098e+00 5.386248601993620655e-01 8.663212673929857610e-01 2.253418983393392083e-01 3.112701301839977952e-01 6.329882391721539103e-02 7.340249872976233325e-01 -1.030630474257210327e-01 2.976065822426288143e-01 3.095340923878239781e-01 7.009710474705665995e-02 7.633564290749371706e-01 2.367776168991035657e-01 7.798606566355191783e-01 2.559416350277669006e-01 6.650776794024494398e-01 -9.854285532646508972e-02 -1.466068100367456051e+00 2.915523842806233557e-01 -6.126153417106428023e-04 3.056998971143472521e-01 2.887153169902084704e-01 9.026035520161522496e-02 5.728169238573541655e-01 3.031227791195232890e-01 1.290026893993694024e-01 3.521527269252032188e-01 2.737302355094537454e-01 3.022847942270278088e-01 3.127033743755840423e-01 -6.734269232011226292e-01 2.826964482578329108e-01 3.432582847419315408e-01 3.137667637334702886e-01 3.547502144790474765e-01 2.955052939472375684e-01 6.959057531471638525e-01 -2.170984381898679316e-01 9.868725942912837112e-01 5.622908209010939462e-01 2.705263050576371953e-01 3.098213425347050576e-01 -1.894730036932514405e+00 2.635205180992897245e-01 2.033803830504839205e-01 1.878734036368615856e-01 5.728170076227508956e-01 3.088043107112676822e-01 3.438585240259167675e-01 3.994983918945407275e-01 2.908157099508389409e-01 3.806161085669295119e-01 2.623000379500545209e-01 2.727186351724245617e-01 3.480109293137228499e-01 3.205878477962672557e-01 2.632960651415842679e-01 2.794573758609690817e-01 -8.257350759252340966e-02 3.081589196313465617e-01 3.242990542817107968e-01 3.567175220496885402e-01 2.857749263275196072e-01 -4.653094092140119126e-02 2.424366876675450311e-02 5.888534569969725019e-03 3.842380996037503049e+00 3.506387358397585197e-01 3.445223297514239391e-01 2.605233269288642628e-01 4.596609172289349843e-01 1.440121006762733469e+00 1.851444116989875710e-01 7.052970641472164903e-01 3.038118012807412560e-01
