# 
#                 ----------------------------------------------------
#                 Data from a 3D direct N-body simulation. 
# 
#                 rows are i-particle; 
#                 coumns are :mass, tag, x ,y, z, vx, vy, vz, ax, ay, az
# 
#                 NTHU, Computational Physics 
# 
#                 ----------------------------------------------------
#                 Time = 0.0
0.000000000000000000e+00 1.000000000000000000e+00 2.000000000000000000e+00 3.000000000000000000e+00 4.000000000000000000e+00 5.000000000000000000e+00 6.000000000000000000e+00 7.000000000000000000e+00 8.000000000000000000e+00 9.000000000000000000e+00 1.000000000000000000e+01 1.100000000000000000e+01 1.200000000000000000e+01 1.300000000000000000e+01 1.400000000000000000e+01 1.500000000000000000e+01 1.600000000000000000e+01 1.700000000000000000e+01 1.800000000000000000e+01 1.900000000000000000e+01 2.000000000000000000e+01 2.100000000000000000e+01 2.200000000000000000e+01 2.300000000000000000e+01 2.400000000000000000e+01 2.500000000000000000e+01 2.600000000000000000e+01 2.700000000000000000e+01 2.800000000000000000e+01 2.900000000000000000e+01 3.000000000000000000e+01 3.100000000000000000e+01 3.200000000000000000e+01 3.300000000000000000e+01 3.400000000000000000e+01 3.500000000000000000e+01 3.600000000000000000e+01 3.700000000000000000e+01 3.800000000000000000e+01 3.900000000000000000e+01 4.000000000000000000e+01 4.100000000000000000e+01 4.200000000000000000e+01 4.300000000000000000e+01 4.400000000000000000e+01 4.500000000000000000e+01 4.600000000000000000e+01 4.700000000000000000e+01 4.800000000000000000e+01 4.900000000000000000e+01 5.000000000000000000e+01 5.100000000000000000e+01 5.200000000000000000e+01 5.300000000000000000e+01 5.400000000000000000e+01 5.500000000000000000e+01 5.600000000000000000e+01 5.700000000000000000e+01 5.800000000000000000e+01 5.900000000000000000e+01 6.000000000000000000e+01 6.100000000000000000e+01 6.200000000000000000e+01 6.300000000000000000e+01 6.400000000000000000e+01 6.500000000000000000e+01 6.600000000000000000e+01 6.700000000000000000e+01 6.800000000000000000e+01 6.900000000000000000e+01 7.000000000000000000e+01 7.100000000000000000e+01 7.200000000000000000e+01 7.300000000000000000e+01 7.400000000000000000e+01 7.500000000000000000e+01 7.600000000000000000e+01 7.700000000000000000e+01 7.800000000000000000e+01 7.900000000000000000e+01 8.000000000000000000e+01 8.100000000000000000e+01 8.200000000000000000e+01 8.300000000000000000e+01 8.400000000000000000e+01 8.500000000000000000e+01 8.600000000000000000e+01 8.700000000000000000e+01 8.800000000000000000e+01 8.900000000000000000e+01 9.000000000000000000e+01 9.100000000000000000e+01 9.200000000000000000e+01 9.300000000000000000e+01 9.400000000000000000e+01 9.500000000000000000e+01 9.600000000000000000e+01 9.700000000000000000e+01 9.800000000000000000e+01 9.900000000000000000e+01 1.000000000000000000e+02 1.010000000000000000e+02 1.020000000000000000e+02 1.030000000000000000e+02 1.040000000000000000e+02 1.050000000000000000e+02 1.060000000000000000e+02 1.070000000000000000e+02 1.080000000000000000e+02 1.090000000000000000e+02 1.100000000000000000e+02 1.110000000000000000e+02 1.120000000000000000e+02 1.130000000000000000e+02 1.140000000000000000e+02 1.150000000000000000e+02 1.160000000000000000e+02 1.170000000000000000e+02 1.180000000000000000e+02 1.190000000000000000e+02 1.200000000000000000e+02 1.210000000000000000e+02 1.220000000000000000e+02 1.230000000000000000e+02 1.240000000000000000e+02 1.250000000000000000e+02 1.260000000000000000e+02 1.270000000000000000e+02 1.280000000000000000e+02 1.290000000000000000e+02 1.300000000000000000e+02 1.310000000000000000e+02 1.320000000000000000e+02 1.330000000000000000e+02 1.340000000000000000e+02 1.350000000000000000e+02 1.360000000000000000e+02 1.370000000000000000e+02 1.380000000000000000e+02 1.390000000000000000e+02 1.400000000000000000e+02 1.410000000000000000e+02 1.420000000000000000e+02 1.430000000000000000e+02 1.440000000000000000e+02 1.450000000000000000e+02 1.460000000000000000e+02 1.470000000000000000e+02 1.480000000000000000e+02 1.490000000000000000e+02 1.500000000000000000e+02 1.510000000000000000e+02 1.520000000000000000e+02 1.530000000000000000e+02 1.540000000000000000e+02 1.550000000000000000e+02 1.560000000000000000e+02 1.570000000000000000e+02 1.580000000000000000e+02 1.590000000000000000e+02 1.600000000000000000e+02 1.610000000000000000e+02 1.620000000000000000e+02 1.630000000000000000e+02 1.640000000000000000e+02 1.650000000000000000e+02 1.660000000000000000e+02 1.670000000000000000e+02 1.680000000000000000e+02 1.690000000000000000e+02 1.700000000000000000e+02 1.710000000000000000e+02 1.720000000000000000e+02 1.730000000000000000e+02 1.740000000000000000e+02 1.750000000000000000e+02 1.760000000000000000e+02 1.770000000000000000e+02 1.780000000000000000e+02 1.790000000000000000e+02 1.800000000000000000e+02 1.810000000000000000e+02 1.820000000000000000e+02 1.830000000000000000e+02 1.840000000000000000e+02 1.850000000000000000e+02 1.860000000000000000e+02 1.870000000000000000e+02 1.880000000000000000e+02 1.890000000000000000e+02 1.900000000000000000e+02 1.910000000000000000e+02 1.920000000000000000e+02 1.930000000000000000e+02 1.940000000000000000e+02 1.950000000000000000e+02 1.960000000000000000e+02 1.970000000000000000e+02 1.980000000000000000e+02 1.990000000000000000e+02 2.000000000000000000e+02 2.010000000000000000e+02 2.020000000000000000e+02 2.030000000000000000e+02 2.040000000000000000e+02 2.050000000000000000e+02 2.060000000000000000e+02 2.070000000000000000e+02 2.080000000000000000e+02 2.090000000000000000e+02 2.100000000000000000e+02 2.110000000000000000e+02 2.120000000000000000e+02 2.130000000000000000e+02 2.140000000000000000e+02 2.150000000000000000e+02 2.160000000000000000e+02 2.170000000000000000e+02 2.180000000000000000e+02 2.190000000000000000e+02 2.200000000000000000e+02 2.210000000000000000e+02 2.220000000000000000e+02 2.230000000000000000e+02 2.240000000000000000e+02 2.250000000000000000e+02 2.260000000000000000e+02 2.270000000000000000e+02 2.280000000000000000e+02 2.290000000000000000e+02 2.300000000000000000e+02 2.310000000000000000e+02 2.320000000000000000e+02 2.330000000000000000e+02 2.340000000000000000e+02 2.350000000000000000e+02 2.360000000000000000e+02 2.370000000000000000e+02 2.380000000000000000e+02 2.390000000000000000e+02 2.400000000000000000e+02 2.410000000000000000e+02 2.420000000000000000e+02 2.430000000000000000e+02 2.440000000000000000e+02 2.450000000000000000e+02 2.460000000000000000e+02 2.470000000000000000e+02 2.480000000000000000e+02 2.490000000000000000e+02 2.500000000000000000e+02 2.510000000000000000e+02 2.520000000000000000e+02 2.530000000000000000e+02 2.540000000000000000e+02 2.550000000000000000e+02 2.560000000000000000e+02 2.570000000000000000e+02 2.580000000000000000e+02 2.590000000000000000e+02 2.600000000000000000e+02 2.610000000000000000e+02 2.620000000000000000e+02 2.630000000000000000e+02 2.640000000000000000e+02 2.650000000000000000e+02 2.660000000000000000e+02 2.670000000000000000e+02 2.680000000000000000e+02 2.690000000000000000e+02 2.700000000000000000e+02 2.710000000000000000e+02 2.720000000000000000e+02 2.730000000000000000e+02 2.740000000000000000e+02 2.750000000000000000e+02 2.760000000000000000e+02 2.770000000000000000e+02 2.780000000000000000e+02 2.790000000000000000e+02 2.800000000000000000e+02 2.810000000000000000e+02 2.820000000000000000e+02 2.830000000000000000e+02 2.840000000000000000e+02 2.850000000000000000e+02 2.860000000000000000e+02 2.870000000000000000e+02 2.880000000000000000e+02 2.890000000000000000e+02 2.900000000000000000e+02 2.910000000000000000e+02 2.920000000000000000e+02 2.930000000000000000e+02 2.940000000000000000e+02 2.950000000000000000e+02 2.960000000000000000e+02 2.970000000000000000e+02 2.980000000000000000e+02 2.990000000000000000e+02 3.000000000000000000e+02 3.010000000000000000e+02 3.020000000000000000e+02 3.030000000000000000e+02 3.040000000000000000e+02 3.050000000000000000e+02 3.060000000000000000e+02 3.070000000000000000e+02 3.080000000000000000e+02 3.090000000000000000e+02 3.100000000000000000e+02 3.110000000000000000e+02 3.120000000000000000e+02 3.130000000000000000e+02 3.140000000000000000e+02 3.150000000000000000e+02 3.160000000000000000e+02 3.170000000000000000e+02 3.180000000000000000e+02 3.190000000000000000e+02 3.200000000000000000e+02 3.210000000000000000e+02 3.220000000000000000e+02 3.230000000000000000e+02 3.240000000000000000e+02 3.250000000000000000e+02 3.260000000000000000e+02 3.270000000000000000e+02 3.280000000000000000e+02 3.290000000000000000e+02 3.300000000000000000e+02 3.310000000000000000e+02 3.320000000000000000e+02 3.330000000000000000e+02 3.340000000000000000e+02 3.350000000000000000e+02 3.360000000000000000e+02 3.370000000000000000e+02 3.380000000000000000e+02 3.390000000000000000e+02 3.400000000000000000e+02 3.410000000000000000e+02 3.420000000000000000e+02 3.430000000000000000e+02 3.440000000000000000e+02 3.450000000000000000e+02 3.460000000000000000e+02 3.470000000000000000e+02 3.480000000000000000e+02 3.490000000000000000e+02 3.500000000000000000e+02 3.510000000000000000e+02 3.520000000000000000e+02 3.530000000000000000e+02 3.540000000000000000e+02 3.550000000000000000e+02 3.560000000000000000e+02 3.570000000000000000e+02 3.580000000000000000e+02 3.590000000000000000e+02 3.600000000000000000e+02 3.610000000000000000e+02 3.620000000000000000e+02 3.630000000000000000e+02 3.640000000000000000e+02 3.650000000000000000e+02 3.660000000000000000e+02 3.670000000000000000e+02 3.680000000000000000e+02 3.690000000000000000e+02 3.700000000000000000e+02 3.710000000000000000e+02 3.720000000000000000e+02 3.730000000000000000e+02 3.740000000000000000e+02 3.750000000000000000e+02 3.760000000000000000e+02 3.770000000000000000e+02 3.780000000000000000e+02 3.790000000000000000e+02 3.800000000000000000e+02 3.810000000000000000e+02 3.820000000000000000e+02 3.830000000000000000e+02 3.840000000000000000e+02 3.850000000000000000e+02 3.860000000000000000e+02 3.870000000000000000e+02 3.880000000000000000e+02 3.890000000000000000e+02 3.900000000000000000e+02 3.910000000000000000e+02 3.920000000000000000e+02 3.930000000000000000e+02 3.940000000000000000e+02 3.950000000000000000e+02 3.960000000000000000e+02 3.970000000000000000e+02 3.980000000000000000e+02 3.990000000000000000e+02 4.000000000000000000e+02 4.010000000000000000e+02 4.020000000000000000e+02 4.030000000000000000e+02 4.040000000000000000e+02 4.050000000000000000e+02 4.060000000000000000e+02 4.070000000000000000e+02 4.080000000000000000e+02 4.090000000000000000e+02 4.100000000000000000e+02 4.110000000000000000e+02 4.120000000000000000e+02 4.130000000000000000e+02 4.140000000000000000e+02 4.150000000000000000e+02 4.160000000000000000e+02 4.170000000000000000e+02 4.180000000000000000e+02 4.190000000000000000e+02 4.200000000000000000e+02 4.210000000000000000e+02 4.220000000000000000e+02 4.230000000000000000e+02 4.240000000000000000e+02 4.250000000000000000e+02 4.260000000000000000e+02 4.270000000000000000e+02 4.280000000000000000e+02 4.290000000000000000e+02 4.300000000000000000e+02 4.310000000000000000e+02 4.320000000000000000e+02 4.330000000000000000e+02 4.340000000000000000e+02 4.350000000000000000e+02 4.360000000000000000e+02 4.370000000000000000e+02 4.380000000000000000e+02 4.390000000000000000e+02 4.400000000000000000e+02 4.410000000000000000e+02 4.420000000000000000e+02 4.430000000000000000e+02 4.440000000000000000e+02 4.450000000000000000e+02 4.460000000000000000e+02 4.470000000000000000e+02 4.480000000000000000e+02 4.490000000000000000e+02 4.500000000000000000e+02 4.510000000000000000e+02 4.520000000000000000e+02 4.530000000000000000e+02 4.540000000000000000e+02 4.550000000000000000e+02 4.560000000000000000e+02 4.570000000000000000e+02 4.580000000000000000e+02 4.590000000000000000e+02 4.600000000000000000e+02 4.610000000000000000e+02 4.620000000000000000e+02 4.630000000000000000e+02 4.640000000000000000e+02 4.650000000000000000e+02 4.660000000000000000e+02 4.670000000000000000e+02 4.680000000000000000e+02 4.690000000000000000e+02 4.700000000000000000e+02 4.710000000000000000e+02 4.720000000000000000e+02 4.730000000000000000e+02 4.740000000000000000e+02 4.750000000000000000e+02 4.760000000000000000e+02 4.770000000000000000e+02 4.780000000000000000e+02 4.790000000000000000e+02 4.800000000000000000e+02 4.810000000000000000e+02 4.820000000000000000e+02 4.830000000000000000e+02 4.840000000000000000e+02 4.850000000000000000e+02 4.860000000000000000e+02 4.870000000000000000e+02 4.880000000000000000e+02 4.890000000000000000e+02 4.900000000000000000e+02 4.910000000000000000e+02 4.920000000000000000e+02 4.930000000000000000e+02 4.940000000000000000e+02 4.950000000000000000e+02 4.960000000000000000e+02 4.970000000000000000e+02 4.980000000000000000e+02 4.990000000000000000e+02 5.000000000000000000e+02 5.010000000000000000e+02 5.020000000000000000e+02 5.030000000000000000e+02 5.040000000000000000e+02 5.050000000000000000e+02 5.060000000000000000e+02 5.070000000000000000e+02 5.080000000000000000e+02 5.090000000000000000e+02 5.100000000000000000e+02 5.110000000000000000e+02 5.120000000000000000e+02 5.130000000000000000e+02 5.140000000000000000e+02 5.150000000000000000e+02 5.160000000000000000e+02 5.170000000000000000e+02 5.180000000000000000e+02 5.190000000000000000e+02 5.200000000000000000e+02 5.210000000000000000e+02 5.220000000000000000e+02 5.230000000000000000e+02 5.240000000000000000e+02 5.250000000000000000e+02 5.260000000000000000e+02 5.270000000000000000e+02 5.280000000000000000e+02 5.290000000000000000e+02 5.300000000000000000e+02 5.310000000000000000e+02 5.320000000000000000e+02 5.330000000000000000e+02 5.340000000000000000e+02 5.350000000000000000e+02 5.360000000000000000e+02 5.370000000000000000e+02 5.380000000000000000e+02 5.390000000000000000e+02 5.400000000000000000e+02 5.410000000000000000e+02 5.420000000000000000e+02 5.430000000000000000e+02 5.440000000000000000e+02 5.450000000000000000e+02 5.460000000000000000e+02 5.470000000000000000e+02 5.480000000000000000e+02 5.490000000000000000e+02 5.500000000000000000e+02 5.510000000000000000e+02 5.520000000000000000e+02 5.530000000000000000e+02 5.540000000000000000e+02 5.550000000000000000e+02 5.560000000000000000e+02 5.570000000000000000e+02 5.580000000000000000e+02 5.590000000000000000e+02 5.600000000000000000e+02 5.610000000000000000e+02 5.620000000000000000e+02 5.630000000000000000e+02 5.640000000000000000e+02 5.650000000000000000e+02 5.660000000000000000e+02 5.670000000000000000e+02 5.680000000000000000e+02 5.690000000000000000e+02 5.700000000000000000e+02 5.710000000000000000e+02 5.720000000000000000e+02 5.730000000000000000e+02 5.740000000000000000e+02 5.750000000000000000e+02 5.760000000000000000e+02 5.770000000000000000e+02 5.780000000000000000e+02 5.790000000000000000e+02 5.800000000000000000e+02 5.810000000000000000e+02 5.820000000000000000e+02 5.830000000000000000e+02 5.840000000000000000e+02 5.850000000000000000e+02 5.860000000000000000e+02 5.870000000000000000e+02 5.880000000000000000e+02 5.890000000000000000e+02 5.900000000000000000e+02 5.910000000000000000e+02 5.920000000000000000e+02 5.930000000000000000e+02 5.940000000000000000e+02 5.950000000000000000e+02 5.960000000000000000e+02 5.970000000000000000e+02 5.980000000000000000e+02 5.990000000000000000e+02 6.000000000000000000e+02 6.010000000000000000e+02 6.020000000000000000e+02 6.030000000000000000e+02 6.040000000000000000e+02 6.050000000000000000e+02 6.060000000000000000e+02 6.070000000000000000e+02 6.080000000000000000e+02 6.090000000000000000e+02 6.100000000000000000e+02 6.110000000000000000e+02 6.120000000000000000e+02 6.130000000000000000e+02 6.140000000000000000e+02 6.150000000000000000e+02 6.160000000000000000e+02 6.170000000000000000e+02 6.180000000000000000e+02 6.190000000000000000e+02 6.200000000000000000e+02 6.210000000000000000e+02 6.220000000000000000e+02 6.230000000000000000e+02 6.240000000000000000e+02 6.250000000000000000e+02 6.260000000000000000e+02 6.270000000000000000e+02 6.280000000000000000e+02 6.290000000000000000e+02 6.300000000000000000e+02 6.310000000000000000e+02 6.320000000000000000e+02 6.330000000000000000e+02 6.340000000000000000e+02 6.350000000000000000e+02 6.360000000000000000e+02 6.370000000000000000e+02 6.380000000000000000e+02 6.390000000000000000e+02 6.400000000000000000e+02 6.410000000000000000e+02 6.420000000000000000e+02 6.430000000000000000e+02 6.440000000000000000e+02 6.450000000000000000e+02 6.460000000000000000e+02 6.470000000000000000e+02 6.480000000000000000e+02 6.490000000000000000e+02 6.500000000000000000e+02 6.510000000000000000e+02 6.520000000000000000e+02 6.530000000000000000e+02 6.540000000000000000e+02 6.550000000000000000e+02 6.560000000000000000e+02 6.570000000000000000e+02 6.580000000000000000e+02 6.590000000000000000e+02 6.600000000000000000e+02 6.610000000000000000e+02 6.620000000000000000e+02 6.630000000000000000e+02 6.640000000000000000e+02 6.650000000000000000e+02 6.660000000000000000e+02 6.670000000000000000e+02 6.680000000000000000e+02 6.690000000000000000e+02 6.700000000000000000e+02 6.710000000000000000e+02 6.720000000000000000e+02 6.730000000000000000e+02 6.740000000000000000e+02 6.750000000000000000e+02 6.760000000000000000e+02 6.770000000000000000e+02 6.780000000000000000e+02 6.790000000000000000e+02 6.800000000000000000e+02 6.810000000000000000e+02 6.820000000000000000e+02 6.830000000000000000e+02 6.840000000000000000e+02 6.850000000000000000e+02 6.860000000000000000e+02 6.870000000000000000e+02 6.880000000000000000e+02 6.890000000000000000e+02 6.900000000000000000e+02 6.910000000000000000e+02 6.920000000000000000e+02 6.930000000000000000e+02 6.940000000000000000e+02 6.950000000000000000e+02 6.960000000000000000e+02 6.970000000000000000e+02 6.980000000000000000e+02 6.990000000000000000e+02 7.000000000000000000e+02 7.010000000000000000e+02 7.020000000000000000e+02 7.030000000000000000e+02 7.040000000000000000e+02 7.050000000000000000e+02 7.060000000000000000e+02 7.070000000000000000e+02 7.080000000000000000e+02 7.090000000000000000e+02 7.100000000000000000e+02 7.110000000000000000e+02 7.120000000000000000e+02 7.130000000000000000e+02 7.140000000000000000e+02 7.150000000000000000e+02 7.160000000000000000e+02 7.170000000000000000e+02 7.180000000000000000e+02 7.190000000000000000e+02 7.200000000000000000e+02 7.210000000000000000e+02 7.220000000000000000e+02 7.230000000000000000e+02 7.240000000000000000e+02 7.250000000000000000e+02 7.260000000000000000e+02 7.270000000000000000e+02 7.280000000000000000e+02 7.290000000000000000e+02 7.300000000000000000e+02 7.310000000000000000e+02 7.320000000000000000e+02 7.330000000000000000e+02 7.340000000000000000e+02 7.350000000000000000e+02 7.360000000000000000e+02 7.370000000000000000e+02 7.380000000000000000e+02 7.390000000000000000e+02 7.400000000000000000e+02 7.410000000000000000e+02 7.420000000000000000e+02 7.430000000000000000e+02 7.440000000000000000e+02 7.450000000000000000e+02 7.460000000000000000e+02 7.470000000000000000e+02 7.480000000000000000e+02 7.490000000000000000e+02 7.500000000000000000e+02 7.510000000000000000e+02 7.520000000000000000e+02 7.530000000000000000e+02 7.540000000000000000e+02 7.550000000000000000e+02 7.560000000000000000e+02 7.570000000000000000e+02 7.580000000000000000e+02 7.590000000000000000e+02 7.600000000000000000e+02 7.610000000000000000e+02 7.620000000000000000e+02 7.630000000000000000e+02 7.640000000000000000e+02 7.650000000000000000e+02 7.660000000000000000e+02 7.670000000000000000e+02 7.680000000000000000e+02 7.690000000000000000e+02 7.700000000000000000e+02 7.710000000000000000e+02 7.720000000000000000e+02 7.730000000000000000e+02 7.740000000000000000e+02 7.750000000000000000e+02 7.760000000000000000e+02 7.770000000000000000e+02 7.780000000000000000e+02 7.790000000000000000e+02 7.800000000000000000e+02 7.810000000000000000e+02 7.820000000000000000e+02 7.830000000000000000e+02 7.840000000000000000e+02 7.850000000000000000e+02 7.860000000000000000e+02 7.870000000000000000e+02 7.880000000000000000e+02 7.890000000000000000e+02 7.900000000000000000e+02 7.910000000000000000e+02 7.920000000000000000e+02 7.930000000000000000e+02 7.940000000000000000e+02 7.950000000000000000e+02 7.960000000000000000e+02 7.970000000000000000e+02 7.980000000000000000e+02 7.990000000000000000e+02 8.000000000000000000e+02 8.010000000000000000e+02 8.020000000000000000e+02 8.030000000000000000e+02 8.040000000000000000e+02 8.050000000000000000e+02 8.060000000000000000e+02 8.070000000000000000e+02 8.080000000000000000e+02 8.090000000000000000e+02 8.100000000000000000e+02 8.110000000000000000e+02 8.120000000000000000e+02 8.130000000000000000e+02 8.140000000000000000e+02 8.150000000000000000e+02 8.160000000000000000e+02 8.170000000000000000e+02 8.180000000000000000e+02 8.190000000000000000e+02 8.200000000000000000e+02 8.210000000000000000e+02 8.220000000000000000e+02 8.230000000000000000e+02 8.240000000000000000e+02 8.250000000000000000e+02 8.260000000000000000e+02 8.270000000000000000e+02 8.280000000000000000e+02 8.290000000000000000e+02 8.300000000000000000e+02 8.310000000000000000e+02 8.320000000000000000e+02 8.330000000000000000e+02 8.340000000000000000e+02 8.350000000000000000e+02 8.360000000000000000e+02 8.370000000000000000e+02 8.380000000000000000e+02 8.390000000000000000e+02 8.400000000000000000e+02 8.410000000000000000e+02 8.420000000000000000e+02 8.430000000000000000e+02 8.440000000000000000e+02 8.450000000000000000e+02 8.460000000000000000e+02 8.470000000000000000e+02 8.480000000000000000e+02 8.490000000000000000e+02 8.500000000000000000e+02 8.510000000000000000e+02 8.520000000000000000e+02 8.530000000000000000e+02 8.540000000000000000e+02 8.550000000000000000e+02 8.560000000000000000e+02 8.570000000000000000e+02 8.580000000000000000e+02 8.590000000000000000e+02 8.600000000000000000e+02 8.610000000000000000e+02 8.620000000000000000e+02 8.630000000000000000e+02 8.640000000000000000e+02 8.650000000000000000e+02 8.660000000000000000e+02 8.670000000000000000e+02 8.680000000000000000e+02 8.690000000000000000e+02 8.700000000000000000e+02 8.710000000000000000e+02 8.720000000000000000e+02 8.730000000000000000e+02 8.740000000000000000e+02 8.750000000000000000e+02 8.760000000000000000e+02 8.770000000000000000e+02 8.780000000000000000e+02 8.790000000000000000e+02 8.800000000000000000e+02 8.810000000000000000e+02 8.820000000000000000e+02 8.830000000000000000e+02 8.840000000000000000e+02 8.850000000000000000e+02 8.860000000000000000e+02 8.870000000000000000e+02 8.880000000000000000e+02 8.890000000000000000e+02 8.900000000000000000e+02 8.910000000000000000e+02 8.920000000000000000e+02 8.930000000000000000e+02 8.940000000000000000e+02 8.950000000000000000e+02 8.960000000000000000e+02 8.970000000000000000e+02 8.980000000000000000e+02 8.990000000000000000e+02 9.000000000000000000e+02 9.010000000000000000e+02 9.020000000000000000e+02 9.030000000000000000e+02 9.040000000000000000e+02 9.050000000000000000e+02 9.060000000000000000e+02 9.070000000000000000e+02 9.080000000000000000e+02 9.090000000000000000e+02 9.100000000000000000e+02 9.110000000000000000e+02 9.120000000000000000e+02 9.130000000000000000e+02 9.140000000000000000e+02 9.150000000000000000e+02 9.160000000000000000e+02 9.170000000000000000e+02 9.180000000000000000e+02 9.190000000000000000e+02 9.200000000000000000e+02 9.210000000000000000e+02 9.220000000000000000e+02 9.230000000000000000e+02 9.240000000000000000e+02 9.250000000000000000e+02 9.260000000000000000e+02 9.270000000000000000e+02 9.280000000000000000e+02 9.290000000000000000e+02 9.300000000000000000e+02 9.310000000000000000e+02 9.320000000000000000e+02 9.330000000000000000e+02 9.340000000000000000e+02 9.350000000000000000e+02 9.360000000000000000e+02 9.370000000000000000e+02 9.380000000000000000e+02 9.390000000000000000e+02 9.400000000000000000e+02 9.410000000000000000e+02 9.420000000000000000e+02 9.430000000000000000e+02 9.440000000000000000e+02 9.450000000000000000e+02 9.460000000000000000e+02 9.470000000000000000e+02 9.480000000000000000e+02 9.490000000000000000e+02 9.500000000000000000e+02 9.510000000000000000e+02 9.520000000000000000e+02 9.530000000000000000e+02 9.540000000000000000e+02 9.550000000000000000e+02 9.560000000000000000e+02 9.570000000000000000e+02 9.580000000000000000e+02 9.590000000000000000e+02 9.600000000000000000e+02 9.610000000000000000e+02 9.620000000000000000e+02 9.630000000000000000e+02 9.640000000000000000e+02 9.650000000000000000e+02 9.660000000000000000e+02 9.670000000000000000e+02 9.680000000000000000e+02 9.690000000000000000e+02 9.700000000000000000e+02 9.710000000000000000e+02 9.720000000000000000e+02 9.730000000000000000e+02 9.740000000000000000e+02 9.750000000000000000e+02 9.760000000000000000e+02 9.770000000000000000e+02 9.780000000000000000e+02 9.790000000000000000e+02 9.800000000000000000e+02 9.810000000000000000e+02 9.820000000000000000e+02 9.830000000000000000e+02 9.840000000000000000e+02 9.850000000000000000e+02 9.860000000000000000e+02 9.870000000000000000e+02 9.880000000000000000e+02 9.890000000000000000e+02 9.900000000000000000e+02 9.910000000000000000e+02 9.920000000000000000e+02 9.930000000000000000e+02 9.940000000000000000e+02 9.950000000000000000e+02 9.960000000000000000e+02 9.970000000000000000e+02 9.980000000000000000e+02 9.990000000000000000e+02
1.000000000000000000e+00 1.000000000000000000e+00 1.000000000000000000e+00 1.000000000000000000e+00 1.000000000000000000e+00 1.000000000000000000e+00 1.000000000000000000e+00 1.000000000000000000e+00 1.000000000000000000e+00 1.000000000000000000e+00 1.000000000000000000e+00 1.000000000000000000e+00 1.000000000000000000e+00 1.000000000000000000e+00 1.000000000000000000e+00 1.000000000000000000e+00 1.000000000000000000e+00 1.000000000000000000e+00 1.000000000000000000e+00 1.000000000000000000e+00 1.000000000000000000e+00 1.000000000000000000e+00 1.000000000000000000e+00 1.000000000000000000e+00 1.000000000000000000e+00 1.000000000000000000e+00 1.000000000000000000e+00 1.000000000000000000e+00 1.000000000000000000e+00 1.000000000000000000e+00 1.000000000000000000e+00 1.000000000000000000e+00 1.000000000000000000e+00 1.000000000000000000e+00 1.000000000000000000e+00 1.000000000000000000e+00 1.000000000000000000e+00 1.000000000000000000e+00 1.000000000000000000e+00 1.000000000000000000e+00 1.000000000000000000e+00 1.000000000000000000e+00 1.000000000000000000e+00 1.000000000000000000e+00 1.000000000000000000e+00 1.000000000000000000e+00 1.000000000000000000e+00 1.000000000000000000e+00 1.000000000000000000e+00 1.000000000000000000e+00 1.000000000000000000e+00 1.000000000000000000e+00 1.000000000000000000e+00 1.000000000000000000e+00 1.000000000000000000e+00 1.000000000000000000e+00 1.000000000000000000e+00 1.000000000000000000e+00 1.000000000000000000e+00 1.000000000000000000e+00 1.000000000000000000e+00 1.000000000000000000e+00 1.000000000000000000e+00 1.000000000000000000e+00 1.000000000000000000e+00 1.000000000000000000e+00 1.000000000000000000e+00 1.000000000000000000e+00 1.000000000000000000e+00 1.000000000000000000e+00 1.000000000000000000e+00 1.000000000000000000e+00 1.000000000000000000e+00 1.000000000000000000e+00 1.000000000000000000e+00 1.000000000000000000e+00 1.000000000000000000e+00 1.000000000000000000e+00 1.000000000000000000e+00 1.000000000000000000e+00 1.000000000000000000e+00 1.000000000000000000e+00 1.000000000000000000e+00 1.000000000000000000e+00 1.000000000000000000e+00 1.000000000000000000e+00 1.000000000000000000e+00 1.000000000000000000e+00 1.000000000000000000e+00 1.000000000000000000e+00 1.000000000000000000e+00 1.000000000000000000e+00 1.000000000000000000e+00 1.000000000000000000e+00 1.000000000000000000e+00 1.000000000000000000e+00 1.000000000000000000e+00 1.000000000000000000e+00 1.000000000000000000e+00 1.000000000000000000e+00 1.000000000000000000e+00 1.000000000000000000e+00 1.000000000000000000e+00 1.000000000000000000e+00 1.000000000000000000e+00 1.000000000000000000e+00 1.000000000000000000e+00 1.000000000000000000e+00 1.000000000000000000e+00 1.000000000000000000e+00 1.000000000000000000e+00 1.000000000000000000e+00 1.000000000000000000e+00 1.000000000000000000e+00 1.000000000000000000e+00 1.000000000000000000e+00 1.000000000000000000e+00 1.000000000000000000e+00 1.000000000000000000e+00 1.000000000000000000e+00 1.000000000000000000e+00 1.000000000000000000e+00 1.000000000000000000e+00 1.000000000000000000e+00 1.000000000000000000e+00 1.000000000000000000e+00 1.000000000000000000e+00 1.000000000000000000e+00 1.000000000000000000e+00 1.000000000000000000e+00 1.000000000000000000e+00 1.000000000000000000e+00 1.000000000000000000e+00 1.000000000000000000e+00 1.000000000000000000e+00 1.000000000000000000e+00 1.000000000000000000e+00 1.000000000000000000e+00 1.000000000000000000e+00 1.000000000000000000e+00 1.000000000000000000e+00 1.000000000000000000e+00 1.000000000000000000e+00 1.000000000000000000e+00 1.000000000000000000e+00 1.000000000000000000e+00 1.000000000000000000e+00 1.000000000000000000e+00 1.000000000000000000e+00 1.000000000000000000e+00 1.000000000000000000e+00 1.000000000000000000e+00 1.000000000000000000e+00 1.000000000000000000e+00 1.000000000000000000e+00 1.000000000000000000e+00 1.000000000000000000e+00 1.000000000000000000e+00 1.000000000000000000e+00 1.000000000000000000e+00 1.000000000000000000e+00 1.000000000000000000e+00 1.000000000000000000e+00 1.000000000000000000e+00 1.000000000000000000e+00 1.000000000000000000e+00 1.000000000000000000e+00 1.000000000000000000e+00 1.000000000000000000e+00 1.000000000000000000e+00 1.000000000000000000e+00 1.000000000000000000e+00 1.000000000000000000e+00 1.000000000000000000e+00 1.000000000000000000e+00 1.000000000000000000e+00 1.000000000000000000e+00 1.000000000000000000e+00 1.000000000000000000e+00 1.000000000000000000e+00 1.000000000000000000e+00 1.000000000000000000e+00 1.000000000000000000e+00 1.000000000000000000e+00 1.000000000000000000e+00 1.000000000000000000e+00 1.000000000000000000e+00 1.000000000000000000e+00 1.000000000000000000e+00 1.000000000000000000e+00 1.000000000000000000e+00 1.000000000000000000e+00 1.000000000000000000e+00 1.000000000000000000e+00 1.000000000000000000e+00 1.000000000000000000e+00 1.000000000000000000e+00 1.000000000000000000e+00 1.000000000000000000e+00 1.000000000000000000e+00 1.000000000000000000e+00 1.000000000000000000e+00 1.000000000000000000e+00 1.000000000000000000e+00 1.000000000000000000e+00 1.000000000000000000e+00 1.000000000000000000e+00 1.000000000000000000e+00 1.000000000000000000e+00 1.000000000000000000e+00 1.000000000000000000e+00 1.000000000000000000e+00 1.000000000000000000e+00 1.000000000000000000e+00 1.000000000000000000e+00 1.000000000000000000e+00 1.000000000000000000e+00 1.000000000000000000e+00 1.000000000000000000e+00 1.000000000000000000e+00 1.000000000000000000e+00 1.000000000000000000e+00 1.000000000000000000e+00 1.000000000000000000e+00 1.000000000000000000e+00 1.000000000000000000e+00 1.000000000000000000e+00 1.000000000000000000e+00 1.000000000000000000e+00 1.000000000000000000e+00 1.000000000000000000e+00 1.000000000000000000e+00 1.000000000000000000e+00 1.000000000000000000e+00 1.000000000000000000e+00 1.000000000000000000e+00 1.000000000000000000e+00 1.000000000000000000e+00 1.000000000000000000e+00 1.000000000000000000e+00 1.000000000000000000e+00 1.000000000000000000e+00 1.000000000000000000e+00 1.000000000000000000e+00 1.000000000000000000e+00 1.000000000000000000e+00 1.000000000000000000e+00 1.000000000000000000e+00 1.000000000000000000e+00 1.000000000000000000e+00 1.000000000000000000e+00 1.000000000000000000e+00 1.000000000000000000e+00 1.000000000000000000e+00 1.000000000000000000e+00 1.000000000000000000e+00 1.000000000000000000e+00 1.000000000000000000e+00 1.000000000000000000e+00 1.000000000000000000e+00 1.000000000000000000e+00 1.000000000000000000e+00 1.000000000000000000e+00 1.000000000000000000e+00 1.000000000000000000e+00 1.000000000000000000e+00 1.000000000000000000e+00 1.000000000000000000e+00 1.000000000000000000e+00 1.000000000000000000e+00 1.000000000000000000e+00 1.000000000000000000e+00 1.000000000000000000e+00 1.000000000000000000e+00 1.000000000000000000e+00 1.000000000000000000e+00 1.000000000000000000e+00 1.000000000000000000e+00 1.000000000000000000e+00 1.000000000000000000e+00 1.000000000000000000e+00 1.000000000000000000e+00 1.000000000000000000e+00 1.000000000000000000e+00 1.000000000000000000e+00 1.000000000000000000e+00 1.000000000000000000e+00 1.000000000000000000e+00 1.000000000000000000e+00 1.000000000000000000e+00 1.000000000000000000e+00 1.000000000000000000e+00 1.000000000000000000e+00 1.000000000000000000e+00 1.000000000000000000e+00 1.000000000000000000e+00 1.000000000000000000e+00 1.000000000000000000e+00 1.000000000000000000e+00 1.000000000000000000e+00 1.000000000000000000e+00 1.000000000000000000e+00 1.000000000000000000e+00 1.000000000000000000e+00 1.000000000000000000e+00 1.000000000000000000e+00 1.000000000000000000e+00 1.000000000000000000e+00 1.000000000000000000e+00 1.000000000000000000e+00 1.000000000000000000e+00 1.000000000000000000e+00 1.000000000000000000e+00 1.000000000000000000e+00 1.000000000000000000e+00 1.000000000000000000e+00 1.000000000000000000e+00 1.000000000000000000e+00 1.000000000000000000e+00 1.000000000000000000e+00 1.000000000000000000e+00 1.000000000000000000e+00 1.000000000000000000e+00 1.000000000000000000e+00 1.000000000000000000e+00 1.000000000000000000e+00 1.000000000000000000e+00 1.000000000000000000e+00 1.000000000000000000e+00 1.000000000000000000e+00 1.000000000000000000e+00 1.000000000000000000e+00 1.000000000000000000e+00 1.000000000000000000e+00 1.000000000000000000e+00 1.000000000000000000e+00 1.000000000000000000e+00 1.000000000000000000e+00 1.000000000000000000e+00 1.000000000000000000e+00 1.000000000000000000e+00 1.000000000000000000e+00 1.000000000000000000e+00 1.000000000000000000e+00 1.000000000000000000e+00 1.000000000000000000e+00 1.000000000000000000e+00 1.000000000000000000e+00 1.000000000000000000e+00 1.000000000000000000e+00 1.000000000000000000e+00 1.000000000000000000e+00 1.000000000000000000e+00 1.000000000000000000e+00 1.000000000000000000e+00 1.000000000000000000e+00 1.000000000000000000e+00 1.000000000000000000e+00 1.000000000000000000e+00 1.000000000000000000e+00 1.000000000000000000e+00 1.000000000000000000e+00 1.000000000000000000e+00 1.000000000000000000e+00 1.000000000000000000e+00 1.000000000000000000e+00 1.000000000000000000e+00 1.000000000000000000e+00 1.000000000000000000e+00 1.000000000000000000e+00 1.000000000000000000e+00 1.000000000000000000e+00 1.000000000000000000e+00 1.000000000000000000e+00 1.000000000000000000e+00 1.000000000000000000e+00 1.000000000000000000e+00 1.000000000000000000e+00 1.000000000000000000e+00 1.000000000000000000e+00 1.000000000000000000e+00 1.000000000000000000e+00 1.000000000000000000e+00 1.000000000000000000e+00 1.000000000000000000e+00 1.000000000000000000e+00 1.000000000000000000e+00 1.000000000000000000e+00 1.000000000000000000e+00 1.000000000000000000e+00 1.000000000000000000e+00 1.000000000000000000e+00 1.000000000000000000e+00 1.000000000000000000e+00 1.000000000000000000e+00 1.000000000000000000e+00 1.000000000000000000e+00 1.000000000000000000e+00 1.000000000000000000e+00 1.000000000000000000e+00 1.000000000000000000e+00 1.000000000000000000e+00 1.000000000000000000e+00 1.000000000000000000e+00 1.000000000000000000e+00 1.000000000000000000e+00 1.000000000000000000e+00 1.000000000000000000e+00 1.000000000000000000e+00 1.000000000000000000e+00 1.000000000000000000e+00 1.000000000000000000e+00 1.000000000000000000e+00 1.000000000000000000e+00 1.000000000000000000e+00 1.000000000000000000e+00 1.000000000000000000e+00 1.000000000000000000e+00 1.000000000000000000e+00 1.000000000000000000e+00 1.000000000000000000e+00 1.000000000000000000e+00 1.000000000000000000e+00 1.000000000000000000e+00 1.000000000000000000e+00 1.000000000000000000e+00 1.000000000000000000e+00 1.000000000000000000e+00 1.000000000000000000e+00 1.000000000000000000e+00 1.000000000000000000e+00 1.000000000000000000e+00 1.000000000000000000e+00 1.000000000000000000e+00 1.000000000000000000e+00 1.000000000000000000e+00 1.000000000000000000e+00 1.000000000000000000e+00 1.000000000000000000e+00 1.000000000000000000e+00 1.000000000000000000e+00 1.000000000000000000e+00 1.000000000000000000e+00 1.000000000000000000e+00 1.000000000000000000e+00 1.000000000000000000e+00 1.000000000000000000e+00 1.000000000000000000e+00 1.000000000000000000e+00 1.000000000000000000e+00 1.000000000000000000e+00 1.000000000000000000e+00 1.000000000000000000e+00 1.000000000000000000e+00 1.000000000000000000e+00 1.000000000000000000e+00 1.000000000000000000e+00 1.000000000000000000e+00 1.000000000000000000e+00 1.000000000000000000e+00 1.000000000000000000e+00 1.000000000000000000e+00 1.000000000000000000e+00 1.000000000000000000e+00 1.000000000000000000e+00 1.000000000000000000e+00 1.000000000000000000e+00 1.000000000000000000e+00 1.000000000000000000e+00 1.000000000000000000e+00 1.000000000000000000e+00 1.000000000000000000e+00 1.000000000000000000e+00 1.000000000000000000e+00 1.000000000000000000e+00 1.000000000000000000e+00 1.000000000000000000e+00 1.000000000000000000e+00 1.000000000000000000e+00 1.000000000000000000e+00 1.000000000000000000e+00 1.000000000000000000e+00 1.000000000000000000e+00 1.000000000000000000e+00 1.000000000000000000e+00 1.000000000000000000e+00 1.000000000000000000e+00 1.000000000000000000e+00 1.000000000000000000e+00 1.000000000000000000e+00 1.000000000000000000e+00 1.000000000000000000e+00 1.000000000000000000e+00 1.000000000000000000e+00 1.000000000000000000e+00 1.000000000000000000e+00 1.000000000000000000e+00 1.000000000000000000e+00 1.000000000000000000e+00 1.000000000000000000e+00 1.000000000000000000e+00 1.000000000000000000e+00 1.000000000000000000e+00 1.000000000000000000e+00 1.000000000000000000e+00 1.000000000000000000e+00 1.000000000000000000e+00 1.000000000000000000e+00 1.000000000000000000e+00 1.000000000000000000e+00 1.000000000000000000e+00 1.000000000000000000e+00 1.000000000000000000e+00 1.000000000000000000e+00 1.000000000000000000e+00 1.000000000000000000e+00 1.000000000000000000e+00 1.000000000000000000e+00 1.000000000000000000e+00 1.000000000000000000e+00 1.000000000000000000e+00 1.000000000000000000e+00 1.000000000000000000e+00 1.000000000000000000e+00 1.000000000000000000e+00 1.000000000000000000e+00 1.000000000000000000e+00 1.000000000000000000e+00 1.000000000000000000e+00 1.000000000000000000e+00 1.000000000000000000e+00 1.000000000000000000e+00 1.000000000000000000e+00 1.000000000000000000e+00 1.000000000000000000e+00 1.000000000000000000e+00 1.000000000000000000e+00 1.000000000000000000e+00 1.000000000000000000e+00 1.000000000000000000e+00 1.000000000000000000e+00 1.000000000000000000e+00 1.000000000000000000e+00 1.000000000000000000e+00 1.000000000000000000e+00 1.000000000000000000e+00 1.000000000000000000e+00 1.000000000000000000e+00 1.000000000000000000e+00 1.000000000000000000e+00 1.000000000000000000e+00 1.000000000000000000e+00 1.000000000000000000e+00 1.000000000000000000e+00 1.000000000000000000e+00 1.000000000000000000e+00 1.000000000000000000e+00 1.000000000000000000e+00 1.000000000000000000e+00 1.000000000000000000e+00 1.000000000000000000e+00 1.000000000000000000e+00 1.000000000000000000e+00 1.000000000000000000e+00 1.000000000000000000e+00 1.000000000000000000e+00 1.000000000000000000e+00 1.000000000000000000e+00 1.000000000000000000e+00 1.000000000000000000e+00 1.000000000000000000e+00 1.000000000000000000e+00 1.000000000000000000e+00 1.000000000000000000e+00 1.000000000000000000e+00 1.000000000000000000e+00 1.000000000000000000e+00 1.000000000000000000e+00 1.000000000000000000e+00 1.000000000000000000e+00 1.000000000000000000e+00 1.000000000000000000e+00 1.000000000000000000e+00 1.000000000000000000e+00 1.000000000000000000e+00 1.000000000000000000e+00 1.000000000000000000e+00 1.000000000000000000e+00 1.000000000000000000e+00 1.000000000000000000e+00 1.000000000000000000e+00 1.000000000000000000e+00 1.000000000000000000e+00 1.000000000000000000e+00 1.000000000000000000e+00 1.000000000000000000e+00 1.000000000000000000e+00 1.000000000000000000e+00 1.000000000000000000e+00 1.000000000000000000e+00 1.000000000000000000e+00 1.000000000000000000e+00 1.000000000000000000e+00 1.000000000000000000e+00 1.000000000000000000e+00 1.000000000000000000e+00 1.000000000000000000e+00 1.000000000000000000e+00 1.000000000000000000e+00 1.000000000000000000e+00 1.000000000000000000e+00 1.000000000000000000e+00 1.000000000000000000e+00 1.000000000000000000e+00 1.000000000000000000e+00 1.000000000000000000e+00 1.000000000000000000e+00 1.000000000000000000e+00 1.000000000000000000e+00 1.000000000000000000e+00 1.000000000000000000e+00 1.000000000000000000e+00 1.000000000000000000e+00 1.000000000000000000e+00 1.000000000000000000e+00 1.000000000000000000e+00 1.000000000000000000e+00 1.000000000000000000e+00 1.000000000000000000e+00 1.000000000000000000e+00 1.000000000000000000e+00 1.000000000000000000e+00 1.000000000000000000e+00 1.000000000000000000e+00 1.000000000000000000e+00 1.000000000000000000e+00 1.000000000000000000e+00 1.000000000000000000e+00 1.000000000000000000e+00 1.000000000000000000e+00 1.000000000000000000e+00 1.000000000000000000e+00 1.000000000000000000e+00 1.000000000000000000e+00 1.000000000000000000e+00 1.000000000000000000e+00 1.000000000000000000e+00 1.000000000000000000e+00 1.000000000000000000e+00 1.000000000000000000e+00 1.000000000000000000e+00 1.000000000000000000e+00 1.000000000000000000e+00 1.000000000000000000e+00 1.000000000000000000e+00 1.000000000000000000e+00 1.000000000000000000e+00 1.000000000000000000e+00 1.000000000000000000e+00 1.000000000000000000e+00 1.000000000000000000e+00 1.000000000000000000e+00 1.000000000000000000e+00 1.000000000000000000e+00 1.000000000000000000e+00 1.000000000000000000e+00 1.000000000000000000e+00 1.000000000000000000e+00 1.000000000000000000e+00 1.000000000000000000e+00 1.000000000000000000e+00 1.000000000000000000e+00 1.000000000000000000e+00 1.000000000000000000e+00 1.000000000000000000e+00 1.000000000000000000e+00 1.000000000000000000e+00 1.000000000000000000e+00 1.000000000000000000e+00 1.000000000000000000e+00 1.000000000000000000e+00 1.000000000000000000e+00 1.000000000000000000e+00 1.000000000000000000e+00 1.000000000000000000e+00 1.000000000000000000e+00 1.000000000000000000e+00 1.000000000000000000e+00 1.000000000000000000e+00 1.000000000000000000e+00 1.000000000000000000e+00 1.000000000000000000e+00 1.000000000000000000e+00 1.000000000000000000e+00 1.000000000000000000e+00 1.000000000000000000e+00 1.000000000000000000e+00 1.000000000000000000e+00 1.000000000000000000e+00 1.000000000000000000e+00 1.000000000000000000e+00 1.000000000000000000e+00 1.000000000000000000e+00 1.000000000000000000e+00 1.000000000000000000e+00 1.000000000000000000e+00 1.000000000000000000e+00 1.000000000000000000e+00 1.000000000000000000e+00 1.000000000000000000e+00 1.000000000000000000e+00 1.000000000000000000e+00 1.000000000000000000e+00 1.000000000000000000e+00 1.000000000000000000e+00 1.000000000000000000e+00 1.000000000000000000e+00 1.000000000000000000e+00 1.000000000000000000e+00 1.000000000000000000e+00 1.000000000000000000e+00 1.000000000000000000e+00 1.000000000000000000e+00 1.000000000000000000e+00 1.000000000000000000e+00 1.000000000000000000e+00 1.000000000000000000e+00 1.000000000000000000e+00 1.000000000000000000e+00 1.000000000000000000e+00 1.000000000000000000e+00 1.000000000000000000e+00 1.000000000000000000e+00 1.000000000000000000e+00 1.000000000000000000e+00 1.000000000000000000e+00 1.000000000000000000e+00 1.000000000000000000e+00 1.000000000000000000e+00 1.000000000000000000e+00 1.000000000000000000e+00 1.000000000000000000e+00 1.000000000000000000e+00 1.000000000000000000e+00 1.000000000000000000e+00 1.000000000000000000e+00 1.000000000000000000e+00 1.000000000000000000e+00 1.000000000000000000e+00 1.000000000000000000e+00 1.000000000000000000e+00 1.000000000000000000e+00 1.000000000000000000e+00 1.000000000000000000e+00 1.000000000000000000e+00 1.000000000000000000e+00 1.000000000000000000e+00 1.000000000000000000e+00 1.000000000000000000e+00 1.000000000000000000e+00 1.000000000000000000e+00 1.000000000000000000e+00 1.000000000000000000e+00 1.000000000000000000e+00 1.000000000000000000e+00 1.000000000000000000e+00 1.000000000000000000e+00 1.000000000000000000e+00 1.000000000000000000e+00 1.000000000000000000e+00 1.000000000000000000e+00 1.000000000000000000e+00 1.000000000000000000e+00 1.000000000000000000e+00 1.000000000000000000e+00 1.000000000000000000e+00 1.000000000000000000e+00 1.000000000000000000e+00 1.000000000000000000e+00 1.000000000000000000e+00 1.000000000000000000e+00 1.000000000000000000e+00 1.000000000000000000e+00 1.000000000000000000e+00 1.000000000000000000e+00 1.000000000000000000e+00 1.000000000000000000e+00 1.000000000000000000e+00 1.000000000000000000e+00 1.000000000000000000e+00 1.000000000000000000e+00 1.000000000000000000e+00 1.000000000000000000e+00 1.000000000000000000e+00 1.000000000000000000e+00 1.000000000000000000e+00 1.000000000000000000e+00 1.000000000000000000e+00 1.000000000000000000e+00 1.000000000000000000e+00 1.000000000000000000e+00 1.000000000000000000e+00 1.000000000000000000e+00 1.000000000000000000e+00 1.000000000000000000e+00 1.000000000000000000e+00 1.000000000000000000e+00 1.000000000000000000e+00 1.000000000000000000e+00 1.000000000000000000e+00 1.000000000000000000e+00 1.000000000000000000e+00 1.000000000000000000e+00 1.000000000000000000e+00 1.000000000000000000e+00 1.000000000000000000e+00 1.000000000000000000e+00 1.000000000000000000e+00 1.000000000000000000e+00 1.000000000000000000e+00 1.000000000000000000e+00 1.000000000000000000e+00 1.000000000000000000e+00 1.000000000000000000e+00 1.000000000000000000e+00 1.000000000000000000e+00 1.000000000000000000e+00 1.000000000000000000e+00 1.000000000000000000e+00 1.000000000000000000e+00 1.000000000000000000e+00 1.000000000000000000e+00 1.000000000000000000e+00 1.000000000000000000e+00 1.000000000000000000e+00 1.000000000000000000e+00 1.000000000000000000e+00 1.000000000000000000e+00 1.000000000000000000e+00 1.000000000000000000e+00 1.000000000000000000e+00 1.000000000000000000e+00 1.000000000000000000e+00 1.000000000000000000e+00 1.000000000000000000e+00 1.000000000000000000e+00 1.000000000000000000e+00 1.000000000000000000e+00 1.000000000000000000e+00 1.000000000000000000e+00 1.000000000000000000e+00 1.000000000000000000e+00 1.000000000000000000e+00 1.000000000000000000e+00 1.000000000000000000e+00 1.000000000000000000e+00 1.000000000000000000e+00 1.000000000000000000e+00 1.000000000000000000e+00 1.000000000000000000e+00 1.000000000000000000e+00 1.000000000000000000e+00 1.000000000000000000e+00 1.000000000000000000e+00 1.000000000000000000e+00 1.000000000000000000e+00 1.000000000000000000e+00 1.000000000000000000e+00 1.000000000000000000e+00 1.000000000000000000e+00 1.000000000000000000e+00 1.000000000000000000e+00 1.000000000000000000e+00 1.000000000000000000e+00 1.000000000000000000e+00 1.000000000000000000e+00 1.000000000000000000e+00 1.000000000000000000e+00 1.000000000000000000e+00 1.000000000000000000e+00 1.000000000000000000e+00 1.000000000000000000e+00 1.000000000000000000e+00 1.000000000000000000e+00 1.000000000000000000e+00 1.000000000000000000e+00 1.000000000000000000e+00 1.000000000000000000e+00 1.000000000000000000e+00 1.000000000000000000e+00 1.000000000000000000e+00 1.000000000000000000e+00 1.000000000000000000e+00 1.000000000000000000e+00 1.000000000000000000e+00 1.000000000000000000e+00 1.000000000000000000e+00 1.000000000000000000e+00 1.000000000000000000e+00 1.000000000000000000e+00 1.000000000000000000e+00 1.000000000000000000e+00 1.000000000000000000e+00 1.000000000000000000e+00 1.000000000000000000e+00 1.000000000000000000e+00 1.000000000000000000e+00 1.000000000000000000e+00 1.000000000000000000e+00 1.000000000000000000e+00 1.000000000000000000e+00 1.000000000000000000e+00 1.000000000000000000e+00 1.000000000000000000e+00 1.000000000000000000e+00 1.000000000000000000e+00 1.000000000000000000e+00 1.000000000000000000e+00 1.000000000000000000e+00 1.000000000000000000e+00 1.000000000000000000e+00 1.000000000000000000e+00 1.000000000000000000e+00 1.000000000000000000e+00 1.000000000000000000e+00 1.000000000000000000e+00 1.000000000000000000e+00 1.000000000000000000e+00 1.000000000000000000e+00 1.000000000000000000e+00 1.000000000000000000e+00 1.000000000000000000e+00 1.000000000000000000e+00 1.000000000000000000e+00 1.000000000000000000e+00 1.000000000000000000e+00 1.000000000000000000e+00 1.000000000000000000e+00 1.000000000000000000e+00 1.000000000000000000e+00 1.000000000000000000e+00 1.000000000000000000e+00 1.000000000000000000e+00 1.000000000000000000e+00 1.000000000000000000e+00 1.000000000000000000e+00 1.000000000000000000e+00 1.000000000000000000e+00 1.000000000000000000e+00 1.000000000000000000e+00 1.000000000000000000e+00 1.000000000000000000e+00 1.000000000000000000e+00 1.000000000000000000e+00 1.000000000000000000e+00 1.000000000000000000e+00 1.000000000000000000e+00 1.000000000000000000e+00 1.000000000000000000e+00 1.000000000000000000e+00 1.000000000000000000e+00 1.000000000000000000e+00 1.000000000000000000e+00 1.000000000000000000e+00 1.000000000000000000e+00 1.000000000000000000e+00 1.000000000000000000e+00 1.000000000000000000e+00 1.000000000000000000e+00 1.000000000000000000e+00 1.000000000000000000e+00 1.000000000000000000e+00 1.000000000000000000e+00 1.000000000000000000e+00 1.000000000000000000e+00 1.000000000000000000e+00 1.000000000000000000e+00 1.000000000000000000e+00 1.000000000000000000e+00 1.000000000000000000e+00 1.000000000000000000e+00 1.000000000000000000e+00 1.000000000000000000e+00 1.000000000000000000e+00 1.000000000000000000e+00 1.000000000000000000e+00 1.000000000000000000e+00 1.000000000000000000e+00 1.000000000000000000e+00 1.000000000000000000e+00 1.000000000000000000e+00 1.000000000000000000e+00 1.000000000000000000e+00 1.000000000000000000e+00 1.000000000000000000e+00 1.000000000000000000e+00 1.000000000000000000e+00 1.000000000000000000e+00 1.000000000000000000e+00 1.000000000000000000e+00
7.387684464273033824e-02 5.020607567144781402e-01 8.813384433514144245e-01 4.923050748891336093e-01 4.846159302811358094e-01 5.634563571765216494e-01 2.127785004147789427e-01 3.494445538050436895e-01 5.069325131745250346e-01 4.957281242100088359e-01 1.003345739785561852e+00 -2.402340442820503075e-01 1.115455236322681731e+00 5.001380230638285962e-01 4.981552781178796852e-01 5.733951506958065991e-01 9.185226091719995711e-01 6.676427909179405429e-01 4.610528137919608915e-01 5.058974417695953907e-01 3.981039748784968579e-01 8.506794269767823380e-01 3.678460860236268948e-01 4.877657158534420279e-01 6.543421531179841599e-01 7.917678013969845496e-01 4.160281983683756790e-01 5.192176679870348366e-01 5.295654816676995669e-01 8.402875129815687849e-01 5.084192487226156798e-01 5.301470476897229833e-01 8.015029346141787636e-01 5.110368009023847913e-01 7.273419590696176273e-01 4.725155284789210319e-01 7.316114692988713308e-01 7.934346962980183271e-01 1.422732287940594587e-01 5.048901412917584652e-01 5.829778246117430784e-01 -3.282385377823192063e-01 7.404831392417076108e-01 2.043901659907809421e-01 2.339697545621064190e-01 5.029987663462894831e-01 4.827148480359818028e-01 4.646068806974031906e-01 5.029567861838539766e-01 7.959996708553747358e-02 3.934807559767294904e-02 3.507938724068782599e-01 4.996581021308560966e-01 5.346452146385388682e-01 5.049296085234300513e-01 7.124139728228805202e-02 4.517374063777410131e-01 8.282565177195859718e-01 1.745852719255053254e-01 5.297176024652940907e-01 7.358840478145636244e-01 5.299414890594450478e-01 4.563722956016459942e-01 3.678427428902720786e-01 4.705316858371701438e-01 5.032845624097674886e-01 5.033134433090987736e-01 4.375245701296329170e-01 5.970678183283893992e-01 2.608895968746374056e-02 4.556088553320629675e-01 4.979001754586771522e-01 5.318721024819157428e-01 4.210864802813804597e-02 1.241620707876327279e+00 5.219143314761498509e-01 5.874351313623736859e-01 7.581766378627450287e-01 4.817804413504698235e-01 1.248780264628561731e+00 5.221840457672134450e-01 2.113846247458218697e-01 7.874406153107976758e-01 5.029928014772033773e-01 5.097118899379291523e-01 7.255638614673335374e-01 8.532117043265996514e-01 5.259667967994141602e-01 2.950201296823986019e-01 5.620058993272796233e-01 2.236469720962361296e-01 1.412226943056473782e+00 5.245022772746165129e-01 8.047137514478419629e-02 3.438317415192188031e-01 5.368081808894799023e-01 5.532497851206475969e-01 6.749963764501559771e-01 2.205983871003552310e-01 7.952522785437068364e-01 7.766743464123776475e-01 4.881153073834674228e-01 5.075870335691864410e-01 1.044739967490597499e+00 1.484863433677690026e-01 -1.050501524344670701e+00 -7.748198514271609216e-01 5.489242186567141468e-01 4.496946824718805469e-01 8.863098589586482223e-01 3.675917066975106784e-01 4.935945853568319830e-01 9.071012328260833479e-01 4.714289687454727429e-01 4.402456328911449335e-01 5.732688056398852483e-01 4.498515517795788066e-01 6.372939740237999473e-01 5.809076864640649873e-01 4.267808306368451876e-01 1.084105590635099592e+00 3.888816384762884271e-01 6.105491438283383587e-01 5.766467188896222673e-01 4.756566292634144544e-01 1.531694751630282569e+00 3.282316854208270351e-01 7.853903185041987145e-01 4.926059129750595678e-01 5.027868062738416466e-01 4.457115589381067666e-01 5.088264412696068550e-01 5.124736507848733913e-01 4.130391660889131122e-01 4.670153095521577535e-01 -1.190692480637198930e-02 9.318965340966031130e-01 -2.119661482920055795e-02 8.540281501620227145e-01 4.941881329715225313e-01 4.985143182484341740e-01 6.090231432406023604e-01 5.124091581994287825e-01 5.160643036697446506e-01 4.987957947294365257e-01 -6.952187897490320206e-03 5.481826938617494482e-01 4.446006703662251924e-01 4.295019862415928036e-01 -4.047192744975373624e-01 7.472194055940900581e-01 -1.304792117399559970e-02 5.029400480926098371e-01 5.427725441510067306e-01 7.734935613051504566e-01 5.602973169937029985e-01 6.807656010961585791e-01 5.840339522255556526e-01 7.864825273823836671e-01 7.750558161524394585e-01 3.454213783705407104e-01 4.975278642919493954e-01 5.343109525317144559e-01 5.157430551693136245e-01 1.125153626622337644e+00 -1.405114107741004537e-01 7.636344609727648836e-01 5.095623795810186873e-01 5.470262916397597985e-01 5.741850521144210573e-01 6.002840102654622978e-01 4.929320669239760644e-01 5.029380166483287118e-01 5.007504383377465729e-01 4.341143118764105857e-01 2.008882986501145385e-02 1.694375297672797154e-01 8.750950397491337462e-02 5.789897525216826102e-01 1.020112067628993202e+00 4.928221784589618126e-01 4.770589411383093781e-01 -2.283264426340666231e-01 7.759888023914115474e-01 4.750529640910903240e-01 6.032298912755494902e-01 4.980169237952918326e-01 4.908426408898090010e-01 1.677703874371199833e+00 7.457319360506000638e-01 4.119488193777816609e-01 -2.153118897593494507e-01 5.190051865404420317e-01 6.777283892205286930e-01 1.039689832946492087e-01 5.468413147516146822e-01 7.606475174358580116e-01 5.077517345259811021e-01 4.911890259266814551e-01 4.977633618972222007e-01 3.782072564320173025e-01 5.135247513489008542e-01 9.322066634801453588e-01 5.566446748320581506e-01 5.384998769769240301e-01 4.911888063703427343e-01 4.752948965601641595e-01 1.083696174769549714e+00 4.868063222653664646e-01 4.496461093508941076e-01 3.632803726266073951e-01 1.495054393616517818e-01 5.215538294815543763e-01 4.032594368556066677e-01 4.947562576024426284e-01 5.374671907162424933e-01 5.119287165549314400e-01 5.085175251960755149e-01 4.977206956658841719e-01 4.896125830438671778e-01 4.790697395988028351e-01 4.807219653980067120e-01 -3.245647041155413359e-01 6.207334673662947555e-01 7.829512223802760351e-01 4.193192951121865741e-01 6.553853976156904793e-01 4.877399486503955495e-01 7.722881098477351047e-01 8.279314575214844485e-01 -1.113297647313031963e-01 8.770406414435624187e-01 5.016590491639792981e-01 5.046655610707467821e-01 -3.861414774045430348e-02 6.659956408073198775e-01 3.823979853258757111e-01 4.556058956088566148e-01 9.344484257422402962e-03 -7.867028200133710514e-02 6.099692625185004768e-01 4.788507795622477525e-01 9.005170277440902038e-02 4.525545334068521997e-01 5.122091888942122972e-01 1.065183524803199777e+00 -9.678232648702460306e-02 4.662601505740180396e-01 -9.572122857521789818e-01 6.563229790921687457e-01 6.110300684413249028e-01 5.385660309841032722e-01 4.836911924186156342e-01 3.678353263342942769e-01 4.787476466262265418e-01 5.330340052579780608e-01 4.572780532106020535e-01 4.176796272578282010e-01 6.221310298851256970e-01 1.403110567922223995e+00 4.109045317145593734e-01 5.012461322063208602e-01 2.921141482429668312e-01 4.115333410821145899e-01 7.290973075358047062e-01 4.778118165835613107e-01 1.757091533983007547e+00 4.974019291948080790e-01 3.995680812744474841e-01 9.477313012262597036e-01 5.405218008921448547e-01 7.212922235713994379e-01 5.087493146490319473e-01 5.339631350389877351e-01 4.957493547694719616e-01 4.930253148459678991e-01 1.354142686216318059e-01 8.767659309063591255e-01 8.462839816774176960e-01 -7.747338911128341665e-02 5.961045648666692953e-01 5.457018127066629587e-01 6.118252915173287843e-01 -3.154338376047581827e-01 3.430964788263267118e-01 7.579700797825135172e-01 5.003381873859600315e-01 5.096090099909920124e-01 5.732684757992212443e-01 5.947310566455832337e-01 5.400320899162992516e-01 6.149472376294539133e-01 4.948885245731703408e-01 5.517776566324629206e-01 6.484249421799931010e-03 4.851318814440523930e-01 1.579214233221076791e+00 5.633527015360478840e-01 4.885174930353386458e-01 4.300158230125581960e-01 -2.099662861422507021e+00 4.967774655910804360e-01 9.247816549810905506e-01 4.851033416025655742e-01 5.808535785292762155e-01 -5.327546423001420228e-01 4.956140097304068126e-01 4.840767048885982748e-01 4.240644353092982155e-01 5.401749384035254842e-01 7.662617820616239861e-01 5.392430109759764889e-01 3.376718736954638644e-01 4.800198778227923735e-01 5.050303135822026279e-01 4.976974532534875206e-01 5.058566548558561804e-01 4.923691602386513488e-01 4.949440803306391912e-01 9.928990912997970320e-01 7.692961953344878978e-02 1.853817384366060361e+00 1.920249485562079084e+00 4.957336712287651603e-01 1.008795200435608080e-01 4.763453968220670021e-01 3.849394353972430127e-01 5.050650131473498616e-01 1.082742832028704916e+00 5.046329615269217195e-01 9.686351446609298144e-01 5.040453584541303433e-01 4.152561430827137468e-01 1.114246782276016923e+00 5.646940500027745058e-01 6.524337704297940022e-01 4.881395716566023779e-01 6.744805281553130083e-01 -1.889407585624233610e+00 1.244754932170024642e+00 5.307044081407857883e-01 6.386136453531233714e-01 5.120979738690353278e-01 7.934346996259534768e-01 4.536524527007094187e-01 5.235441867131067628e-01 3.685236705747147457e-01 5.341650726473810007e-01 1.354353058999579140e+00 2.961249766548368911e-01 4.911888170219457783e-01 4.525719142090566249e-01 5.566446748320527105e-01 3.700478940440949938e-01 4.263063410192507452e-01 7.643601587217083715e-01 5.070914599715558024e-01 5.210510010258294633e-01 4.805698529962874055e-01 6.315615801749617786e-01 4.952532786028777667e-01 3.884134885435285844e-01 5.235443998181436021e-01 5.901562061989822361e-01 4.880169749510755994e-01 6.695903021890969864e-01 1.002058506854295539e+00 8.027064354141295599e-01 5.010067404392000157e-01 5.166910537861468811e-01 7.364831402816937045e-01 1.791734687477382001e-02 7.045222200590287587e-01 5.895569745934653438e-01 6.947356562767346977e-02 4.955421508201873770e-01 9.745721935836371141e-01 5.591661633378516294e-01 3.785495955288721293e-01 2.376473501067261351e-01 -2.023767219521075966e-01 -1.563910615389927372e+00 4.855910935309848409e-01 5.566446748310305281e-01 5.566446748316709048e-01 5.306605329668743209e-01 3.093512037404402282e-01 6.473980346607646763e-02 4.910461792154987015e-01 5.028815896689905474e-01 4.165516868298275166e-01 4.955391378780104605e-01 1.156783406449557461e+00 4.911887982741594549e-01 4.865486452352963953e-01 5.270033048008136989e-01 3.894306772935584027e-01 4.932082021839190866e-01 5.908221610015442771e-01 3.573247053248447824e-01 7.145154758579259635e-01 4.688215400765365359e-01 2.688345366342623916e-02 5.566446748299473946e-01 5.695221893422465209e-01 5.100556826753340767e-01 6.600687420198665389e-01 7.050198130811541342e-01 7.342647678154848867e-01 5.483090389013935972e-01 9.425407735405676446e-01 5.441631135099505023e-01 -1.261397806329391580e+00 4.901101592770499837e-01 1.175502961184524908e+00 4.884636263064156547e-01 -4.115194364373976343e-01 4.819639538601800388e-01 4.089183026808528298e-01 9.241209111496789808e-01 4.951592739986272473e-01 7.141097612483306989e-01 4.897296317104557484e-01 9.535326146289878624e-01 5.405162945910901851e-01 6.139806570017695142e-01 5.091906642081909240e-01 5.269923624377739202e-01 6.747055423111515404e-01 4.878073204780122851e-01 8.268863257584684323e-01 1.554798694470911902e-01 4.067764870670533273e-01 4.925862984705372538e-01 6.690653983191632292e-01 5.249364324222022260e-01 7.122348807745590982e-01 4.914269571653716029e-01 6.207766846787667880e-01 5.495754076633211360e-01 4.881487946371396713e-01 1.677350664214670439e-01 1.010670627083720130e-01 1.437764080046218251e-01 7.997854541913398396e-01 5.010167486543655180e-01 2.328833717843779905e+00 5.615930166896662135e-01 6.808861407238420149e-01 5.751202348285788801e-01 7.383846439593326760e-01 2.794855469801770659e-02 4.954187210381609252e-01 5.042985501449899211e-01 5.673567554879509478e-01 1.007060602703127250e+00 7.115914119902166934e-01 4.902512014999762524e-01 4.263359886830680456e-01 7.997136881010084020e-01 5.089049016126413472e-01 5.011383508697461187e-01 4.895564574122975854e-01 4.859609019622194159e-01 4.921734264519692092e-01 7.108552170010036253e-01 5.341124954928860857e-01 4.903053222279442624e-01 8.105928747066071249e-02 5.244823138417528119e-01 3.262466335273855877e-02 5.200959677692494898e-01 4.831595105462881401e-01 4.950120862039587566e-01 6.634079280134701495e-01 5.135448621084086618e-01 4.661993509972018335e-01 3.096266679889753126e-01 5.071059215735693737e-01 5.296025938890219775e-01 4.507506379435443633e-01 6.282621196531622265e-02 4.882086415685513159e-01 4.398666394904859889e-01 5.077187744889969379e-01 5.000851995662036753e-01 4.293452275302884202e-01 4.039518558749869981e-01 4.991036365984635736e-01 4.370925313527138645e-01 4.126045050509360435e-01 5.942836079433856389e-01 8.403121970516292949e-01 6.436664726524383706e-01 4.350471263102950736e-01 5.737636467579069199e-01 1.469769835647332545e+00 4.902003530876958282e-01 4.691093819669442389e-01 6.490983858209998791e-01 4.951394062299236953e-01 2.125437056354038956e-01 4.372511822937931170e-01 -3.323146008972132082e-01 3.726706145276378335e-01 5.286463278267679033e-01 5.531549294095470248e-01 5.908180067843031846e-01 -9.153823880110029121e-02 4.317299315635753643e-01 4.818851992269866935e-01 6.054683180614270910e-01 5.595884306075420422e-01 5.373987425288927477e-01 4.880935718349389552e-01 4.820428321440101693e-01 -6.588080131034551590e-02 4.838889258160909979e-01 8.067237997015588302e-01 4.532615396667105112e-01 7.037303512288832497e-02 4.597713578023461256e-01 6.570822624535791467e-01 4.797720858914675257e-01 4.002196930961303134e-01 9.265772042973234868e-01 8.475898595190588525e-01 4.943094150213934168e-01 4.290091509286995120e-01 2.712615259699225900e-01 4.880516174104931881e-01 3.612038610608637734e-01 6.879914087387629662e-01 2.961290666939741037e-02 5.163153583724405804e-01 4.210299321903994141e-01 6.683377801582512934e-01 6.445445538307227329e-01 7.380401442109669752e-01 1.865138453189767731e-01 -4.080229953933038611e-02 -6.452746778515631998e-02 4.634120611020592917e-01 5.287279117272233320e-01 5.622834545506164572e-01 4.944216453823948587e-01 -3.867128924871648943e-01 2.299807996451924019e+00 5.347380427200029152e-01 5.421094769740498753e-01 1.045572812633411175e+00 4.919401786517118569e-01 4.811751140777712488e-01 5.344179807926069392e-01 5.987603987217718915e-01 5.161936704518621521e-01 5.413949514503466620e-01 3.958349925715159978e-01 3.890750018953575973e-01 4.949053001808867980e-01 5.321901227579791671e-01 4.174847765612929584e-01 5.823737710192120609e-01 5.274281869154796576e-01 5.723707424968673685e-01 6.894215305568219820e-01 1.774975548740658216e+00 5.727586473117654009e-01 4.964772318837459841e-01 5.440123201515075779e-01 3.545393062901432968e-01 4.278789402103136408e-01 5.037418016794810161e-01 4.992228878426320793e-01 4.959022941565440212e-01 5.250024795068649608e-01 4.191728439466033129e-01 4.886714082840585283e-01 4.801813623246782847e-01 6.172884070686003311e-01 1.026311313051643914e+00 9.666476036538894645e-01 2.919702968911621066e-01 7.288638575800584496e-01 5.226334184743368638e-01 4.216507140439957890e-01 1.674074147297675896e+00 2.214301472907426738e-01 3.777844125440166234e-01 4.897118092161866776e-01 3.000197480487569457e-02 5.786443568065620102e-01 1.186357408949979764e+00 4.418073642599814610e-01 8.326639328465992307e-01 4.844103428485571627e-01 4.907794450944685805e-01 5.348638706600511439e-01 5.742320659803797911e-01 4.964539671696705514e-01 4.812279562758465801e-01 4.825260622271372313e-01 5.582455458765065437e-01 5.317554722366588660e-01 5.012927372582655083e-01 4.174038162089573900e-01 5.308486939699861296e-01 4.305333029137206058e-01 7.288114632931671499e-01 5.696240813702065919e-01 4.133187546700099468e-01 7.220543200877747037e-01 -1.347732375464911203e-01 4.812209583682822145e-01 6.035017869634512477e-01 6.617366992719536656e-01 5.661393802639705930e-01 5.176167682169886541e-01 1.222782854762160393e-01 -9.712218228778246587e-01 4.037473446299404412e-01 4.666561225615052932e-01 6.865413566709889226e-01 4.831181655661417329e-01 4.790929446923828383e-01 5.497879803739291749e-01 -7.595696263430720685e-02 7.762719537852444951e-01 5.732699639335664399e-01 6.522680616850965452e-01 4.912973135222719057e-01 -1.194429455149020047e-01 -1.530524518083059005e-01 1.039370982459278281e+00 4.861993493471674643e-01 5.019161517810946105e-01 5.083546307811314113e-01 4.390451471285876650e-01 4.581521142860461859e-01 4.945836898432984796e-01 7.805741034827921032e-01 5.315547577804392576e-01 5.290914355335488706e-01 5.054294953782076938e-01 6.173953502399260884e-01 5.300869074236368439e-01 5.452792221391594696e-01 4.960463173130945091e-01 6.255332702704721193e-01 8.259444776781943443e-01 5.277262475338689862e-01 5.359565369829225601e-01 5.059219469430684679e-01 4.030168760164450914e-01 4.577763716655256498e-01 1.736178033587714581e-02 5.235441181997578797e-01 2.504659568360429467e-01 4.854637629187086856e-01 4.892587445219286901e-01 1.140052557098342634e+00 4.372531858176043618e-01 1.659677808612130823e-01 5.084906920921035134e-01 5.033652106901385093e-01 4.787436628202878519e-01 5.680853485210131115e-01 6.008045647802202627e-01 4.744159435061089947e-01 4.963003183307704846e-01 8.909267196060589589e-01 -3.477060789589889733e-01 1.395000381491599883e+00 8.399598601233924100e-01 7.448221654523530244e-01 1.981837532062457607e-01 3.733774233553559529e-01 7.020133540297303076e-01 1.749405131392343937e-01 4.867558108976675624e-01 5.567430700134051724e-01 2.142500919678404919e-02 5.216463810127107692e-01 3.824109640550015787e-01 4.875934016080976652e-01 9.463667933774221330e-01 5.111657152483360944e-01 3.001090593310985488e-01 2.857103260012484602e-01 4.592073714194307432e-01 5.755852388278166476e-01 4.950153680158921321e-01 4.481346590890409876e-01 5.438703749148409150e-01 -4.688665640062803508e-01 4.348359215411908285e-01 5.600149175423573267e-01 5.274768427374542101e-01 4.861324384845669977e-01 7.341122358975407103e-01 7.525938344362415044e-01 -2.798576638327430754e-01 1.003569811670281364e+00 7.934346864812078515e-01 4.383474221529162218e-01 4.650995945061906500e-01 9.021479356201131949e-01 5.344623583662367894e-01 4.944776122294918252e-01 5.226690259970336871e-01 8.935235310974429801e-01 4.992126873672407261e-01 4.525718022896529358e-01 1.140225648978150819e+00 2.605424622992237246e-02 6.802475497314983688e-01 -1.448578508447077862e-02 -4.910159720408485695e-01 -1.525106402536321737e-01 6.650191321429589353e-01 5.030114739447263394e-01 4.224910015696782817e-01 -2.785788691374940784e-01 5.009459162944446264e-01 6.330907093963922261e-02 6.274871557168534286e-01 4.582366594772416812e-01 5.184820472917716083e-01 4.868551336064916857e-01 5.234835008552416458e-01 6.019849968632530191e-01 7.532733510943948607e-01 1.681011057965136335e-01 4.952451812582653323e-01 5.396827098741555639e-01 5.452000583237590625e-01 9.861103068867471677e-01 3.627934875876260845e-01 7.062512261728669527e-01 4.600083501585836565e-01 7.023414457045373815e-02 7.118221207569301878e-01 5.219275666841278749e-01 4.976714870054368967e-01 5.029207346934595479e-01 4.862745218062854979e-01 3.978821200315484363e-01 4.907824187513100123e-01 5.346315797773403267e-01 6.168072577256823452e-01 5.914723380946056430e-01 7.622595078272436098e-01 1.844384220361715121e+00 -8.238853024890048504e-02 5.319494419861734436e-01 5.006366488095286282e-01 5.112985398839143825e-01 7.016877759881536836e-01 4.196846480729399809e-01 -5.801496497478423331e-01 5.011761452171876741e-01 1.918706426297009049e+00 4.873559371735118328e-01 3.205593850990062221e-01 3.984599808965167966e-01 5.732688158274170664e-01 6.981675481803887306e-01 1.054546199363482595e+00 4.124054464889909122e-01 3.131452230208214144e-02 5.420890270428204705e-01 8.642045576560954956e-01 3.355769247194370641e-01 6.339445954302860287e-01 5.004559707558844384e-01 7.418584891648076773e-01 4.824896014966025271e-01 3.853908203443029423e-01 -4.539480793402279890e-03 5.097836064177873050e-01 5.212320563901183812e-01 -3.238119451288963835e-01 6.449680421863461799e-01 9.852302407104780446e-01 2.637925885115098290e-01 4.483864556568306625e-01 9.319476016263190665e-01 4.855020866458386042e-01 1.648916449226141223e+00 3.596654508142692053e-01 3.648238940609455777e-02 4.206547998553225032e-01 5.040786412053843701e-01 2.933379700781560961e-01 5.051225842671724919e-01 2.849796420499269012e-02 4.810924700196447246e-01 -7.033762606718513277e-02 4.856640930186735261e-01 4.829010311115615184e-01 9.014501529948405756e-02 1.923572799586906537e-02 6.049610412801906811e-01 5.630307577008643038e-01 4.962880761197429602e-01 4.851965281830295518e-01 7.371942394352536398e-01 4.938211913220818539e-01 5.142484731983993917e-01 3.899803536828067019e-01 4.586964381758150133e-01 3.560200024676244968e-01 9.327866442444776585e-01 2.288488934647437745e+00 4.764205900695868690e-01 5.352346589201040228e-01 5.052381191790253911e-01 7.528437351040200010e-02 4.996890186429430170e-01 4.804891259631984268e-01 5.038843431279738105e-01 1.250637459423295406e+00 6.123696257158973699e-01 -3.061264546391420649e-01 1.042017524963628483e-01 4.851928698048028621e-01 5.714440274087768667e-01 4.958446414424181881e-01 5.126894066966819485e-01 5.003128404646157990e-02 4.978094616365663638e-01 4.526236368091091644e-01 -1.257828823360598758e+00 5.134503747590440925e-01 5.400772175194358260e-01 9.264030529132983860e-01 5.947681675231626386e-01 6.381796772996074507e-01 7.867890082585820011e-01 -4.361714602573695254e-01 -4.036833872084694130e-01 -1.910509541873313052e-02 5.473808581144250507e-01 4.345500608400134079e-01 1.151884763738888706e+00 4.854705890693190029e-01 -8.491411347663060938e-02 9.158666673113476930e-01 5.119392059901286540e-01 6.419497242609526477e-01 4.411242040419628418e-01 5.336724475486438468e-01 3.290219746804633472e-01 -2.762441893565228401e-01 4.439113761920503443e-01 4.952040649516495918e-01 2.934362763191464829e-01 5.202218108064432522e-01 3.606686350408669917e-01 4.982233967490469206e-01 5.038879710152535107e-01 4.790809998403461889e-01 5.371769455968778972e-01 5.262155260554242098e-01 7.934346827982707850e-01 4.076573018578377172e-01 4.969289798252324308e-01 1.330011681636408816e-01 5.301384231857106943e-01 5.215279199569241575e-01 5.129302101775756739e-01 3.022539337418636007e-01 2.159179149373794959e-01 6.685339443075999366e-01 3.413402406227997732e-01 3.742359730828663245e-01 5.063971305142446200e-01 4.618014544910425401e-01 3.993031877694800946e-01 5.005555044360143757e-01 5.070210559670118577e-01 1.003629251239825715e+00 6.948751581250133258e-01 -2.393688573013536269e-01 3.305404704981856345e-01 6.990903271512385331e-01 5.653411297934242130e-01 2.880555063225646584e-01 5.331839455793314642e-01 1.525231228551597595e-01 -1.849833499498085287e-02 8.413468899541717283e-01 4.059909368318274092e-01 5.327540311028867714e-01 6.979770144153436551e-01 5.037117818149728921e-01 4.970765742699504441e-01 1.188201705273661091e+00 4.036061729782388641e-01 4.994581158136915944e-01 3.984243991156673492e-01 2.424311256757685218e-01 1.042175705382004436e+00 3.325767027909185547e-01 4.126913400127462661e-01 3.517887166321501113e-01 -2.318138170677469245e-01 6.296076618988035722e-01 8.913145659082090111e-01 -6.206350374694025174e-01 5.065426613756005558e-01 5.370335453899410805e-01 -6.593925200158533284e-02 5.335098610855434353e-01 6.854113357002707962e-01 5.089600990463580832e-01 5.140379209787849790e-01 3.226494836503178143e-01 3.531776932280075720e-01 4.880367594331839198e-01 5.280049155714677811e-01 5.124135138895854480e-01 1.181682987124344775e-01 1.132794649112000451e+00 4.697890173156548665e-01 9.564347189250467229e-01 6.567156239087104108e-01 -3.266521738549730269e-01 6.995963997064628126e-01 4.900223130126205029e-01 3.176588889008728489e-01 5.016135045075084675e-02 3.372266250037877500e-01 4.883959038409494413e-01 4.985810540621596343e-01 3.236835577628340288e-01 7.814070389633190339e-02 5.058137913682363429e-01 4.400609413882614618e-01 5.054211549915973434e-01 1.675422467330136334e+00 8.902560580877141305e-01 3.328814412466340467e-01 4.986543125927473952e-01 1.392517660710428595e+00 2.922216389837996031e-01 4.923017629972454290e-01 9.011684922995965019e-01 5.235441168669648926e-01 4.832584782135656565e-01 4.378155161794488048e-01 5.103131142194018421e-01 4.908619353608840163e-01 4.316478272247284975e-01 5.077172878988953642e-01 5.442117649152838910e-02 5.349168351174732328e-01 6.707395304737115982e-01 4.676399544138802877e-01 4.833862979891710987e-01 4.462001051416467634e-01 3.915672187486966827e-02 3.183825321331999469e-01 -4.155950690861194285e-01 -1.728208220878430790e-01 5.131434291498780942e-01 4.829571143883165107e-01 6.004772251487271451e-01 5.306922598558819759e-01 4.570555416250049463e-01 4.708513379531198417e-01 5.235442580240440291e-01 4.941389733232509074e-01 5.608296669880250551e-01 4.134852880672421072e-01 4.968609728363337918e-01 1.064722901576657499e+00 4.677788622193521095e-01 4.776618089012628077e-01 1.294724554439160569e-01 4.895045676254307088e-01 5.188707918733743707e-01 5.365313638915473193e-01 8.184148184999598952e-01 5.338987895534492711e-01 8.399164411625289484e-01 7.757073532738665289e-01 5.010608530649659498e-01 4.092069634173702841e-01 2.483029854965033145e-01 7.047336792559674157e-01 1.455295273875016671e+00 5.342822309449545282e-01 2.535893055157362186e-01 5.078891933800026015e-01 4.918555328137383942e-01 9.847671986540252886e-01 4.047707472029269393e-01 8.033840286203335346e-01 4.875032658265423535e-01
7.562623183509677993e-01 3.132014304252076498e-01 6.940957974209328585e-01 3.537857802413117980e-01 3.523335386757040499e-01 2.507284041761361770e-01 2.773597364333176274e-01 5.032463235096440446e-01 3.023818231864667805e-01 3.321983643887049809e-01 1.552791083178804543e+00 1.358866078036996994e+00 -8.312295944035006379e-01 3.226218436868352191e-01 1.160440549930073229e-01 4.156758719379355371e-01 2.598410130769309156e-01 3.501424985597487161e-01 2.229525638243437524e-01 3.092818296813594214e-01 5.420527412101983078e-01 1.486906602826192803e+00 4.749943503059459449e-01 3.217377684519898695e-01 1.617874258657792941e-01 -6.224998524055009863e-01 4.550750819039185990e-01 3.849273970178576088e-01 2.859576753726470466e-01 -5.920688690189286618e-02 2.761497920151155805e-01 3.019975592716981905e-01 3.365401591782012369e-01 2.771540815051245499e-01 -1.215771803698757203e-01 3.929037565542155552e-01 1.644491606934673500e-01 2.421154010110813659e-01 -2.109661750915776679e+00 3.203874397256467610e-01 2.386203952995832184e-02 1.287638512536841973e-01 -3.934280124251590682e-02 6.748420345014825017e-01 9.033069234269165415e-01 3.219974000755790322e-01 3.486478570000073884e-01 3.433019926973522873e-01 3.210653986495670131e-01 7.619063266118560884e-01 7.761894882250190975e-01 5.285661719079876031e-01 -7.273802564680422744e-01 2.860564025311378988e-01 3.489900954218714269e-01 8.286050319239331996e-01 3.662452318103307514e-01 1.553603974788794750e-01 3.876259148646889474e-01 3.408072165447998958e-01 3.576535205623502800e-01 3.514862252520093433e-01 3.380248878308616534e-01 4.749944941278991251e-01 3.635963292761634214e-01 2.562728416166326073e-01 3.147160004030348235e-01 2.489988626500191926e-01 2.206354203529089231e-01 7.982054243750910105e-01 4.988303277563661542e-01 2.992710069294906017e-01 2.834102609038270382e-01 7.395635670504266956e-01 1.431851308372009468e+00 2.910088730243538535e-01 3.751354055246816088e-01 3.442931081225601431e-01 3.674001417355962085e-01 -8.738180063725123903e-01 2.877515706881804691e-01 9.231829002006936014e-01 9.966265025866258842e-01 3.079187773457192634e-01 3.552869864907609587e-01 -6.986992713792393728e-01 -4.731219859598491395e-02 2.661633383483047455e-01 -3.571002266407874437e-01 -3.745638984483081746e-01 9.100476939290178535e-01 9.722786828672473902e-01 2.262966198246387506e-01 6.929044616231441189e-01 5.201543114637435794e-01 2.805880405217293649e-01 1.579077412760309662e-01 1.951220107508103985e-01 7.706263680780889302e-01 -6.138773808170466806e-01 1.178599272676555398e-01 3.076657848939896578e-01 3.354322618385889854e-01 3.069685549293373339e-01 2.854537970116380885e-01 1.985488596753411494e+00 -1.294676630739534373e-01 -6.314021843150353641e-01 3.701196081250137659e-01 6.453655867688697922e-01 4.577069485550703809e-01 3.300511111060831504e-01 4.047185638366376237e-01 3.152640844410151133e-01 -5.565872671590640364e-01 3.445070861745068713e-01 4.067109561610879331e-01 4.716009216805647775e-01 -2.948747448024716111e-01 2.593353310070509177e-01 -1.007154291828903814e+00 2.902398071805867841e-01 2.165274493226956865e-01 2.775139569169229881e-02 3.854490987217876752e-01 1.533278454429002347e+00 5.280653929966622195e-01 3.687050102290029829e-01 3.219899399683840979e-01 3.208047887121158182e-01 3.136124218691859755e-01 3.118792554999459399e-01 2.378670932074316569e-01 1.773375961412998469e-01 3.996388417323423203e-01 9.160281557246411355e-01 8.058476793385749293e-02 8.227781083119896088e-01 -2.042533739198207077e-01 3.476841426614726838e-01 3.098833443182400504e-01 3.213187339584485103e-01 4.152007324570987090e-01 3.374865133899346281e-01 3.292933662019500995e-01 7.654447008504752237e-01 6.819831277988840368e-01 4.050705693429043630e-01 2.005605386974165238e-01 3.265419808674073221e-01 -5.567794417372823323e-01 1.006280227951202033e-01 3.224217046234003625e-01 2.829942405869285138e-01 4.292791852772286365e-01 2.694827214806423399e-01 -2.566956956927195221e-02 2.810136988579435280e-01 -4.466172827532199907e-01 -6.163418363445090087e-01 3.153772906433627288e-01 2.233490725543870598e-02 2.910642906140483155e-01 3.344509487521346580e-01 -1.131051862638980318e-03 -1.235447687937222677e-01 3.233513702362244002e-01 5.012807473249205614e-01 2.532547439709555426e-01 3.854068726568401493e-01 7.287136373753853036e-01 3.537703096943038417e-01 3.222142494836525706e-01 3.174678567855603317e-01 -1.764446445248973649e+00 7.734760609668049902e-01 8.417721330147455161e-01 9.683290719918282718e-01 -2.833231906663382649e-01 9.963575419449764992e-01 3.342052207357353311e-01 3.869857880629568037e-01 9.334338233549271946e-01 2.228259223941624623e-01 4.134957954246158418e-01 2.217749449753921298e-01 3.140690697202176973e-01 3.357788275048982363e-01 -7.417147848886122830e-02 1.504104426500667835e-01 2.547653296253484245e-01 5.507359948256542737e-01 3.583131379659026949e-01 1.768988671136107749e-01 4.257809105910231873e-02 3.149974951363710418e-01 -7.876175058496903691e-01 3.458284666649146799e-01 4.180536160217565023e-01 3.335512655798699155e-01 3.528282676993873546e-01 2.988422260058494762e-01 1.805240702434835753e-01 4.912037365615325862e-02 -9.302831912405419290e-01 4.180521913404598999e-01 3.694401716874124442e-01 -3.096381373439107687e-01 3.304256038662300998e-01 1.202046806929736034e-01 5.748191481888033083e-01 -2.102979078725546014e+00 3.152985572476489362e-01 7.254587721584522253e-01 3.271815479664963444e-01 2.917058074603716689e-01 3.048543637386619265e-01 3.114411505694996696e-01 2.711393115902150930e-01 3.247285644938807114e-01 3.705043614596811308e-01 3.461084841711424831e-01 4.996271140982659897e-01 9.172086149838337699e-02 2.169188530978475304e-01 4.469150294593602357e-01 9.374281231074743648e-02 3.430241071999532987e-01 1.382129368655182988e+00 -5.324054660611204220e-02 1.003541201013008921e+00 -1.111612860428907057e+00 3.260751731217924054e-01 2.982770137886143758e-01 2.605828561306221536e-01 1.939763227148587899e-01 -1.474202311771986573e-01 4.238128193895224216e-01 2.033829933841423132e-01 5.083169479003761815e-01 4.243855704096100023e-01 3.555721532458461231e-01 -8.154173282602291684e-01 4.193930483497181894e-01 3.067562191884759537e-01 5.019553451483217688e-02 1.035533194685612557e+00 3.444636698194675217e-01 1.798564243379812799e+00 1.424135271128677827e-01 1.983123184150140939e-01 2.878894499004484575e-01 3.473183307372906259e-01 4.749992467473205804e-01 3.009153862605742913e-01 2.922548639397621884e-01 -4.926899407443396939e-02 4.251812809597626530e-01 2.719137028392589750e-01 5.124967318094241220e-01 3.416408044136829414e-01 3.215634467903628613e-01 3.184203137019732122e-01 3.455264914701822176e-01 3.702225477962545752e-01 3.158063880615135516e-02 1.970350502268675807e+00 3.425148445990506829e-01 6.703688298756672603e-01 7.461041717409015728e-02 2.665184815200427604e-01 3.302665458936883125e-01 3.071499433757906017e-01 2.930354102737079969e-01 3.328222096726973223e-01 3.642606691540615782e-01 1.257025734610866807e-01 2.801320145260865480e-01 -5.460835482370892530e-02 9.462282099179750161e-02 1.141221653885609033e+00 2.833074877254993518e-01 -2.096340907176234142e-02 1.649242168759799121e+00 3.279060902407162081e-01 7.175063480562198226e-01 3.146405886435212906e-01 3.224989819239069688e-01 3.445072329848629655e-01 -1.498790032975548803e+00 2.766459436337702082e-01 2.503543112596061659e-01 3.291559612284153946e-01 -5.119609796491151332e-01 7.998817090989792655e-01 3.354841714620979687e-01 -4.584106678394634371e-01 2.538917910722813254e-01 3.445913628333149292e-01 2.002358062037043474e-01 -1.553061597801473348e-01 3.161649900483060605e-01 -1.274227986429316561e-01 3.491572916751060629e-01 2.797736610959657977e-01 6.551141855867302910e-01 3.207669202500477157e-01 3.626594350339469863e-01 3.577755815512338455e-01 2.679609129258507250e-01 1.764333231803992541e-01 -5.140416331935667715e-01 1.000457407274855520e-01 3.775336995834722709e-01 3.382825892095592812e-01 3.110977150613526976e-01 3.167672063164541085e-01 3.532787068918615825e-01 3.217086080599310671e-01 1.722448574393868004e+00 7.614612491708836473e-01 2.416346738940307881e-01 -6.640831176963567506e-01 3.564993125548269748e-01 2.813175584977849919e+00 3.663453358793185011e-01 4.157118141333503158e-02 5.118256788351600584e-01 -3.591984651951138030e+00 3.488455923829585359e-01 1.004163495379703841e+00 3.342176866780590117e-01 5.332885610590178960e-01 -2.941813979571664128e-01 2.057092640717195220e-01 2.346213871115427618e-01 3.176138462864428469e-01 3.766787718135707341e-01 1.784558255352056921e+00 -1.883532792950322055e-01 2.869608786157126223e-01 -1.520932789974115851e+00 3.513329558381319551e-01 2.421154000928498751e-01 4.597653512035122514e-01 2.760392103964469657e-01 3.409447259103739469e-01 4.438417208892312948e-01 1.333179230324490705e+00 4.277362902537924505e-01 4.180545958852713850e-01 4.194182008287045127e-01 4.912037365619750795e-02 1.835618892374761557e-01 4.207064045030478039e-01 -4.103615398787122115e-01 3.134570404861500847e-01 4.589297119796595936e-01 4.876646972673155944e-01 1.945801886175581308e-01 3.290202478561706778e-01 2.761949492406610696e-01 2.760386805466045201e-01 3.778736858762282158e-01 3.562161384412770304e-01 3.080999979566115821e-01 7.543167339350450584e-01 1.593706306169155873e+00 3.142532199674989424e-01 2.396488350043398108e-01 3.574763025293422047e-01 9.111176463709919071e-01 3.418142385800489458e-01 2.421540585889453145e-01 7.668084164577112505e-01 3.301888728799023398e-01 2.157100300145632643e-01 2.083836285350552653e-01 5.641124828922483569e-01 9.117314187975262829e-01 5.635730220948720337e-01 6.734234635407664316e-01 3.270739190535388308e-01 4.912037365869625916e-02 4.912037365156918245e-02 2.920864779983921022e-01 2.252442313126194751e-01 1.083763918085613343e+00 -9.294375272617169670e-02 3.252534426929042932e-01 3.039205383822207174e-01 3.163761429795801106e-01 9.119860783517861336e-01 4.180517384959815952e-01 3.321554044125278327e-01 2.688768363829909802e-01 -4.332479059751308259e-02 -4.378075264755086349e-01 1.981077491018832237e-01 2.669277205585379176e-01 1.393643263097284757e-01 3.039243035664448978e-01 7.444756991581820138e-01 4.912037366423686879e-02 -4.066305993657413076e-01 3.386175295237554006e-01 1.427907506148446415e-01 -3.950048093729739418e-01 1.407453500662635415e-01 -2.293232501461134998e+00 8.658736429676103796e-01 2.725226140294019772e-01 -6.998343590477208720e-02 3.537100637485784960e-01 1.436503144849612612e+00 3.305414339192341844e-01 4.612681842094316087e-01 7.538042979462593607e-01 2.704266957744321798e-01 1.593191258784612818e-01 3.467907695747423080e-01 7.695813784626065468e-01 3.557525365243085491e-01 1.451486455998582503e+00 3.346175770502287650e-01 3.773343486742491981e-01 3.217508249211858407e-01 2.946827377584768093e-01 -1.040349452705607858e+00 3.553070671394997770e-01 1.042806952678570487e-01 3.747965975274397121e-01 4.358467975893836055e-01 3.579467002395149700e-01 3.000191757043501606e-01 2.949246817721721814e-01 -1.213051547722938384e-01 3.201659581750346817e-01 9.172394749954965176e-02 2.646281965765691635e-01 3.702594091741954196e-01 6.070457382544194314e-01 7.378157758868905125e-01 8.508352210506866520e-01 -7.577633729750481439e-01 4.257279071944560789e-01 1.577468882047774676e-02 -3.935699177856211151e-01 1.467697919145195817e-01 3.268906396686172555e-01 3.110230921813085248e-01 7.587856956644404294e-01 3.435629051838858250e-01 3.503409989543130876e-01 2.664050266471297279e-01 1.341508343829938554e-01 -1.213530874149939959e-01 3.310737273832574656e-01 4.217117690196277024e-01 3.873241321011528515e-01 3.017928194781980822e-01 2.231833480221489530e-01 3.282701341265715778e-01 2.035565088303864789e-01 3.399681035702957765e-01 3.543383486741237820e-01 2.902628026054868693e-01 3.415191190171263380e-01 7.653622419933103771e-01 2.390057871118544397e-01 7.687072805239464346e-01 -3.280298921072298535e-02 3.300227777934007234e-01 3.335321852309463542e-01 -1.061541326329355606e+00 3.025230122374210073e-01 3.829477818461037297e-01 4.933220808836930038e-01 3.424954302232356973e-01 2.667501144506412292e-01 4.259600522726091354e-01 7.918981314077363498e-01 3.176175515212512623e-01 4.474305024198310110e-01 3.164320370772547575e-01 3.403977330070548368e-01 3.434891320796917280e-01 1.764986401909681424e-01 3.368232432208610461e-01 -4.937131934179669890e-02 4.364966425932265137e-01 2.666191950554305801e-01 1.080981398811490468e+00 2.832058689358114556e-01 4.230302903518172175e-01 2.632662448910781383e-01 -4.526858481689931546e-01 3.352391904978974102e-01 4.487143554309457327e-01 4.250326561813160264e-01 3.293064973284709485e-01 5.292731179904963668e-01 -5.761370638203962974e-02 7.877106639094836327e-01 4.886055125318747860e-01 2.921660643388043765e-01 2.818318578548866249e-01 1.966801283553207269e-01 6.144258241586946223e-01 2.090673235219381088e+00 3.685557677003918342e-01 2.531374441202228764e-01 5.640607190936052229e-01 2.890330932794465957e-01 3.164249939812970314e-01 3.702502661257666694e-01 6.527907901344117692e-01 3.053898539406247337e-01 2.320590877803133806e-02 4.133520999278847974e-01 4.668241500570197849e-02 -1.186235331892089434e-01 1.673892514667062459e-01 3.172051651790721571e-01 3.495512899670024654e-01 1.335823306350955697e+00 4.585071885906274458e-01 3.422599985558950619e-01 5.656085788424682903e-01 2.583414952450681645e-01 3.490373594562149462e-01 2.979319863047025785e-01 2.091159562511903380e-01 7.492335544720374330e-01 3.089027662808279118e-01 4.029463275960921131e-01 1.755728966422293591e-01 2.664296604631946064e-01 1.384024823983756036e-01 4.779752189860424494e-01 9.022465208420203941e-01 3.677743459222249656e-01 3.161637825690119530e-01 2.695063257978148052e-01 4.151550970413479535e-01 3.154587046203355949e-01 5.130771023642015649e-01 5.889575135334129685e-01 3.591943743669473998e-01 2.890513137363951990e-01 4.914551374700622532e-01 3.284159910945642635e-01 3.419849974220750544e-01 3.075713209055622177e-01 2.520992031249242871e-01 5.391122434992889900e-01 2.969240253611482583e-01 4.596053380077440575e-01 4.133534735266680138e-01 2.484697664646937365e-01 2.857699439446891310e-01 1.075729922802053595e+00 1.282374630995053999e-01 2.903530159027317703e-01 2.848957262157315040e-01 6.584445230883300137e-01 8.987664995357472764e-01 3.322192075362428443e-01 -2.941199063835591571e-02 -7.655696570275567769e-02 4.043304720664415153e-01 3.650627903809523511e-01 3.397552045137297583e-01 3.363515574555728804e-01 3.728635798702590876e-01 2.899876225310691891e-01 3.009475080229229715e-01 3.490125567366149095e-01 4.558918368461633008e-01 3.570348294542030620e-01 8.079916917099059237e-01 -3.788348361295207356e-02 6.336127366765974545e-01 3.686380672661704883e-01 2.818537743232162884e-01 -8.734043862567847372e-03 4.577891423800523052e-01 9.084401858231486715e-01 3.879134614036314210e-01 5.745503874406278078e-01 1.206125599563578454e+00 3.015048919585295306e-01 1.396210904650893259e+00 5.179929145786176248e-01 1.646070542202983378e-01 3.465516897937028218e-01 3.541678207140036005e-01 2.825085946746536125e-01 3.854063292915890226e-01 3.390339363789505733e-01 3.571121056488183454e-01 1.216571641548462590e-01 2.571658735916067529e-01 3.467545970302108316e-01 2.961505534404790252e-01 4.080997074421243709e-01 2.851108518579753559e-01 2.002938755008965566e-01 3.686035957360488391e-01 3.319078211102255427e-01 3.049663732674126049e-01 -1.224025587569067264e-01 1.408022109732974592e+00 3.290350735008397698e-01 1.641829071059265344e-01 3.085777760177194629e-01 1.596295194502400649e-01 3.410615840975442792e-01 -3.119764455584772112e+00 2.470142125351239670e+00 4.877570016121652863e-01 4.007529973644979315e-01 1.671509206444184437e-01 3.346303406535005021e-01 3.812564592296168731e-01 1.817441984942750555e+00 4.782480197665829880e-01 3.552643876441708981e-01 3.445068366053939957e-01 8.614241256190268148e-01 3.541037471197183151e-01 9.084474091187911826e-01 -3.176775804068082687e-01 -3.224197506341917041e-01 -5.552228393274240004e-01 2.981184209634441529e-01 3.447533985428660741e-01 3.886580974700087343e-01 4.255980842399678110e-01 3.235978138056050391e-01 1.466274523852491574e-01 2.604882999536676791e-01 2.950743401152488565e-01 2.727879971289841610e-01 1.587211708650392294e-01 2.958991076174991575e-01 2.693220142834120145e-01 3.050747074932519398e-01 3.768499854526587423e-01 1.006449045009686488e-01 2.887784073771106907e-01 2.916114706818954128e-01 3.176671622869373657e-01 3.933234181398797547e-01 3.277745028823603191e-01 7.908397583142308118e-01 2.760391406717800922e-01 4.655943113903009967e-01 3.369623670341179156e-01 2.882379462514075841e-01 1.919218581271300850e-01 -5.765239927995948616e-02 8.709228859553639346e-01 3.345425069313550104e-01 3.268780858202213757e-01 3.457377384088189398e-01 2.105378975592029356e-01 2.209488513788869790e-01 9.069683312612385195e-02 3.271345904646731917e-01 1.920539304492352439e-01 6.033344215363746210e-01 5.747939168038819213e-01 1.945055529255317328e-01 1.341819962835858471e+00 1.733371900330814286e-01 1.153606160892623328e-01 4.419513906123603286e-01 -3.996846000077696748e-01 3.309091143770956922e-01 3.186913644947496072e-01 7.336357121335529419e-01 3.012028564162929078e-01 3.986140745680161190e-01 3.762065412211456072e-01 2.281583961332081523e-01 3.111618969676779312e-01 6.828670640719370910e-01 4.669491645860903706e-01 4.177129271673705180e-01 2.934680317472208033e-01 3.195184815750808371e-01 3.926231525741392114e-01 2.356241380956480280e-01 3.386935906860959467e-01 -3.318264779652651542e-01 2.054474304226055204e-01 2.839455822143287511e-01 3.542905910829752814e-01 3.566808403937156702e-01 1.152043546563934484e+00 6.999415122410103107e-01 -6.850425470346377388e-01 2.421155083378655481e-01 3.341443820015641553e-01 -2.200719362780055199e+00 1.302170443040698622e+00 2.896817843548203375e-01 3.524207442764788478e-01 3.240697192683227312e-01 5.272177168385466794e-01 3.158503879695841454e-01 4.194033760541236999e-01 -3.087646470187300207e-01 7.957474895288763062e-01 2.733144650130450368e-02 9.411354117711930867e-01 1.572092614512260234e+00 -3.170429762961110010e-01 -1.053408698217338069e+00 3.183476962776383701e-01 6.305133650436047787e-01 9.635983432245949221e-01 2.872752298660039005e-01 7.491142712948678506e-01 1.430582102811751577e-01 2.610869956334119224e-01 2.983332589305087712e-01 3.369177099410052834e-01 2.930330980664689333e-01 -2.130007438069686510e-02 8.710546980815891960e-01 8.443473282753519715e-01 3.184777830676424060e-01 2.607056124536129005e-01 4.661122607396250839e-02 -1.188888307446672211e-02 4.571949041095769717e-01 1.778963163421334592e-01 3.853118526238419883e-01 7.558057637946761220e-01 7.717022914568349989e-01 2.790063098026460686e-01 3.353282031290966692e-01 3.098386538249251476e-01 3.373484110028208138e-01 3.512652233210225572e-02 3.344460214027548117e-01 2.908415408023820592e-01 4.318050881629670879e-01 1.977832864047993355e-01 4.813920956706412846e-01 8.167511853868186789e-01 9.425703563614591385e-01 3.860200687555558896e-01 3.369371466354190159e-01 3.158024936559243878e-01 -5.029474567819898490e-02 1.540873217093247094e-01 -9.781627129041531310e-01 3.173452784840908314e-01 5.475975547758162865e-01 3.587006789072942903e-01 4.958524589031929608e-01 1.025293002067273473e+00 3.445070659861113604e-01 1.434445107449867363e-01 3.337158119730200267e-01 1.823949145995766852e-01 7.772714761258079363e-01 4.468513371921803423e-01 -1.291792735474680404e-02 5.136262877120429948e-01 2.133860370216846269e-01 3.331751085105846277e-01 3.694022900423784561e-01 3.869990176081860578e-01 1.263160218424171644e-01 2.162381633057434138e-01 2.808669054925296837e-01 2.982273313309271590e-01 7.881403904001751393e-01 1.559446930633853756e-01 -1.101050438942794696e-01 7.097128745060662380e-01 3.173456353187438239e-01 2.697720425297729929e-01 3.609648968004229852e-01 1.046805882334877147e+00 1.940768895194387375e-02 7.472066678403376239e-01 2.955910853583960107e-01 3.269622464358176717e-01 4.928274164501786347e-01 2.818474641249024137e-01 7.982129737191417940e-01 3.181287697727633867e-01 9.535309930216635532e-01 3.728823038361779862e-01 3.550475055553722892e-01 7.120778628422490542e-01 -6.168868202181067122e-03 -1.522598331910610669e+00 1.847211044668634339e-01 3.362414353227556885e-01 3.324197435775937959e-01 7.289978151469208578e-01 3.369775160735307140e-01 2.694897011531653952e-01 4.573879923638903278e-01 4.063710978368575977e-01 4.314468010299912781e-01 -1.310597077272462219e+00 6.163925715438268726e-01 3.180625681562821438e-01 2.861284868225912881e-01 3.131702132736550181e-01 6.864464105258536453e-01 3.184936111309644713e-01 3.481316304203553869e-01 3.625831830768636577e-01 9.626269594385284956e-01 3.517958077184465404e-01 3.995719649531547235e-01 1.075111094061005357e+00 3.928366163331220573e-01 1.526439784409038714e+00 3.497239507785286361e-01 3.060249924569918289e-01 7.699379862429996946e-01 3.255311602224125189e-01 3.673649552923284878e-01 -7.140287626401478072e-01 3.626536881924158906e-01 2.911967889920107910e-01 4.446834200195107778e-01 1.671409410366397619e-01 4.864038559704481623e-01 -6.195301995954941576e-01 1.464764263170961645e+00 -4.073675458574377850e-01 4.730025219202064202e-01 2.215229895461841292e-01 4.112075418289080631e-01 3.990472461933651238e-01 3.500528159995655031e-01 9.101339563673882527e-01 -7.362040147079054742e-02 3.078300199003768389e-01 -5.445264398503363301e-01 5.114747983113274721e-01 2.825374960040230032e-01 -1.730340837344665594e+00 1.937450358441907161e+00 4.057076654134901816e-01 3.188787134918126265e-01 -7.591280564898343908e-01 2.854140833082902673e-01 3.038502467840021454e-02 3.402154544756449406e-01 3.249190295401025441e-01 5.585478563273538199e-01 2.740337500040064822e-01 2.978464986747896281e-01 2.421153633131960248e-01 5.087606474829702297e-01 3.242230022872459316e-01 -8.339507788035888103e-01 2.923244683475175187e-01 -4.468293425069889135e-01 3.428522133280896833e-01 -4.991325050810960923e-02 2.928757987044409705e-01 2.812207098868300670e-01 4.599064250266685638e-01 4.842891564145058170e-01 3.116771042261696212e-01 3.509539664479899290e-01 4.397175625153021405e-01 3.370582494667969664e-01 3.228439546283179418e-01 -6.858511255371222415e-01 1.293819179942038156e-01 1.238565032900993623e+00 7.740567237733801675e-04 2.807473636390581118e-01 2.645732501622600763e-01 1.196290545026996943e+00 2.884298200224998943e-01 2.487101100636258666e-01 9.120907987838727804e-01 1.583362641520967840e-01 1.157875956676127860e+00 2.985571827981824411e-01 3.864920193097095558e-01 3.294999422107573461e-01 3.283607013723862655e-01 1.172560120631139791e+00 4.649309075952164916e-01 2.123286946056096025e-01 4.095902628136972590e-01 4.275550578805348279e-01 9.295715039929289270e-02 -3.097845771369701628e-01 4.018636321166704217e-01 6.587788991935216165e-01 1.809796638406155900e-01 4.293625424072140540e-01 5.619680303279991906e-02 1.232364584379299410e+00 2.799335161360908542e-01 2.902359665797960564e-01 -1.658000064510767757e+00 2.920597451160404923e-01 3.069484793079247376e-01 2.984375409832165094e-01 2.392619488968449060e-02 3.280937473793451575e-01 -8.261547289823775730e-02 1.321954285358974135e-01 2.851914324246102583e-01 3.367487636998873213e-01 1.077299441182748785e+00 1.246451180882919146e-01 3.417950012754599753e-01 -1.016387973644078846e+00 2.190442841920588468e-01 7.888319243637822442e-01 8.212534177690374859e-01 3.322251410997408838e-01 -2.468077201831020973e-01 7.640133720673194517e-01 4.030231885552761906e-01 3.459630568936170048e-01 3.565581207181663936e-01 6.369126540088396737e-01 7.640490779209396788e-01 3.221842434838431690e-01 3.299911416191847469e-01 3.196951764894660486e-01 5.998747747339245873e-01 5.539474152846883825e-01 -1.275907292201270637e+00 3.103226703888020133e-01 5.033534611151480043e-02 4.543317725691009556e-01 3.419058644272691128e-01 2.840002328405258902e-01 2.760391840739198077e-01 3.454926781317994022e-01 3.694052690102812564e-01 3.375430150279204455e-01 3.294507451156808431e-01 3.715285002065477071e-01 3.552405965128687115e-01 -1.795623971554832776e-01 2.879407944680758558e-01 2.696846508988695046e-01 2.538139011486160168e-01 2.727644182799763284e-01 3.510641226811593296e-01 3.529648862385336705e-01 3.470801863035169466e-01 6.746139432457691765e-01 4.442624387817018516e-01 3.225513880284767154e-01 3.422764384417261718e-01 -1.538527873059683415e+00 2.943639281378642170e-01 1.541546218465741913e-01 2.686818809776596040e-01 2.760392430068109859e-01 3.334579413718417040e-01 2.158923154389364163e-01 3.146658076231692025e-01 3.654874797632188255e-01 1.909324025974713235e-01 3.834204026861594561e-01 3.154316406601065936e-01 4.793276352043256416e-01 3.222818655800158139e-01 3.248096663443966747e-01 2.902744487431974107e-01 4.406234121117155178e-01 2.897844854398327619e-01 3.177338519469380951e-01 8.934373475944895268e-03 3.465515113012841431e-01 3.661656512712684330e-01 9.554104855811985930e-02 -4.131603222239722539e-01 2.350041515070390830e+00 2.902729727625943390e-01 7.134998793180741261e-01 2.466372983638024374e-01 3.375894440644235384e-01 1.149094578699360047e+00 5.835207257860998142e-01 7.616945328276807370e-01 3.163354265064858284e-01
