# 
#                 ----------------------------------------------------
#                 Data from a 3D direct N-body simulation. 
# 
#                 rows are i-particle; 
#                 coumns are :mass, tag, x ,y, z, vx, vy, vz, ax, ay, az
# 
#                 NTHU, Computational Physics 
# 
#                 ----------------------------------------------------
#                 Time = 0.0
0.000000000000000000e+00 1.000000000000000000e+00 2.000000000000000000e+00 3.000000000000000000e+00 4.000000000000000000e+00 5.000000000000000000e+00 6.000000000000000000e+00 7.000000000000000000e+00 8.000000000000000000e+00 9.000000000000000000e+00 1.000000000000000000e+01 1.100000000000000000e+01 1.200000000000000000e+01 1.300000000000000000e+01 1.400000000000000000e+01 1.500000000000000000e+01 1.600000000000000000e+01 1.700000000000000000e+01 1.800000000000000000e+01 1.900000000000000000e+01 2.000000000000000000e+01 2.100000000000000000e+01 2.200000000000000000e+01 2.300000000000000000e+01 2.400000000000000000e+01 2.500000000000000000e+01 2.600000000000000000e+01 2.700000000000000000e+01 2.800000000000000000e+01 2.900000000000000000e+01 3.000000000000000000e+01 3.100000000000000000e+01 3.200000000000000000e+01 3.300000000000000000e+01 3.400000000000000000e+01 3.500000000000000000e+01 3.600000000000000000e+01 3.700000000000000000e+01 3.800000000000000000e+01 3.900000000000000000e+01 4.000000000000000000e+01 4.100000000000000000e+01 4.200000000000000000e+01 4.300000000000000000e+01 4.400000000000000000e+01 4.500000000000000000e+01 4.600000000000000000e+01 4.700000000000000000e+01 4.800000000000000000e+01 4.900000000000000000e+01 5.000000000000000000e+01 5.100000000000000000e+01 5.200000000000000000e+01 5.300000000000000000e+01 5.400000000000000000e+01 5.500000000000000000e+01 5.600000000000000000e+01 5.700000000000000000e+01 5.800000000000000000e+01 5.900000000000000000e+01 6.000000000000000000e+01 6.100000000000000000e+01 6.200000000000000000e+01 6.300000000000000000e+01 6.400000000000000000e+01 6.500000000000000000e+01 6.600000000000000000e+01 6.700000000000000000e+01 6.800000000000000000e+01 6.900000000000000000e+01 7.000000000000000000e+01 7.100000000000000000e+01 7.200000000000000000e+01 7.300000000000000000e+01 7.400000000000000000e+01 7.500000000000000000e+01 7.600000000000000000e+01 7.700000000000000000e+01 7.800000000000000000e+01 7.900000000000000000e+01 8.000000000000000000e+01 8.100000000000000000e+01 8.200000000000000000e+01 8.300000000000000000e+01 8.400000000000000000e+01 8.500000000000000000e+01 8.600000000000000000e+01 8.700000000000000000e+01 8.800000000000000000e+01 8.900000000000000000e+01 9.000000000000000000e+01 9.100000000000000000e+01 9.200000000000000000e+01 9.300000000000000000e+01 9.400000000000000000e+01 9.500000000000000000e+01 9.600000000000000000e+01 9.700000000000000000e+01 9.800000000000000000e+01 9.900000000000000000e+01 1.000000000000000000e+02 1.010000000000000000e+02 1.020000000000000000e+02 1.030000000000000000e+02 1.040000000000000000e+02 1.050000000000000000e+02 1.060000000000000000e+02 1.070000000000000000e+02 1.080000000000000000e+02 1.090000000000000000e+02 1.100000000000000000e+02 1.110000000000000000e+02 1.120000000000000000e+02 1.130000000000000000e+02 1.140000000000000000e+02 1.150000000000000000e+02 1.160000000000000000e+02 1.170000000000000000e+02 1.180000000000000000e+02 1.190000000000000000e+02 1.200000000000000000e+02 1.210000000000000000e+02 1.220000000000000000e+02 1.230000000000000000e+02 1.240000000000000000e+02 1.250000000000000000e+02 1.260000000000000000e+02 1.270000000000000000e+02 1.280000000000000000e+02 1.290000000000000000e+02 1.300000000000000000e+02 1.310000000000000000e+02 1.320000000000000000e+02 1.330000000000000000e+02 1.340000000000000000e+02 1.350000000000000000e+02 1.360000000000000000e+02 1.370000000000000000e+02 1.380000000000000000e+02 1.390000000000000000e+02 1.400000000000000000e+02 1.410000000000000000e+02 1.420000000000000000e+02 1.430000000000000000e+02 1.440000000000000000e+02 1.450000000000000000e+02 1.460000000000000000e+02 1.470000000000000000e+02 1.480000000000000000e+02 1.490000000000000000e+02 1.500000000000000000e+02 1.510000000000000000e+02 1.520000000000000000e+02 1.530000000000000000e+02 1.540000000000000000e+02 1.550000000000000000e+02 1.560000000000000000e+02 1.570000000000000000e+02 1.580000000000000000e+02 1.590000000000000000e+02 1.600000000000000000e+02 1.610000000000000000e+02 1.620000000000000000e+02 1.630000000000000000e+02 1.640000000000000000e+02 1.650000000000000000e+02 1.660000000000000000e+02 1.670000000000000000e+02 1.680000000000000000e+02 1.690000000000000000e+02 1.700000000000000000e+02 1.710000000000000000e+02 1.720000000000000000e+02 1.730000000000000000e+02 1.740000000000000000e+02 1.750000000000000000e+02 1.760000000000000000e+02 1.770000000000000000e+02 1.780000000000000000e+02 1.790000000000000000e+02 1.800000000000000000e+02 1.810000000000000000e+02 1.820000000000000000e+02 1.830000000000000000e+02 1.840000000000000000e+02 1.850000000000000000e+02 1.860000000000000000e+02 1.870000000000000000e+02 1.880000000000000000e+02 1.890000000000000000e+02 1.900000000000000000e+02 1.910000000000000000e+02 1.920000000000000000e+02 1.930000000000000000e+02 1.940000000000000000e+02 1.950000000000000000e+02 1.960000000000000000e+02 1.970000000000000000e+02 1.980000000000000000e+02 1.990000000000000000e+02 2.000000000000000000e+02 2.010000000000000000e+02 2.020000000000000000e+02 2.030000000000000000e+02 2.040000000000000000e+02 2.050000000000000000e+02 2.060000000000000000e+02 2.070000000000000000e+02 2.080000000000000000e+02 2.090000000000000000e+02 2.100000000000000000e+02 2.110000000000000000e+02 2.120000000000000000e+02 2.130000000000000000e+02 2.140000000000000000e+02 2.150000000000000000e+02 2.160000000000000000e+02 2.170000000000000000e+02 2.180000000000000000e+02 2.190000000000000000e+02 2.200000000000000000e+02 2.210000000000000000e+02 2.220000000000000000e+02 2.230000000000000000e+02 2.240000000000000000e+02 2.250000000000000000e+02 2.260000000000000000e+02 2.270000000000000000e+02 2.280000000000000000e+02 2.290000000000000000e+02 2.300000000000000000e+02 2.310000000000000000e+02 2.320000000000000000e+02 2.330000000000000000e+02 2.340000000000000000e+02 2.350000000000000000e+02 2.360000000000000000e+02 2.370000000000000000e+02 2.380000000000000000e+02 2.390000000000000000e+02 2.400000000000000000e+02 2.410000000000000000e+02 2.420000000000000000e+02 2.430000000000000000e+02 2.440000000000000000e+02 2.450000000000000000e+02 2.460000000000000000e+02 2.470000000000000000e+02 2.480000000000000000e+02 2.490000000000000000e+02 2.500000000000000000e+02 2.510000000000000000e+02 2.520000000000000000e+02 2.530000000000000000e+02 2.540000000000000000e+02 2.550000000000000000e+02 2.560000000000000000e+02 2.570000000000000000e+02 2.580000000000000000e+02 2.590000000000000000e+02 2.600000000000000000e+02 2.610000000000000000e+02 2.620000000000000000e+02 2.630000000000000000e+02 2.640000000000000000e+02 2.650000000000000000e+02 2.660000000000000000e+02 2.670000000000000000e+02 2.680000000000000000e+02 2.690000000000000000e+02 2.700000000000000000e+02 2.710000000000000000e+02 2.720000000000000000e+02 2.730000000000000000e+02 2.740000000000000000e+02 2.750000000000000000e+02 2.760000000000000000e+02 2.770000000000000000e+02 2.780000000000000000e+02 2.790000000000000000e+02 2.800000000000000000e+02 2.810000000000000000e+02 2.820000000000000000e+02 2.830000000000000000e+02 2.840000000000000000e+02 2.850000000000000000e+02 2.860000000000000000e+02 2.870000000000000000e+02 2.880000000000000000e+02 2.890000000000000000e+02 2.900000000000000000e+02 2.910000000000000000e+02 2.920000000000000000e+02 2.930000000000000000e+02 2.940000000000000000e+02 2.950000000000000000e+02 2.960000000000000000e+02 2.970000000000000000e+02 2.980000000000000000e+02 2.990000000000000000e+02 3.000000000000000000e+02 3.010000000000000000e+02 3.020000000000000000e+02 3.030000000000000000e+02 3.040000000000000000e+02 3.050000000000000000e+02 3.060000000000000000e+02 3.070000000000000000e+02 3.080000000000000000e+02 3.090000000000000000e+02 3.100000000000000000e+02 3.110000000000000000e+02 3.120000000000000000e+02 3.130000000000000000e+02 3.140000000000000000e+02 3.150000000000000000e+02 3.160000000000000000e+02 3.170000000000000000e+02 3.180000000000000000e+02 3.190000000000000000e+02 3.200000000000000000e+02 3.210000000000000000e+02 3.220000000000000000e+02 3.230000000000000000e+02 3.240000000000000000e+02 3.250000000000000000e+02 3.260000000000000000e+02 3.270000000000000000e+02 3.280000000000000000e+02 3.290000000000000000e+02 3.300000000000000000e+02 3.310000000000000000e+02 3.320000000000000000e+02 3.330000000000000000e+02 3.340000000000000000e+02 3.350000000000000000e+02 3.360000000000000000e+02 3.370000000000000000e+02 3.380000000000000000e+02 3.390000000000000000e+02 3.400000000000000000e+02 3.410000000000000000e+02 3.420000000000000000e+02 3.430000000000000000e+02 3.440000000000000000e+02 3.450000000000000000e+02 3.460000000000000000e+02 3.470000000000000000e+02 3.480000000000000000e+02 3.490000000000000000e+02 3.500000000000000000e+02 3.510000000000000000e+02 3.520000000000000000e+02 3.530000000000000000e+02 3.540000000000000000e+02 3.550000000000000000e+02 3.560000000000000000e+02 3.570000000000000000e+02 3.580000000000000000e+02 3.590000000000000000e+02 3.600000000000000000e+02 3.610000000000000000e+02 3.620000000000000000e+02 3.630000000000000000e+02 3.640000000000000000e+02 3.650000000000000000e+02 3.660000000000000000e+02 3.670000000000000000e+02 3.680000000000000000e+02 3.690000000000000000e+02 3.700000000000000000e+02 3.710000000000000000e+02 3.720000000000000000e+02 3.730000000000000000e+02 3.740000000000000000e+02 3.750000000000000000e+02 3.760000000000000000e+02 3.770000000000000000e+02 3.780000000000000000e+02 3.790000000000000000e+02 3.800000000000000000e+02 3.810000000000000000e+02 3.820000000000000000e+02 3.830000000000000000e+02 3.840000000000000000e+02 3.850000000000000000e+02 3.860000000000000000e+02 3.870000000000000000e+02 3.880000000000000000e+02 3.890000000000000000e+02 3.900000000000000000e+02 3.910000000000000000e+02 3.920000000000000000e+02 3.930000000000000000e+02 3.940000000000000000e+02 3.950000000000000000e+02 3.960000000000000000e+02 3.970000000000000000e+02 3.980000000000000000e+02 3.990000000000000000e+02 4.000000000000000000e+02 4.010000000000000000e+02 4.020000000000000000e+02 4.030000000000000000e+02 4.040000000000000000e+02 4.050000000000000000e+02 4.060000000000000000e+02 4.070000000000000000e+02 4.080000000000000000e+02 4.090000000000000000e+02 4.100000000000000000e+02 4.110000000000000000e+02 4.120000000000000000e+02 4.130000000000000000e+02 4.140000000000000000e+02 4.150000000000000000e+02 4.160000000000000000e+02 4.170000000000000000e+02 4.180000000000000000e+02 4.190000000000000000e+02 4.200000000000000000e+02 4.210000000000000000e+02 4.220000000000000000e+02 4.230000000000000000e+02 4.240000000000000000e+02 4.250000000000000000e+02 4.260000000000000000e+02 4.270000000000000000e+02 4.280000000000000000e+02 4.290000000000000000e+02 4.300000000000000000e+02 4.310000000000000000e+02 4.320000000000000000e+02 4.330000000000000000e+02 4.340000000000000000e+02 4.350000000000000000e+02 4.360000000000000000e+02 4.370000000000000000e+02 4.380000000000000000e+02 4.390000000000000000e+02 4.400000000000000000e+02 4.410000000000000000e+02 4.420000000000000000e+02 4.430000000000000000e+02 4.440000000000000000e+02 4.450000000000000000e+02 4.460000000000000000e+02 4.470000000000000000e+02 4.480000000000000000e+02 4.490000000000000000e+02 4.500000000000000000e+02 4.510000000000000000e+02 4.520000000000000000e+02 4.530000000000000000e+02 4.540000000000000000e+02 4.550000000000000000e+02 4.560000000000000000e+02 4.570000000000000000e+02 4.580000000000000000e+02 4.590000000000000000e+02 4.600000000000000000e+02 4.610000000000000000e+02 4.620000000000000000e+02 4.630000000000000000e+02 4.640000000000000000e+02 4.650000000000000000e+02 4.660000000000000000e+02 4.670000000000000000e+02 4.680000000000000000e+02 4.690000000000000000e+02 4.700000000000000000e+02 4.710000000000000000e+02 4.720000000000000000e+02 4.730000000000000000e+02 4.740000000000000000e+02 4.750000000000000000e+02 4.760000000000000000e+02 4.770000000000000000e+02 4.780000000000000000e+02 4.790000000000000000e+02 4.800000000000000000e+02 4.810000000000000000e+02 4.820000000000000000e+02 4.830000000000000000e+02 4.840000000000000000e+02 4.850000000000000000e+02 4.860000000000000000e+02 4.870000000000000000e+02 4.880000000000000000e+02 4.890000000000000000e+02 4.900000000000000000e+02 4.910000000000000000e+02 4.920000000000000000e+02 4.930000000000000000e+02 4.940000000000000000e+02 4.950000000000000000e+02 4.960000000000000000e+02 4.970000000000000000e+02 4.980000000000000000e+02 4.990000000000000000e+02 5.000000000000000000e+02 5.010000000000000000e+02 5.020000000000000000e+02 5.030000000000000000e+02 5.040000000000000000e+02 5.050000000000000000e+02 5.060000000000000000e+02 5.070000000000000000e+02 5.080000000000000000e+02 5.090000000000000000e+02 5.100000000000000000e+02 5.110000000000000000e+02 5.120000000000000000e+02 5.130000000000000000e+02 5.140000000000000000e+02 5.150000000000000000e+02 5.160000000000000000e+02 5.170000000000000000e+02 5.180000000000000000e+02 5.190000000000000000e+02 5.200000000000000000e+02 5.210000000000000000e+02 5.220000000000000000e+02 5.230000000000000000e+02 5.240000000000000000e+02 5.250000000000000000e+02 5.260000000000000000e+02 5.270000000000000000e+02 5.280000000000000000e+02 5.290000000000000000e+02 5.300000000000000000e+02 5.310000000000000000e+02 5.320000000000000000e+02 5.330000000000000000e+02 5.340000000000000000e+02 5.350000000000000000e+02 5.360000000000000000e+02 5.370000000000000000e+02 5.380000000000000000e+02 5.390000000000000000e+02 5.400000000000000000e+02 5.410000000000000000e+02 5.420000000000000000e+02 5.430000000000000000e+02 5.440000000000000000e+02 5.450000000000000000e+02 5.460000000000000000e+02 5.470000000000000000e+02 5.480000000000000000e+02 5.490000000000000000e+02 5.500000000000000000e+02 5.510000000000000000e+02 5.520000000000000000e+02 5.530000000000000000e+02 5.540000000000000000e+02 5.550000000000000000e+02 5.560000000000000000e+02 5.570000000000000000e+02 5.580000000000000000e+02 5.590000000000000000e+02 5.600000000000000000e+02 5.610000000000000000e+02 5.620000000000000000e+02 5.630000000000000000e+02 5.640000000000000000e+02 5.650000000000000000e+02 5.660000000000000000e+02 5.670000000000000000e+02 5.680000000000000000e+02 5.690000000000000000e+02 5.700000000000000000e+02 5.710000000000000000e+02 5.720000000000000000e+02 5.730000000000000000e+02 5.740000000000000000e+02 5.750000000000000000e+02 5.760000000000000000e+02 5.770000000000000000e+02 5.780000000000000000e+02 5.790000000000000000e+02 5.800000000000000000e+02 5.810000000000000000e+02 5.820000000000000000e+02 5.830000000000000000e+02 5.840000000000000000e+02 5.850000000000000000e+02 5.860000000000000000e+02 5.870000000000000000e+02 5.880000000000000000e+02 5.890000000000000000e+02 5.900000000000000000e+02 5.910000000000000000e+02 5.920000000000000000e+02 5.930000000000000000e+02 5.940000000000000000e+02 5.950000000000000000e+02 5.960000000000000000e+02 5.970000000000000000e+02 5.980000000000000000e+02 5.990000000000000000e+02 6.000000000000000000e+02 6.010000000000000000e+02 6.020000000000000000e+02 6.030000000000000000e+02 6.040000000000000000e+02 6.050000000000000000e+02 6.060000000000000000e+02 6.070000000000000000e+02 6.080000000000000000e+02 6.090000000000000000e+02 6.100000000000000000e+02 6.110000000000000000e+02 6.120000000000000000e+02 6.130000000000000000e+02 6.140000000000000000e+02 6.150000000000000000e+02 6.160000000000000000e+02 6.170000000000000000e+02 6.180000000000000000e+02 6.190000000000000000e+02 6.200000000000000000e+02 6.210000000000000000e+02 6.220000000000000000e+02 6.230000000000000000e+02 6.240000000000000000e+02 6.250000000000000000e+02 6.260000000000000000e+02 6.270000000000000000e+02 6.280000000000000000e+02 6.290000000000000000e+02 6.300000000000000000e+02 6.310000000000000000e+02 6.320000000000000000e+02 6.330000000000000000e+02 6.340000000000000000e+02 6.350000000000000000e+02 6.360000000000000000e+02 6.370000000000000000e+02 6.380000000000000000e+02 6.390000000000000000e+02 6.400000000000000000e+02 6.410000000000000000e+02 6.420000000000000000e+02 6.430000000000000000e+02 6.440000000000000000e+02 6.450000000000000000e+02 6.460000000000000000e+02 6.470000000000000000e+02 6.480000000000000000e+02 6.490000000000000000e+02 6.500000000000000000e+02 6.510000000000000000e+02 6.520000000000000000e+02 6.530000000000000000e+02 6.540000000000000000e+02 6.550000000000000000e+02 6.560000000000000000e+02 6.570000000000000000e+02 6.580000000000000000e+02 6.590000000000000000e+02 6.600000000000000000e+02 6.610000000000000000e+02 6.620000000000000000e+02 6.630000000000000000e+02 6.640000000000000000e+02 6.650000000000000000e+02 6.660000000000000000e+02 6.670000000000000000e+02 6.680000000000000000e+02 6.690000000000000000e+02 6.700000000000000000e+02 6.710000000000000000e+02 6.720000000000000000e+02 6.730000000000000000e+02 6.740000000000000000e+02 6.750000000000000000e+02 6.760000000000000000e+02 6.770000000000000000e+02 6.780000000000000000e+02 6.790000000000000000e+02 6.800000000000000000e+02 6.810000000000000000e+02 6.820000000000000000e+02 6.830000000000000000e+02 6.840000000000000000e+02 6.850000000000000000e+02 6.860000000000000000e+02 6.870000000000000000e+02 6.880000000000000000e+02 6.890000000000000000e+02 6.900000000000000000e+02 6.910000000000000000e+02 6.920000000000000000e+02 6.930000000000000000e+02 6.940000000000000000e+02 6.950000000000000000e+02 6.960000000000000000e+02 6.970000000000000000e+02 6.980000000000000000e+02 6.990000000000000000e+02 7.000000000000000000e+02 7.010000000000000000e+02 7.020000000000000000e+02 7.030000000000000000e+02 7.040000000000000000e+02 7.050000000000000000e+02 7.060000000000000000e+02 7.070000000000000000e+02 7.080000000000000000e+02 7.090000000000000000e+02 7.100000000000000000e+02 7.110000000000000000e+02 7.120000000000000000e+02 7.130000000000000000e+02 7.140000000000000000e+02 7.150000000000000000e+02 7.160000000000000000e+02 7.170000000000000000e+02 7.180000000000000000e+02 7.190000000000000000e+02 7.200000000000000000e+02 7.210000000000000000e+02 7.220000000000000000e+02 7.230000000000000000e+02 7.240000000000000000e+02 7.250000000000000000e+02 7.260000000000000000e+02 7.270000000000000000e+02 7.280000000000000000e+02 7.290000000000000000e+02 7.300000000000000000e+02 7.310000000000000000e+02 7.320000000000000000e+02 7.330000000000000000e+02 7.340000000000000000e+02 7.350000000000000000e+02 7.360000000000000000e+02 7.370000000000000000e+02 7.380000000000000000e+02 7.390000000000000000e+02 7.400000000000000000e+02 7.410000000000000000e+02 7.420000000000000000e+02 7.430000000000000000e+02 7.440000000000000000e+02 7.450000000000000000e+02 7.460000000000000000e+02 7.470000000000000000e+02 7.480000000000000000e+02 7.490000000000000000e+02 7.500000000000000000e+02 7.510000000000000000e+02 7.520000000000000000e+02 7.530000000000000000e+02 7.540000000000000000e+02 7.550000000000000000e+02 7.560000000000000000e+02 7.570000000000000000e+02 7.580000000000000000e+02 7.590000000000000000e+02 7.600000000000000000e+02 7.610000000000000000e+02 7.620000000000000000e+02 7.630000000000000000e+02 7.640000000000000000e+02 7.650000000000000000e+02 7.660000000000000000e+02 7.670000000000000000e+02 7.680000000000000000e+02 7.690000000000000000e+02 7.700000000000000000e+02 7.710000000000000000e+02 7.720000000000000000e+02 7.730000000000000000e+02 7.740000000000000000e+02 7.750000000000000000e+02 7.760000000000000000e+02 7.770000000000000000e+02 7.780000000000000000e+02 7.790000000000000000e+02 7.800000000000000000e+02 7.810000000000000000e+02 7.820000000000000000e+02 7.830000000000000000e+02 7.840000000000000000e+02 7.850000000000000000e+02 7.860000000000000000e+02 7.870000000000000000e+02 7.880000000000000000e+02 7.890000000000000000e+02 7.900000000000000000e+02 7.910000000000000000e+02 7.920000000000000000e+02 7.930000000000000000e+02 7.940000000000000000e+02 7.950000000000000000e+02 7.960000000000000000e+02 7.970000000000000000e+02 7.980000000000000000e+02 7.990000000000000000e+02 8.000000000000000000e+02 8.010000000000000000e+02 8.020000000000000000e+02 8.030000000000000000e+02 8.040000000000000000e+02 8.050000000000000000e+02 8.060000000000000000e+02 8.070000000000000000e+02 8.080000000000000000e+02 8.090000000000000000e+02 8.100000000000000000e+02 8.110000000000000000e+02 8.120000000000000000e+02 8.130000000000000000e+02 8.140000000000000000e+02 8.150000000000000000e+02 8.160000000000000000e+02 8.170000000000000000e+02 8.180000000000000000e+02 8.190000000000000000e+02 8.200000000000000000e+02 8.210000000000000000e+02 8.220000000000000000e+02 8.230000000000000000e+02 8.240000000000000000e+02 8.250000000000000000e+02 8.260000000000000000e+02 8.270000000000000000e+02 8.280000000000000000e+02 8.290000000000000000e+02 8.300000000000000000e+02 8.310000000000000000e+02 8.320000000000000000e+02 8.330000000000000000e+02 8.340000000000000000e+02 8.350000000000000000e+02 8.360000000000000000e+02 8.370000000000000000e+02 8.380000000000000000e+02 8.390000000000000000e+02 8.400000000000000000e+02 8.410000000000000000e+02 8.420000000000000000e+02 8.430000000000000000e+02 8.440000000000000000e+02 8.450000000000000000e+02 8.460000000000000000e+02 8.470000000000000000e+02 8.480000000000000000e+02 8.490000000000000000e+02 8.500000000000000000e+02 8.510000000000000000e+02 8.520000000000000000e+02 8.530000000000000000e+02 8.540000000000000000e+02 8.550000000000000000e+02 8.560000000000000000e+02 8.570000000000000000e+02 8.580000000000000000e+02 8.590000000000000000e+02 8.600000000000000000e+02 8.610000000000000000e+02 8.620000000000000000e+02 8.630000000000000000e+02 8.640000000000000000e+02 8.650000000000000000e+02 8.660000000000000000e+02 8.670000000000000000e+02 8.680000000000000000e+02 8.690000000000000000e+02 8.700000000000000000e+02 8.710000000000000000e+02 8.720000000000000000e+02 8.730000000000000000e+02 8.740000000000000000e+02 8.750000000000000000e+02 8.760000000000000000e+02 8.770000000000000000e+02 8.780000000000000000e+02 8.790000000000000000e+02 8.800000000000000000e+02 8.810000000000000000e+02 8.820000000000000000e+02 8.830000000000000000e+02 8.840000000000000000e+02 8.850000000000000000e+02 8.860000000000000000e+02 8.870000000000000000e+02 8.880000000000000000e+02 8.890000000000000000e+02 8.900000000000000000e+02 8.910000000000000000e+02 8.920000000000000000e+02 8.930000000000000000e+02 8.940000000000000000e+02 8.950000000000000000e+02 8.960000000000000000e+02 8.970000000000000000e+02 8.980000000000000000e+02 8.990000000000000000e+02 9.000000000000000000e+02 9.010000000000000000e+02 9.020000000000000000e+02 9.030000000000000000e+02 9.040000000000000000e+02 9.050000000000000000e+02 9.060000000000000000e+02 9.070000000000000000e+02 9.080000000000000000e+02 9.090000000000000000e+02 9.100000000000000000e+02 9.110000000000000000e+02 9.120000000000000000e+02 9.130000000000000000e+02 9.140000000000000000e+02 9.150000000000000000e+02 9.160000000000000000e+02 9.170000000000000000e+02 9.180000000000000000e+02 9.190000000000000000e+02 9.200000000000000000e+02 9.210000000000000000e+02 9.220000000000000000e+02 9.230000000000000000e+02 9.240000000000000000e+02 9.250000000000000000e+02 9.260000000000000000e+02 9.270000000000000000e+02 9.280000000000000000e+02 9.290000000000000000e+02 9.300000000000000000e+02 9.310000000000000000e+02 9.320000000000000000e+02 9.330000000000000000e+02 9.340000000000000000e+02 9.350000000000000000e+02 9.360000000000000000e+02 9.370000000000000000e+02 9.380000000000000000e+02 9.390000000000000000e+02 9.400000000000000000e+02 9.410000000000000000e+02 9.420000000000000000e+02 9.430000000000000000e+02 9.440000000000000000e+02 9.450000000000000000e+02 9.460000000000000000e+02 9.470000000000000000e+02 9.480000000000000000e+02 9.490000000000000000e+02 9.500000000000000000e+02 9.510000000000000000e+02 9.520000000000000000e+02 9.530000000000000000e+02 9.540000000000000000e+02 9.550000000000000000e+02 9.560000000000000000e+02 9.570000000000000000e+02 9.580000000000000000e+02 9.590000000000000000e+02 9.600000000000000000e+02 9.610000000000000000e+02 9.620000000000000000e+02 9.630000000000000000e+02 9.640000000000000000e+02 9.650000000000000000e+02 9.660000000000000000e+02 9.670000000000000000e+02 9.680000000000000000e+02 9.690000000000000000e+02 9.700000000000000000e+02 9.710000000000000000e+02 9.720000000000000000e+02 9.730000000000000000e+02 9.740000000000000000e+02 9.750000000000000000e+02 9.760000000000000000e+02 9.770000000000000000e+02 9.780000000000000000e+02 9.790000000000000000e+02 9.800000000000000000e+02 9.810000000000000000e+02 9.820000000000000000e+02 9.830000000000000000e+02 9.840000000000000000e+02 9.850000000000000000e+02 9.860000000000000000e+02 9.870000000000000000e+02 9.880000000000000000e+02 9.890000000000000000e+02 9.900000000000000000e+02 9.910000000000000000e+02 9.920000000000000000e+02 9.930000000000000000e+02 9.940000000000000000e+02 9.950000000000000000e+02 9.960000000000000000e+02 9.970000000000000000e+02 9.980000000000000000e+02 9.990000000000000000e+02
1.000000000000000000e+00 1.000000000000000000e+00 1.000000000000000000e+00 1.000000000000000000e+00 1.000000000000000000e+00 1.000000000000000000e+00 1.000000000000000000e+00 1.000000000000000000e+00 1.000000000000000000e+00 1.000000000000000000e+00 1.000000000000000000e+00 1.000000000000000000e+00 1.000000000000000000e+00 1.000000000000000000e+00 1.000000000000000000e+00 1.000000000000000000e+00 1.000000000000000000e+00 1.000000000000000000e+00 1.000000000000000000e+00 1.000000000000000000e+00 1.000000000000000000e+00 1.000000000000000000e+00 1.000000000000000000e+00 1.000000000000000000e+00 1.000000000000000000e+00 1.000000000000000000e+00 1.000000000000000000e+00 1.000000000000000000e+00 1.000000000000000000e+00 1.000000000000000000e+00 1.000000000000000000e+00 1.000000000000000000e+00 1.000000000000000000e+00 1.000000000000000000e+00 1.000000000000000000e+00 1.000000000000000000e+00 1.000000000000000000e+00 1.000000000000000000e+00 1.000000000000000000e+00 1.000000000000000000e+00 1.000000000000000000e+00 1.000000000000000000e+00 1.000000000000000000e+00 1.000000000000000000e+00 1.000000000000000000e+00 1.000000000000000000e+00 1.000000000000000000e+00 1.000000000000000000e+00 1.000000000000000000e+00 1.000000000000000000e+00 1.000000000000000000e+00 1.000000000000000000e+00 1.000000000000000000e+00 1.000000000000000000e+00 1.000000000000000000e+00 1.000000000000000000e+00 1.000000000000000000e+00 1.000000000000000000e+00 1.000000000000000000e+00 1.000000000000000000e+00 1.000000000000000000e+00 1.000000000000000000e+00 1.000000000000000000e+00 1.000000000000000000e+00 1.000000000000000000e+00 1.000000000000000000e+00 1.000000000000000000e+00 1.000000000000000000e+00 1.000000000000000000e+00 1.000000000000000000e+00 1.000000000000000000e+00 1.000000000000000000e+00 1.000000000000000000e+00 1.000000000000000000e+00 1.000000000000000000e+00 1.000000000000000000e+00 1.000000000000000000e+00 1.000000000000000000e+00 1.000000000000000000e+00 1.000000000000000000e+00 1.000000000000000000e+00 1.000000000000000000e+00 1.000000000000000000e+00 1.000000000000000000e+00 1.000000000000000000e+00 1.000000000000000000e+00 1.000000000000000000e+00 1.000000000000000000e+00 1.000000000000000000e+00 1.000000000000000000e+00 1.000000000000000000e+00 1.000000000000000000e+00 1.000000000000000000e+00 1.000000000000000000e+00 1.000000000000000000e+00 1.000000000000000000e+00 1.000000000000000000e+00 1.000000000000000000e+00 1.000000000000000000e+00 1.000000000000000000e+00 1.000000000000000000e+00 1.000000000000000000e+00 1.000000000000000000e+00 1.000000000000000000e+00 1.000000000000000000e+00 1.000000000000000000e+00 1.000000000000000000e+00 1.000000000000000000e+00 1.000000000000000000e+00 1.000000000000000000e+00 1.000000000000000000e+00 1.000000000000000000e+00 1.000000000000000000e+00 1.000000000000000000e+00 1.000000000000000000e+00 1.000000000000000000e+00 1.000000000000000000e+00 1.000000000000000000e+00 1.000000000000000000e+00 1.000000000000000000e+00 1.000000000000000000e+00 1.000000000000000000e+00 1.000000000000000000e+00 1.000000000000000000e+00 1.000000000000000000e+00 1.000000000000000000e+00 1.000000000000000000e+00 1.000000000000000000e+00 1.000000000000000000e+00 1.000000000000000000e+00 1.000000000000000000e+00 1.000000000000000000e+00 1.000000000000000000e+00 1.000000000000000000e+00 1.000000000000000000e+00 1.000000000000000000e+00 1.000000000000000000e+00 1.000000000000000000e+00 1.000000000000000000e+00 1.000000000000000000e+00 1.000000000000000000e+00 1.000000000000000000e+00 1.000000000000000000e+00 1.000000000000000000e+00 1.000000000000000000e+00 1.000000000000000000e+00 1.000000000000000000e+00 1.000000000000000000e+00 1.000000000000000000e+00 1.000000000000000000e+00 1.000000000000000000e+00 1.000000000000000000e+00 1.000000000000000000e+00 1.000000000000000000e+00 1.000000000000000000e+00 1.000000000000000000e+00 1.000000000000000000e+00 1.000000000000000000e+00 1.000000000000000000e+00 1.000000000000000000e+00 1.000000000000000000e+00 1.000000000000000000e+00 1.000000000000000000e+00 1.000000000000000000e+00 1.000000000000000000e+00 1.000000000000000000e+00 1.000000000000000000e+00 1.000000000000000000e+00 1.000000000000000000e+00 1.000000000000000000e+00 1.000000000000000000e+00 1.000000000000000000e+00 1.000000000000000000e+00 1.000000000000000000e+00 1.000000000000000000e+00 1.000000000000000000e+00 1.000000000000000000e+00 1.000000000000000000e+00 1.000000000000000000e+00 1.000000000000000000e+00 1.000000000000000000e+00 1.000000000000000000e+00 1.000000000000000000e+00 1.000000000000000000e+00 1.000000000000000000e+00 1.000000000000000000e+00 1.000000000000000000e+00 1.000000000000000000e+00 1.000000000000000000e+00 1.000000000000000000e+00 1.000000000000000000e+00 1.000000000000000000e+00 1.000000000000000000e+00 1.000000000000000000e+00 1.000000000000000000e+00 1.000000000000000000e+00 1.000000000000000000e+00 1.000000000000000000e+00 1.000000000000000000e+00 1.000000000000000000e+00 1.000000000000000000e+00 1.000000000000000000e+00 1.000000000000000000e+00 1.000000000000000000e+00 1.000000000000000000e+00 1.000000000000000000e+00 1.000000000000000000e+00 1.000000000000000000e+00 1.000000000000000000e+00 1.000000000000000000e+00 1.000000000000000000e+00 1.000000000000000000e+00 1.000000000000000000e+00 1.000000000000000000e+00 1.000000000000000000e+00 1.000000000000000000e+00 1.000000000000000000e+00 1.000000000000000000e+00 1.000000000000000000e+00 1.000000000000000000e+00 1.000000000000000000e+00 1.000000000000000000e+00 1.000000000000000000e+00 1.000000000000000000e+00 1.000000000000000000e+00 1.000000000000000000e+00 1.000000000000000000e+00 1.000000000000000000e+00 1.000000000000000000e+00 1.000000000000000000e+00 1.000000000000000000e+00 1.000000000000000000e+00 1.000000000000000000e+00 1.000000000000000000e+00 1.000000000000000000e+00 1.000000000000000000e+00 1.000000000000000000e+00 1.000000000000000000e+00 1.000000000000000000e+00 1.000000000000000000e+00 1.000000000000000000e+00 1.000000000000000000e+00 1.000000000000000000e+00 1.000000000000000000e+00 1.000000000000000000e+00 1.000000000000000000e+00 1.000000000000000000e+00 1.000000000000000000e+00 1.000000000000000000e+00 1.000000000000000000e+00 1.000000000000000000e+00 1.000000000000000000e+00 1.000000000000000000e+00 1.000000000000000000e+00 1.000000000000000000e+00 1.000000000000000000e+00 1.000000000000000000e+00 1.000000000000000000e+00 1.000000000000000000e+00 1.000000000000000000e+00 1.000000000000000000e+00 1.000000000000000000e+00 1.000000000000000000e+00 1.000000000000000000e+00 1.000000000000000000e+00 1.000000000000000000e+00 1.000000000000000000e+00 1.000000000000000000e+00 1.000000000000000000e+00 1.000000000000000000e+00 1.000000000000000000e+00 1.000000000000000000e+00 1.000000000000000000e+00 1.000000000000000000e+00 1.000000000000000000e+00 1.000000000000000000e+00 1.000000000000000000e+00 1.000000000000000000e+00 1.000000000000000000e+00 1.000000000000000000e+00 1.000000000000000000e+00 1.000000000000000000e+00 1.000000000000000000e+00 1.000000000000000000e+00 1.000000000000000000e+00 1.000000000000000000e+00 1.000000000000000000e+00 1.000000000000000000e+00 1.000000000000000000e+00 1.000000000000000000e+00 1.000000000000000000e+00 1.000000000000000000e+00 1.000000000000000000e+00 1.000000000000000000e+00 1.000000000000000000e+00 1.000000000000000000e+00 1.000000000000000000e+00 1.000000000000000000e+00 1.000000000000000000e+00 1.000000000000000000e+00 1.000000000000000000e+00 1.000000000000000000e+00 1.000000000000000000e+00 1.000000000000000000e+00 1.000000000000000000e+00 1.000000000000000000e+00 1.000000000000000000e+00 1.000000000000000000e+00 1.000000000000000000e+00 1.000000000000000000e+00 1.000000000000000000e+00 1.000000000000000000e+00 1.000000000000000000e+00 1.000000000000000000e+00 1.000000000000000000e+00 1.000000000000000000e+00 1.000000000000000000e+00 1.000000000000000000e+00 1.000000000000000000e+00 1.000000000000000000e+00 1.000000000000000000e+00 1.000000000000000000e+00 1.000000000000000000e+00 1.000000000000000000e+00 1.000000000000000000e+00 1.000000000000000000e+00 1.000000000000000000e+00 1.000000000000000000e+00 1.000000000000000000e+00 1.000000000000000000e+00 1.000000000000000000e+00 1.000000000000000000e+00 1.000000000000000000e+00 1.000000000000000000e+00 1.000000000000000000e+00 1.000000000000000000e+00 1.000000000000000000e+00 1.000000000000000000e+00 1.000000000000000000e+00 1.000000000000000000e+00 1.000000000000000000e+00 1.000000000000000000e+00 1.000000000000000000e+00 1.000000000000000000e+00 1.000000000000000000e+00 1.000000000000000000e+00 1.000000000000000000e+00 1.000000000000000000e+00 1.000000000000000000e+00 1.000000000000000000e+00 1.000000000000000000e+00 1.000000000000000000e+00 1.000000000000000000e+00 1.000000000000000000e+00 1.000000000000000000e+00 1.000000000000000000e+00 1.000000000000000000e+00 1.000000000000000000e+00 1.000000000000000000e+00 1.000000000000000000e+00 1.000000000000000000e+00 1.000000000000000000e+00 1.000000000000000000e+00 1.000000000000000000e+00 1.000000000000000000e+00 1.000000000000000000e+00 1.000000000000000000e+00 1.000000000000000000e+00 1.000000000000000000e+00 1.000000000000000000e+00 1.000000000000000000e+00 1.000000000000000000e+00 1.000000000000000000e+00 1.000000000000000000e+00 1.000000000000000000e+00 1.000000000000000000e+00 1.000000000000000000e+00 1.000000000000000000e+00 1.000000000000000000e+00 1.000000000000000000e+00 1.000000000000000000e+00 1.000000000000000000e+00 1.000000000000000000e+00 1.000000000000000000e+00 1.000000000000000000e+00 1.000000000000000000e+00 1.000000000000000000e+00 1.000000000000000000e+00 1.000000000000000000e+00 1.000000000000000000e+00 1.000000000000000000e+00 1.000000000000000000e+00 1.000000000000000000e+00 1.000000000000000000e+00 1.000000000000000000e+00 1.000000000000000000e+00 1.000000000000000000e+00 1.000000000000000000e+00 1.000000000000000000e+00 1.000000000000000000e+00 1.000000000000000000e+00 1.000000000000000000e+00 1.000000000000000000e+00 1.000000000000000000e+00 1.000000000000000000e+00 1.000000000000000000e+00 1.000000000000000000e+00 1.000000000000000000e+00 1.000000000000000000e+00 1.000000000000000000e+00 1.000000000000000000e+00 1.000000000000000000e+00 1.000000000000000000e+00 1.000000000000000000e+00 1.000000000000000000e+00 1.000000000000000000e+00 1.000000000000000000e+00 1.000000000000000000e+00 1.000000000000000000e+00 1.000000000000000000e+00 1.000000000000000000e+00 1.000000000000000000e+00 1.000000000000000000e+00 1.000000000000000000e+00 1.000000000000000000e+00 1.000000000000000000e+00 1.000000000000000000e+00 1.000000000000000000e+00 1.000000000000000000e+00 1.000000000000000000e+00 1.000000000000000000e+00 1.000000000000000000e+00 1.000000000000000000e+00 1.000000000000000000e+00 1.000000000000000000e+00 1.000000000000000000e+00 1.000000000000000000e+00 1.000000000000000000e+00 1.000000000000000000e+00 1.000000000000000000e+00 1.000000000000000000e+00 1.000000000000000000e+00 1.000000000000000000e+00 1.000000000000000000e+00 1.000000000000000000e+00 1.000000000000000000e+00 1.000000000000000000e+00 1.000000000000000000e+00 1.000000000000000000e+00 1.000000000000000000e+00 1.000000000000000000e+00 1.000000000000000000e+00 1.000000000000000000e+00 1.000000000000000000e+00 1.000000000000000000e+00 1.000000000000000000e+00 1.000000000000000000e+00 1.000000000000000000e+00 1.000000000000000000e+00 1.000000000000000000e+00 1.000000000000000000e+00 1.000000000000000000e+00 1.000000000000000000e+00 1.000000000000000000e+00 1.000000000000000000e+00 1.000000000000000000e+00 1.000000000000000000e+00 1.000000000000000000e+00 1.000000000000000000e+00 1.000000000000000000e+00 1.000000000000000000e+00 1.000000000000000000e+00 1.000000000000000000e+00 1.000000000000000000e+00 1.000000000000000000e+00 1.000000000000000000e+00 1.000000000000000000e+00 1.000000000000000000e+00 1.000000000000000000e+00 1.000000000000000000e+00 1.000000000000000000e+00 1.000000000000000000e+00 1.000000000000000000e+00 1.000000000000000000e+00 1.000000000000000000e+00 1.000000000000000000e+00 1.000000000000000000e+00 1.000000000000000000e+00 1.000000000000000000e+00 1.000000000000000000e+00 1.000000000000000000e+00 1.000000000000000000e+00 1.000000000000000000e+00 1.000000000000000000e+00 1.000000000000000000e+00 1.000000000000000000e+00 1.000000000000000000e+00 1.000000000000000000e+00 1.000000000000000000e+00 1.000000000000000000e+00 1.000000000000000000e+00 1.000000000000000000e+00 1.000000000000000000e+00 1.000000000000000000e+00 1.000000000000000000e+00 1.000000000000000000e+00 1.000000000000000000e+00 1.000000000000000000e+00 1.000000000000000000e+00 1.000000000000000000e+00 1.000000000000000000e+00 1.000000000000000000e+00 1.000000000000000000e+00 1.000000000000000000e+00 1.000000000000000000e+00 1.000000000000000000e+00 1.000000000000000000e+00 1.000000000000000000e+00 1.000000000000000000e+00 1.000000000000000000e+00 1.000000000000000000e+00 1.000000000000000000e+00 1.000000000000000000e+00 1.000000000000000000e+00 1.000000000000000000e+00 1.000000000000000000e+00 1.000000000000000000e+00 1.000000000000000000e+00 1.000000000000000000e+00 1.000000000000000000e+00 1.000000000000000000e+00 1.000000000000000000e+00 1.000000000000000000e+00 1.000000000000000000e+00 1.000000000000000000e+00 1.000000000000000000e+00 1.000000000000000000e+00 1.000000000000000000e+00 1.000000000000000000e+00 1.000000000000000000e+00 1.000000000000000000e+00 1.000000000000000000e+00 1.000000000000000000e+00 1.000000000000000000e+00 1.000000000000000000e+00 1.000000000000000000e+00 1.000000000000000000e+00 1.000000000000000000e+00 1.000000000000000000e+00 1.000000000000000000e+00 1.000000000000000000e+00 1.000000000000000000e+00 1.000000000000000000e+00 1.000000000000000000e+00 1.000000000000000000e+00 1.000000000000000000e+00 1.000000000000000000e+00 1.000000000000000000e+00 1.000000000000000000e+00 1.000000000000000000e+00 1.000000000000000000e+00 1.000000000000000000e+00 1.000000000000000000e+00 1.000000000000000000e+00 1.000000000000000000e+00 1.000000000000000000e+00 1.000000000000000000e+00 1.000000000000000000e+00 1.000000000000000000e+00 1.000000000000000000e+00 1.000000000000000000e+00 1.000000000000000000e+00 1.000000000000000000e+00 1.000000000000000000e+00 1.000000000000000000e+00 1.000000000000000000e+00 1.000000000000000000e+00 1.000000000000000000e+00 1.000000000000000000e+00 1.000000000000000000e+00 1.000000000000000000e+00 1.000000000000000000e+00 1.000000000000000000e+00 1.000000000000000000e+00 1.000000000000000000e+00 1.000000000000000000e+00 1.000000000000000000e+00 1.000000000000000000e+00 1.000000000000000000e+00 1.000000000000000000e+00 1.000000000000000000e+00 1.000000000000000000e+00 1.000000000000000000e+00 1.000000000000000000e+00 1.000000000000000000e+00 1.000000000000000000e+00 1.000000000000000000e+00 1.000000000000000000e+00 1.000000000000000000e+00 1.000000000000000000e+00 1.000000000000000000e+00 1.000000000000000000e+00 1.000000000000000000e+00 1.000000000000000000e+00 1.000000000000000000e+00 1.000000000000000000e+00 1.000000000000000000e+00 1.000000000000000000e+00 1.000000000000000000e+00 1.000000000000000000e+00 1.000000000000000000e+00 1.000000000000000000e+00 1.000000000000000000e+00 1.000000000000000000e+00 1.000000000000000000e+00 1.000000000000000000e+00 1.000000000000000000e+00 1.000000000000000000e+00 1.000000000000000000e+00 1.000000000000000000e+00 1.000000000000000000e+00 1.000000000000000000e+00 1.000000000000000000e+00 1.000000000000000000e+00 1.000000000000000000e+00 1.000000000000000000e+00 1.000000000000000000e+00 1.000000000000000000e+00 1.000000000000000000e+00 1.000000000000000000e+00 1.000000000000000000e+00 1.000000000000000000e+00 1.000000000000000000e+00 1.000000000000000000e+00 1.000000000000000000e+00 1.000000000000000000e+00 1.000000000000000000e+00 1.000000000000000000e+00 1.000000000000000000e+00 1.000000000000000000e+00 1.000000000000000000e+00 1.000000000000000000e+00 1.000000000000000000e+00 1.000000000000000000e+00 1.000000000000000000e+00 1.000000000000000000e+00 1.000000000000000000e+00 1.000000000000000000e+00 1.000000000000000000e+00 1.000000000000000000e+00 1.000000000000000000e+00 1.000000000000000000e+00 1.000000000000000000e+00 1.000000000000000000e+00 1.000000000000000000e+00 1.000000000000000000e+00 1.000000000000000000e+00 1.000000000000000000e+00 1.000000000000000000e+00 1.000000000000000000e+00 1.000000000000000000e+00 1.000000000000000000e+00 1.000000000000000000e+00 1.000000000000000000e+00 1.000000000000000000e+00 1.000000000000000000e+00 1.000000000000000000e+00 1.000000000000000000e+00 1.000000000000000000e+00 1.000000000000000000e+00 1.000000000000000000e+00 1.000000000000000000e+00 1.000000000000000000e+00 1.000000000000000000e+00 1.000000000000000000e+00 1.000000000000000000e+00 1.000000000000000000e+00 1.000000000000000000e+00 1.000000000000000000e+00 1.000000000000000000e+00 1.000000000000000000e+00 1.000000000000000000e+00 1.000000000000000000e+00 1.000000000000000000e+00 1.000000000000000000e+00 1.000000000000000000e+00 1.000000000000000000e+00 1.000000000000000000e+00 1.000000000000000000e+00 1.000000000000000000e+00 1.000000000000000000e+00 1.000000000000000000e+00 1.000000000000000000e+00 1.000000000000000000e+00 1.000000000000000000e+00 1.000000000000000000e+00 1.000000000000000000e+00 1.000000000000000000e+00 1.000000000000000000e+00 1.000000000000000000e+00 1.000000000000000000e+00 1.000000000000000000e+00 1.000000000000000000e+00 1.000000000000000000e+00 1.000000000000000000e+00 1.000000000000000000e+00 1.000000000000000000e+00 1.000000000000000000e+00 1.000000000000000000e+00 1.000000000000000000e+00 1.000000000000000000e+00 1.000000000000000000e+00 1.000000000000000000e+00 1.000000000000000000e+00 1.000000000000000000e+00 1.000000000000000000e+00 1.000000000000000000e+00 1.000000000000000000e+00 1.000000000000000000e+00 1.000000000000000000e+00 1.000000000000000000e+00 1.000000000000000000e+00 1.000000000000000000e+00 1.000000000000000000e+00 1.000000000000000000e+00 1.000000000000000000e+00 1.000000000000000000e+00 1.000000000000000000e+00 1.000000000000000000e+00 1.000000000000000000e+00 1.000000000000000000e+00 1.000000000000000000e+00 1.000000000000000000e+00 1.000000000000000000e+00 1.000000000000000000e+00 1.000000000000000000e+00 1.000000000000000000e+00 1.000000000000000000e+00 1.000000000000000000e+00 1.000000000000000000e+00 1.000000000000000000e+00 1.000000000000000000e+00 1.000000000000000000e+00 1.000000000000000000e+00 1.000000000000000000e+00 1.000000000000000000e+00 1.000000000000000000e+00 1.000000000000000000e+00 1.000000000000000000e+00 1.000000000000000000e+00 1.000000000000000000e+00 1.000000000000000000e+00 1.000000000000000000e+00 1.000000000000000000e+00 1.000000000000000000e+00 1.000000000000000000e+00 1.000000000000000000e+00 1.000000000000000000e+00 1.000000000000000000e+00 1.000000000000000000e+00 1.000000000000000000e+00 1.000000000000000000e+00 1.000000000000000000e+00 1.000000000000000000e+00 1.000000000000000000e+00 1.000000000000000000e+00 1.000000000000000000e+00 1.000000000000000000e+00 1.000000000000000000e+00 1.000000000000000000e+00 1.000000000000000000e+00 1.000000000000000000e+00 1.000000000000000000e+00 1.000000000000000000e+00 1.000000000000000000e+00 1.000000000000000000e+00 1.000000000000000000e+00 1.000000000000000000e+00 1.000000000000000000e+00 1.000000000000000000e+00 1.000000000000000000e+00 1.000000000000000000e+00 1.000000000000000000e+00 1.000000000000000000e+00 1.000000000000000000e+00 1.000000000000000000e+00 1.000000000000000000e+00 1.000000000000000000e+00 1.000000000000000000e+00 1.000000000000000000e+00 1.000000000000000000e+00 1.000000000000000000e+00 1.000000000000000000e+00 1.000000000000000000e+00 1.000000000000000000e+00 1.000000000000000000e+00 1.000000000000000000e+00 1.000000000000000000e+00 1.000000000000000000e+00 1.000000000000000000e+00 1.000000000000000000e+00 1.000000000000000000e+00 1.000000000000000000e+00 1.000000000000000000e+00 1.000000000000000000e+00 1.000000000000000000e+00 1.000000000000000000e+00 1.000000000000000000e+00 1.000000000000000000e+00 1.000000000000000000e+00 1.000000000000000000e+00 1.000000000000000000e+00 1.000000000000000000e+00 1.000000000000000000e+00 1.000000000000000000e+00 1.000000000000000000e+00 1.000000000000000000e+00 1.000000000000000000e+00 1.000000000000000000e+00 1.000000000000000000e+00 1.000000000000000000e+00 1.000000000000000000e+00 1.000000000000000000e+00 1.000000000000000000e+00 1.000000000000000000e+00 1.000000000000000000e+00 1.000000000000000000e+00 1.000000000000000000e+00 1.000000000000000000e+00 1.000000000000000000e+00 1.000000000000000000e+00 1.000000000000000000e+00 1.000000000000000000e+00 1.000000000000000000e+00 1.000000000000000000e+00 1.000000000000000000e+00 1.000000000000000000e+00 1.000000000000000000e+00 1.000000000000000000e+00 1.000000000000000000e+00 1.000000000000000000e+00 1.000000000000000000e+00 1.000000000000000000e+00 1.000000000000000000e+00 1.000000000000000000e+00 1.000000000000000000e+00 1.000000000000000000e+00 1.000000000000000000e+00 1.000000000000000000e+00 1.000000000000000000e+00 1.000000000000000000e+00 1.000000000000000000e+00 1.000000000000000000e+00 1.000000000000000000e+00 1.000000000000000000e+00 1.000000000000000000e+00 1.000000000000000000e+00 1.000000000000000000e+00 1.000000000000000000e+00 1.000000000000000000e+00 1.000000000000000000e+00 1.000000000000000000e+00 1.000000000000000000e+00 1.000000000000000000e+00 1.000000000000000000e+00 1.000000000000000000e+00 1.000000000000000000e+00 1.000000000000000000e+00 1.000000000000000000e+00 1.000000000000000000e+00 1.000000000000000000e+00 1.000000000000000000e+00 1.000000000000000000e+00 1.000000000000000000e+00 1.000000000000000000e+00 1.000000000000000000e+00 1.000000000000000000e+00 1.000000000000000000e+00 1.000000000000000000e+00 1.000000000000000000e+00 1.000000000000000000e+00 1.000000000000000000e+00 1.000000000000000000e+00 1.000000000000000000e+00 1.000000000000000000e+00 1.000000000000000000e+00 1.000000000000000000e+00 1.000000000000000000e+00 1.000000000000000000e+00 1.000000000000000000e+00 1.000000000000000000e+00 1.000000000000000000e+00 1.000000000000000000e+00 1.000000000000000000e+00 1.000000000000000000e+00 1.000000000000000000e+00 1.000000000000000000e+00 1.000000000000000000e+00 1.000000000000000000e+00 1.000000000000000000e+00 1.000000000000000000e+00 1.000000000000000000e+00 1.000000000000000000e+00 1.000000000000000000e+00 1.000000000000000000e+00 1.000000000000000000e+00 1.000000000000000000e+00 1.000000000000000000e+00 1.000000000000000000e+00 1.000000000000000000e+00 1.000000000000000000e+00 1.000000000000000000e+00 1.000000000000000000e+00 1.000000000000000000e+00 1.000000000000000000e+00 1.000000000000000000e+00 1.000000000000000000e+00 1.000000000000000000e+00 1.000000000000000000e+00 1.000000000000000000e+00 1.000000000000000000e+00 1.000000000000000000e+00 1.000000000000000000e+00 1.000000000000000000e+00 1.000000000000000000e+00 1.000000000000000000e+00 1.000000000000000000e+00 1.000000000000000000e+00 1.000000000000000000e+00 1.000000000000000000e+00 1.000000000000000000e+00 1.000000000000000000e+00 1.000000000000000000e+00 1.000000000000000000e+00 1.000000000000000000e+00 1.000000000000000000e+00 1.000000000000000000e+00 1.000000000000000000e+00 1.000000000000000000e+00 1.000000000000000000e+00 1.000000000000000000e+00 1.000000000000000000e+00 1.000000000000000000e+00 1.000000000000000000e+00 1.000000000000000000e+00 1.000000000000000000e+00 1.000000000000000000e+00 1.000000000000000000e+00 1.000000000000000000e+00 1.000000000000000000e+00 1.000000000000000000e+00 1.000000000000000000e+00 1.000000000000000000e+00 1.000000000000000000e+00 1.000000000000000000e+00 1.000000000000000000e+00 1.000000000000000000e+00 1.000000000000000000e+00 1.000000000000000000e+00 1.000000000000000000e+00 1.000000000000000000e+00 1.000000000000000000e+00 1.000000000000000000e+00 1.000000000000000000e+00 1.000000000000000000e+00 1.000000000000000000e+00 1.000000000000000000e+00 1.000000000000000000e+00 1.000000000000000000e+00 1.000000000000000000e+00 1.000000000000000000e+00 1.000000000000000000e+00 1.000000000000000000e+00 1.000000000000000000e+00 1.000000000000000000e+00 1.000000000000000000e+00 1.000000000000000000e+00 1.000000000000000000e+00 1.000000000000000000e+00 1.000000000000000000e+00 1.000000000000000000e+00 1.000000000000000000e+00 1.000000000000000000e+00 1.000000000000000000e+00 1.000000000000000000e+00 1.000000000000000000e+00 1.000000000000000000e+00 1.000000000000000000e+00 1.000000000000000000e+00 1.000000000000000000e+00 1.000000000000000000e+00 1.000000000000000000e+00 1.000000000000000000e+00 1.000000000000000000e+00 1.000000000000000000e+00 1.000000000000000000e+00 1.000000000000000000e+00 1.000000000000000000e+00 1.000000000000000000e+00 1.000000000000000000e+00
5.951363621085031808e-02 5.558743957143020831e-01 -3.185382857029486758e-01 7.906110990380083026e-01 5.221906877311768280e-01 5.876676150481922045e-01 5.424579858531006771e-01 5.017157729697880875e-01 5.604159814401019624e-01 5.277959434869746724e-01 1.090872849549062273e+00 -7.580466063240846042e-01 1.437090227940602372e+00 4.756896541340230877e-01 5.251494670971181833e-01 4.470156028646350976e-01 7.995240922886409640e-01 9.781225162165636533e-01 7.529875283353901771e-01 5.038787120158422228e-01 3.893920008287879986e-01 1.002381178468692458e+00 3.551306459491270218e-01 5.885811688599990044e-01 5.419064745259215971e-02 6.515933928040927858e-01 4.667170082124512676e-01 7.261385188790311362e-01 5.238219352589513766e-01 1.673399792736197433e+00 4.831345492201454261e-01 5.957556916071061748e-01 7.186373365799539892e-01 5.184394325221274302e-01 6.791056682734853966e-01 4.717166968060977905e-01 6.048597423204440382e-01 1.911610892984313192e+00 -1.107707433120447282e-01 5.307973984129730205e-01 -2.594378556960270088e-01 -5.616366599097611934e-01 7.436185655577357556e-01 2.345073233165210491e-01 3.653445127706845263e-01 5.086165152014022750e-01 7.907030341494342141e-01 5.512482257528917851e-01 7.078968376758760783e-01 1.365887937283527531e-02 5.463777149533328298e-02 7.079668707353437007e-01 6.866807351997972209e-01 4.133624234379810747e-01 4.745490544769841446e-01 3.174921464125364523e-02 5.756579340903482667e-01 5.334868126650598175e-01 2.073805615606611752e-01 4.864408588060787353e-01 9.382486861591082805e-01 4.275367306366136821e-01 5.437675788309869196e-01 3.551307733728221727e-01 6.706951481197688247e-01 6.935603589557681747e-01 5.290771436274703809e-01 5.568002817365307333e-01 5.016217274955392380e-01 6.097005545609388705e-02 5.152086309707235579e-01 5.621734070171428010e-01 5.441412529600365700e-01 2.548478445269861808e-02 1.542356855695012463e+00 5.054745859960207977e-01 6.415580522637606142e-01 7.034620248610358173e-01 5.244570939174082458e-01 1.392675574658605031e+00 5.184328609910027197e-01 3.973633936970838998e-01 1.483917236799476624e+00 7.864737034832922635e-01 5.370873980899300015e-01 7.465032362426898827e-01 7.934746435732583647e-01 4.970549237841082046e-01 4.349441423830333608e-01 5.772153908422941182e-01 3.641091383941337245e-01 2.280516639911424726e+00 8.025681085170716100e-01 9.195979429954043161e-02 5.163926707953806483e-01 5.586524845240553594e-01 5.031119020084610094e-01 4.898333897604469356e-01 1.912040452823312586e-01 6.592194111653010280e-01 1.673116120829432507e+00 6.839840277243895983e-01 5.177323052145992310e-01 4.689196380751105009e-01 8.457574620257063414e-01 -2.207746794947234470e+00 -1.276817853738912545e+00 4.834487141615304573e-01 6.396014793587020408e-01 9.644243693272104290e-01 5.339774934359291514e-01 4.139255340664675376e-01 2.047118244991998348e-01 5.274096910986236786e-01 5.330654652606906518e-01 5.362373930209000106e-01 4.428299760977549293e-01 4.858003116569473701e-01 1.056664075409901704e+00 5.289340076083894893e-01 1.330569288636862746e+00 5.268586914208402971e-01 6.714772939087696457e-01 -6.310982986265430972e-01 5.057109146275421407e-01 2.003697723621265414e+00 4.423015607806198846e-01 4.893323512439484713e-01 6.569758174129672890e-01 5.228915450815367905e-01 5.971827074939258795e-01 5.266675689906886726e-01 4.529609636980148624e-01 6.113921028063978858e-01 -4.523923659881864956e-01 -1.698664918480314312e-01 6.970420331878443010e-01 3.450898517401490562e-02 1.019868175816357914e+00 4.802934081433963831e-01 5.368489533689752014e-01 8.829843562029499049e-01 4.170575759505939506e-01 4.793646019323284935e-01 5.278259482843369321e-01 1.781922283750381197e-02 1.016631520332247574e+00 -2.774379228427206190e-01 4.116944766439695758e-01 -9.561173786475987146e-01 7.348172655813242082e-01 -2.730735315343842395e-01 5.086169430940348235e-01 4.766190597360560610e-01 6.351722695266822649e-01 5.252820851704548266e-01 2.115309846300702290e+00 -2.156270985732365031e-01 8.388151457292990498e-01 6.406297424988989242e-01 5.773736263380669920e-01 5.213056970544387436e-01 5.003717245638442668e-01 5.214324584167189247e-01 1.054035436007276116e+00 3.065929483651885223e-01 8.508974675842397861e-01 2.698826695156178457e-01 3.513461632048079375e-01 5.530178015880946596e-01 6.759669638460520380e-01 7.886389210018345253e-01 5.086383738157316259e-01 5.218775350834858884e-01 4.012408436633729258e-01 3.848664056544262579e-02 2.505200485711269742e-01 1.286438256559881421e-01 7.655741920313117177e-01 1.145065539428918866e+00 6.313845316754594927e-01 5.238679520609805795e-01 -1.568424083428823501e-01 4.745722423040330540e-01 3.707021973910168411e-01 4.642576276528846968e-01 5.304916279163013337e-01 5.429692108481415369e-01 2.933817487829594839e+00 4.792801756145521064e-01 5.843893947573971515e-01 -9.522893131865667327e-01 5.250144661858732187e-01 4.958324374628956810e-01 2.128717670131516915e-01 5.180849860708842680e-01 9.552023142623046192e-01 5.153819469845011270e-01 3.403288905162927258e-01 5.620154362365574752e-01 6.324086404408055806e-01 5.489255095766372161e-01 7.768494842326185701e-01 6.027441346612537609e-01 5.432014007174590375e-01 3.403289299706579452e-01 1.582627773833674978e-01 1.312281633274340553e+00 5.097795373310933797e-01 5.714252763788545408e-01 4.173069421332795681e-01 -1.046535464483485112e-01 5.118226159035261791e-01 1.536744053446818525e-01 5.365133148937147878e-01 5.296243934646026608e-01 5.232460737226817260e-01 5.200787334334243672e-01 5.198447262243395262e-01 5.237820111118991484e-01 4.548231279554977302e-01 5.286633909194888847e-01 -7.332171579467952061e-01 6.356285767012951338e-01 5.490043823665058387e-01 3.344363898874946894e-01 -5.649440331642131830e-02 1.369272866379938947e+00 9.837797991867529568e-01 4.851205255769220348e-01 -1.006950047185719982e-01 1.077604519749781442e+00 5.226898517354486851e-01 5.288919551070581093e-01 6.796121145573215117e-01 4.019810695207751139e-01 2.009090277202699171e-01 1.481160699745633635e-01 -1.751409830681338875e-01 -3.315767057512909038e-02 6.251393029416750791e-01 5.263146345898210843e-01 -1.315386960119782622e-01 4.777012468042640680e-01 5.236488054591281749e-01 5.587925415338568236e-01 -8.668976885887250128e-02 7.703387098162406410e-01 -2.457920649008923153e+00 6.066349050811483679e-01 -7.266503522530689541e-01 5.039465229785916600e-01 5.314891931027019290e-01 3.551307128244834410e-01 5.240666208353792488e-01 4.717543648881045160e-01 4.896709962922598525e-01 8.063661648308614316e-01 5.840977531413567014e-01 1.710516759695982270e+00 6.853443836485691998e-01 6.608681915453019640e-01 4.529044493300470875e-01 4.630909824308406253e-01 9.382486529947655640e-01 5.490866927215668492e-01 2.801164694463890825e+00 4.471689703983672270e-01 2.097085435869733283e-01 7.933790072777963109e-01 5.196295297150027581e-01 9.385170898248688109e-01 5.259923743317711509e-01 5.484634594506702099e-01 5.239358061134600231e-01 1.195670565231355953e+00 7.556728561202027405e-01 8.507666792618440166e-01 7.875717184255732750e-01 5.891710874076395710e-01 6.903950643169320944e-01 5.154834455193254561e-01 3.637231232401009762e-01 -7.718303025901186443e-01 3.957436300939203844e-01 3.641738718728720903e-01 4.671617390637384792e-01 5.448394125085531670e-01 5.362375566067135724e-01 6.169868989124829284e-01 5.105982702056863776e-01 -9.991112354930685724e-01 7.935147967827982374e-01 4.621412147886914679e-01 -1.838945256293336369e-02 4.595486168829936990e-01 1.868109765110198994e+00 5.125399984723568725e-01 5.228842441972800792e-01 4.116859653518133988e-01 -3.588257705085888372e+00 5.322731029348592990e-01 3.063165853825698726e+00 7.895150969247444195e-01 5.229785082824236486e-01 -5.630503390970864608e-01 5.295056719282148494e-01 5.251138405543185339e-01 4.689449855771569142e-01 4.510907495312723170e-01 3.204843857229900395e-01 6.589277762720303633e-01 3.134574133207865820e-01 5.286193282573756758e-01 5.197852013154135031e-01 3.792095855394123638e-01 5.221811633311839174e-01 7.901128185970234252e-01 5.267305733537608337e-01 1.226735410935936521e+00 6.365859865986674138e-02 2.259745860786082972e+00 2.726427915799438662e+00 4.700530221917894047e-01 -2.559470597426944383e-01 3.842348724493071521e-01 4.000866995412648564e-01 7.505314754358742846e-01 1.416648148953919328e+00 5.275085146932849689e-01 1.144595122955443633e+00 5.253514302672755987e-01 1.167471589378198948e-01 1.267333854910719149e+00 6.287001129682449063e-01 5.782326928481514861e-01 5.410379197390564610e-01 9.086746552581920211e-01 -3.962102143017895095e+00 1.684772284524732155e+00 5.264343699910375429e-01 6.330124248927394559e-01 5.143753986246014653e-01 1.911610888326479074e+00 2.888446167374035256e-01 5.718825759332457626e-01 4.423935203296159857e-01 6.852981863869068713e-01 1.362751956897494399e+00 4.827057207597363897e-01 3.403288306838216370e-01 4.777057626933701728e-01 6.027441309919784329e-01 3.361902126782244649e-01 5.678599798835403112e-01 9.082126609149727692e-01 5.239801648321031902e-01 3.826099231743494422e-01 1.184391893728911904e-01 6.359088072978672512e-01 5.239016349284913998e-01 2.303506682123566962e-01 5.718825526001453108e-01 5.816037593375801285e-01 5.264684263989921620e-01 1.064393856632553703e+00 8.929506360487987626e-01 1.180309173695931690e+00 5.324153002933723622e-01 2.088692947938864120e-01 9.382483645811932060e-01 -1.104175893012501186e-01 9.349271517166133361e-01 6.307917996944281125e-01 5.836759258687568980e-02 3.709943627540114863e-01 8.283820634052092569e-01 3.818184791950186563e-01 4.590743060976633094e-01 3.630374763027168217e-01 -3.464132482415592795e-01 -2.582916008934364793e+00 5.775681110174143429e-01 6.027441077768944666e-01 6.027441297976026124e-01 5.085136202240934100e-01 3.321328189311446022e-01 -2.549488478857679929e-01 2.643027059644518784e-01 5.336007534326459023e-01 6.959382029258076585e-01 5.214033593047925352e-01 1.000556374316580177e+00 3.403283989535826337e-01 5.252798624122437809e-01 5.125977741698243273e-01 3.197375598521177698e-01 6.653414832146479219e-01 5.232126025006722525e-01 5.226735515033289481e-01 5.000085858726648347e-01 3.475026836288753751e-01 3.126246645783729156e-02 6.027441383665215202e-01 6.615604405441307678e-01 5.264133242800135282e-01 3.887594625770205981e-01 8.600970302059216532e-01 7.805336529757372910e-01 5.654329131028066335e-01 1.976828997677485544e+00 4.723959722554725293e-01 -3.310758112386848140e+00 7.903585970404162220e-01 1.568505786559306836e+00 5.472135245154348127e-01 -1.152944308144504770e+00 8.974754591503029122e-01 4.326563132220072605e-01 5.393361461512237165e-01 5.046695446924355233e-01 -5.212598092927069882e-01 5.308648943844506141e-01 1.085498534127937953e+00 4.514068143020579238e-01 -4.496300929796809287e-01 5.144089999063186092e-01 5.167067174836619259e-01 7.973757591372357956e-01 5.342672787771159948e-01 6.316081964225801482e-01 -5.676031772515433005e-01 5.590407619265764794e-01 5.264769354075674590e-01 4.333553306383184922e-01 5.173127120715425020e-01 7.738748865037849978e-01 5.240729339289885713e-01 6.355494479557384224e-01 3.244096745582995545e-01 5.467242823340235924e-01 1.988265572757948463e-01 3.693570141078911240e-01 4.028016552128296790e-01 9.835353344823857258e-01 5.650562583217904056e-01 3.314375326086209661e+00 6.524889055951960115e-01 6.765836695705520487e-01 5.365974412162523022e-01 4.872056978840386687e-01 1.142994454992389899e-02 5.023491574191207842e-01 5.482971272468565305e-01 5.452857900116828693e-01 1.149348690894168135e+00 7.737516937173030129e-01 5.069227098548799715e-01 4.337402127396057794e-01 1.120738811680438207e+00 5.233731936140543217e-01 5.117471363950834018e-01 5.152721689709898190e-01 8.990985722222674115e-01 5.281323194379473618e-01 9.580642316512030243e-01 4.589980793757202360e-01 5.236807657773491220e-01 6.068235566895583549e-02 5.241237134035701128e-01 2.889342390410580552e-02 2.570223844006710445e-01 3.938450036580725122e-01 5.343398349895893684e-01 7.975043548569480389e-01 5.239933331409969419e-01 3.816624188859846778e-01 1.724068594919361819e-01 5.111472193358771454e-01 4.968064037387773246e-01 4.443823867772064840e-01 -9.800795663568128563e-03 5.257538511867501096e-01 3.013279685617865078e-01 5.238254433853782865e-01 4.076305887849819842e-01 1.266492775997835940e+00 7.224124042624900932e-01 5.151036772561401467e-01 2.399922999478520391e-01 8.799220550097474058e-01 4.759801045485866355e-01 1.011916347526644389e+00 5.319727762601433874e-01 5.877049251017124609e-01 7.206706077695569368e-01 2.063524790855783220e+00 5.439701318910715733e-01 6.197287913897606693e-01 5.644793602136983779e-01 7.938353932109289968e-01 5.844955262365295612e-01 8.935106923208515628e-01 -5.969208373057894867e-01 4.800587126006947147e-01 5.235545155398250161e-01 4.583288897944600704e-01 5.590970442805672791e-01 -6.588789313128178282e-01 3.823120974681358253e-01 5.207442217682375363e-01 7.064227906034068472e-01 6.720734922207978190e-01 1.622047630540010887e+00 5.258181975039747380e-01 5.342729312386955698e-01 -7.591348435391592764e-01 5.293206925383048267e-01 1.270628600420672383e+00 7.389472963866621225e-01 3.121588479646691394e-01 2.121946514364372316e-01 -1.988661295346203062e+00 5.321248981309627535e-01 2.147473671497541203e-01 1.119260736332837070e+00 8.397175862157438830e-01 5.383823712738107226e-01 5.864972189261551394e-01 4.686136695725706680e-01 7.900981110454358136e-01 4.057690680117468363e-01 5.470188586835069700e-01 1.446694384975652677e-02 6.458519229306627363e-01 4.341263815815262772e-01 3.301987190949816076e-01 5.294108103556577349e-01 4.153470635942091982e-01 1.257147145164166480e+00 -8.967140930846799474e-02 -2.564160648190991210e-01 4.121637964513451546e-01 4.776823444013891806e-01 5.221783472984501406e-01 5.603220896314345945e-01 -9.180174735547297349e-01 3.276780171433778754e+00 4.105447058093641965e-01 4.341676263885189124e-01 4.831531009975975621e-01 5.223721674037857809e-01 4.976878306792255624e-01 4.307338464569185343e-01 3.343690692859251912e-01 6.314075132786374223e-01 5.219141260507629276e-01 4.478396513188873662e-01 2.884748258144052557e-01 4.251623169636004618e-01 5.170229493552384037e-01 4.045657679374626281e-01 5.925171687655277353e-01 4.970504470644828143e-01 7.007810279191746261e-01 1.039030714515128295e+00 2.378186752677514448e+00 4.600114443082595206e-01 5.050026695029582458e-01 2.776955349556444186e-01 4.845588001374410148e-01 4.206269909475542912e-01 5.228932571493870585e-01 5.167389839250995376e-01 4.723763657044578457e-01 5.876608995747417685e-01 5.923174308058452020e-01 7.902629377881706940e-01 3.657262323969239226e-01 3.848027651244403380e-01 3.796455935421089167e-01 4.505996298295509850e-01 9.481609340963381705e-02 9.382486645860422803e-01 4.080496172985950132e-01 6.107683483841077482e-02 1.916386045488936318e+00 3.635306480654543204e-01 4.049184287730216991e-01 6.037346039328456149e-01 6.912538032385942555e-02 5.496483240346531352e-01 1.556158624575527893e+00 8.213911961879239998e-01 6.324602930263810707e-01 5.196530334675857343e-01 5.106935213966289355e-01 3.996662145871952010e-01 5.530185394920322794e-01 5.436454326356278122e-01 5.185026207187827252e-01 -3.258271196334093789e-01 4.240910765969798102e-01 -1.731542870769075870e+00 5.641815568080240650e-01 5.413809504097245595e-01 5.292203204568740604e-01 4.116827320960379510e-01 9.382486645890482091e-01 2.417511478588155738e-01 4.904350841649901538e-01 1.405713824758888730e+00 -6.104469614236954778e-01 5.201523919309877231e-01 1.178881832378754435e+00 1.608488717327358986e+00 6.024465108062317942e-01 5.212308178321903851e-01 -7.767414013663978545e-02 -1.768451932498087631e+00 2.599209148308426198e-01 8.820021064511904818e-01 5.470486412283165345e-01 5.241725502434476658e-01 6.026353123995271677e-01 4.759621650313911601e-01 -4.483729707779904872e-01 8.552325963303329948e-01 5.362365120679961628e-01 3.229789531085343057e-01 5.258618537800684445e-01 1.508703831080146843e-02 -1.572809871122188563e-01 1.877601522177573035e+00 4.075456680034559298e-01 4.415467164838929315e-01 5.267455525743195421e-01 3.137290747159550697e-01 4.360608207545132453e-01 -2.051119574467502316e-01 -1.511369375163307049e+00 5.263554113428876580e-01 5.175018559843173049e-01 5.852149246539977145e-01 4.626645781242781919e-01 5.275837251011027407e-01 5.472689655847392531e-01 5.360790472621886904e-01 5.421916798360226775e-01 1.048519625249185516e+00 6.946220608470323743e-01 5.273004102365412837e-01 6.634770451724908424e-01 5.550750075889844259e-01 5.919434456557101099e-01 7.151843228806400998e-02 5.718826109982977357e-01 4.428557251562270647e-01 5.754379848208138748e-01 7.220932360968530528e-01 7.497156814034956485e-01 8.935259912285801187e-01 -5.887520302149086282e-01 5.293494754338197161e-01 5.488908538049782626e-01 5.219410974287801430e-01 6.008057214061716111e-01 9.197949973211877461e-01 4.169047607855315696e-01 5.211671193186566686e-01 -3.558623253505232009e-01 -9.361413161095792912e-01 2.397838618157655866e+00 5.390093680086750494e-01 9.154306806674892272e-01 4.520409794064400577e-01 5.897206125067543381e-01 4.230122448727906548e-01 1.550779444534469420e-01 5.227824907446814162e-01 5.140556363069626045e-01 2.098946190758690239e-02 5.287429776824593697e-01 4.903964129395090854e-01 5.164231870850701789e-01 3.716999451447429159e-01 5.321677710319779875e-01 6.634686089845902579e-01 4.501108306162135975e-01 4.636273111980255823e-01 5.520337119907683388e-01 5.185613340829727802e-01 4.288654681821177928e-01 5.059757357171554837e-01 -2.237091787919044394e-01 5.233097966409931967e-01 6.401027227928355323e-01 5.002395008668312215e-01 7.908085104939037713e-01 9.382486790300204049e-01 7.194165009427905266e-01 -6.372725921812814054e-01 9.695717800455065927e-01 1.911610893522576626e+00 5.257460959474706819e-01 4.636867824981794062e-01 1.099878795664586795e+00 5.121248062248507926e-01 7.910861189302730301e-01 5.210537118352276398e-01 1.939469020268860255e+00 5.217017639906936788e-01 4.777021073314011157e-01 1.240405077417432222e+00 -7.190344694824570004e-02 5.377089349650022720e-01 -1.454584595824243431e-01 -1.018876452607671679e+00 -1.571150098957742602e-01 7.853079945221036473e-01 4.920734117330610169e-01 5.445692968332386252e-01 -3.075844054110689618e-01 4.970189754463856247e-01 3.356814910619838888e-02 -4.470789394384497850e-01 5.511763153360675904e-01 5.101102000970190176e-01 5.272853374735331222e-01 5.261465130095523968e-01 4.689504133699633481e-01 9.286936383588123567e-01 -4.794931335315982812e-01 5.236912252877060636e-01 5.192190972957447803e-01 4.708834092364359569e-01 1.186746227631683581e+00 4.687997752421222963e-01 7.290526887775362619e-01 5.182686683131895178e-01 4.126554119572632684e-02 -5.209580526347222795e-01 4.727813230079114248e-01 4.755147408248305285e-01 6.831686536270064058e-01 5.113497181791550883e-01 4.172599737317947421e-01 5.210503147210953090e-01 5.262900821214270275e-01 4.625395711723635506e-01 5.079478955764517023e-01 8.430263225902113744e-01 2.642545929357082990e+00 -2.591393120477649137e-01 6.483155055232071584e-01 3.944352608474749888e-01 1.929506713436887066e-01 6.336251567715355248e-01 -4.997258849831042599e-02 -1.654809455591219836e+00 5.224403351610343860e-01 2.706533938519692040e+00 5.420962979136469961e-01 1.853427308069313661e-01 1.412173631715585020e-01 5.362374336396666941e-01 5.978642305944336099e-01 1.613641147295389544e+00 5.405283565662956091e-01 1.252868702622602914e-01 3.991762393300882783e-01 1.785633509800675034e+00 5.241586196633302164e-01 8.225071223542202992e-01 5.266380036526230324e-01 7.375168431901972799e-01 4.730053485794480927e-01 5.897127382307362220e-01 3.601593632310986365e-02 5.266477246712595317e-01 6.254649680499381192e-01 -5.968776231440857671e-01 -1.397491137886094081e-01 1.190707889438044287e+00 2.438791014721619910e-01 4.755070281640860208e-01 7.367660637741186846e-01 5.135562230650382309e-01 2.044617060299255940e+00 6.257458124066900274e-01 1.022611753085231334e-02 4.550666403125706583e-01 4.121987978646666217e-01 1.168989465893949031e+00 5.082629498381312505e-01 -1.056948076436785115e-02 5.130259692127833171e-01 2.666005964748546612e-03 5.089965643335093715e-01 5.209187834133175432e-01 3.913980418062396049e-02 6.324879941704053543e-03 6.554085602266291888e-01 4.340743557752709259e-01 5.719095386157890815e-01 1.327171182494194801e-01 3.950989698468228006e-01 5.020920655434648605e-01 4.231458789939324117e-01 5.139801392415055403e-01 4.819342828971985848e-01 5.500688308893102452e-01 1.025657785156300017e+00 3.238190932003238043e+00 9.880188994884617770e-01 5.129548883264196668e-01 4.873345574849876627e-01 2.231224016413604627e-01 5.279833562491040855e-01 8.705473725936223595e-01 5.223967942016299881e-01 1.317334038706909460e+00 5.462069138914643629e-01 -6.099491865125916679e-01 -2.163562621929584692e-02 4.662950456732676829e-01 6.185287786102621199e-01 5.812152994917155757e-01 5.259893255365472031e-01 5.003128737516869540e-02 5.315319522089300142e-01 6.412658802230584154e-01 -3.995337791102491209e+00 4.785649981183817125e-01 5.360658336354183762e-01 1.152207202791300844e+00 5.208663748550270700e-01 3.592964832285153731e-01 6.477603883325826484e-01 -9.423796714849167477e-01 -4.929804078268018031e-01 8.711229057438861847e-03 5.225405637785388580e-01 6.765449834867576229e-01 2.055231209772139522e-01 5.116363139024709961e-01 -3.546856152182963351e-01 4.976788513574763595e-01 5.874809447044390120e-01 6.982572667255443344e-01 5.650419263436998740e-01 4.627595972717188366e-01 1.339534962939703810e-01 -8.150767854392956258e-01 6.508705882197163284e-01 5.129491445098254276e-01 1.489512835691233772e-01 5.249334215404330983e-01 4.703406988691188340e-01 5.386794643882113487e-01 6.524295053114378407e-01 5.886644014138275871e-01 5.568806153996418429e-01 5.075304312338362323e-01 1.911610889537776359e+00 3.394307132903079949e-01 5.158101764308548054e-01 -1.524191732754819617e-01 4.913146506632751764e-01 6.570798614082536959e-01 5.038894089417633726e-01 4.733971767123867913e-01 4.035424579845336424e-01 9.760368520845105200e-01 1.246379651331602778e+00 5.506472464772155240e-01 5.201468229446635227e-01 5.973365942281152474e-01 5.225242692794359600e-01 5.287781360080824333e-01 5.233291591779865026e-01 9.695154062295768815e-01 6.343355869503400912e-01 -4.739844615164357511e-01 4.771004891004401727e-01 8.890368386718482396e-01 5.155083492196196326e-01 -5.619711945606675058e-02 5.222643845011731845e-01 1.658973390808259563e+00 -1.359652735169113724e-01 7.022204689775684017e-01 2.259075726597461475e-01 5.385535899360741618e-01 9.009120274160391517e-01 5.258664488455254693e-01 3.786504298874592833e-01 1.423382637786362315e+00 4.746959183681224714e-01 5.063026850424821035e-01 -7.588907575773491399e-01 4.339746310927398154e-01 1.036725239584764369e+00 6.418048520327962470e-01 5.860302011912493086e-02 1.013054889538161252e+00 6.904462242990152404e-03 7.974495817017996924e-01 1.694952039401238952e+00 -8.765678555993418053e-01 5.110031211478075486e-01 5.216983631429547019e-01 -5.045793972693755070e-01 3.029163005394756025e-01 4.963698625185382074e-01 5.405006680747046488e-01 4.471167100823074114e-01 5.068405766175462235e-01 2.623363602080455159e-01 3.591401834477156996e-01 5.111280869239839264e-01 5.278047098961247130e-01 1.095770160566703934e-02 -2.014159270160770787e-01 5.326301554296879459e-01 1.074245724080335584e+00 6.107113635539512808e-01 -5.973629017566322030e-01 4.093723992046925386e-01 5.210409277051158972e-01 5.741137796796685899e-01 4.838123653318086165e-02 3.221421265999253047e-01 5.201446587930566023e-01 5.317070322729249288e-01 4.582942843559304480e-01 -1.419982633991942467e-02 5.224342305388569585e-01 5.455813449130645365e-01 5.123382401034638489e-01 2.132949775913196788e+00 -2.958807306596323433e-02 3.934591769928561522e-01 4.986816375706878968e-01 1.881961942188936865e+00 5.133453637719416207e-01 5.873884489468760295e-01 4.195973247664376571e-02 5.718826869123961876e-01 5.276096289156892993e-01 4.782395205178437414e-01 4.395230214338441410e-01 5.317229655088437923e-01 5.013995097035797155e-01 5.242696199920064970e-01 -5.905083664993246995e-01 5.240085321106261462e-01 5.337915410281145467e-01 5.052425492472412127e-01 1.402993944722747521e+00 5.192632720839509552e-01 -2.532973867242023780e-01 1.171072879192545102e+00 -1.371615660285837146e+00 -5.665237325872944929e-01 4.784599082327491981e-01 5.247874101176930317e-01 6.745742594703452166e-01 5.478246096677845678e-01 5.668963552188781563e-01 5.150357172409883999e-01 5.718825833335394737e-01 5.254997731019639406e-01 5.864120956182002908e-01 6.160711460073501344e-01 5.233919441377395954e-01 3.436422106494616546e-01 5.287855927843589932e-01 5.274899487016044830e-01 4.321841057048452228e-01 5.193847339374343397e-01 5.138982233524919119e-01 4.992870255049189909e-01 6.417129286057664528e-01 5.242667714421255232e-01 7.437256131001539483e-01 5.377958134133081769e-01 5.219624468537082951e-01 5.326133451428652910e-01 4.666006122395457978e-01 3.192547583770974362e-01 2.538489712410409549e+00 5.713811909234077779e-01 6.540847638767892658e-01 3.008999664484066638e-01 5.697341356483999197e-01 1.130645375318013013e+00 4.390808780797003097e-01 6.771073952667739926e-01 5.219621342750200288e-01
7.104914859468458577e-01 2.899517561546081645e-01 4.701546485894830818e-01 -5.943716542923700025e-02 3.043450390039768028e-01 4.371350724150889766e-01 5.425155833533769068e-01 3.363613971911760259e-01 4.135827955619537089e-01 3.035319054594262100e-01 2.113151938086530901e+00 1.758587374720394392e+00 -1.507384746290666655e+00 5.440814715507741317e-01 3.033878755018575291e-01 4.702125927203055777e-01 1.438458089495576464e-01 4.616038569193705032e-01 3.709228245736282403e-01 3.165075195920108442e-01 3.543623450454646551e-01 2.194112471864319680e+00 3.203091043714570985e-01 3.175993780658653010e-01 7.719251020842881061e-01 -1.230117407455010026e-01 3.555670211561797744e-01 1.664539524140758453e-01 3.838809907231918728e-01 -9.784705622394456181e-01 4.713851822636032640e-01 -1.792564962991027855e-01 2.903429602234947615e-01 2.712718011980669308e-01 -3.951158551693900733e-01 5.109751618252915684e-01 3.270979264895986782e-01 -4.290408109195114617e-01 -3.384576034614743989e+00 3.107653826206981940e-01 1.246471155287584232e+00 1.507154413095775081e-01 -1.717443829457370175e-01 7.907195536708362393e-01 4.825035563980617503e-01 2.953459384907888285e-01 -5.967324703131470648e-02 3.287025384635489100e-01 7.402991144617031283e-02 6.653794977186747728e-01 7.015541505283420243e-01 5.223223370376576247e-01 -7.218294562063939934e-02 2.762667923663600922e-01 5.619733389321989181e-01 6.896303248400792452e-01 2.611966332509287891e-01 3.569823004490004781e-01 3.436979861539421477e-01 2.826147273191794151e-01 4.414280625306924444e-01 4.118469673129058206e-01 2.794768323715139391e-01 3.203090879618989972e-01 -3.329892700580430742e-01 1.014591010068386367e-01 2.989073695263334551e-01 2.988227400065495698e-01 3.474509302985677173e-01 6.743685071897308481e-01 2.434645313244254428e-01 2.828897429976268696e-01 3.096022824244655802e-01 6.913548472135472300e-01 1.977630050043934329e+00 3.162126968403281002e-01 4.844444349883984535e-01 4.838677396872098635e-01 3.036849421431075946e-01 -1.381029375955976635e+00 3.178960770563924454e-01 4.633252404836789573e-01 2.481202406203532718e+00 5.258115272587132044e-02 2.302965279706488122e-01 -3.071745043123257357e-01 1.603087460885664339e-01 3.869129767441861212e-01 -5.919448470267300033e-01 -9.376085218869059101e-01 4.828280621524457250e-01 1.650875331810661262e+00 3.964658685581488179e-02 6.866932180372551375e-01 3.519657637912535497e-01 3.665463008438638592e-01 3.104599289700468723e-01 8.131727672038207011e-01 7.350936732369540705e-01 -1.134302238014039260e-01 -1.902274128174107071e-01 6.025281104067507776e-02 3.390665074920517497e-01 2.584494134100273066e-01 -9.300049018137587775e-02 3.243701617890586419e+00 -3.049463266364329517e-01 4.431766599642479876e-01 5.266537557071030579e-02 8.138098805870901398e-01 3.160309592557749014e-01 5.618345935177158079e-01 1.636014903927949238e-01 2.809079466930501923e-01 -4.611866794851785523e-01 3.502110507417520724e-01 2.542608873728726196e-02 3.105143901037709653e-01 1.291694776665532673e+00 2.823824369004517276e-01 -1.502735973323304330e+00 5.911575640674918142e-02 2.817176941965822412e-02 1.577024967976695669e+00 2.907819472890196821e-01 2.247215040391905561e+00 4.237110161611184478e-01 2.225910294370711806e-01 3.250345394003451016e-01 2.967388878958908127e-01 3.444717488154500074e-01 3.045866786616719391e-01 6.575663312460496845e-01 3.555233999826212243e-01 1.488348187314931514e-01 8.444109720755138548e-01 7.405829607996111674e-01 6.891296207583792466e-01 -3.471175915805847501e-01 2.903802937720950661e-01 3.538940951912896149e-01 3.225235626681312029e-01 3.726808679942405500e-01 3.532702922819251912e-01 3.042126085553560899e-01 6.990893865829620468e-01 -2.108618518475542658e-01 3.198180989780303185e-01 3.872428120082335168e-01 4.083708265904151258e-01 -1.451822554713722846e-01 3.455399867641637673e-02 2.953414071166660104e-01 3.484233905486645577e-01 2.512588851229504705e-01 3.026813033686843180e-01 -2.642351927747527363e+00 4.825517791165928605e-01 -6.220242398654493021e-01 -1.084383798086678563e-01 1.087297591831408589e-01 4.573732320383304684e-01 3.099856075040507419e-01 3.030632938907150686e-01 1.420973901961782027e-01 1.569751027339835181e-01 3.244652278459944084e-01 5.190799412732105544e-01 5.195248981019030543e-01 2.455383250467405576e-01 2.914552065263035230e-01 -6.179903771396773327e-02 2.954168134599396978e-01 3.011557991677001334e-01 -2.581819434970229032e+00 6.619420456504199191e-01 5.350664528293000988e-01 9.041282014341041062e-01 -4.646311173149794693e-01 1.177310487877931244e+00 1.027732300508051727e-01 3.009817583431620425e-01 1.256822723430268907e+00 4.119067143609149162e-01 3.245499936176024502e-01 3.953050100456735327e-01 2.799055324685257307e-01 2.951311901557052697e-01 -5.249110687529265906e-01 3.886860028489526053e-01 4.065425947308512478e-01 8.371322028711259966e-01 3.296199061423415455e-01 3.421845853089974243e-01 2.649950090603873099e-01 3.048348355811164034e-01 -1.742650167004403672e+00 3.006770627595811707e-01 4.070433895517670542e-01 2.199658366949673871e-01 1.084873109809823995e-02 3.506769147410085941e-01 3.921582190163606652e-01 1.661105377593318777e-01 -7.304147059014948207e-01 4.070433826763655838e-01 5.137657279402459976e-01 -5.362549280309113486e-01 2.908451704542429628e-01 3.256295979997074763e-01 2.127246662147962708e-01 -3.378848429683605215e+00 3.635754159715550160e-01 8.944863470833609442e-01 3.121290861482546863e-01 3.063058597566185592e-01 3.068220995845795107e-01 2.871470000037201209e-01 3.054756889442125645e-01 3.091246063341461792e-01 3.984048179766646047e-01 7.489608872114794647e-02 6.802252673468388577e-01 1.254522151491872517e-01 3.501488863712370891e-01 5.634013902900072424e-01 4.265822980762610239e-01 -7.432729554016481721e-01 2.390402367338778422e+00 4.234423733805143253e-01 1.266485983973663076e+00 -1.416029536201647065e+00 3.033421110426356426e-01 3.308220760922591652e-01 3.268645257574054330e-01 1.217911632225332941e+00 5.402213510877835745e-01 8.578971446137734214e-01 2.942697991946625624e-01 6.618113455891329044e-01 1.959428001091585991e-01 3.332373698626213687e-01 -1.219628557377170353e+00 4.025360377417416258e-01 3.046288560054858374e-01 5.098410749388259111e-01 8.533982988454136276e-01 -4.030963536749847531e-01 3.309205174724531684e+00 4.851937965741764391e-01 1.355873844623026292e+00 -3.890329163818681546e-01 2.980484224898673484e-01 3.203084362878969027e-01 3.436608592396886430e-01 3.450600362224577888e-01 1.901940840233992680e-01 -1.824623480266221176e-01 6.457476496299341395e-02 5.635818072298136583e-01 2.109159614158429286e-01 1.186165630969650969e-01 2.544423083326508017e-01 5.358356481796262560e-01 4.414280787529750172e-01 2.991451067989013279e-01 3.379309295015705317e+00 3.123293904370216811e-01 6.481185028023517258e-01 5.000000045288015560e-01 3.776267750479830876e-01 4.412829914128650888e-01 3.082572560636667736e-01 2.980509481113647330e-01 3.042311302692807806e-01 -6.828191330308782669e-01 3.797060671283123412e-01 2.848740731705260432e-01 1.552787667280366712e-01 3.629587543166097885e-01 1.578346876559645118e+00 3.011978873042789884e-01 3.417894136384992398e-01 2.030237235271606266e+00 5.215655607255585968e-01 3.581232576831319125e-01 3.448230026506121648e-01 2.912263195634180457e-01 3.502091233099901002e-01 -2.092863234161602026e+00 3.352969610030876457e-01 1.663014604551059428e+00 -1.277605321623668522e-01 3.477761356704583973e-01 6.440759178596310308e-01 3.409172251249160124e-01 -7.420228970748788955e-01 3.130717027139849895e-01 3.048726864842677409e-01 3.872146403178928220e-01 -4.179760879402044105e-01 2.827202454637370299e-01 -2.482863276247599948e+00 -6.083761343923874132e-02 2.971695432166140405e-01 5.923190059855570899e-01 3.036287095543171444e-01 3.056375208815402811e-01 4.979536360887350521e-01 1.492696774581118990e-01 -4.858592882783036720e-02 -7.889293815494117235e-01 -8.575371436606079451e-03 6.860970229595175773e-01 3.146663823399918347e-01 4.807878645335864065e-01 2.991992476358960595e-01 -6.005901884657642575e-02 3.127673847617939984e-01 2.523077232028259509e+00 6.958673919949207587e-01 2.475259098588951101e-01 -1.210725169044374550e+00 2.602879902161001069e-01 4.898939084187087012e+00 4.405399287034615363e-01 -2.246368045622357534e-01 5.732637316265188909e-01 -5.813864443410431626e+00 5.480089403905753498e-01 1.614667381707177274e+00 3.087449387116226740e-01 5.146475335551797814e-01 -4.650138120632882344e-01 3.943299157066800786e-01 2.110139544770706366e-01 3.592325776969347850e-01 1.979636307448436050e-01 3.061719716456000828e+00 -3.937579663015802756e-01 3.179771120281126850e-01 -1.962331687596929664e+00 3.223544197819070423e-01 -4.290408108539370824e-01 7.680730473036389006e-01 4.608221606188160346e-01 2.632628274588170170e-01 2.932584435927039213e-01 1.251481722823311937e+00 1.725190565489675421e-01 4.070432895605392565e-01 4.025316161599739595e-01 1.661105413261665387e-01 4.281689057899440431e-01 3.764490890531374534e-01 -6.365680733303333838e-01 3.012839076779950664e-01 5.651170852997233762e-01 4.180551086586232756e-01 1.979120402273971957e-01 3.081337434472410375e-01 5.224186870982775455e-01 4.608220805144205290e-01 5.397316941390187806e-01 3.064860444407631612e-01 1.486799387794862093e-01 3.444504579892920804e-01 3.621589365230011293e+00 2.663375162002014629e-01 8.274723777725349894e-02 4.414283610549170067e-01 8.285187348004938723e-01 4.712326973908556593e-01 -1.895772294750026621e-01 6.997667328169531187e-01 3.340517875716960683e-01 1.370460488581553282e-01 4.377325295752282353e-01 6.853392941081296597e-01 4.788779493420223798e-01 8.089387814639825702e-01 8.307327892377357470e-01 1.709752717772509978e-01 1.661104835093193122e-01 1.661105396740907847e-01 3.488183129892802881e-01 2.763924910984684735e-01 1.119184077920430065e+00 3.745336754041238003e-01 2.942568851355192305e-01 2.272839948582026370e-01 3.035306337822659684e-01 7.269393630944650520e-01 4.070438110757279015e-01 3.031052925898978234e-01 3.705379535424033199e-01 1.628481911264240134e-01 -6.494411222098486203e-01 2.971417740309540423e-01 3.026998239915208999e-01 3.124361164828397541e-01 6.430111243330527415e-01 6.328788898036010746e-01 1.661105273482313127e-01 1.826651455570187654e-01 3.121050724100081775e-01 5.185865236099757025e-01 -6.002417740405909807e-01 1.650818885964859817e-01 -3.652275562140095744e+00 2.089167802775188321e+00 6.124530257061688854e-01 -5.058277848850744052e-01 -5.934754716114811618e-02 2.121753449109885725e+00 3.265084556050093512e-01 6.617259894704429213e-01 -9.769714255738286279e-02 4.348898925100945778e-01 3.679231722733516952e-01 2.985285666563760043e-01 -6.161502086873201778e-01 2.833419539847782942e-01 2.128305202932257778e+00 1.816948095224310833e-01 -4.932456045387343946e-01 2.848802605668492305e-01 2.968267115826183078e-01 -1.485441840719748718e+00 3.461837979427479506e-01 3.747500121385736738e-01 4.039030548838341561e-01 1.003881547258147766e-01 3.044230198698614220e-01 2.476838247935849169e-01 2.784997160594474552e-01 -1.620503206761033099e-01 3.034631444923585608e-01 1.255046013147212147e-01 3.018609233589157337e-01 3.119442814181811463e-01 1.476262318924018158e-02 3.440963157555264051e-01 4.331891153690778928e-01 -1.458574281696512820e+00 -7.474996031850458245e-01 -1.263461087473177480e-01 1.858546666627620969e-01 9.973089111730042144e-02 4.402002124418908369e-01 3.450873177354922272e-01 6.955200798509352245e-01 -1.478885025349698235e-01 3.166064829243581125e-01 3.115499925140995385e-01 9.840788871587746733e-02 -1.617431007118481645e-01 3.384266440182823188e-01 4.517797137122274709e-01 4.802216480266087162e-01 2.980852243578258065e-01 3.042655161881269166e-01 3.072270257118706049e-01 2.377683514131542220e-01 3.036336914460735503e-01 4.640741719107396857e-01 2.026331585845205785e-01 3.039702605856489659e-01 6.995352775939789325e-01 2.825711559936416317e-01 6.857764655487158523e-01 -6.794296498559648789e-02 6.088690132985133951e-01 3.270635449759275448e-01 -1.493330142976704744e+00 3.022610365816454370e-01 6.135673876296248164e-01 3.308847156559059921e-01 3.385958324162521293e-01 3.777076038103002742e-01 1.550271067229932742e-01 6.905083725727324540e-01 3.071585536965327212e-01 4.480075373555407747e-01 3.042504824694287624e-01 2.700386392638507993e-01 1.606807184400182442e-01 4.465424072340860584e-01 3.034607239259132783e-01 1.238492649515685051e-01 -2.714859888715411701e-02 1.573303017869136788e-01 1.697625903409838211e+00 1.478469299736508979e-01 3.012556182359520940e-01 3.986818552996680420e-01 -8.890188115366259858e-01 2.850363385881103384e-01 2.218856390927386180e-01 2.102108197953916624e-01 -1.279128086844137369e-01 2.596712671425575047e-01 1.781503772651590323e+00 8.996573174156394792e-01 4.771527264844120930e-01 2.817475772813144985e-01 2.921783683328761927e-01 3.424664159282525544e-01 9.454493075899158550e-01 3.146382656393371224e+00 3.042410588073479194e-01 2.832878044442490965e-03 5.786170598962451228e-01 -2.728283146880255972e-01 3.042684471902989407e-01 2.995602880899346232e-01 1.103279574762528803e+00 2.928799857439107202e-01 -3.634539526605369275e-01 4.000341934825464296e-01 1.505141998870159203e-01 5.939116526709297128e-01 1.941127631837755496e+00 3.051884776686783485e-01 3.042658893018313493e-01 1.687633845591918869e+00 3.804585457966043749e-01 3.041941167296581261e-01 1.452979814431538397e-01 1.474913168791877338e-01 -5.927491716366539709e-02 5.255269247841314328e-01 2.501375617551487296e-01 6.944729576916062186e-01 2.924694406315989093e-01 1.899854919551178523e-01 3.438853767839658571e-01 2.670284881525468168e-01 4.685441165514433459e-01 2.689111998248640556e-01 8.580403015527876542e-01 5.251318978498519252e-01 5.300684434915773346e-01 3.943330327567522442e-01 2.969568398239232909e-01 3.115817239773729930e-01 5.978050523152597107e-01 7.867953448666004101e-01 3.774506710152347733e-01 3.534553606411864335e-01 6.570554333584857076e-01 3.078421461537377835e-01 6.651499607955907445e-01 3.941020709785574838e-01 4.977039982871791501e-01 -2.934558887372653579e-01 3.010709057499287300e-01 3.190536924177017619e-01 4.722463745616475306e-01 1.760011583859523721e-01 3.561966797081573821e-01 1.863775798630893377e+00 -3.878205188760652788e-02 3.885617248086454811e-01 -2.498403590572001731e-01 1.725898119052274859e+00 1.175345687145977980e+00 4.675774576841915803e-02 -4.254956423972828250e-01 4.631152730046805832e-01 2.355918379591168954e-01 4.462734289352449091e-01 3.023223690929924823e-01 3.022355551490280012e-01 2.629335137671537370e-01 3.227496526887671524e-01 2.436967665666529836e-01 -5.909125959634090042e-02 -2.539870039240106347e-01 2.743583960249862952e-01 1.969057662293253741e-01 2.817701482081264031e-01 8.944866735125114321e-01 4.414280722949537328e-01 3.237177735354215269e-01 8.707894449345122689e-01 4.745578358940287234e-01 4.827389432140774539e-01 4.243753133817064205e-01 7.059349521013141837e-01 1.495952947839048752e+00 4.101031534535189427e-01 2.163172995406660526e+00 -1.360845773463023947e-02 1.715172637585052062e-01 3.007781879617871246e-01 3.369963641180648284e-01 4.057482649113842710e-01 2.455109913697942625e-01 3.000802908582210216e-01 3.022470528715087701e-01 3.776557664635779576e-01 2.579173853427956242e-01 -3.894791036926256167e-01 3.417486083786534512e-01 -3.374225788981904950e-02 3.175614622913764395e-01 3.871577959838501948e-01 4.414280724065217654e-01 2.514473939317359852e-01 2.739540524389647014e-01 -1.346759308321958448e+00 2.016757242820444773e+00 3.040619043527232335e-01 -7.869859764942426228e-01 2.964755958806994385e-01 3.446079878528295892e-01 3.028604752754483487e-01 -4.951456545025596512e+00 3.643564028032497237e+00 6.421191593706606637e-01 -7.087304097868644612e-03 3.208198708463489979e-01 3.004952075795950250e-01 2.390861853774926271e-01 2.703788117773826993e+00 6.389148778937637774e-01 3.199182502264814598e-01 3.502111128877700152e-01 3.372258860216922338e-01 2.919083456554853462e-01 8.467553157699595490e-01 -3.689899392305862613e-01 -1.271988844282969211e+00 -1.263366983859506965e+00 2.901557023469447660e-01 2.995401694398505676e-01 7.560919224153306306e-01 3.364967523888576784e-01 1.594644998455620355e+00 5.042591939667537826e-01 3.071146633779207602e-01 3.231621945840959520e-01 3.057271704085367525e-01 3.153281229391484142e-01 3.179347592705444314e-01 6.285024870643447503e-01 3.850816143590599649e-01 6.548264795431548713e-01 2.427247138149477845e-01 8.724321497350977228e-02 3.180524246822934997e-01 1.732191016411287754e-01 2.278567341684794023e-01 3.539426936052095241e-01 6.220572501490542194e-01 4.608221438292994243e-01 1.875843308194343750e-01 2.460610547147710214e-01 2.977558705837619613e-01 2.862514143174518799e-01 1.781483490845392037e+00 1.993071620470358463e+00 3.182818348682817655e-01 2.704094419653213510e-01 3.089808723733695750e-01 1.810908884534936925e-01 2.157629529240270849e-01 4.734089915244945601e-01 3.167743174432248732e-01 3.323823541087205791e-01 8.201667315981329143e-01 9.106185121643226577e-01 3.928817784119000289e-01 1.921540515880276301e+00 4.178788031307171247e-01 -3.188972433215461755e-01 -2.659038428650271624e-01 -2.940024818442015797e-01 3.034560243556834735e-01 3.408070376730736872e-01 7.028903618732388336e-01 3.125920440249696508e-01 4.011905973832942673e-01 3.207319005577423110e-01 2.663292803387484198e-01 2.610336521733293558e-01 -1.096190458493150888e-01 9.969593174605611008e-01 2.959515936466747821e-01 2.267484784409397880e-01 3.086006276587651698e-01 3.434272793636881094e-01 2.848836151025574415e-01 4.020086822118083547e-01 -6.138994204139158750e-02 2.217734977562361987e-01 3.206904791856598491e-01 -5.990890913334619150e-02 4.414281352813746451e-01 1.083238932140863531e+00 9.855097665123563333e-01 -7.095802634950660881e-01 -4.290408111962408233e-01 6.616679855236019536e-01 -3.439551909598665524e+00 1.597924079138598907e+00 3.054353315755656828e-01 -5.934352891346038328e-02 2.992816321631585064e-01 9.226744454316914146e-01 3.014610762948501943e-01 4.025360475911823888e-01 -4.406914740160962629e-01 8.052418793943054709e-01 3.020374510056672568e-01 8.409988441182745245e-01 2.140988218086235850e+00 -3.691001551193310859e-01 -1.506545415986640490e+00 3.348291784245274183e-01 2.968296891280770566e-01 7.353063174526076606e-01 3.308985801069661004e-01 6.863798277237831424e-01 4.690151344114179000e-01 4.072494555835933228e-01 2.902489981368808203e-01 2.953697383099345708e-01 3.489466110086675288e-01 3.199976796628422604e-01 1.463970046627625310e+00 1.706362690644459779e+00 3.061873802965731084e-01 3.207707856692864068e-01 3.644564946536794081e-01 -2.564231927994647386e-01 2.459067159298242156e-01 -8.196119033846369084e-02 3.034312675867426035e-01 7.035190083752911328e-01 -6.160662008079264007e-01 3.571459747568930254e-01 3.333686994855473706e-01 1.610880804097067631e-01 2.731556465344302520e-01 1.578281001857400612e-01 3.046347506494654911e-01 3.044252467210040169e-01 1.068247069223080409e-01 3.023652096107569687e-01 4.288166544530938040e-01 1.150974233467340069e+00 1.117437186603773114e+00 8.942558277960667157e-01 2.421382276524106092e-01 8.012291918240116440e-01 1.738544584172641017e-01 5.239448359621580176e-01 -2.243839614078868561e+00 3.052594969864332874e-01 6.688560185862197915e-01 3.082787937829974401e-01 9.354016164540731593e-01 1.393558773685334762e+00 3.502110230784233336e-01 2.271046564082901675e-01 3.775670387305645748e-01 4.564013829885738560e-01 5.455927631747830020e-01 1.020560380993785321e+00 -8.517177374119481170e-01 3.443004441184512876e-01 -1.330009422084452858e-02 2.949900386842286837e-01 3.391593694869522446e-01 7.470624215637478027e-01 -3.215956275208859960e-01 4.215851232213393418e-01 2.975403548212970928e-01 3.525811837915467373e-01 8.993054235732894641e-01 4.391252352247702051e-01 -2.312729227007415955e-01 8.563185751104208654e-01 -1.972860875350775436e-02 5.455669878029677511e-01 3.362556265615601614e-01 1.309644100165122893e+00 6.098007801303321207e-01 6.953677650326267612e-01 4.200047852440777496e-01 4.690027078725724774e-01 -6.230849270848405341e-01 2.193429159259421002e-01 7.311642053610788450e-01 3.085658216423688982e-01 5.913504099633177802e-01 2.854451869289259536e-01 3.082162129774312920e-01 6.913208691963028674e-01 1.853614848191209863e-01 -2.094672167842656307e+00 2.527491998222508585e-01 2.551674588127342269e-01 1.012125603448161160e+00 2.968653892252530735e-01 2.821489775273301470e-01 3.631474990660399915e-01 3.079669791801943335e-01 4.166389336831237133e-01 1.529951561627341805e-01 -1.647205328635226618e+00 7.759411179942875547e-01 2.316504201571293053e-01 2.780975137028423028e-01 3.821542673565066495e-01 8.145282626724529296e-01 3.085098571726943573e-01 -1.678462010374721924e-01 3.555622309203620435e-01 1.131602456442095894e+00 3.549813885395892155e-01 4.174841657879069801e-01 1.025257928311576139e+00 4.411102557285931924e-01 2.917508192869487704e+00 3.073278590483301542e-01 2.792818299231818457e-01 7.139848884387386407e-01 3.087664270388626453e-01 3.111090735025820453e-01 -2.252511377727970387e+00 4.762796122409737043e-01 3.091167894187858423e-01 5.230428420836188419e-01 2.969089055059128124e-01 1.964698383395303283e-01 -1.225308639785901571e-01 2.116025958076737989e+00 -5.156902272891055183e-01 8.186821850984964399e-01 3.023911596509555322e-01 3.402431177943490148e-01 8.879918089185683261e-01 2.804890672759518533e-01 1.361955841555088531e+00 2.758992243979624948e-01 4.301622606644200930e-01 -8.901569759157873518e-01 -1.209552084805452926e-01 -7.424448268265365636e-01 -4.191172109492434572e+00 3.059204513053048302e+00 1.106180277346551638e-02 3.082230531318169153e-01 -1.707456052502339450e+00 3.010709472665233921e-01 5.215890266266843822e-01 2.909835707440702746e-01 2.086857275279896395e-01 6.453112387832264929e-01 6.090900085560921884e-01 1.150411185794752322e+00 -4.290408102547910163e-01 -2.481569484772609968e-01 3.231490495928559525e-01 -1.210439754685459723e+00 4.133885671776021953e-01 -6.710312148711475855e-01 3.132895671007758231e-01 4.231093883042489345e-01 1.679363035749649458e-01 4.701714226845038480e-01 2.570158486758213345e-01 4.373354039900678031e-02 3.230456090627457089e-01 2.730176840595417986e-01 3.674684634815763018e-01 2.716939695449010483e-01 3.080768209709867089e-01 -7.095167624493681213e-01 3.972160900461016997e-01 1.558414474837479080e+00 8.873038657390883155e-02 2.320101653649725704e-01 2.698645968318757471e-01 1.197417585436419962e+00 2.967086263615534847e-01 5.794712737974923311e-02 8.740268762484093568e-01 1.863831923258243151e-01 1.918872311625972715e+00 3.312770800317340614e-01 1.448727717739978660e+00 3.185144537806254283e-01 7.307753726538358530e-01 1.366669737021854125e+00 4.412627594917867824e-01 1.911221681292638586e-01 9.715717186527695892e-01 -1.735447115213942793e-01 -7.666497883273712399e-02 2.918823501515829810e-01 3.116563827490039795e-01 3.729565945266912208e-01 1.487354697855824415e-01 6.430948909725089924e-02 -4.057339808739513498e-01 1.291489813123049446e+00 3.060087344071960591e-01 3.033848738450723448e-01 -3.344155959413565249e+00 5.841236753719031283e-01 2.037371750414567473e-01 2.779224901452233554e-01 3.258160285196564643e-01 3.439426848556471072e-01 -1.165430546629976138e+00 6.430585854522569145e-01 3.055048159017025311e-01 3.061793322568082121e-01 1.007312306394613888e+00 4.790114512711137196e-01 2.849819965177258219e-01 -1.438781071261233668e+00 3.009656944107975129e-01 8.991544870353200825e-01 4.075136468954285163e-01 3.136858065082616664e-01 2.271458848635393990e-01 7.046503073889213153e-01 -2.145396880529880021e-02 3.026788199571784355e-01 2.837088527726914777e-01 1.203572944816141965e-01 6.658622797097054624e-01 2.535846716781253729e-01 6.557097697964934246e-01 2.321248048360207428e-01 6.983554975605608117e-01 -2.664001244463581330e-01 -1.517375349234148185e+00 3.113685728156230792e-01 -2.429899274683919655e-02 2.558680805036505634e-01 3.073432502443534386e-01 5.966639799043319675e-02 4.608222910023005991e-01 3.005729450099615119e-01 8.918049721845948408e-02 3.832626879587097690e-01 2.818126925055209342e-01 2.781143702512728355e-01 3.399589883562169068e-01 -8.936832722705582155e-01 3.040072979384100260e-01 3.412719448431983382e-01 3.159011274270342451e-01 -4.483979975506805493e-01 3.140875191001135658e-01 8.603574030587974875e-01 -6.791575655137311873e-01 1.162627500502602107e+00 6.300116321845572465e-01 3.075756424444313630e-01 3.086053804835993675e-01 -2.099343497687714333e+00 3.103859264134787299e-01 3.910119437150950117e-01 3.329383660837753611e-01 4.608221826002859567e-01 3.013336898905620842e-01 3.360725013374065706e-01 4.048105309287515496e-02 3.073732872509629122e-01 4.286348900923058203e-01 3.156735928033312932e-01 2.753513648895278276e-01 2.732829974224540992e-01 3.087103143855883247e-01 3.018849688061953640e-01 3.829234193450823387e-01 2.155430726120108609e-01 3.052541897841101193e-01 6.354195255640743278e-01 1.277466793568988179e-01 3.011659138439924943e-01 -1.629317263846667696e-01 2.348586725420383492e-01 7.040763132438797589e-01 4.695826705788206823e+00 2.887224718475299157e-01 4.797469633317685139e-02 5.786235907796817290e-01 1.727078573790326865e-01 1.593607655939563106e+00 2.946184901127859579e-01 6.165035858727384577e-01 3.093993749254470571e-01
