# 
#                 ----------------------------------------------------
#                 Data from a 3D direct N-body simulation. 
# 
#                 rows are i-particle; 
#                 coumns are :mass, tag, x ,y, z, vx, vy, vz, ax, ay, az
# 
#                 NTHU, Computational Physics 
# 
#                 ----------------------------------------------------
#                 Time = 0.0
0.000000000000000000e+00 1.000000000000000000e+00 2.000000000000000000e+00 3.000000000000000000e+00 4.000000000000000000e+00 5.000000000000000000e+00 6.000000000000000000e+00 7.000000000000000000e+00 8.000000000000000000e+00 9.000000000000000000e+00 1.000000000000000000e+01 1.100000000000000000e+01 1.200000000000000000e+01 1.300000000000000000e+01 1.400000000000000000e+01 1.500000000000000000e+01 1.600000000000000000e+01 1.700000000000000000e+01 1.800000000000000000e+01 1.900000000000000000e+01 2.000000000000000000e+01 2.100000000000000000e+01 2.200000000000000000e+01 2.300000000000000000e+01 2.400000000000000000e+01 2.500000000000000000e+01 2.600000000000000000e+01 2.700000000000000000e+01 2.800000000000000000e+01 2.900000000000000000e+01 3.000000000000000000e+01 3.100000000000000000e+01 3.200000000000000000e+01 3.300000000000000000e+01 3.400000000000000000e+01 3.500000000000000000e+01 3.600000000000000000e+01 3.700000000000000000e+01 3.800000000000000000e+01 3.900000000000000000e+01 4.000000000000000000e+01 4.100000000000000000e+01 4.200000000000000000e+01 4.300000000000000000e+01 4.400000000000000000e+01 4.500000000000000000e+01 4.600000000000000000e+01 4.700000000000000000e+01 4.800000000000000000e+01 4.900000000000000000e+01 5.000000000000000000e+01 5.100000000000000000e+01 5.200000000000000000e+01 5.300000000000000000e+01 5.400000000000000000e+01 5.500000000000000000e+01 5.600000000000000000e+01 5.700000000000000000e+01 5.800000000000000000e+01 5.900000000000000000e+01 6.000000000000000000e+01 6.100000000000000000e+01 6.200000000000000000e+01 6.300000000000000000e+01 6.400000000000000000e+01 6.500000000000000000e+01 6.600000000000000000e+01 6.700000000000000000e+01 6.800000000000000000e+01 6.900000000000000000e+01 7.000000000000000000e+01 7.100000000000000000e+01 7.200000000000000000e+01 7.300000000000000000e+01 7.400000000000000000e+01 7.500000000000000000e+01 7.600000000000000000e+01 7.700000000000000000e+01 7.800000000000000000e+01 7.900000000000000000e+01 8.000000000000000000e+01 8.100000000000000000e+01 8.200000000000000000e+01 8.300000000000000000e+01 8.400000000000000000e+01 8.500000000000000000e+01 8.600000000000000000e+01 8.700000000000000000e+01 8.800000000000000000e+01 8.900000000000000000e+01 9.000000000000000000e+01 9.100000000000000000e+01 9.200000000000000000e+01 9.300000000000000000e+01 9.400000000000000000e+01 9.500000000000000000e+01 9.600000000000000000e+01 9.700000000000000000e+01 9.800000000000000000e+01 9.900000000000000000e+01 1.000000000000000000e+02 1.010000000000000000e+02 1.020000000000000000e+02 1.030000000000000000e+02 1.040000000000000000e+02 1.050000000000000000e+02 1.060000000000000000e+02 1.070000000000000000e+02 1.080000000000000000e+02 1.090000000000000000e+02 1.100000000000000000e+02 1.110000000000000000e+02 1.120000000000000000e+02 1.130000000000000000e+02 1.140000000000000000e+02 1.150000000000000000e+02 1.160000000000000000e+02 1.170000000000000000e+02 1.180000000000000000e+02 1.190000000000000000e+02 1.200000000000000000e+02 1.210000000000000000e+02 1.220000000000000000e+02 1.230000000000000000e+02 1.240000000000000000e+02 1.250000000000000000e+02 1.260000000000000000e+02 1.270000000000000000e+02 1.280000000000000000e+02 1.290000000000000000e+02 1.300000000000000000e+02 1.310000000000000000e+02 1.320000000000000000e+02 1.330000000000000000e+02 1.340000000000000000e+02 1.350000000000000000e+02 1.360000000000000000e+02 1.370000000000000000e+02 1.380000000000000000e+02 1.390000000000000000e+02 1.400000000000000000e+02 1.410000000000000000e+02 1.420000000000000000e+02 1.430000000000000000e+02 1.440000000000000000e+02 1.450000000000000000e+02 1.460000000000000000e+02 1.470000000000000000e+02 1.480000000000000000e+02 1.490000000000000000e+02 1.500000000000000000e+02 1.510000000000000000e+02 1.520000000000000000e+02 1.530000000000000000e+02 1.540000000000000000e+02 1.550000000000000000e+02 1.560000000000000000e+02 1.570000000000000000e+02 1.580000000000000000e+02 1.590000000000000000e+02 1.600000000000000000e+02 1.610000000000000000e+02 1.620000000000000000e+02 1.630000000000000000e+02 1.640000000000000000e+02 1.650000000000000000e+02 1.660000000000000000e+02 1.670000000000000000e+02 1.680000000000000000e+02 1.690000000000000000e+02 1.700000000000000000e+02 1.710000000000000000e+02 1.720000000000000000e+02 1.730000000000000000e+02 1.740000000000000000e+02 1.750000000000000000e+02 1.760000000000000000e+02 1.770000000000000000e+02 1.780000000000000000e+02 1.790000000000000000e+02 1.800000000000000000e+02 1.810000000000000000e+02 1.820000000000000000e+02 1.830000000000000000e+02 1.840000000000000000e+02 1.850000000000000000e+02 1.860000000000000000e+02 1.870000000000000000e+02 1.880000000000000000e+02 1.890000000000000000e+02 1.900000000000000000e+02 1.910000000000000000e+02 1.920000000000000000e+02 1.930000000000000000e+02 1.940000000000000000e+02 1.950000000000000000e+02 1.960000000000000000e+02 1.970000000000000000e+02 1.980000000000000000e+02 1.990000000000000000e+02 2.000000000000000000e+02 2.010000000000000000e+02 2.020000000000000000e+02 2.030000000000000000e+02 2.040000000000000000e+02 2.050000000000000000e+02 2.060000000000000000e+02 2.070000000000000000e+02 2.080000000000000000e+02 2.090000000000000000e+02 2.100000000000000000e+02 2.110000000000000000e+02 2.120000000000000000e+02 2.130000000000000000e+02 2.140000000000000000e+02 2.150000000000000000e+02 2.160000000000000000e+02 2.170000000000000000e+02 2.180000000000000000e+02 2.190000000000000000e+02 2.200000000000000000e+02 2.210000000000000000e+02 2.220000000000000000e+02 2.230000000000000000e+02 2.240000000000000000e+02 2.250000000000000000e+02 2.260000000000000000e+02 2.270000000000000000e+02 2.280000000000000000e+02 2.290000000000000000e+02 2.300000000000000000e+02 2.310000000000000000e+02 2.320000000000000000e+02 2.330000000000000000e+02 2.340000000000000000e+02 2.350000000000000000e+02 2.360000000000000000e+02 2.370000000000000000e+02 2.380000000000000000e+02 2.390000000000000000e+02 2.400000000000000000e+02 2.410000000000000000e+02 2.420000000000000000e+02 2.430000000000000000e+02 2.440000000000000000e+02 2.450000000000000000e+02 2.460000000000000000e+02 2.470000000000000000e+02 2.480000000000000000e+02 2.490000000000000000e+02 2.500000000000000000e+02 2.510000000000000000e+02 2.520000000000000000e+02 2.530000000000000000e+02 2.540000000000000000e+02 2.550000000000000000e+02 2.560000000000000000e+02 2.570000000000000000e+02 2.580000000000000000e+02 2.590000000000000000e+02 2.600000000000000000e+02 2.610000000000000000e+02 2.620000000000000000e+02 2.630000000000000000e+02 2.640000000000000000e+02 2.650000000000000000e+02 2.660000000000000000e+02 2.670000000000000000e+02 2.680000000000000000e+02 2.690000000000000000e+02 2.700000000000000000e+02 2.710000000000000000e+02 2.720000000000000000e+02 2.730000000000000000e+02 2.740000000000000000e+02 2.750000000000000000e+02 2.760000000000000000e+02 2.770000000000000000e+02 2.780000000000000000e+02 2.790000000000000000e+02 2.800000000000000000e+02 2.810000000000000000e+02 2.820000000000000000e+02 2.830000000000000000e+02 2.840000000000000000e+02 2.850000000000000000e+02 2.860000000000000000e+02 2.870000000000000000e+02 2.880000000000000000e+02 2.890000000000000000e+02 2.900000000000000000e+02 2.910000000000000000e+02 2.920000000000000000e+02 2.930000000000000000e+02 2.940000000000000000e+02 2.950000000000000000e+02 2.960000000000000000e+02 2.970000000000000000e+02 2.980000000000000000e+02 2.990000000000000000e+02 3.000000000000000000e+02 3.010000000000000000e+02 3.020000000000000000e+02 3.030000000000000000e+02 3.040000000000000000e+02 3.050000000000000000e+02 3.060000000000000000e+02 3.070000000000000000e+02 3.080000000000000000e+02 3.090000000000000000e+02 3.100000000000000000e+02 3.110000000000000000e+02 3.120000000000000000e+02 3.130000000000000000e+02 3.140000000000000000e+02 3.150000000000000000e+02 3.160000000000000000e+02 3.170000000000000000e+02 3.180000000000000000e+02 3.190000000000000000e+02 3.200000000000000000e+02 3.210000000000000000e+02 3.220000000000000000e+02 3.230000000000000000e+02 3.240000000000000000e+02 3.250000000000000000e+02 3.260000000000000000e+02 3.270000000000000000e+02 3.280000000000000000e+02 3.290000000000000000e+02 3.300000000000000000e+02 3.310000000000000000e+02 3.320000000000000000e+02 3.330000000000000000e+02 3.340000000000000000e+02 3.350000000000000000e+02 3.360000000000000000e+02 3.370000000000000000e+02 3.380000000000000000e+02 3.390000000000000000e+02 3.400000000000000000e+02 3.410000000000000000e+02 3.420000000000000000e+02 3.430000000000000000e+02 3.440000000000000000e+02 3.450000000000000000e+02 3.460000000000000000e+02 3.470000000000000000e+02 3.480000000000000000e+02 3.490000000000000000e+02 3.500000000000000000e+02 3.510000000000000000e+02 3.520000000000000000e+02 3.530000000000000000e+02 3.540000000000000000e+02 3.550000000000000000e+02 3.560000000000000000e+02 3.570000000000000000e+02 3.580000000000000000e+02 3.590000000000000000e+02 3.600000000000000000e+02 3.610000000000000000e+02 3.620000000000000000e+02 3.630000000000000000e+02 3.640000000000000000e+02 3.650000000000000000e+02 3.660000000000000000e+02 3.670000000000000000e+02 3.680000000000000000e+02 3.690000000000000000e+02 3.700000000000000000e+02 3.710000000000000000e+02 3.720000000000000000e+02 3.730000000000000000e+02 3.740000000000000000e+02 3.750000000000000000e+02 3.760000000000000000e+02 3.770000000000000000e+02 3.780000000000000000e+02 3.790000000000000000e+02 3.800000000000000000e+02 3.810000000000000000e+02 3.820000000000000000e+02 3.830000000000000000e+02 3.840000000000000000e+02 3.850000000000000000e+02 3.860000000000000000e+02 3.870000000000000000e+02 3.880000000000000000e+02 3.890000000000000000e+02 3.900000000000000000e+02 3.910000000000000000e+02 3.920000000000000000e+02 3.930000000000000000e+02 3.940000000000000000e+02 3.950000000000000000e+02 3.960000000000000000e+02 3.970000000000000000e+02 3.980000000000000000e+02 3.990000000000000000e+02 4.000000000000000000e+02 4.010000000000000000e+02 4.020000000000000000e+02 4.030000000000000000e+02 4.040000000000000000e+02 4.050000000000000000e+02 4.060000000000000000e+02 4.070000000000000000e+02 4.080000000000000000e+02 4.090000000000000000e+02 4.100000000000000000e+02 4.110000000000000000e+02 4.120000000000000000e+02 4.130000000000000000e+02 4.140000000000000000e+02 4.150000000000000000e+02 4.160000000000000000e+02 4.170000000000000000e+02 4.180000000000000000e+02 4.190000000000000000e+02 4.200000000000000000e+02 4.210000000000000000e+02 4.220000000000000000e+02 4.230000000000000000e+02 4.240000000000000000e+02 4.250000000000000000e+02 4.260000000000000000e+02 4.270000000000000000e+02 4.280000000000000000e+02 4.290000000000000000e+02 4.300000000000000000e+02 4.310000000000000000e+02 4.320000000000000000e+02 4.330000000000000000e+02 4.340000000000000000e+02 4.350000000000000000e+02 4.360000000000000000e+02 4.370000000000000000e+02 4.380000000000000000e+02 4.390000000000000000e+02 4.400000000000000000e+02 4.410000000000000000e+02 4.420000000000000000e+02 4.430000000000000000e+02 4.440000000000000000e+02 4.450000000000000000e+02 4.460000000000000000e+02 4.470000000000000000e+02 4.480000000000000000e+02 4.490000000000000000e+02 4.500000000000000000e+02 4.510000000000000000e+02 4.520000000000000000e+02 4.530000000000000000e+02 4.540000000000000000e+02 4.550000000000000000e+02 4.560000000000000000e+02 4.570000000000000000e+02 4.580000000000000000e+02 4.590000000000000000e+02 4.600000000000000000e+02 4.610000000000000000e+02 4.620000000000000000e+02 4.630000000000000000e+02 4.640000000000000000e+02 4.650000000000000000e+02 4.660000000000000000e+02 4.670000000000000000e+02 4.680000000000000000e+02 4.690000000000000000e+02 4.700000000000000000e+02 4.710000000000000000e+02 4.720000000000000000e+02 4.730000000000000000e+02 4.740000000000000000e+02 4.750000000000000000e+02 4.760000000000000000e+02 4.770000000000000000e+02 4.780000000000000000e+02 4.790000000000000000e+02 4.800000000000000000e+02 4.810000000000000000e+02 4.820000000000000000e+02 4.830000000000000000e+02 4.840000000000000000e+02 4.850000000000000000e+02 4.860000000000000000e+02 4.870000000000000000e+02 4.880000000000000000e+02 4.890000000000000000e+02 4.900000000000000000e+02 4.910000000000000000e+02 4.920000000000000000e+02 4.930000000000000000e+02 4.940000000000000000e+02 4.950000000000000000e+02 4.960000000000000000e+02 4.970000000000000000e+02 4.980000000000000000e+02 4.990000000000000000e+02 5.000000000000000000e+02 5.010000000000000000e+02 5.020000000000000000e+02 5.030000000000000000e+02 5.040000000000000000e+02 5.050000000000000000e+02 5.060000000000000000e+02 5.070000000000000000e+02 5.080000000000000000e+02 5.090000000000000000e+02 5.100000000000000000e+02 5.110000000000000000e+02 5.120000000000000000e+02 5.130000000000000000e+02 5.140000000000000000e+02 5.150000000000000000e+02 5.160000000000000000e+02 5.170000000000000000e+02 5.180000000000000000e+02 5.190000000000000000e+02 5.200000000000000000e+02 5.210000000000000000e+02 5.220000000000000000e+02 5.230000000000000000e+02 5.240000000000000000e+02 5.250000000000000000e+02 5.260000000000000000e+02 5.270000000000000000e+02 5.280000000000000000e+02 5.290000000000000000e+02 5.300000000000000000e+02 5.310000000000000000e+02 5.320000000000000000e+02 5.330000000000000000e+02 5.340000000000000000e+02 5.350000000000000000e+02 5.360000000000000000e+02 5.370000000000000000e+02 5.380000000000000000e+02 5.390000000000000000e+02 5.400000000000000000e+02 5.410000000000000000e+02 5.420000000000000000e+02 5.430000000000000000e+02 5.440000000000000000e+02 5.450000000000000000e+02 5.460000000000000000e+02 5.470000000000000000e+02 5.480000000000000000e+02 5.490000000000000000e+02 5.500000000000000000e+02 5.510000000000000000e+02 5.520000000000000000e+02 5.530000000000000000e+02 5.540000000000000000e+02 5.550000000000000000e+02 5.560000000000000000e+02 5.570000000000000000e+02 5.580000000000000000e+02 5.590000000000000000e+02 5.600000000000000000e+02 5.610000000000000000e+02 5.620000000000000000e+02 5.630000000000000000e+02 5.640000000000000000e+02 5.650000000000000000e+02 5.660000000000000000e+02 5.670000000000000000e+02 5.680000000000000000e+02 5.690000000000000000e+02 5.700000000000000000e+02 5.710000000000000000e+02 5.720000000000000000e+02 5.730000000000000000e+02 5.740000000000000000e+02 5.750000000000000000e+02 5.760000000000000000e+02 5.770000000000000000e+02 5.780000000000000000e+02 5.790000000000000000e+02 5.800000000000000000e+02 5.810000000000000000e+02 5.820000000000000000e+02 5.830000000000000000e+02 5.840000000000000000e+02 5.850000000000000000e+02 5.860000000000000000e+02 5.870000000000000000e+02 5.880000000000000000e+02 5.890000000000000000e+02 5.900000000000000000e+02 5.910000000000000000e+02 5.920000000000000000e+02 5.930000000000000000e+02 5.940000000000000000e+02 5.950000000000000000e+02 5.960000000000000000e+02 5.970000000000000000e+02 5.980000000000000000e+02 5.990000000000000000e+02 6.000000000000000000e+02 6.010000000000000000e+02 6.020000000000000000e+02 6.030000000000000000e+02 6.040000000000000000e+02 6.050000000000000000e+02 6.060000000000000000e+02 6.070000000000000000e+02 6.080000000000000000e+02 6.090000000000000000e+02 6.100000000000000000e+02 6.110000000000000000e+02 6.120000000000000000e+02 6.130000000000000000e+02 6.140000000000000000e+02 6.150000000000000000e+02 6.160000000000000000e+02 6.170000000000000000e+02 6.180000000000000000e+02 6.190000000000000000e+02 6.200000000000000000e+02 6.210000000000000000e+02 6.220000000000000000e+02 6.230000000000000000e+02 6.240000000000000000e+02 6.250000000000000000e+02 6.260000000000000000e+02 6.270000000000000000e+02 6.280000000000000000e+02 6.290000000000000000e+02 6.300000000000000000e+02 6.310000000000000000e+02 6.320000000000000000e+02 6.330000000000000000e+02 6.340000000000000000e+02 6.350000000000000000e+02 6.360000000000000000e+02 6.370000000000000000e+02 6.380000000000000000e+02 6.390000000000000000e+02 6.400000000000000000e+02 6.410000000000000000e+02 6.420000000000000000e+02 6.430000000000000000e+02 6.440000000000000000e+02 6.450000000000000000e+02 6.460000000000000000e+02 6.470000000000000000e+02 6.480000000000000000e+02 6.490000000000000000e+02 6.500000000000000000e+02 6.510000000000000000e+02 6.520000000000000000e+02 6.530000000000000000e+02 6.540000000000000000e+02 6.550000000000000000e+02 6.560000000000000000e+02 6.570000000000000000e+02 6.580000000000000000e+02 6.590000000000000000e+02 6.600000000000000000e+02 6.610000000000000000e+02 6.620000000000000000e+02 6.630000000000000000e+02 6.640000000000000000e+02 6.650000000000000000e+02 6.660000000000000000e+02 6.670000000000000000e+02 6.680000000000000000e+02 6.690000000000000000e+02 6.700000000000000000e+02 6.710000000000000000e+02 6.720000000000000000e+02 6.730000000000000000e+02 6.740000000000000000e+02 6.750000000000000000e+02 6.760000000000000000e+02 6.770000000000000000e+02 6.780000000000000000e+02 6.790000000000000000e+02 6.800000000000000000e+02 6.810000000000000000e+02 6.820000000000000000e+02 6.830000000000000000e+02 6.840000000000000000e+02 6.850000000000000000e+02 6.860000000000000000e+02 6.870000000000000000e+02 6.880000000000000000e+02 6.890000000000000000e+02 6.900000000000000000e+02 6.910000000000000000e+02 6.920000000000000000e+02 6.930000000000000000e+02 6.940000000000000000e+02 6.950000000000000000e+02 6.960000000000000000e+02 6.970000000000000000e+02 6.980000000000000000e+02 6.990000000000000000e+02 7.000000000000000000e+02 7.010000000000000000e+02 7.020000000000000000e+02 7.030000000000000000e+02 7.040000000000000000e+02 7.050000000000000000e+02 7.060000000000000000e+02 7.070000000000000000e+02 7.080000000000000000e+02 7.090000000000000000e+02 7.100000000000000000e+02 7.110000000000000000e+02 7.120000000000000000e+02 7.130000000000000000e+02 7.140000000000000000e+02 7.150000000000000000e+02 7.160000000000000000e+02 7.170000000000000000e+02 7.180000000000000000e+02 7.190000000000000000e+02 7.200000000000000000e+02 7.210000000000000000e+02 7.220000000000000000e+02 7.230000000000000000e+02 7.240000000000000000e+02 7.250000000000000000e+02 7.260000000000000000e+02 7.270000000000000000e+02 7.280000000000000000e+02 7.290000000000000000e+02 7.300000000000000000e+02 7.310000000000000000e+02 7.320000000000000000e+02 7.330000000000000000e+02 7.340000000000000000e+02 7.350000000000000000e+02 7.360000000000000000e+02 7.370000000000000000e+02 7.380000000000000000e+02 7.390000000000000000e+02 7.400000000000000000e+02 7.410000000000000000e+02 7.420000000000000000e+02 7.430000000000000000e+02 7.440000000000000000e+02 7.450000000000000000e+02 7.460000000000000000e+02 7.470000000000000000e+02 7.480000000000000000e+02 7.490000000000000000e+02 7.500000000000000000e+02 7.510000000000000000e+02 7.520000000000000000e+02 7.530000000000000000e+02 7.540000000000000000e+02 7.550000000000000000e+02 7.560000000000000000e+02 7.570000000000000000e+02 7.580000000000000000e+02 7.590000000000000000e+02 7.600000000000000000e+02 7.610000000000000000e+02 7.620000000000000000e+02 7.630000000000000000e+02 7.640000000000000000e+02 7.650000000000000000e+02 7.660000000000000000e+02 7.670000000000000000e+02 7.680000000000000000e+02 7.690000000000000000e+02 7.700000000000000000e+02 7.710000000000000000e+02 7.720000000000000000e+02 7.730000000000000000e+02 7.740000000000000000e+02 7.750000000000000000e+02 7.760000000000000000e+02 7.770000000000000000e+02 7.780000000000000000e+02 7.790000000000000000e+02 7.800000000000000000e+02 7.810000000000000000e+02 7.820000000000000000e+02 7.830000000000000000e+02 7.840000000000000000e+02 7.850000000000000000e+02 7.860000000000000000e+02 7.870000000000000000e+02 7.880000000000000000e+02 7.890000000000000000e+02 7.900000000000000000e+02 7.910000000000000000e+02 7.920000000000000000e+02 7.930000000000000000e+02 7.940000000000000000e+02 7.950000000000000000e+02 7.960000000000000000e+02 7.970000000000000000e+02 7.980000000000000000e+02 7.990000000000000000e+02 8.000000000000000000e+02 8.010000000000000000e+02 8.020000000000000000e+02 8.030000000000000000e+02 8.040000000000000000e+02 8.050000000000000000e+02 8.060000000000000000e+02 8.070000000000000000e+02 8.080000000000000000e+02 8.090000000000000000e+02 8.100000000000000000e+02 8.110000000000000000e+02 8.120000000000000000e+02 8.130000000000000000e+02 8.140000000000000000e+02 8.150000000000000000e+02 8.160000000000000000e+02 8.170000000000000000e+02 8.180000000000000000e+02 8.190000000000000000e+02 8.200000000000000000e+02 8.210000000000000000e+02 8.220000000000000000e+02 8.230000000000000000e+02 8.240000000000000000e+02 8.250000000000000000e+02 8.260000000000000000e+02 8.270000000000000000e+02 8.280000000000000000e+02 8.290000000000000000e+02 8.300000000000000000e+02 8.310000000000000000e+02 8.320000000000000000e+02 8.330000000000000000e+02 8.340000000000000000e+02 8.350000000000000000e+02 8.360000000000000000e+02 8.370000000000000000e+02 8.380000000000000000e+02 8.390000000000000000e+02 8.400000000000000000e+02 8.410000000000000000e+02 8.420000000000000000e+02 8.430000000000000000e+02 8.440000000000000000e+02 8.450000000000000000e+02 8.460000000000000000e+02 8.470000000000000000e+02 8.480000000000000000e+02 8.490000000000000000e+02 8.500000000000000000e+02 8.510000000000000000e+02 8.520000000000000000e+02 8.530000000000000000e+02 8.540000000000000000e+02 8.550000000000000000e+02 8.560000000000000000e+02 8.570000000000000000e+02 8.580000000000000000e+02 8.590000000000000000e+02 8.600000000000000000e+02 8.610000000000000000e+02 8.620000000000000000e+02 8.630000000000000000e+02 8.640000000000000000e+02 8.650000000000000000e+02 8.660000000000000000e+02 8.670000000000000000e+02 8.680000000000000000e+02 8.690000000000000000e+02 8.700000000000000000e+02 8.710000000000000000e+02 8.720000000000000000e+02 8.730000000000000000e+02 8.740000000000000000e+02 8.750000000000000000e+02 8.760000000000000000e+02 8.770000000000000000e+02 8.780000000000000000e+02 8.790000000000000000e+02 8.800000000000000000e+02 8.810000000000000000e+02 8.820000000000000000e+02 8.830000000000000000e+02 8.840000000000000000e+02 8.850000000000000000e+02 8.860000000000000000e+02 8.870000000000000000e+02 8.880000000000000000e+02 8.890000000000000000e+02 8.900000000000000000e+02 8.910000000000000000e+02 8.920000000000000000e+02 8.930000000000000000e+02 8.940000000000000000e+02 8.950000000000000000e+02 8.960000000000000000e+02 8.970000000000000000e+02 8.980000000000000000e+02 8.990000000000000000e+02 9.000000000000000000e+02 9.010000000000000000e+02 9.020000000000000000e+02 9.030000000000000000e+02 9.040000000000000000e+02 9.050000000000000000e+02 9.060000000000000000e+02 9.070000000000000000e+02 9.080000000000000000e+02 9.090000000000000000e+02 9.100000000000000000e+02 9.110000000000000000e+02 9.120000000000000000e+02 9.130000000000000000e+02 9.140000000000000000e+02 9.150000000000000000e+02 9.160000000000000000e+02 9.170000000000000000e+02 9.180000000000000000e+02 9.190000000000000000e+02 9.200000000000000000e+02 9.210000000000000000e+02 9.220000000000000000e+02 9.230000000000000000e+02 9.240000000000000000e+02 9.250000000000000000e+02 9.260000000000000000e+02 9.270000000000000000e+02 9.280000000000000000e+02 9.290000000000000000e+02 9.300000000000000000e+02 9.310000000000000000e+02 9.320000000000000000e+02 9.330000000000000000e+02 9.340000000000000000e+02 9.350000000000000000e+02 9.360000000000000000e+02 9.370000000000000000e+02 9.380000000000000000e+02 9.390000000000000000e+02 9.400000000000000000e+02 9.410000000000000000e+02 9.420000000000000000e+02 9.430000000000000000e+02 9.440000000000000000e+02 9.450000000000000000e+02 9.460000000000000000e+02 9.470000000000000000e+02 9.480000000000000000e+02 9.490000000000000000e+02 9.500000000000000000e+02 9.510000000000000000e+02 9.520000000000000000e+02 9.530000000000000000e+02 9.540000000000000000e+02 9.550000000000000000e+02 9.560000000000000000e+02 9.570000000000000000e+02 9.580000000000000000e+02 9.590000000000000000e+02 9.600000000000000000e+02 9.610000000000000000e+02 9.620000000000000000e+02 9.630000000000000000e+02 9.640000000000000000e+02 9.650000000000000000e+02 9.660000000000000000e+02 9.670000000000000000e+02 9.680000000000000000e+02 9.690000000000000000e+02 9.700000000000000000e+02 9.710000000000000000e+02 9.720000000000000000e+02 9.730000000000000000e+02 9.740000000000000000e+02 9.750000000000000000e+02 9.760000000000000000e+02 9.770000000000000000e+02 9.780000000000000000e+02 9.790000000000000000e+02 9.800000000000000000e+02 9.810000000000000000e+02 9.820000000000000000e+02 9.830000000000000000e+02 9.840000000000000000e+02 9.850000000000000000e+02 9.860000000000000000e+02 9.870000000000000000e+02 9.880000000000000000e+02 9.890000000000000000e+02 9.900000000000000000e+02 9.910000000000000000e+02 9.920000000000000000e+02 9.930000000000000000e+02 9.940000000000000000e+02 9.950000000000000000e+02 9.960000000000000000e+02 9.970000000000000000e+02 9.980000000000000000e+02 9.990000000000000000e+02
1.000000000000000000e+00 1.000000000000000000e+00 1.000000000000000000e+00 1.000000000000000000e+00 1.000000000000000000e+00 1.000000000000000000e+00 1.000000000000000000e+00 1.000000000000000000e+00 1.000000000000000000e+00 1.000000000000000000e+00 1.000000000000000000e+00 1.000000000000000000e+00 1.000000000000000000e+00 1.000000000000000000e+00 1.000000000000000000e+00 1.000000000000000000e+00 1.000000000000000000e+00 1.000000000000000000e+00 1.000000000000000000e+00 1.000000000000000000e+00 1.000000000000000000e+00 1.000000000000000000e+00 1.000000000000000000e+00 1.000000000000000000e+00 1.000000000000000000e+00 1.000000000000000000e+00 1.000000000000000000e+00 1.000000000000000000e+00 1.000000000000000000e+00 1.000000000000000000e+00 1.000000000000000000e+00 1.000000000000000000e+00 1.000000000000000000e+00 1.000000000000000000e+00 1.000000000000000000e+00 1.000000000000000000e+00 1.000000000000000000e+00 1.000000000000000000e+00 1.000000000000000000e+00 1.000000000000000000e+00 1.000000000000000000e+00 1.000000000000000000e+00 1.000000000000000000e+00 1.000000000000000000e+00 1.000000000000000000e+00 1.000000000000000000e+00 1.000000000000000000e+00 1.000000000000000000e+00 1.000000000000000000e+00 1.000000000000000000e+00 1.000000000000000000e+00 1.000000000000000000e+00 1.000000000000000000e+00 1.000000000000000000e+00 1.000000000000000000e+00 1.000000000000000000e+00 1.000000000000000000e+00 1.000000000000000000e+00 1.000000000000000000e+00 1.000000000000000000e+00 1.000000000000000000e+00 1.000000000000000000e+00 1.000000000000000000e+00 1.000000000000000000e+00 1.000000000000000000e+00 1.000000000000000000e+00 1.000000000000000000e+00 1.000000000000000000e+00 1.000000000000000000e+00 1.000000000000000000e+00 1.000000000000000000e+00 1.000000000000000000e+00 1.000000000000000000e+00 1.000000000000000000e+00 1.000000000000000000e+00 1.000000000000000000e+00 1.000000000000000000e+00 1.000000000000000000e+00 1.000000000000000000e+00 1.000000000000000000e+00 1.000000000000000000e+00 1.000000000000000000e+00 1.000000000000000000e+00 1.000000000000000000e+00 1.000000000000000000e+00 1.000000000000000000e+00 1.000000000000000000e+00 1.000000000000000000e+00 1.000000000000000000e+00 1.000000000000000000e+00 1.000000000000000000e+00 1.000000000000000000e+00 1.000000000000000000e+00 1.000000000000000000e+00 1.000000000000000000e+00 1.000000000000000000e+00 1.000000000000000000e+00 1.000000000000000000e+00 1.000000000000000000e+00 1.000000000000000000e+00 1.000000000000000000e+00 1.000000000000000000e+00 1.000000000000000000e+00 1.000000000000000000e+00 1.000000000000000000e+00 1.000000000000000000e+00 1.000000000000000000e+00 1.000000000000000000e+00 1.000000000000000000e+00 1.000000000000000000e+00 1.000000000000000000e+00 1.000000000000000000e+00 1.000000000000000000e+00 1.000000000000000000e+00 1.000000000000000000e+00 1.000000000000000000e+00 1.000000000000000000e+00 1.000000000000000000e+00 1.000000000000000000e+00 1.000000000000000000e+00 1.000000000000000000e+00 1.000000000000000000e+00 1.000000000000000000e+00 1.000000000000000000e+00 1.000000000000000000e+00 1.000000000000000000e+00 1.000000000000000000e+00 1.000000000000000000e+00 1.000000000000000000e+00 1.000000000000000000e+00 1.000000000000000000e+00 1.000000000000000000e+00 1.000000000000000000e+00 1.000000000000000000e+00 1.000000000000000000e+00 1.000000000000000000e+00 1.000000000000000000e+00 1.000000000000000000e+00 1.000000000000000000e+00 1.000000000000000000e+00 1.000000000000000000e+00 1.000000000000000000e+00 1.000000000000000000e+00 1.000000000000000000e+00 1.000000000000000000e+00 1.000000000000000000e+00 1.000000000000000000e+00 1.000000000000000000e+00 1.000000000000000000e+00 1.000000000000000000e+00 1.000000000000000000e+00 1.000000000000000000e+00 1.000000000000000000e+00 1.000000000000000000e+00 1.000000000000000000e+00 1.000000000000000000e+00 1.000000000000000000e+00 1.000000000000000000e+00 1.000000000000000000e+00 1.000000000000000000e+00 1.000000000000000000e+00 1.000000000000000000e+00 1.000000000000000000e+00 1.000000000000000000e+00 1.000000000000000000e+00 1.000000000000000000e+00 1.000000000000000000e+00 1.000000000000000000e+00 1.000000000000000000e+00 1.000000000000000000e+00 1.000000000000000000e+00 1.000000000000000000e+00 1.000000000000000000e+00 1.000000000000000000e+00 1.000000000000000000e+00 1.000000000000000000e+00 1.000000000000000000e+00 1.000000000000000000e+00 1.000000000000000000e+00 1.000000000000000000e+00 1.000000000000000000e+00 1.000000000000000000e+00 1.000000000000000000e+00 1.000000000000000000e+00 1.000000000000000000e+00 1.000000000000000000e+00 1.000000000000000000e+00 1.000000000000000000e+00 1.000000000000000000e+00 1.000000000000000000e+00 1.000000000000000000e+00 1.000000000000000000e+00 1.000000000000000000e+00 1.000000000000000000e+00 1.000000000000000000e+00 1.000000000000000000e+00 1.000000000000000000e+00 1.000000000000000000e+00 1.000000000000000000e+00 1.000000000000000000e+00 1.000000000000000000e+00 1.000000000000000000e+00 1.000000000000000000e+00 1.000000000000000000e+00 1.000000000000000000e+00 1.000000000000000000e+00 1.000000000000000000e+00 1.000000000000000000e+00 1.000000000000000000e+00 1.000000000000000000e+00 1.000000000000000000e+00 1.000000000000000000e+00 1.000000000000000000e+00 1.000000000000000000e+00 1.000000000000000000e+00 1.000000000000000000e+00 1.000000000000000000e+00 1.000000000000000000e+00 1.000000000000000000e+00 1.000000000000000000e+00 1.000000000000000000e+00 1.000000000000000000e+00 1.000000000000000000e+00 1.000000000000000000e+00 1.000000000000000000e+00 1.000000000000000000e+00 1.000000000000000000e+00 1.000000000000000000e+00 1.000000000000000000e+00 1.000000000000000000e+00 1.000000000000000000e+00 1.000000000000000000e+00 1.000000000000000000e+00 1.000000000000000000e+00 1.000000000000000000e+00 1.000000000000000000e+00 1.000000000000000000e+00 1.000000000000000000e+00 1.000000000000000000e+00 1.000000000000000000e+00 1.000000000000000000e+00 1.000000000000000000e+00 1.000000000000000000e+00 1.000000000000000000e+00 1.000000000000000000e+00 1.000000000000000000e+00 1.000000000000000000e+00 1.000000000000000000e+00 1.000000000000000000e+00 1.000000000000000000e+00 1.000000000000000000e+00 1.000000000000000000e+00 1.000000000000000000e+00 1.000000000000000000e+00 1.000000000000000000e+00 1.000000000000000000e+00 1.000000000000000000e+00 1.000000000000000000e+00 1.000000000000000000e+00 1.000000000000000000e+00 1.000000000000000000e+00 1.000000000000000000e+00 1.000000000000000000e+00 1.000000000000000000e+00 1.000000000000000000e+00 1.000000000000000000e+00 1.000000000000000000e+00 1.000000000000000000e+00 1.000000000000000000e+00 1.000000000000000000e+00 1.000000000000000000e+00 1.000000000000000000e+00 1.000000000000000000e+00 1.000000000000000000e+00 1.000000000000000000e+00 1.000000000000000000e+00 1.000000000000000000e+00 1.000000000000000000e+00 1.000000000000000000e+00 1.000000000000000000e+00 1.000000000000000000e+00 1.000000000000000000e+00 1.000000000000000000e+00 1.000000000000000000e+00 1.000000000000000000e+00 1.000000000000000000e+00 1.000000000000000000e+00 1.000000000000000000e+00 1.000000000000000000e+00 1.000000000000000000e+00 1.000000000000000000e+00 1.000000000000000000e+00 1.000000000000000000e+00 1.000000000000000000e+00 1.000000000000000000e+00 1.000000000000000000e+00 1.000000000000000000e+00 1.000000000000000000e+00 1.000000000000000000e+00 1.000000000000000000e+00 1.000000000000000000e+00 1.000000000000000000e+00 1.000000000000000000e+00 1.000000000000000000e+00 1.000000000000000000e+00 1.000000000000000000e+00 1.000000000000000000e+00 1.000000000000000000e+00 1.000000000000000000e+00 1.000000000000000000e+00 1.000000000000000000e+00 1.000000000000000000e+00 1.000000000000000000e+00 1.000000000000000000e+00 1.000000000000000000e+00 1.000000000000000000e+00 1.000000000000000000e+00 1.000000000000000000e+00 1.000000000000000000e+00 1.000000000000000000e+00 1.000000000000000000e+00 1.000000000000000000e+00 1.000000000000000000e+00 1.000000000000000000e+00 1.000000000000000000e+00 1.000000000000000000e+00 1.000000000000000000e+00 1.000000000000000000e+00 1.000000000000000000e+00 1.000000000000000000e+00 1.000000000000000000e+00 1.000000000000000000e+00 1.000000000000000000e+00 1.000000000000000000e+00 1.000000000000000000e+00 1.000000000000000000e+00 1.000000000000000000e+00 1.000000000000000000e+00 1.000000000000000000e+00 1.000000000000000000e+00 1.000000000000000000e+00 1.000000000000000000e+00 1.000000000000000000e+00 1.000000000000000000e+00 1.000000000000000000e+00 1.000000000000000000e+00 1.000000000000000000e+00 1.000000000000000000e+00 1.000000000000000000e+00 1.000000000000000000e+00 1.000000000000000000e+00 1.000000000000000000e+00 1.000000000000000000e+00 1.000000000000000000e+00 1.000000000000000000e+00 1.000000000000000000e+00 1.000000000000000000e+00 1.000000000000000000e+00 1.000000000000000000e+00 1.000000000000000000e+00 1.000000000000000000e+00 1.000000000000000000e+00 1.000000000000000000e+00 1.000000000000000000e+00 1.000000000000000000e+00 1.000000000000000000e+00 1.000000000000000000e+00 1.000000000000000000e+00 1.000000000000000000e+00 1.000000000000000000e+00 1.000000000000000000e+00 1.000000000000000000e+00 1.000000000000000000e+00 1.000000000000000000e+00 1.000000000000000000e+00 1.000000000000000000e+00 1.000000000000000000e+00 1.000000000000000000e+00 1.000000000000000000e+00 1.000000000000000000e+00 1.000000000000000000e+00 1.000000000000000000e+00 1.000000000000000000e+00 1.000000000000000000e+00 1.000000000000000000e+00 1.000000000000000000e+00 1.000000000000000000e+00 1.000000000000000000e+00 1.000000000000000000e+00 1.000000000000000000e+00 1.000000000000000000e+00 1.000000000000000000e+00 1.000000000000000000e+00 1.000000000000000000e+00 1.000000000000000000e+00 1.000000000000000000e+00 1.000000000000000000e+00 1.000000000000000000e+00 1.000000000000000000e+00 1.000000000000000000e+00 1.000000000000000000e+00 1.000000000000000000e+00 1.000000000000000000e+00 1.000000000000000000e+00 1.000000000000000000e+00 1.000000000000000000e+00 1.000000000000000000e+00 1.000000000000000000e+00 1.000000000000000000e+00 1.000000000000000000e+00 1.000000000000000000e+00 1.000000000000000000e+00 1.000000000000000000e+00 1.000000000000000000e+00 1.000000000000000000e+00 1.000000000000000000e+00 1.000000000000000000e+00 1.000000000000000000e+00 1.000000000000000000e+00 1.000000000000000000e+00 1.000000000000000000e+00 1.000000000000000000e+00 1.000000000000000000e+00 1.000000000000000000e+00 1.000000000000000000e+00 1.000000000000000000e+00 1.000000000000000000e+00 1.000000000000000000e+00 1.000000000000000000e+00 1.000000000000000000e+00 1.000000000000000000e+00 1.000000000000000000e+00 1.000000000000000000e+00 1.000000000000000000e+00 1.000000000000000000e+00 1.000000000000000000e+00 1.000000000000000000e+00 1.000000000000000000e+00 1.000000000000000000e+00 1.000000000000000000e+00 1.000000000000000000e+00 1.000000000000000000e+00 1.000000000000000000e+00 1.000000000000000000e+00 1.000000000000000000e+00 1.000000000000000000e+00 1.000000000000000000e+00 1.000000000000000000e+00 1.000000000000000000e+00 1.000000000000000000e+00 1.000000000000000000e+00 1.000000000000000000e+00 1.000000000000000000e+00 1.000000000000000000e+00 1.000000000000000000e+00 1.000000000000000000e+00 1.000000000000000000e+00 1.000000000000000000e+00 1.000000000000000000e+00 1.000000000000000000e+00 1.000000000000000000e+00 1.000000000000000000e+00 1.000000000000000000e+00 1.000000000000000000e+00 1.000000000000000000e+00 1.000000000000000000e+00 1.000000000000000000e+00 1.000000000000000000e+00 1.000000000000000000e+00 1.000000000000000000e+00 1.000000000000000000e+00 1.000000000000000000e+00 1.000000000000000000e+00 1.000000000000000000e+00 1.000000000000000000e+00 1.000000000000000000e+00 1.000000000000000000e+00 1.000000000000000000e+00 1.000000000000000000e+00 1.000000000000000000e+00 1.000000000000000000e+00 1.000000000000000000e+00 1.000000000000000000e+00 1.000000000000000000e+00 1.000000000000000000e+00 1.000000000000000000e+00 1.000000000000000000e+00 1.000000000000000000e+00 1.000000000000000000e+00 1.000000000000000000e+00 1.000000000000000000e+00 1.000000000000000000e+00 1.000000000000000000e+00 1.000000000000000000e+00 1.000000000000000000e+00 1.000000000000000000e+00 1.000000000000000000e+00 1.000000000000000000e+00 1.000000000000000000e+00 1.000000000000000000e+00 1.000000000000000000e+00 1.000000000000000000e+00 1.000000000000000000e+00 1.000000000000000000e+00 1.000000000000000000e+00 1.000000000000000000e+00 1.000000000000000000e+00 1.000000000000000000e+00 1.000000000000000000e+00 1.000000000000000000e+00 1.000000000000000000e+00 1.000000000000000000e+00 1.000000000000000000e+00 1.000000000000000000e+00 1.000000000000000000e+00 1.000000000000000000e+00 1.000000000000000000e+00 1.000000000000000000e+00 1.000000000000000000e+00 1.000000000000000000e+00 1.000000000000000000e+00 1.000000000000000000e+00 1.000000000000000000e+00 1.000000000000000000e+00 1.000000000000000000e+00 1.000000000000000000e+00 1.000000000000000000e+00 1.000000000000000000e+00 1.000000000000000000e+00 1.000000000000000000e+00 1.000000000000000000e+00 1.000000000000000000e+00 1.000000000000000000e+00 1.000000000000000000e+00 1.000000000000000000e+00 1.000000000000000000e+00 1.000000000000000000e+00 1.000000000000000000e+00 1.000000000000000000e+00 1.000000000000000000e+00 1.000000000000000000e+00 1.000000000000000000e+00 1.000000000000000000e+00 1.000000000000000000e+00 1.000000000000000000e+00 1.000000000000000000e+00 1.000000000000000000e+00 1.000000000000000000e+00 1.000000000000000000e+00 1.000000000000000000e+00 1.000000000000000000e+00 1.000000000000000000e+00 1.000000000000000000e+00 1.000000000000000000e+00 1.000000000000000000e+00 1.000000000000000000e+00 1.000000000000000000e+00 1.000000000000000000e+00 1.000000000000000000e+00 1.000000000000000000e+00 1.000000000000000000e+00 1.000000000000000000e+00 1.000000000000000000e+00 1.000000000000000000e+00 1.000000000000000000e+00 1.000000000000000000e+00 1.000000000000000000e+00 1.000000000000000000e+00 1.000000000000000000e+00 1.000000000000000000e+00 1.000000000000000000e+00 1.000000000000000000e+00 1.000000000000000000e+00 1.000000000000000000e+00 1.000000000000000000e+00 1.000000000000000000e+00 1.000000000000000000e+00 1.000000000000000000e+00 1.000000000000000000e+00 1.000000000000000000e+00 1.000000000000000000e+00 1.000000000000000000e+00 1.000000000000000000e+00 1.000000000000000000e+00 1.000000000000000000e+00 1.000000000000000000e+00 1.000000000000000000e+00 1.000000000000000000e+00 1.000000000000000000e+00 1.000000000000000000e+00 1.000000000000000000e+00 1.000000000000000000e+00 1.000000000000000000e+00 1.000000000000000000e+00 1.000000000000000000e+00 1.000000000000000000e+00 1.000000000000000000e+00 1.000000000000000000e+00 1.000000000000000000e+00 1.000000000000000000e+00 1.000000000000000000e+00 1.000000000000000000e+00 1.000000000000000000e+00 1.000000000000000000e+00 1.000000000000000000e+00 1.000000000000000000e+00 1.000000000000000000e+00 1.000000000000000000e+00 1.000000000000000000e+00 1.000000000000000000e+00 1.000000000000000000e+00 1.000000000000000000e+00 1.000000000000000000e+00 1.000000000000000000e+00 1.000000000000000000e+00 1.000000000000000000e+00 1.000000000000000000e+00 1.000000000000000000e+00 1.000000000000000000e+00 1.000000000000000000e+00 1.000000000000000000e+00 1.000000000000000000e+00 1.000000000000000000e+00 1.000000000000000000e+00 1.000000000000000000e+00 1.000000000000000000e+00 1.000000000000000000e+00 1.000000000000000000e+00 1.000000000000000000e+00 1.000000000000000000e+00 1.000000000000000000e+00 1.000000000000000000e+00 1.000000000000000000e+00 1.000000000000000000e+00 1.000000000000000000e+00 1.000000000000000000e+00 1.000000000000000000e+00 1.000000000000000000e+00 1.000000000000000000e+00 1.000000000000000000e+00 1.000000000000000000e+00 1.000000000000000000e+00 1.000000000000000000e+00 1.000000000000000000e+00 1.000000000000000000e+00 1.000000000000000000e+00 1.000000000000000000e+00 1.000000000000000000e+00 1.000000000000000000e+00 1.000000000000000000e+00 1.000000000000000000e+00 1.000000000000000000e+00 1.000000000000000000e+00 1.000000000000000000e+00 1.000000000000000000e+00 1.000000000000000000e+00 1.000000000000000000e+00 1.000000000000000000e+00 1.000000000000000000e+00 1.000000000000000000e+00 1.000000000000000000e+00 1.000000000000000000e+00 1.000000000000000000e+00 1.000000000000000000e+00 1.000000000000000000e+00 1.000000000000000000e+00 1.000000000000000000e+00 1.000000000000000000e+00 1.000000000000000000e+00 1.000000000000000000e+00 1.000000000000000000e+00 1.000000000000000000e+00 1.000000000000000000e+00 1.000000000000000000e+00 1.000000000000000000e+00 1.000000000000000000e+00 1.000000000000000000e+00 1.000000000000000000e+00 1.000000000000000000e+00 1.000000000000000000e+00 1.000000000000000000e+00 1.000000000000000000e+00 1.000000000000000000e+00 1.000000000000000000e+00 1.000000000000000000e+00 1.000000000000000000e+00 1.000000000000000000e+00 1.000000000000000000e+00 1.000000000000000000e+00 1.000000000000000000e+00 1.000000000000000000e+00 1.000000000000000000e+00 1.000000000000000000e+00 1.000000000000000000e+00 1.000000000000000000e+00 1.000000000000000000e+00 1.000000000000000000e+00 1.000000000000000000e+00 1.000000000000000000e+00 1.000000000000000000e+00 1.000000000000000000e+00 1.000000000000000000e+00 1.000000000000000000e+00 1.000000000000000000e+00 1.000000000000000000e+00 1.000000000000000000e+00 1.000000000000000000e+00 1.000000000000000000e+00 1.000000000000000000e+00 1.000000000000000000e+00 1.000000000000000000e+00 1.000000000000000000e+00 1.000000000000000000e+00 1.000000000000000000e+00 1.000000000000000000e+00 1.000000000000000000e+00 1.000000000000000000e+00 1.000000000000000000e+00 1.000000000000000000e+00 1.000000000000000000e+00 1.000000000000000000e+00 1.000000000000000000e+00 1.000000000000000000e+00 1.000000000000000000e+00 1.000000000000000000e+00 1.000000000000000000e+00 1.000000000000000000e+00 1.000000000000000000e+00 1.000000000000000000e+00 1.000000000000000000e+00 1.000000000000000000e+00 1.000000000000000000e+00 1.000000000000000000e+00 1.000000000000000000e+00 1.000000000000000000e+00 1.000000000000000000e+00 1.000000000000000000e+00 1.000000000000000000e+00 1.000000000000000000e+00 1.000000000000000000e+00 1.000000000000000000e+00 1.000000000000000000e+00 1.000000000000000000e+00 1.000000000000000000e+00 1.000000000000000000e+00 1.000000000000000000e+00 1.000000000000000000e+00 1.000000000000000000e+00 1.000000000000000000e+00 1.000000000000000000e+00 1.000000000000000000e+00 1.000000000000000000e+00 1.000000000000000000e+00 1.000000000000000000e+00 1.000000000000000000e+00 1.000000000000000000e+00 1.000000000000000000e+00 1.000000000000000000e+00 1.000000000000000000e+00 1.000000000000000000e+00 1.000000000000000000e+00 1.000000000000000000e+00 1.000000000000000000e+00 1.000000000000000000e+00 1.000000000000000000e+00 1.000000000000000000e+00 1.000000000000000000e+00 1.000000000000000000e+00 1.000000000000000000e+00 1.000000000000000000e+00 1.000000000000000000e+00 1.000000000000000000e+00 1.000000000000000000e+00 1.000000000000000000e+00 1.000000000000000000e+00 1.000000000000000000e+00 1.000000000000000000e+00 1.000000000000000000e+00 1.000000000000000000e+00 1.000000000000000000e+00 1.000000000000000000e+00 1.000000000000000000e+00 1.000000000000000000e+00 1.000000000000000000e+00 1.000000000000000000e+00 1.000000000000000000e+00 1.000000000000000000e+00 1.000000000000000000e+00 1.000000000000000000e+00 1.000000000000000000e+00 1.000000000000000000e+00 1.000000000000000000e+00 1.000000000000000000e+00 1.000000000000000000e+00 1.000000000000000000e+00 1.000000000000000000e+00 1.000000000000000000e+00 1.000000000000000000e+00 1.000000000000000000e+00 1.000000000000000000e+00 1.000000000000000000e+00 1.000000000000000000e+00 1.000000000000000000e+00 1.000000000000000000e+00 1.000000000000000000e+00 1.000000000000000000e+00 1.000000000000000000e+00 1.000000000000000000e+00 1.000000000000000000e+00 1.000000000000000000e+00 1.000000000000000000e+00 1.000000000000000000e+00 1.000000000000000000e+00 1.000000000000000000e+00 1.000000000000000000e+00 1.000000000000000000e+00 1.000000000000000000e+00 1.000000000000000000e+00 1.000000000000000000e+00 1.000000000000000000e+00 1.000000000000000000e+00 1.000000000000000000e+00 1.000000000000000000e+00 1.000000000000000000e+00 1.000000000000000000e+00 1.000000000000000000e+00 1.000000000000000000e+00 1.000000000000000000e+00 1.000000000000000000e+00 1.000000000000000000e+00 1.000000000000000000e+00 1.000000000000000000e+00 1.000000000000000000e+00 1.000000000000000000e+00 1.000000000000000000e+00 1.000000000000000000e+00 1.000000000000000000e+00 1.000000000000000000e+00 1.000000000000000000e+00 1.000000000000000000e+00 1.000000000000000000e+00 1.000000000000000000e+00 1.000000000000000000e+00 1.000000000000000000e+00 1.000000000000000000e+00 1.000000000000000000e+00 1.000000000000000000e+00 1.000000000000000000e+00 1.000000000000000000e+00 1.000000000000000000e+00 1.000000000000000000e+00 1.000000000000000000e+00 1.000000000000000000e+00 1.000000000000000000e+00 1.000000000000000000e+00 1.000000000000000000e+00 1.000000000000000000e+00 1.000000000000000000e+00 1.000000000000000000e+00 1.000000000000000000e+00 1.000000000000000000e+00 1.000000000000000000e+00 1.000000000000000000e+00 1.000000000000000000e+00 1.000000000000000000e+00 1.000000000000000000e+00 1.000000000000000000e+00 1.000000000000000000e+00 1.000000000000000000e+00 1.000000000000000000e+00 1.000000000000000000e+00 1.000000000000000000e+00 1.000000000000000000e+00 1.000000000000000000e+00 1.000000000000000000e+00 1.000000000000000000e+00 1.000000000000000000e+00 1.000000000000000000e+00 1.000000000000000000e+00 1.000000000000000000e+00 1.000000000000000000e+00 1.000000000000000000e+00 1.000000000000000000e+00 1.000000000000000000e+00 1.000000000000000000e+00 1.000000000000000000e+00 1.000000000000000000e+00 1.000000000000000000e+00 1.000000000000000000e+00 1.000000000000000000e+00 1.000000000000000000e+00 1.000000000000000000e+00 1.000000000000000000e+00 1.000000000000000000e+00 1.000000000000000000e+00 1.000000000000000000e+00 1.000000000000000000e+00 1.000000000000000000e+00 1.000000000000000000e+00 1.000000000000000000e+00 1.000000000000000000e+00 1.000000000000000000e+00 1.000000000000000000e+00 1.000000000000000000e+00 1.000000000000000000e+00 1.000000000000000000e+00 1.000000000000000000e+00 1.000000000000000000e+00 1.000000000000000000e+00 1.000000000000000000e+00 1.000000000000000000e+00 1.000000000000000000e+00 1.000000000000000000e+00 1.000000000000000000e+00 1.000000000000000000e+00 1.000000000000000000e+00 1.000000000000000000e+00 1.000000000000000000e+00 1.000000000000000000e+00 1.000000000000000000e+00 1.000000000000000000e+00 1.000000000000000000e+00 1.000000000000000000e+00 1.000000000000000000e+00 1.000000000000000000e+00 1.000000000000000000e+00 1.000000000000000000e+00 1.000000000000000000e+00 1.000000000000000000e+00 1.000000000000000000e+00 1.000000000000000000e+00 1.000000000000000000e+00 1.000000000000000000e+00 1.000000000000000000e+00 1.000000000000000000e+00 1.000000000000000000e+00 1.000000000000000000e+00 1.000000000000000000e+00 1.000000000000000000e+00 1.000000000000000000e+00 1.000000000000000000e+00 1.000000000000000000e+00 1.000000000000000000e+00 1.000000000000000000e+00 1.000000000000000000e+00 1.000000000000000000e+00 1.000000000000000000e+00 1.000000000000000000e+00 1.000000000000000000e+00 1.000000000000000000e+00 1.000000000000000000e+00 1.000000000000000000e+00 1.000000000000000000e+00 1.000000000000000000e+00 1.000000000000000000e+00 1.000000000000000000e+00 1.000000000000000000e+00 1.000000000000000000e+00 1.000000000000000000e+00 1.000000000000000000e+00 1.000000000000000000e+00 1.000000000000000000e+00 1.000000000000000000e+00 1.000000000000000000e+00 1.000000000000000000e+00 1.000000000000000000e+00 1.000000000000000000e+00 1.000000000000000000e+00 1.000000000000000000e+00 1.000000000000000000e+00 1.000000000000000000e+00 1.000000000000000000e+00 1.000000000000000000e+00 1.000000000000000000e+00 1.000000000000000000e+00 1.000000000000000000e+00 1.000000000000000000e+00 1.000000000000000000e+00 1.000000000000000000e+00 1.000000000000000000e+00 1.000000000000000000e+00 1.000000000000000000e+00 1.000000000000000000e+00 1.000000000000000000e+00 1.000000000000000000e+00 1.000000000000000000e+00 1.000000000000000000e+00 1.000000000000000000e+00 1.000000000000000000e+00 1.000000000000000000e+00 1.000000000000000000e+00 1.000000000000000000e+00 1.000000000000000000e+00 1.000000000000000000e+00 1.000000000000000000e+00 1.000000000000000000e+00 1.000000000000000000e+00 1.000000000000000000e+00 1.000000000000000000e+00 1.000000000000000000e+00
-3.584274435959490870e-03 5.169467670733419729e-01 -7.609552762356874833e-02 6.024747389405229470e-01 5.212098278075151248e-01 6.288261948987807770e-01 7.059299336676541081e-01 1.980217209375536858e-01 5.068718677524809424e-01 5.043791728499047444e-01 1.064980053841624308e+00 -6.019255506745073703e-01 1.352425438798864343e+00 4.441200667670437419e-01 4.957807959322179658e-01 6.542981862688310724e-01 9.653362740905756523e-01 9.277197579755438461e-01 4.667109996684391526e-01 5.104120347529569335e-01 5.711958414996242128e-01 9.556868000755029957e-01 6.654036842892596670e-01 6.389199736865946999e-01 1.913480919878171038e-01 7.202177932411211181e-01 3.428424382693653349e-01 5.171739531589641947e-01 5.148767385392312157e-01 1.431977413616367878e+00 5.335676109850232551e-01 6.072529115370098873e-01 7.284525698530160964e-01 4.939113793542116437e-01 7.340846137353839174e-01 5.904753737666080804e-01 6.030383055458288233e-01 1.602657998849938314e+00 -3.747780024434177459e-02 5.030052897072467832e-01 -3.784815822587714318e-02 -5.468211245491794159e-01 7.548337132304352437e-01 2.145264676719852159e-01 2.409252008738472783e-01 4.961349206475573759e-01 6.028986710109601743e-01 5.354650138530199222e-01 4.527677455834595022e-01 2.824318953297509302e-02 2.432196153571812569e-02 8.656149155693476649e-01 6.461645585462545416e-01 5.891519902713148182e-01 4.382878142170980040e-01 2.473304126197665119e-03 6.149436370136265317e-01 5.621549080830295919e-01 1.721423719112561146e-01 5.124610078259772550e-01 8.872815403351295149e-01 5.077186289782819051e-01 5.516297796558683464e-01 6.654038927004405357e-01 6.847875642841361188e-01 4.058332896689250124e-01 5.220559250721513722e-01 2.883196294164887541e-01 4.880806222424000640e-01 5.854316140315979355e-03 4.408232098981573199e-01 4.760911049182820487e-01 5.190921037046427600e-01 2.598924151485370454e-02 1.453314341937109955e+00 5.549781908973692168e-01 6.247297565864751157e-01 7.647663826112908181e-01 5.228651863875284356e-01 1.365683049359854406e+00 5.020757382556353399e-01 2.194214391115462959e-01 1.280075871179634506e+00 4.731690965391604498e-01 4.794755562207079214e-01 7.595992202807801963e-01 8.250856756245892321e-01 4.821925161375529845e-01 3.814673174174844084e-01 5.738812737289853416e-01 2.481733159145955991e-01 2.022466312528697241e+00 5.084348494332244783e-01 -9.745860826885476003e-02 4.487669095317284862e-01 6.041308213562155416e-01 4.814384661170072466e-01 4.593230142517101822e-01 1.916157328247258540e-01 7.077803381550878958e-01 1.490050850079258193e+00 6.710558792764501623e-01 4.926354225072119841e-01 9.061395234757546602e-01 8.267345338196371296e-01 -1.854706646802984249e+00 -1.127238708787148935e+00 5.645401246631273073e-01 4.640431509314323355e-01 9.739224734023707031e-01 5.338399735779512101e-01 6.217775219565067069e-01 2.106294704396197148e-01 4.368372969374669790e-01 5.054574253877079926e-01 4.766699677838752702e-01 4.810603857535142303e-01 3.927548530192029319e-01 7.112752814898483100e-01 4.875570500731535306e-01 1.260384491548481423e+00 5.743117675884125140e-01 4.663492832567809887e-01 -1.414593691243552775e-01 5.360702313517317075e-01 1.859739600088997635e+00 5.188994248974623247e-01 4.860407431211882789e-01 6.452222114565031585e-01 5.059766842964673605e-01 6.619223044181831161e-01 5.253104635348088136e-01 3.930561688381793428e-01 1.399219823211290681e-01 -1.207337345880238333e-02 -1.236663267060540694e-01 5.476513074033575457e-01 -5.547487607841019956e-03 9.699443278745435437e-01 7.076323283814908160e-01 5.508375306019756001e-01 8.338855616118888703e-01 6.546692603059209858e-01 4.832891624180808421e-01 5.152474272304302660e-01 -5.048342503641568835e-02 7.188152981145592424e-01 4.690948391362950165e-01 5.158286825140863119e-01 -7.874063730265173922e-01 7.882376733248926959e-01 -2.990656002891803888e-01 4.961327452884140565e-01 5.032221016919367074e-01 6.236265946614935052e-01 5.458765929159941077e-01 1.689542908847240898e+00 6.364467341998569783e-02 7.971723430113586417e-01 7.050403559991624824e-01 4.791635146170831749e-01 5.313333786086186228e-01 4.883739358578962353e-01 5.224319345308303664e-01 1.112402211712424371e+00 5.920635424191610097e-02 8.237714833303936279e-01 5.455212659826463861e-01 6.305731424252998263e-01 4.098664787816821420e-01 3.563280792492628524e-01 6.000021558787953513e-01 4.961045935252720307e-01 5.103760834906084787e-01 4.103489356101767127e-01 -2.748067384043755869e-03 1.490994396845082282e-01 5.157664815874729580e-02 7.164551942367073378e-01 1.131714883978408803e+00 7.355745274917036003e-01 5.751330099455607137e-01 -2.047621152196495431e-01 5.594967679445265185e-01 6.473240920973692969e-01 5.084087444487137564e-01 5.116508780430883974e-01 4.916349677646850713e-01 2.570560079829437683e+00 4.388198061733251110e-01 4.566144796413852402e-01 -7.853579200257593262e-01 5.349506372539616361e-01 4.981610288140259635e-01 1.563873565657810383e-01 5.132966506233307413e-01 9.025460090981053396e-01 5.161209492695055800e-01 7.597386960805578848e-01 5.989232324809864449e-01 4.525836552805965196e-01 5.466346372166616119e-01 1.039165769257642813e+00 5.953150871242228748e-01 5.432988481900884459e-01 7.597386925016486048e-01 4.178679709757434080e-01 1.249998172638769001e+00 5.722729249894743520e-01 3.340300061113355423e-01 4.994640421689107157e-01 -2.331430907040169670e-02 5.170674978368400287e-01 1.829947628667341064e-01 5.333872603178229088e-01 5.024239625505522167e-01 5.272390795481006753e-01 4.849901408968889105e-01 5.077821755171693097e-01 5.187635508748518198e-01 5.211977693738635287e-01 4.236079482624060533e-01 -6.560109320177982539e-01 4.699822609639764948e-01 2.213189518635798880e-01 4.811718893779581285e-01 3.289197785936777696e-01 1.195550702511903429e+00 9.211309617510639036e-01 5.137954535335624850e-01 -1.071506649668330646e-01 1.020682253067453082e+00 5.320542094461599980e-01 5.546814943113550500e-01 2.608327407833000988e-01 4.307213095903352773e-01 5.896642866902540581e-01 2.403909273539008296e-01 -1.215871176855253394e-01 -1.655978718295603724e-01 2.299927654059968352e-01 5.530335642607245861e-01 -7.457688573667627108e-02 6.241785338947155592e-01 5.162476275169523010e-01 5.415733754493060603e-01 -1.139916434370982917e-01 7.062795197979720996e-01 -2.003070898037595970e+00 4.903497195077535786e-01 -3.997427262657657909e-01 5.131075414997450235e-01 5.165922690244042492e-01 6.654042921030222102e-01 5.063706009574000522e-01 5.140075598315834160e-01 4.625381110874195456e-01 6.398136225466420912e-01 5.134681506448913746e-01 1.652830530749068494e+00 6.462249661454368965e-01 6.919456235647634124e-01 5.654291956129834373e-01 4.816747291527330166e-01 8.872813855461121335e-01 3.286624950713206705e-01 2.485169504990552447e+00 6.020440441164875978e-01 2.685035078250544993e-01 5.209415671133031944e-01 5.036013462991326683e-01 8.887071662460976906e-01 5.197079519228412492e-01 5.143326801300752704e-01 5.202637449926247326e-01 9.466950000571378032e-01 6.916928578879916190e-01 8.766669195804617232e-01 8.289617954041066383e-01 1.696403070794060830e-01 6.616203324041021183e-01 4.832451231843541972e-01 4.276221574994024111e-01 -6.399605284184485265e-01 3.721544211411988434e-01 8.080888116818012445e-01 4.747096916703719693e-01 5.607118951164190568e-01 4.766699679292910607e-01 6.073919131557538043e-01 4.916146314061140554e-01 -5.813032224257255187e-01 5.817596440971948279e-01 5.059683496444401518e-01 2.670568726074294338e-02 5.260833058546622309e-01 1.813226874816711298e+00 4.748335654092747937e-01 5.057568437393346050e-01 5.158062786088422058e-01 -3.138597149980801415e+00 5.387985946310733798e-01 2.419011667356817163e+00 6.003250957833473622e-01 4.980060947296278684e-01 -5.898567574351621934e-01 5.276244819718360901e-01 5.186773583776650431e-01 5.605306608256152012e-01 5.325535560576759586e-01 4.498176215638526876e-01 6.178814508589391963e-01 3.167023865500704360e-01 5.079631843835898941e-01 5.213329142208259492e-01 5.299876824596877478e-01 5.295918832533841325e-01 6.004040160587494901e-01 5.357862463114066998e-01 1.156045811331644302e+00 2.821457664796155757e-02 2.150936458160693121e+00 2.495457644954227394e+00 4.334222572903275728e-01 -1.471516783525562977e-01 5.084856378092564855e-01 4.219902929753527876e-01 6.927031232522870008e-01 1.313972678659148796e+00 5.467270638400716365e-01 1.093502734128143139e+00 5.121963774142919146e-01 1.502520759578152842e-01 1.218311565534864194e+00 4.278714533100701489e-01 4.889910638041328195e-01 4.982649585217618915e-01 7.492847451863945407e-01 -3.329126324066011833e+00 1.550594532721875751e+00 5.157862706236325812e-01 6.450427117864876436e-01 5.069086606072608081e-01 1.602658002925755554e+00 3.296786016402397657e-01 4.907837011323179510e-01 3.740207787796112626e-01 5.091344492225094998e-01 1.392069380492243713e+00 7.198921742771430266e-01 7.597386999195623325e-01 6.241798266742212276e-01 5.953150895226105854e-01 7.350721023247551722e-01 5.378429600676711830e-01 8.605517117437293528e-01 5.102057353115624361e-01 4.587112648978204921e-01 4.388581580569345109e-01 5.164326352237802453e-01 5.237523125923686518e-01 6.033044946275449849e-01 4.907836566833935765e-01 5.729822403996500668e-01 5.209844750471929187e-01 8.848993440214248940e-01 1.056446750999765261e+00 1.067992216368391256e+00 5.300846359383249995e-01 3.148230073258184158e-01 8.872762522034824961e-01 -1.103107764092824961e-01 9.287224277591142885e-01 6.169268347139658104e-01 3.019269009473662599e-02 4.520400303048824342e-01 1.082591851163083430e+00 4.103123644527735259e-01 5.839665075978078823e-01 2.463680294250290281e-01 -3.132088384382832880e-01 -2.276053009113620185e+00 4.478862861370980220e-01 5.953150877469385316e-01 5.953150872419561423e-01 5.104071991430028099e-01 6.201448878268537301e-01 -1.629793982822879128e-01 4.662856714868214847e-01 5.286269438489694661e-01 4.471260249682014742e-01 5.050979170663215667e-01 1.099291622516894718e+00 7.597386919450317411e-01 5.125392182846171263e-01 5.179497983206069467e-01 2.929635156491908199e-01 6.120592217118343559e-01 5.424432032368208256e-01 5.354675358799065865e-01 5.051675678716613938e-01 2.378787105563325566e-01 3.256811896041928583e-02 5.953150896573322637e-01 6.552600717346845904e-01 5.328901637983674000e-01 6.637501024489715906e-01 8.525967030451816475e-01 4.548547835486413393e-01 5.608375790922027759e-01 1.666600788228788765e+00 5.534531069728872987e-01 -2.688772021329764339e+00 6.038952097409354680e-01 1.441207630081458690e+00 5.747730992689032981e-01 -9.377439610758947497e-01 4.864578929044142130e-01 5.843230719511695037e-01 4.897360867235192594e-01 5.397925703119038632e-01 -5.222831960740629414e-02 5.001685117336414077e-01 1.045400144736644332e+00 5.529395714930337435e-01 -2.077687263427481501e-01 5.841507539115996517e-01 5.588165141063734520e-01 7.535424961537321442e-01 4.995056787005808241e-01 5.911212561157845879e-01 -4.362551311591009173e-01 5.376805469771698265e-01 5.304981268519242121e-01 7.327680607910105337e-01 5.125462735339642029e-01 7.557459162524966523e-01 5.362460368211778849e-01 4.700541802107358613e-01 8.773452064125796257e-01 5.142582250107748942e-01 5.186445424824589479e-01 1.976380062947585559e-01 2.271629681371198362e-01 9.279218616815418930e-01 5.283858741717961660e-01 3.013943364292374305e+00 6.433977315112449080e-01 4.775447478721903116e-01 5.765028185804011995e-01 7.050215680310273347e-01 2.403109943816927191e-02 4.814906178718936225e-01 4.749857054539802781e-01 5.290890708300024503e-01 1.167077490531904571e+00 7.560868132030368338e-01 5.346754234156974039e-01 5.421316097220347796e-01 1.099003677158316039e+00 5.363211156403606683e-01 5.136065241995395603e-01 5.073395425304352280e-01 4.471738060488033573e-01 5.301810424541043565e-01 8.785508966647923579e-01 5.393212960716599058e-01 5.096418575226283609e-01 2.895250840467756409e-02 5.170313239049344478e-01 3.071840409785319206e-02 4.963184157378152661e-01 4.975691108366974147e-01 4.934863574494387506e-01 7.494791088918155708e-01 5.618463358585302769e-01 4.509852317305831360e-01 -6.081333162844591508e-03 5.916001791121430209e-01 4.848676687642315963e-01 4.784831268939603310e-01 -1.202505126249481249e-02 5.178474321297729110e-01 3.011726686464477609e-01 5.071583742338060530e-01 5.765390774968726095e-01 1.213641458162462605e+00 7.910803265993419098e-01 4.961612560811466399e-01 3.543505987995098083e-01 3.920825291569183246e-01 4.094841071824316669e-01 9.634424331446279632e-01 4.693853311376289250e-01 3.814191735912787484e-01 6.557857408508671604e-01 1.881258487315189853e+00 4.844707052205449727e-01 3.626157921184003929e-01 5.135270731727109572e-01 5.814818243642317919e-01 5.138270451290143370e-01 7.590620369543296109e-01 -5.297972549800030739e-01 3.049466940720239605e-01 3.825107532047262171e-01 5.615461380569378713e-01 4.995997610327940208e-01 -5.374786416454487847e-01 3.973412387198922979e-01 5.291507156609484008e-01 7.127071117002268252e-01 6.535148252552283044e-01 1.231612610360746984e+00 5.189403818804965152e-01 5.201369956522758908e-01 -6.043536749372430128e-01 5.505361132445913963e-01 1.134245214706180338e+00 6.390975578284233682e-01 2.068575195035383674e-01 3.564405914139584519e-01 -1.204884239286954983e+00 5.408334293262735404e-01 2.760698314999292524e-01 1.067036158081539954e+00 8.075489302040074202e-01 5.144987846365528528e-01 5.013286239351081308e-01 4.543304369111154650e-01 6.029244427152569141e-01 5.858164430851452442e-01 5.816539951659324137e-01 2.142286937387219078e-02 5.737198469145455837e-01 4.411235890711812102e-01 7.327536727158457941e-01 5.299794690508830008e-01 5.306650614484816897e-01 1.087225303492240558e+00 -1.253269739170390362e-01 -2.006454196417629121e-01 5.785527480993117866e-01 5.285257552786779556e-01 4.329721297942609737e-01 5.870873017057176568e-01 -7.552269584156519056e-01 2.974172643087067858e+00 4.625047772288239933e-01 5.228655328244451450e-01 5.694925148975754636e-01 5.294026231724057174e-01 5.268413287693799463e-01 6.416195031056066700e-01 3.518820699707353450e-01 5.315260211264372092e-01 5.281713697865536572e-01 6.454439099679568637e-01 4.539343565545465031e-01 6.908924467479025111e-01 4.629700132515839339e-01 4.078448113616568449e-01 4.107802912807561047e-01 4.801047638832470765e-01 5.906518682581879398e-01 9.618633162852575635e-01 2.211417170612884231e+00 6.532469367695008522e-01 4.868972090568131073e-01 5.843659684297424217e-01 5.159698749073370339e-01 4.013889930236866355e-01 5.175154822585339431e-01 5.243477014935198355e-01 4.713395776072172860e-01 5.891397827333264559e-01 4.985100445103224920e-01 6.026837028871091517e-01 3.957420605660917912e-01 7.314710259636105771e-01 6.860517885589053622e-01 6.857729984450380289e-01 1.527933639924315135e-01 8.872814651566839350e-01 5.147432891031578084e-01 2.435839721719916806e-01 1.890184756710787672e+00 2.473519795246372222e-01 5.263708779743850874e-01 5.684441379281052198e-01 5.365321477740592204e-02 6.211544432118131231e-01 1.449417944235840583e+00 6.304429847843909807e-01 8.713654725855919381e-01 5.262577445264906562e-01 4.836306535611136770e-01 5.601727536748902780e-01 4.098506763390897256e-01 5.348605590804177412e-01 5.212210644230962364e-01 1.555598966654046789e-02 6.459064676531722782e-01 -1.062573852201414537e+00 4.900305701147564807e-01 4.677120365915704570e-01 5.207135509517206717e-01 5.157971352348132976e-01 8.872814654892461350e-01 2.788736616479189356e-01 4.641235407743443675e-01 1.225789860191052849e+00 -4.659772025285365271e-01 5.025420731786702788e-01 1.057373568732943081e+00 1.359345770767593553e+00 3.302055179501667270e-01 5.100743560271121524e-01 -1.656477284950898937e-02 -1.527838801227443311e+00 3.037373339024093122e-01 4.809536151174809149e-01 5.256396499474710327e-01 5.045687455101904861e-01 4.384543196144959909e-01 4.987354179824224354e-01 -3.373071874021057459e-01 7.864764035588805990e-01 4.766699615128622836e-01 4.135724059606558645e-01 4.926558845668821407e-01 -5.449831744899952951e-02 -1.857998007039518840e-01 1.643098689109682820e+00 4.257196275836054311e-01 3.822051147279384997e-01 5.145057311213373508e-01 3.483167805774856629e-01 4.702070016975952171e-01 1.490198494172567112e-01 -5.538788723645056145e-01 5.258685594227872073e-01 5.003525858579137564e-01 5.724208496573043314e-01 4.571094696306127192e-01 5.158161846370388215e-01 5.259344357757550492e-01 5.174561725434269066e-01 5.805518880793035796e-01 9.999649051068836281e-01 7.142688413059498087e-01 5.160811854797927589e-01 4.691364658484742933e-01 4.900769760287141397e-01 5.626253896935502485e-01 -1.115165188982649401e-03 4.907836634725002978e-01 6.938294882354799631e-01 5.159835100920378004e-01 6.339773240660148135e-01 1.082625518889562599e+00 7.590586149222472434e-01 -3.623027318581706346e-01 5.167079198036833576e-01 6.148333437515162148e-01 5.453237402885806606e-01 4.510323815689010196e-01 8.499499303846711484e-01 5.000704940431773826e-01 5.101843681132256503e-01 -4.223421719010359010e-02 -7.553081395570250267e-01 2.118663170126950046e+00 5.457777011166402570e-01 8.632718708996437451e-01 6.380832310472837055e-01 5.435390747446254833e-01 3.190122651042285873e-01 1.463683199073259056e-01 5.117771982765431105e-01 4.919869423044280765e-01 2.809124983951431440e-02 5.062614671536511679e-01 4.879888255537306319e-01 5.361853186500266100e-01 9.155340748445659482e-01 5.249669032792729784e-01 5.242571865055294378e-01 3.384205684359363198e-01 4.782665075583403813e-01 2.260598273996991536e-01 5.160902155896681665e-01 6.187891529037354843e-01 5.607863379326875064e-01 -3.432734523879108490e-01 4.924535906605067570e-01 6.411459865512233458e-01 5.401441488288492021e-01 6.031091315506127426e-01 8.872829126208295891e-01 7.450160030587814619e-01 -5.302209071584864652e-01 1.008052895866318188e+00 1.602657998755627533e+00 4.454686576904678952e-01 4.640481799337506374e-01 1.040777009322892743e+00 5.074294349738345256e-01 6.019694791826565305e-01 5.247712939719035852e-01 1.645020043887506445e+00 4.884513870535881486e-01 6.241805108090413556e-01 1.232164119087818310e+00 -1.317455407167638162e-02 5.292322081666112066e-01 -1.455600350731771075e-01 -8.607739537054952539e-01 -1.861185843316112143e-01 7.607687637239567424e-01 5.099880541276392565e-01 6.190938805655399335e-01 -3.486056234644395180e-01 5.535933308882424742e-01 -3.528535706990575116e-02 -2.512258703887899625e-01 4.087794623795853455e-01 5.237117286499028967e-01 5.518732977608793444e-01 4.296194143200583460e-01 5.315517527164137501e-01 8.775018714200139014e-01 -2.931940406125402854e-01 5.185606258529630308e-01 5.382195664389314294e-01 6.517401826178471635e-01 1.134396479381327705e+00 5.743145117736266902e-01 5.066231852198941343e-01 5.530207467270858990e-01 1.282704190825691669e-02 -5.189178112956532168e-02 5.102136353675613689e-01 5.279581225147811363e-01 5.373255984431616339e-01 4.810294900052612399e-01 3.452846671358627550e-01 5.286398369781672990e-01 4.949970728326060776e-01 2.712047871995768022e-01 5.142318583505197660e-01 8.299356942136312254e-01 2.407253763606183927e+00 -2.138402626769574655e-01 6.747197409374557919e-01 5.189676111591279284e-01 2.728182745568994427e-01 7.158233301486600642e-01 -4.171026448071461779e-02 -1.332359349424208528e+00 5.148417985501146932e-01 2.466338445868765383e+00 4.623062944813350894e-01 1.271134116474437192e-01 2.162361303036943461e-01 4.766699675830198268e-01 4.832381391627136868e-01 1.465229468275573099e+00 5.206219240991850628e-01 1.224027968652131176e-01 4.902854931346936618e-01 1.550630420390726627e+00 4.984399216677099509e-01 4.586644761881680799e-01 5.273720918204375385e-01 7.570203111983807576e-01 4.418053762641867555e-01 5.474340391560403862e-01 -5.571355553406007709e-03 5.170911671633534601e-01 6.614398163134711517e-01 -5.294736276161495780e-01 8.366476809839759610e-02 1.142952896654013673e+00 2.306332966591635447e-01 5.204303642224349380e-01 5.654317638461885398e-01 4.805246793975174180e-01 1.933203088537347014e+00 7.132000677631636920e-01 2.282895645730329687e-02 2.156104928901539652e-01 4.745225231155328904e-01 1.019938278076168325e+00 4.184594818887399925e-01 1.549879946993510185e-02 5.036300517399754373e-01 -4.304043355678908306e-02 5.522323640108089959e-01 5.239374890341871316e-01 3.949564973015368130e-02 -1.109476433800588580e-01 6.401157597992656045e-01 4.537257272173134681e-01 5.072702412401839389e-01 4.717305085245350194e-01 5.436982657381034256e-01 5.778187674363077786e-01 4.922580372916786073e-01 5.015541978157365133e-01 4.980187805063526207e-01 7.017728609657716277e-01 1.001303362590694190e+00 2.952863653110440634e+00 7.318538970241976749e-01 5.205194434115105739e-01 6.592105957550392636e-01 2.011936393432351144e-01 5.264736171526773756e-01 7.903465130669529159e-01 5.048677691402363443e-01 1.311732922247387689e+00 4.907943690580746643e-01 -5.217989014349542209e-01 1.280916851184312789e-02 5.820985213912952538e-01 6.041866523733838701e-01 5.748067978622956042e-01 4.966988217027469288e-01 1.120146385497009130e-02 5.080799924567234171e-01 4.888082393038137852e-01 -3.158628218910974894e+00 5.913582238953001280e-01 5.034415461400376657e-01 1.086473794468017839e+00 5.336131109729194133e-01 5.628844378027839657e-01 7.189917790050079915e-01 -7.884657587828755032e-01 -5.099267722663111124e-01 8.318244342791084045e-02 5.073239651945649076e-01 4.274933980301598990e-01 2.657121605690489496e-01 5.712359760968430678e-01 -3.037175562656518890e-01 7.524075725371427437e-01 6.263201690882785888e-01 6.878216494321867103e-01 5.187096687149446161e-01 5.060704286338291169e-01 1.932744495401172435e-01 -6.540057066811898467e-01 5.696606171132319041e-01 5.034150964705318421e-01 1.832027388054912886e-01 5.303223040011989520e-01 5.557251632325009849e-01 5.117268330581179470e-01 6.408638020384938017e-01 5.481571290101485694e-01 5.176448966219295844e-01 4.885060749328808405e-01 1.602657999325489691e+00 4.024821046342053066e-01 5.255853045108840327e-01 -5.951748769852697324e-02 5.071079732179941679e-01 6.085310596965647356e-01 4.972217995282476322e-01 5.263150727814995822e-01 3.643105636783434687e-01 8.179040552579236456e-01 1.079895056825168176e+00 5.523498233195864859e-01 5.297811729413005599e-01 5.896557248062547218e-01 6.206623353957130274e-01 5.491949839562912938e-01 5.160334907545479632e-01 1.008099260621091675e+00 7.369718108809786283e-01 -4.217378722826879978e-01 4.166157799036492304e-01 9.273461764180503941e-01 5.138256603780958498e-01 4.763675118689867510e-02 5.046363660281529828e-01 7.597825423298981695e-01 -1.454890341399842357e-01 5.175053751483089659e-01 2.767200876952898292e-01 5.092563003773790120e-01 7.207778578291089699e-01 5.230368283086550552e-01 3.605998882367235647e-01 1.358598139857819076e+00 6.097723282448369586e-01 4.886184517211802913e-01 -4.780898462544740934e-01 4.987407881861335435e-01 1.049209738785179535e+00 5.285785148741338757e-01 2.149499175826170283e-01 8.582551377768005141e-01 -1.150794317364267350e-01 3.756908435159306836e-01 1.483870823467344779e+00 -8.206850892489002680e-01 4.941649268188973987e-01 5.064019161678994241e-01 -3.734089137027978289e-01 5.606744318862371124e-01 4.449661455040505587e-01 4.573485200368293535e-01 5.144974963580684069e-01 3.356213375424149659e-01 2.677592896388265586e-01 3.910519067774143598e-01 4.893318565171784207e-01 5.141034860340774060e-01 -4.277883213854440786e-03 1.085155850220685669e-01 5.138996877250104900e-01 1.043542250047677866e+00 2.898571096290222804e-01 -5.302826276824929019e-01 4.701107482432300144e-01 5.283239077080603696e-01 4.026202782154202353e-01 2.182940115283135869e-03 3.877143359905332320e-01 5.195831320555120980e-01 5.119718396420424034e-01 4.731009432883924726e-01 2.154388133704481650e-02 5.814663529233664585e-01 4.666393911267271433e-01 6.488577774976523882e-01 2.002074680829318165e+00 8.874581118278053460e-02 3.714924450951276880e-01 5.754740788769880933e-01 1.742627151378469241e+00 5.429326070689515227e-01 6.187987664152596601e-01 3.258767735372818108e-02 4.907836964190916973e-01 5.066137068703168156e-01 4.555906304401792783e-01 4.326333039799206692e-01 5.062256947543309904e-01 4.906281113062086474e-01 4.821924291127782647e-01 -4.257432889829078637e-01 5.007708160748676196e-01 5.415932421505130767e-01 5.279598072910002271e-01 5.574307975571859419e-01 5.232496304816729449e-01 -2.198048773985825377e-01 9.264061396412813787e-01 -1.084613036776966188e+00 -4.468259539994224872e-01 5.268869751963988213e-01 5.085429340012715960e-01 6.481663190275286368e-01 5.187177523153091441e-01 2.816829766890889264e-01 6.725322591605271683e-01 4.907836508432141254e-01 5.146818285921046510e-01 5.669113241041139339e-01 4.926346067636492854e-01 5.014097627096781862e-01 2.906174588815084170e-01 5.064563419109748832e-01 5.314891340581235912e-01 3.070523453700191308e-01 5.369238956234811955e-01 5.078166506991294016e-01 4.839106301353572337e-01 5.776005215261731385e-01 5.090649798496533762e-01 5.217232152035186088e-01 4.335575028558217303e-01 4.791943616285588292e-01 5.576946175220515167e-01 2.400282947788854870e-01 5.722569197936324681e-01 2.206667455108708431e+00 5.660561180983122442e-01 4.726056397323236125e-01 4.714290413354600973e-01 4.812068299005928251e-01 1.084031679254801039e+00 6.161117970789268261e-01 7.415950073099261131e-01 5.126371684995333355e-01
7.536142495013313791e-01 2.929227957220507106e-01 3.472692078432006446e-01 2.202278824367241983e-01 2.892003365174461438e-01 1.956150238855902390e-01 5.001887466981363994e-01 4.997532276606969082e-01 3.993449709178269469e-01 2.991514979629861792e-01 1.945731683949551094e+00 1.639807855738536047e+00 -1.326050394699944235e+00 5.532366494562680481e-01 2.965617559622145682e-01 2.625851043040954291e-01 1.315378026178510573e-01 3.922254853361810678e-01 4.060290476566351670e-01 3.044341095240148953e-01 3.948635344463257146e-01 1.978498465692075658e+00 3.798042752217650198e-01 2.071150247399079491e-01 6.230297198353111909e-01 -3.515998825694277019e-01 5.005058932784788306e-01 3.586558223151380398e-01 2.971997394273050430e-01 -7.102046787699326513e-01 2.895619502492452479e-01 4.454096668033755840e-02 2.944816684697675324e-01 2.634592131113819291e-01 -4.293805938499403174e-01 2.455145899297451473e-01 3.423206731018321181e-01 -2.343332498289124322e-01 -2.996293038525262631e+00 2.850481025694685533e-01 9.851073794635218928e-01 1.307708639350775304e-01 -1.523049534060774146e-01 7.869332031232390001e-01 7.447698484933967800e-01 3.219805445169170444e-01 2.202750745048145109e-01 2.864468089781035398e-01 4.259924132781113260e-01 7.753877413192853396e-01 7.451642213010633009e-01 3.472932605001576301e-01 -4.113358494574366753e-01 3.065815715977688316e-01 5.639633752630675012e-01 7.961981551772152610e-01 2.209716555880650857e-01 3.819750285407768065e-01 3.524705817391128315e-01 2.904262538467591859e-01 4.096024464861460768e-01 2.673631818080204336e-01 2.630472290648095957e-01 3.798042509560464186e-01 -3.252539231950740128e-01 4.091858740655630600e-01 3.166681851540439352e-01 3.761935738233837534e-01 3.647810439298519447e-01 7.038935349291931542e-01 2.123549572112152783e-01 3.579672182011615633e-01 3.281696922455103471e-01 6.691806821794208382e-01 1.813487249596066553e+00 5.511296496350464036e-01 4.509849811201193104e-01 4.683722996099776714e-01 3.043488408518206789e-01 -1.253527456624724090e+00 3.501780259053804967e-01 7.501803032923308745e-01 2.047089042434300676e+00 3.647558598471188351e-01 3.681246850443813945e-01 -5.111230648778689600e-01 8.192500519019207950e-02 3.523015116075226549e-01 -5.448132564453544990e-01 -7.936766569381841219e-01 7.430949411966940588e-01 1.449313656281792095e+00 3.143079793043136450e-01 7.501696676073693615e-01 3.964120697748079736e-01 2.173633028324647998e-01 3.542399979800555654e-01 6.279742907219181269e-01 7.422769686367283182e-01 -3.600999810435193127e-01 -1.386625667846932697e-01 7.148952131387366349e-02 3.583289294844641537e-01 2.281134947778352684e-01 1.362748390494208095e-01 2.859721367813147896e+00 -2.528195228242693937e-01 -1.538045033278489515e-01 4.274197803126775774e-01 7.943597851870899396e-01 2.955069676796304723e-01 2.198232155651876352e-01 2.105721496605271748e-01 5.092567956122053818e-01 -5.175797291855294135e-01 3.932470130189513746e-01 5.051354411930139010e-01 2.618949404140312187e-01 6.525673442392165846e-01 3.947927331350331581e-01 -1.359464769482082946e+00 4.312930550993195888e-01 4.027110081167188937e-01 1.038676465024326090e+00 2.773499124188373299e-01 2.028517458821116115e+00 1.597126694635289668e-01 3.091634038200134493e-01 2.789648344444228267e-01 3.133311863298959832e-01 2.213345989196356389e-01 3.103478134871489047e-01 6.342378617142132580e-01 3.327019210906226876e-01 2.195730532742432017e-01 9.164839400588804530e-01 6.199619144318193609e-01 7.276401715776246171e-01 -3.097799724999752979e-01 1.913424197886195721e-01 3.491397751989605558e-01 3.202472180545560820e-01 1.236152410073657337e-01 2.738978670639232171e-01 3.232592100066741803e-01 7.426148340578082596e-01 1.483630894522657007e-02 3.150826906165912766e-01 2.362731785253957273e-01 3.828046873862229194e-01 -3.819018118065201084e-01 1.613497862243255809e-02 3.219762755113448893e-01 3.223658671209107540e-01 4.516501296805254251e-01 2.730515735789424969e-01 -1.865401138042780627e+00 4.110007047908930677e-01 -5.489320630073051266e-01 -3.607284142042013753e-01 4.107808551442270750e-01 1.105872366830958492e-01 3.210472277629174420e-01 3.159172174240878483e-01 8.057035228377998348e-02 -6.077168413677511496e-03 3.146086454083370509e-01 2.149779586707797618e-01 1.854023549682473071e-01 2.502136850741403240e-01 3.307678514372929257e-01 2.179049893531961601e-01 3.219774911016114460e-01 3.089599293595395868e-01 -2.347791742559421024e+00 6.902266968870487407e-01 7.016035835521579056e-01 1.026656593319261734e+00 -4.364862058035767212e-01 1.153835947765293302e+00 -4.960626522222224416e-02 2.684867909058455959e-01 1.191881404053149796e+00 2.573569315754059561e-01 2.954544816429797160e-01 2.589027177070218344e-01 3.035826458719428911e-01 2.790812438733700218e-01 -3.933724283773023522e-01 4.216734016705294130e-01 1.063109533682143198e-01 7.667508188439287053e-01 2.917049446726200368e-01 3.364917334180438369e-01 1.863478022466049377e-01 2.840950365105153197e-01 -1.483610778454740764e+00 2.888955396698859035e-01 6.717519500962521040e-02 2.530840275425647046e-01 3.739744955283190730e-01 2.824855789143722595e-01 3.445437768656007260e-01 9.933310673305764671e-02 -8.548689387424884822e-01 6.717520268295927577e-02 3.641799106766849814e-01 -4.710167871806654194e-01 2.572743874433690570e-01 1.778578486472106313e-01 3.083926387795624668e-01 -2.986321340877020614e+00 3.053933587273898742e-01 9.530361882780684635e-01 2.983326020960168634e-01 3.389878185595695537e-01 3.201444414426961593e-01 3.636828354158203047e-01 3.209914879534461196e-01 3.260919393747928052e-01 3.062584120348722516e-01 3.918115685404354731e-01 6.341091946223013087e-01 3.383929129120621937e-01 5.423488371856470813e-01 3.162374415255971849e-01 3.410053978438108424e-01 -5.230411243896235796e-01 2.088900975249350367e+00 2.961555295020221190e-01 1.189989691634911750e+00 -1.337546282328671454e+00 3.136688578781553494e-01 3.220315234882684674e-01 3.210714095776232568e-01 1.053042520962660600e+00 1.797422856136479119e-01 7.286147600496988286e-01 2.636012742418789578e-01 6.657062095419210568e-01 4.741825693727028113e-01 2.729228491050378902e-01 -1.079408298207812367e+00 2.332035649117353837e-01 3.086827101965622377e-01 2.489823501845660481e-01 9.700882233786100040e-01 -2.539387645512546920e-01 2.851314558069653504e+00 2.355206273344373769e-01 1.076443334742038793e+00 2.638355496981895643e-01 2.945576093021021746e-01 3.798040876742784233e-01 2.783429235914948729e-01 3.341241252352495916e-01 2.504712457686100180e-01 7.735250419048908532e-02 3.576881232453725246e-01 5.563641133749891443e-01 3.472984079396085888e-01 1.041103998957057519e-01 3.695064107617690996e-01 1.489693938190154998e-01 4.096026337802105566e-01 3.063633607870152042e-01 2.952525725325343409e+00 3.564294329777065173e-01 6.616950969828679918e-01 4.918441882970026602e-01 3.137738850097464560e-01 4.083836940620449996e-01 3.010195569318848685e-01 3.169816236881116134e-01 3.024718851725689550e-01 -3.314932862673924396e-01 5.047515199577236045e-01 2.856666762481542832e-01 8.497374239107624572e-02 1.636286432321728268e-01 1.448151766836540233e+00 3.473001060309310883e-01 2.211087603170882321e-01 1.925687545449620064e+00 4.620502866146813381e-01 4.926588327460266759e-01 3.508033334547607240e-01 3.096839736139393451e-01 3.932470113325255423e-01 -1.983028001078122493e+00 3.693459408967554314e-01 1.282707998101746405e+00 1.755283587852772553e-01 -7.434322473628990346e-03 7.258480166626182228e-01 3.106641640999409648e-01 -6.779257133195119023e-01 4.697315958288252324e-01 3.185443350607847224e-01 2.362451584305904351e-01 -3.386861370949890149e-01 2.858337831023150533e-01 -1.772262222019026945e+00 2.179757422088010321e-01 3.059457588099496195e-01 6.192231932006605488e-01 3.019399984741991672e-01 2.998065366985350755e-01 2.596290179017544109e-01 3.858117339366988752e-01 -1.524436661251458436e-01 -7.141497846553001017e-01 2.017683608231736481e-02 6.390234941455161799e-01 2.777813135349127549e-01 2.903029230277438533e-01 2.903204374786087505e-01 2.179587162116065346e-01 3.185018876892030670e-01 2.280047339741659407e+00 7.606140018982507911e-01 2.455444063860707793e-01 -1.053398731347575890e+00 3.981756407732469638e-01 4.263859952029307898e+00 3.078196031923035592e-01 3.281761105830985348e-02 5.609498628655542607e-01 -5.130658817957747253e+00 4.543813915129535919e-01 1.419528425045843312e+00 3.199124028715695789e-01 5.625087109487876269e-01 -4.133870798064530616e-01 1.711445495365038760e-01 1.625499188194014788e-01 2.594672619421563575e-01 3.072538609530918730e-01 2.671564330394059716e+00 -3.315839800210227950e-01 2.930764943645612908e-01 -1.822725555662407348e+00 2.915250771987651923e-01 -2.343332436655354012e-01 7.078449717666583929e-01 5.811123071415189578e-01 4.471143689238538110e-01 3.998112241517742804e-01 1.311805831454163185e+00 1.257493855830008889e-01 6.717519080703895917e-02 2.332036485772880641e-01 9.933310144491752647e-02 1.714709757041166516e-01 4.084818482710930176e-01 -5.578752300088120064e-01 3.033352423437603029e-01 4.225722000778620591e-01 3.045497507616663491e-01 2.964312568446680896e-01 3.234491795466796771e-01 1.953008464061622151e-01 5.811124664958251529e-01 1.474806076542450328e-01 2.935746920036466090e-01 2.616312944710533217e-01 5.415582590664540508e-01 3.014286187015771556e+00 3.005921234504619344e-01 2.674790517192254802e-01 4.096110846312691067e-01 8.802910780579257244e-01 4.479521459237904013e-01 -1.568572349515835462e-01 7.508979872515613163e-01 2.325224138388700124e-01 1.065690144897705194e-01 3.410001059439298765e-01 5.692496998500454763e-01 7.444819918574624440e-01 7.362944975350123045e-01 7.832990531641995657e-01 3.748137766651119529e-01 9.933310583206435285e-02 9.933310637512500485e-02 3.111475899498479802e-01 9.426344263218530695e-02 1.119056127803652823e+00 4.251166431263114220e-01 3.176006177948278997e-01 4.593072661128434486e-01 3.249668879264190902e-01 8.279772398642029074e-01 6.717520505676145837e-02 3.170149651286834347e-01 3.050624877937906931e-01 4.308770545035461308e-01 -6.074236666170034216e-01 2.759492808700895750e-01 2.851752395989750055e-01 2.920801899734331020e-01 7.076602385510541993e-01 7.389794898503534437e-01 9.933310200739760287e-02 -6.504145304840573683e-02 2.930324163489387290e-01 1.274174911583407788e-01 -5.792827528688601069e-01 3.841432237901559188e-01 -3.236563536439428290e+00 1.721833573782036497e+00 4.971630983933187919e-01 -3.736918806499334167e-01 2.223627446274571706e-01 1.928088119397812994e+00 2.225114496256064833e-01 6.004482221394640273e-01 3.664512617294352625e-01 1.844930013600566410e-01 5.157949906181724664e-01 3.118040314389766143e-01 -2.126493231612786305e-01 3.131403951905025740e-01 1.921006808040014668e+00 2.520287202769361801e-01 -2.976298671919132555e-01 2.429971212988117357e-01 2.673154408814438221e-01 -1.363310880388157509e+00 3.202047887905665191e-01 9.512687717729755021e-02 4.012727028310630328e-01 3.995347621543879901e-01 3.213822510088583106e-01 3.289048053323600507e-01 2.932822712039090951e-01 -1.568899398402283929e-01 3.014291203929632124e-01 3.383309523119055195e-01 3.663356723969673490e-01 2.891092781071591400e-01 1.321619931883711019e-01 5.271719004234443062e-01 7.520164489990803780e-01 -1.246260435597420280e+00 -2.253255768285115090e-01 -8.340298358522113542e-02 -6.791287277880568574e-02 4.724834491647637025e-01 4.068209637165412507e-01 3.579329033131104509e-01 6.665740207848653842e-01 3.389706170816322861e-02 2.966551753919957068e-01 2.930584147829529140e-01 8.952382995584227954e-02 -1.572797393198217819e-01 3.404209987790813297e-01 2.717246989144777580e-01 4.741464113432467542e-01 2.742066322256214161e-01 3.291053436108765107e-01 2.959927595758844454e-01 2.749190311111220364e-01 3.078326914904280787e-01 5.291217672037020758e-01 2.929692947530013747e-01 3.060697174097420370e-01 7.523908374967945845e-01 2.960223789761542434e-01 6.736520755966399765e-01 3.185275795712825264e-01 3.195056392199143724e-01 3.703057214933630492e-01 -1.377379296564328337e+00 2.736515779150326955e-01 5.657193843759985574e-01 4.400060083466452721e-01 2.472916695430720235e-01 3.652517752243230054e-01 4.969126947219462131e-01 7.421979253158349499e-01 2.985989823344923355e-01 2.687926148036400842e-01 2.966971248105842451e-01 2.827522559655199497e-01 2.777792307446329545e-01 5.465298252408560264e-01 3.269894586340869602e-01 4.111749096406977499e-01 3.789162315667817804e-01 8.301418752284961400e-03 1.518111916681106122e+00 5.001580961473494069e-01 3.662934271400587471e-01 3.497474032918315712e-01 -7.551604276884820166e-01 4.317144507407575937e-01 4.595567879606506367e-01 6.260017138263878067e-01 1.761132265156281906e-01 3.659594805932681050e-01 1.217986892390070519e+00 8.720086073507530289e-01 2.486451466889684214e-01 3.610004810655754737e-01 2.681933635942403416e-01 2.715242196459034529e-01 8.677061070195333237e-01 2.822119589256980365e+00 3.171148840408686831e-01 1.521576489165991919e-01 6.045310626082681660e-01 -5.435045279566604048e-02 3.165863548821435391e-01 3.044677639599302488e-01 9.987649267958315091e-01 2.839637201897956542e-01 -2.511129021856472465e-01 3.386138934983518034e-01 8.600923264383332489e-02 6.872777953076442126e-01 1.433441162132283342e+00 2.304419787708378575e-01 1.997628932853469930e-01 1.596795431176823099e+00 4.451158298439555350e-01 3.006259386621334961e-01 3.276335036879348683e-01 4.872286072788905575e-01 2.210816874091516560e-01 1.460050584420277131e-01 2.209491252369213399e-01 6.659520817050296193e-01 4.882773092249201863e-01 3.894287238850804300e-01 2.953627112320986181e-01 2.390566511044841247e-01 2.524179344046838525e-01 2.379150612626166617e-01 9.660853538548326291e-01 4.782039740502900260e-01 2.591623618181957411e-01 2.662372053104997138e-01 2.796774503518982269e-01 2.628805843658555963e-01 5.693538020484062434e-01 7.387640504861872071e-01 2.170971956052548668e-01 2.689957951120900415e-01 1.817634343017819898e-01 3.194756665206714974e-01 7.613853024315019313e-01 2.320799402461705685e-01 3.707270880496944532e-01 -3.005944120480780746e-01 2.990436118906814600e-01 1.155785212925671823e-01 3.363604697883259553e-01 2.272553792450443533e-01 3.938372541940243776e-01 1.627928684954182303e+00 3.638066690894287136e-01 3.551573149737503599e-01 -2.794810763391916003e-02 1.465901926071987438e+00 1.098832832122131231e+00 2.502361445821800201e-01 -4.676054774770002087e-01 2.407630090297247297e-02 1.029773569196909960e-01 4.426901560586892215e-01 3.056974230545844162e-01 3.087241521765580199e-01 4.099220887616790709e-01 2.223033449467440303e-01 3.307385385093902785e-01 2.209452904458266975e-01 -3.595070484027061697e-02 3.348738948820388361e-01 5.257533529440887587e-01 1.283688936165787997e-01 8.185439296875258730e-01 4.096025405197762925e-01 2.984083594998923616e-01 7.432344346893724474e-01 4.764720372112355440e-01 7.437696201035027821e-01 1.736681284627384914e-01 6.653705771741522668e-01 1.418668985314143427e+00 2.254646275620781903e-01 1.910826588333535136e+00 7.241026650607827742e-02 1.102764880670906861e-01 2.935622157193190640e-01 3.688528517044649124e-01 2.759233084727326646e-01 2.502331676171292152e-01 3.239136100343552038e-01 3.225791340325281920e-01 3.289924791458501141e-01 2.443738849148164860e-01 -1.743107153000952592e-01 3.042266076260071173e-01 -3.190193466489268936e-02 2.939635260058282018e-01 2.361827667432520317e-01 4.096025407196608459e-01 1.730605011949173377e-01 4.726607396926698623e-01 -1.025469876761183619e+00 1.832874950326732533e+00 3.166355715137779692e-01 -5.881719298669725315e-01 2.998628258688175729e-01 3.307710295714826887e-01 3.058972101306120517e-01 -4.391062057365338056e+00 3.289684684445219442e+00 5.954797899294882457e-01 3.541308789816459135e-01 4.251772171857786109e-01 3.020911673806714326e-01 4.281131778327690873e-01 2.431397603466921353e+00 5.902094128162851394e-01 3.261168093070260232e-01 3.932470185986886024e-01 1.833561658967812480e-01 3.488533938710640658e-01 8.985569568104484484e-01 -3.825626723895227399e-01 -1.003525548874371953e+00 -1.096952948110920589e+00 3.572530423664745380e-01 2.927861490975716685e-01 6.529497094714545868e-01 2.631404593082130594e-01 9.436144654065203863e-01 4.204658577936136177e-01 3.062199332102438221e-01 3.291015289433594226e-01 3.173913618577485773e-01 4.032207975368219399e-01 2.930211523808118335e-01 6.525382343449168676e-01 2.871406290787762994e-01 5.022641165334672531e-01 1.899950618618743148e-01 1.318809260635709843e-02 2.933537079029750472e-01 3.872012419589025978e-01 3.264356510264106448e-01 3.218198269292715796e-01 7.730481236059251193e-01 5.811124535244819311e-01 5.551398800589569804e-01 3.317663083143873037e-01 3.343855953863413832e-01 2.306699924361564347e-01 1.218015936898127816e+00 1.656021060418367830e+00 2.942404877682475717e-01 2.181110212087016831e-01 2.687270516073336224e-01 4.478465898452678728e-01 2.673796801473932727e-01 2.086104741146214137e-01 3.241412906310707776e-01 3.131251202591006089e-01 7.561852057829836493e-01 8.170538179677364621e-01 4.005175247316659637e-01 1.744747825850049283e+00 9.402757089256939815e-02 4.803190760209680860e-02 -2.428305643036423600e-01 -3.478711587411053019e-01 2.915548608683246057e-01 3.708437397429544813e-01 7.003821123991075259e-01 2.840890957833561159e-01 3.416129043714156710e-01 3.216465459363694879e-01 3.726619276076227893e-01 3.024025536647576007e-01 2.380621086072615966e-01 1.012502438706674335e+00 3.247701237738416236e-01 5.759108488232741463e-01 3.162355516341215367e-01 1.250058920188338307e-01 2.866718206852715278e-01 3.741303451578011363e-01 -1.704924576048136853e-01 2.261522286879681931e-01 2.786066336238729457e-01 2.205007195056804259e-01 4.096008158211564831e-01 1.145491260204986039e+00 8.994068604420193402e-01 -7.548731154421204348e-01 -2.343332498411415110e-01 5.577870976346647192e-01 -3.062415700809098862e+00 1.508541208913953602e+00 3.237107558692872700e-01 2.189435739134866499e-01 2.911698310913941601e-01 8.142923979183041006e-01 3.113031807805925477e-01 2.332032472962317915e-01 -4.149825791969475874e-01 8.163401009644123407e-01 3.365873906397401916e-01 9.018909133543377976e-01 1.971366108054399158e+00 -3.825780171954431541e-01 -1.369362557979913131e+00 3.363171003678555593e-01 1.439895166442161922e-01 8.192336875409259589e-01 2.648858977857190822e-01 7.155385514580795414e-01 4.676515859463618030e-01 8.344055325883595331e-02 3.287081918878849152e-01 2.709161435488220970e-01 3.729998848023435842e-01 4.270825950002315463e-01 1.286463768410104347e+00 1.460017657008157554e+00 3.175469528499201832e-01 2.828311489632295284e-01 -1.262993840045097405e-01 -2.016923240288882591e-01 1.767153538682453007e-01 1.654289521622995529e-01 2.816137368816263864e-01 7.052672391986456457e-01 -2.138386059327774813e-01 3.359980610325868922e-01 3.411181786846972930e-01 2.751395774289091545e-01 3.005392864031520839e-01 4.028794347608591342e-01 3.008105548149066499e-01 3.165047784268975595e-01 -8.624806782952669504e-02 2.219634092223256860e-01 4.530569746057819258e-01 1.052081724989171851e+00 1.074114003392011352e+00 9.465048441948729074e-01 2.966861696892327260e-01 6.870423185093422758e-01 7.222460512795583765e-02 3.841815057154835955e-01 -1.863919966277432394e+00 2.804915319455104084e-01 6.316475398575285283e-01 4.081517912053419517e-01 9.524770876184434076e-01 1.307742110501193933e+00 3.932470138551453775e-01 2.404530804473522521e-01 3.660044534705703678e-01 6.146481541491014000e-02 5.756214123513487824e-01 5.206009698062875612e-01 -6.359279522150493857e-01 2.618536558273974468e-01 3.349235689344725597e-01 2.780406139878932037e-01 3.484432486766286252e-01 7.169864026623666842e-01 5.196630383419360844e-02 3.539931642700427927e-01 2.969763894816472294e-01 2.190442380885770646e-01 8.716410673180781110e-01 4.016754424613305785e-01 -1.859777802348411557e-01 8.546241101818541352e-01 1.788508762423202114e-02 5.203913029902236254e-01 3.596236512507546834e-01 1.234369728823664802e+00 4.045847615640407735e-01 6.669971620297437953e-01 3.932109235028097838e-01 4.041442105356969350e-01 -3.902691371144227372e-01 3.780027989600166505e-01 7.366903402641562515e-01 2.928781840687840199e-01 6.971760841278178411e-01 2.731997643220452909e-01 3.001310652065944384e-01 7.282174746069821625e-01 7.145108455910262335e-02 -1.933475683910836018e+00 4.031014591561664639e-01 3.201284852788385260e-01 4.116771641695625150e-01 1.470325511036936761e-01 2.661597790690466425e-01 3.058102230759970341e-01 3.329402808556468640e-01 3.080494974394423768e-01 -3.697302712129692942e-02 -1.562290357209665359e+00 7.151425948128465881e-01 3.048086184219919725e-01 3.287123434631604724e-01 1.753240224649513790e-01 8.190513579151337265e-01 3.036796609871573738e-01 -7.545732888976799946e-02 3.124416660085270192e-01 1.093600129484302963e+00 2.570345580210862124e-01 4.116761092331097105e-01 1.072393266376783227e+00 2.273096620021940739e-01 2.496110781493294350e+00 2.524650027776759731e-01 3.417545410457512034e-01 7.396452413480437693e-01 2.933320282041272375e-01 2.534824783839086382e-01 -1.782403388164812252e+00 2.297163762132552467e-01 3.372873402769161477e-01 5.006513508753317465e-01 2.829140749819143430e-01 5.194457221127450897e-01 -3.575845086871555223e-01 1.917855803978882445e+00 -5.176352513873959671e-01 7.935535719693619372e-01 2.971836631032336307e-01 4.617309420441577106e-01 5.957319566983823034e-01 2.859856124436205849e-01 1.260502928101448594e+00 7.223189660180105720e-02 1.910044881612773804e-01 -8.518022246642293904e-01 -6.378655019513454483e-02 2.561633507234929441e-01 -3.440432149281824170e+00 2.724391180589234907e+00 2.959412880276410251e-01 3.108609728437066178e-01 -1.451302480445388676e+00 2.860274599303485044e-01 2.577714949561173141e-02 3.114962274923394059e-01 9.673814818364057100e-02 6.280976216183301597e-01 5.681525235709169452e-01 8.074367273078502105e-01 -2.343332499264468294e-01 -1.697851460102984544e-01 2.795116563209596450e-01 -1.126230011485382931e+00 3.314549741543404981e-01 -5.891493723819539730e-01 3.054841105456819750e-01 5.172879642885488405e-01 5.438116556672012089e-03 3.612849251896519953e-01 2.890473524333339594e-01 -1.719835256390546407e-01 3.286879809681514941e-01 3.316494514261280058e-01 1.784119418207358310e-01 2.711829390642199189e-01 2.916825793070381145e-01 -7.547636720708198466e-01 6.528599842145882404e-01 1.487897705185458497e+00 3.000697479805697690e-02 2.513082515108842618e-01 3.040275588305782484e-01 1.225503034346415943e+00 3.345690699020730241e-01 2.638549782812890654e-01 9.045750000504486632e-01 2.989152084257135078e-01 1.731120524197232724e+00 2.757293529509912688e-01 9.044289069962359040e-01 3.040830149304636354e-01 7.301890865166690281e-01 1.314285535516219516e+00 3.614349275548051077e-01 2.595737584240134788e-01 8.367782323834191960e-01 -1.316882670755545603e-01 -2.194154637573831473e-02 2.798603743749826164e-02 2.865282439236622181e-01 3.129292157495160986e-01 1.394145302884264581e-01 4.400799352473226400e-01 -2.877256540814234209e-01 1.290115832089162362e+00 3.721770489832759155e-01 2.799911416230248529e-01 -2.836803634065884427e+00 2.812067753206047294e-01 3.201744923314316926e-01 4.352430838815442016e-01 2.519809282447659227e-01 4.934330522533232899e-01 -9.015399166955091470e-01 4.675719589727694303e-01 3.759646001101983881e-01 3.147913437144195248e-01 1.090439660397231947e+00 4.004184540631385292e-01 2.912988350220520051e-01 -1.321219033191730174e+00 5.307076176497224074e-01 8.714110465572039166e-01 2.335161891744957363e-01 2.949583323316041228e-01 1.186729777162481569e-01 7.215998313292257826e-01 -1.065232167763009302e-01 2.932821145242387462e-01 3.057565521700976174e-01 6.049036821295546151e-02 7.748138312540219230e-01 2.140921668300453107e-01 7.758884258155390734e-01 2.335246813475205796e-01 6.705127041708793811e-01 -1.322594616530895495e-01 -1.476748229030618420e+00 2.321695378035535939e-01 -4.585906998650276026e-03 3.142199117430426458e-01 2.530866630031180509e-01 7.625808549962330429e-02 5.811124277766778201e-01 3.074075092097775519e-01 1.122588310412758750e-01 4.073012631696510955e-01 3.050654505241653935e-01 2.856148938076187860e-01 3.649325707320318357e-01 -7.103721434513078359e-01 3.407763707177782209e-01 3.101990565378792697e-01 3.102435262295503704e-01 2.749768363338310762e-01 3.096789325767642098e-01 7.233771070614634091e-01 -2.941832361838621623e-01 1.014712280495992935e+00 5.729742577029096617e-01 2.961184797706604144e-01 3.221571993423050784e-01 -1.931585664991592344e+00 3.287633644391633747e-01 1.882299418474630004e-01 1.895046272105801455e-01 5.811124533703845296e-01 2.966495938588950554e-01 2.646206768336766268e-01 3.631363882059220338e-01 3.181097694734998926e-01 4.068945663732136397e-01 2.987406411899860004e-01 3.155829423634716191e-01 3.354077351771417304e-01 3.116107388500213848e-01 3.514411528300221410e-01 3.511047349233742398e-01 -7.112080324649135143e-02 3.163156534439655054e-01 4.252195298352770547e-01 3.214755952120764704e-01 3.231699647218134741e-01 -6.886867312523334284e-02 4.734640493620333873e-02 9.961222939240023388e-02 3.977054559569443981e+00 2.502229620527343101e-01 2.855654732060024514e-01 3.455923722903979090e-01 4.044879935605952270e-01 1.465001541653064177e+00 1.706512053927932981e-01 6.947775908769915354e-01 2.871587954411232158e-01
