# 
#                 ----------------------------------------------------
#                 Data from a 3D direct N-body simulation. 
# 
#                 rows are i-particle; 
#                 coumns are :mass, tag, x ,y, z, vx, vy, vz, ax, ay, az
# 
#                 NTHU, Computational Physics 
# 
#                 ----------------------------------------------------
#                 Time = 0.0
0.000000000000000000e+00 1.000000000000000000e+00 2.000000000000000000e+00 3.000000000000000000e+00 4.000000000000000000e+00 5.000000000000000000e+00 6.000000000000000000e+00 7.000000000000000000e+00 8.000000000000000000e+00 9.000000000000000000e+00 1.000000000000000000e+01 1.100000000000000000e+01 1.200000000000000000e+01 1.300000000000000000e+01 1.400000000000000000e+01 1.500000000000000000e+01 1.600000000000000000e+01 1.700000000000000000e+01 1.800000000000000000e+01 1.900000000000000000e+01 2.000000000000000000e+01 2.100000000000000000e+01 2.200000000000000000e+01 2.300000000000000000e+01 2.400000000000000000e+01 2.500000000000000000e+01 2.600000000000000000e+01 2.700000000000000000e+01 2.800000000000000000e+01 2.900000000000000000e+01 3.000000000000000000e+01 3.100000000000000000e+01 3.200000000000000000e+01 3.300000000000000000e+01 3.400000000000000000e+01 3.500000000000000000e+01 3.600000000000000000e+01 3.700000000000000000e+01 3.800000000000000000e+01 3.900000000000000000e+01 4.000000000000000000e+01 4.100000000000000000e+01 4.200000000000000000e+01 4.300000000000000000e+01 4.400000000000000000e+01 4.500000000000000000e+01 4.600000000000000000e+01 4.700000000000000000e+01 4.800000000000000000e+01 4.900000000000000000e+01 5.000000000000000000e+01 5.100000000000000000e+01 5.200000000000000000e+01 5.300000000000000000e+01 5.400000000000000000e+01 5.500000000000000000e+01 5.600000000000000000e+01 5.700000000000000000e+01 5.800000000000000000e+01 5.900000000000000000e+01 6.000000000000000000e+01 6.100000000000000000e+01 6.200000000000000000e+01 6.300000000000000000e+01 6.400000000000000000e+01 6.500000000000000000e+01 6.600000000000000000e+01 6.700000000000000000e+01 6.800000000000000000e+01 6.900000000000000000e+01 7.000000000000000000e+01 7.100000000000000000e+01 7.200000000000000000e+01 7.300000000000000000e+01 7.400000000000000000e+01 7.500000000000000000e+01 7.600000000000000000e+01 7.700000000000000000e+01 7.800000000000000000e+01 7.900000000000000000e+01 8.000000000000000000e+01 8.100000000000000000e+01 8.200000000000000000e+01 8.300000000000000000e+01 8.400000000000000000e+01 8.500000000000000000e+01 8.600000000000000000e+01 8.700000000000000000e+01 8.800000000000000000e+01 8.900000000000000000e+01 9.000000000000000000e+01 9.100000000000000000e+01 9.200000000000000000e+01 9.300000000000000000e+01 9.400000000000000000e+01 9.500000000000000000e+01 9.600000000000000000e+01 9.700000000000000000e+01 9.800000000000000000e+01 9.900000000000000000e+01 1.000000000000000000e+02 1.010000000000000000e+02 1.020000000000000000e+02 1.030000000000000000e+02 1.040000000000000000e+02 1.050000000000000000e+02 1.060000000000000000e+02 1.070000000000000000e+02 1.080000000000000000e+02 1.090000000000000000e+02 1.100000000000000000e+02 1.110000000000000000e+02 1.120000000000000000e+02 1.130000000000000000e+02 1.140000000000000000e+02 1.150000000000000000e+02 1.160000000000000000e+02 1.170000000000000000e+02 1.180000000000000000e+02 1.190000000000000000e+02 1.200000000000000000e+02 1.210000000000000000e+02 1.220000000000000000e+02 1.230000000000000000e+02 1.240000000000000000e+02 1.250000000000000000e+02 1.260000000000000000e+02 1.270000000000000000e+02 1.280000000000000000e+02 1.290000000000000000e+02 1.300000000000000000e+02 1.310000000000000000e+02 1.320000000000000000e+02 1.330000000000000000e+02 1.340000000000000000e+02 1.350000000000000000e+02 1.360000000000000000e+02 1.370000000000000000e+02 1.380000000000000000e+02 1.390000000000000000e+02 1.400000000000000000e+02 1.410000000000000000e+02 1.420000000000000000e+02 1.430000000000000000e+02 1.440000000000000000e+02 1.450000000000000000e+02 1.460000000000000000e+02 1.470000000000000000e+02 1.480000000000000000e+02 1.490000000000000000e+02 1.500000000000000000e+02 1.510000000000000000e+02 1.520000000000000000e+02 1.530000000000000000e+02 1.540000000000000000e+02 1.550000000000000000e+02 1.560000000000000000e+02 1.570000000000000000e+02 1.580000000000000000e+02 1.590000000000000000e+02 1.600000000000000000e+02 1.610000000000000000e+02 1.620000000000000000e+02 1.630000000000000000e+02 1.640000000000000000e+02 1.650000000000000000e+02 1.660000000000000000e+02 1.670000000000000000e+02 1.680000000000000000e+02 1.690000000000000000e+02 1.700000000000000000e+02 1.710000000000000000e+02 1.720000000000000000e+02 1.730000000000000000e+02 1.740000000000000000e+02 1.750000000000000000e+02 1.760000000000000000e+02 1.770000000000000000e+02 1.780000000000000000e+02 1.790000000000000000e+02 1.800000000000000000e+02 1.810000000000000000e+02 1.820000000000000000e+02 1.830000000000000000e+02 1.840000000000000000e+02 1.850000000000000000e+02 1.860000000000000000e+02 1.870000000000000000e+02 1.880000000000000000e+02 1.890000000000000000e+02 1.900000000000000000e+02 1.910000000000000000e+02 1.920000000000000000e+02 1.930000000000000000e+02 1.940000000000000000e+02 1.950000000000000000e+02 1.960000000000000000e+02 1.970000000000000000e+02 1.980000000000000000e+02 1.990000000000000000e+02 2.000000000000000000e+02 2.010000000000000000e+02 2.020000000000000000e+02 2.030000000000000000e+02 2.040000000000000000e+02 2.050000000000000000e+02 2.060000000000000000e+02 2.070000000000000000e+02 2.080000000000000000e+02 2.090000000000000000e+02 2.100000000000000000e+02 2.110000000000000000e+02 2.120000000000000000e+02 2.130000000000000000e+02 2.140000000000000000e+02 2.150000000000000000e+02 2.160000000000000000e+02 2.170000000000000000e+02 2.180000000000000000e+02 2.190000000000000000e+02 2.200000000000000000e+02 2.210000000000000000e+02 2.220000000000000000e+02 2.230000000000000000e+02 2.240000000000000000e+02 2.250000000000000000e+02 2.260000000000000000e+02 2.270000000000000000e+02 2.280000000000000000e+02 2.290000000000000000e+02 2.300000000000000000e+02 2.310000000000000000e+02 2.320000000000000000e+02 2.330000000000000000e+02 2.340000000000000000e+02 2.350000000000000000e+02 2.360000000000000000e+02 2.370000000000000000e+02 2.380000000000000000e+02 2.390000000000000000e+02 2.400000000000000000e+02 2.410000000000000000e+02 2.420000000000000000e+02 2.430000000000000000e+02 2.440000000000000000e+02 2.450000000000000000e+02 2.460000000000000000e+02 2.470000000000000000e+02 2.480000000000000000e+02 2.490000000000000000e+02 2.500000000000000000e+02 2.510000000000000000e+02 2.520000000000000000e+02 2.530000000000000000e+02 2.540000000000000000e+02 2.550000000000000000e+02 2.560000000000000000e+02 2.570000000000000000e+02 2.580000000000000000e+02 2.590000000000000000e+02 2.600000000000000000e+02 2.610000000000000000e+02 2.620000000000000000e+02 2.630000000000000000e+02 2.640000000000000000e+02 2.650000000000000000e+02 2.660000000000000000e+02 2.670000000000000000e+02 2.680000000000000000e+02 2.690000000000000000e+02 2.700000000000000000e+02 2.710000000000000000e+02 2.720000000000000000e+02 2.730000000000000000e+02 2.740000000000000000e+02 2.750000000000000000e+02 2.760000000000000000e+02 2.770000000000000000e+02 2.780000000000000000e+02 2.790000000000000000e+02 2.800000000000000000e+02 2.810000000000000000e+02 2.820000000000000000e+02 2.830000000000000000e+02 2.840000000000000000e+02 2.850000000000000000e+02 2.860000000000000000e+02 2.870000000000000000e+02 2.880000000000000000e+02 2.890000000000000000e+02 2.900000000000000000e+02 2.910000000000000000e+02 2.920000000000000000e+02 2.930000000000000000e+02 2.940000000000000000e+02 2.950000000000000000e+02 2.960000000000000000e+02 2.970000000000000000e+02 2.980000000000000000e+02 2.990000000000000000e+02 3.000000000000000000e+02 3.010000000000000000e+02 3.020000000000000000e+02 3.030000000000000000e+02 3.040000000000000000e+02 3.050000000000000000e+02 3.060000000000000000e+02 3.070000000000000000e+02 3.080000000000000000e+02 3.090000000000000000e+02 3.100000000000000000e+02 3.110000000000000000e+02 3.120000000000000000e+02 3.130000000000000000e+02 3.140000000000000000e+02 3.150000000000000000e+02 3.160000000000000000e+02 3.170000000000000000e+02 3.180000000000000000e+02 3.190000000000000000e+02 3.200000000000000000e+02 3.210000000000000000e+02 3.220000000000000000e+02 3.230000000000000000e+02 3.240000000000000000e+02 3.250000000000000000e+02 3.260000000000000000e+02 3.270000000000000000e+02 3.280000000000000000e+02 3.290000000000000000e+02 3.300000000000000000e+02 3.310000000000000000e+02 3.320000000000000000e+02 3.330000000000000000e+02 3.340000000000000000e+02 3.350000000000000000e+02 3.360000000000000000e+02 3.370000000000000000e+02 3.380000000000000000e+02 3.390000000000000000e+02 3.400000000000000000e+02 3.410000000000000000e+02 3.420000000000000000e+02 3.430000000000000000e+02 3.440000000000000000e+02 3.450000000000000000e+02 3.460000000000000000e+02 3.470000000000000000e+02 3.480000000000000000e+02 3.490000000000000000e+02 3.500000000000000000e+02 3.510000000000000000e+02 3.520000000000000000e+02 3.530000000000000000e+02 3.540000000000000000e+02 3.550000000000000000e+02 3.560000000000000000e+02 3.570000000000000000e+02 3.580000000000000000e+02 3.590000000000000000e+02 3.600000000000000000e+02 3.610000000000000000e+02 3.620000000000000000e+02 3.630000000000000000e+02 3.640000000000000000e+02 3.650000000000000000e+02 3.660000000000000000e+02 3.670000000000000000e+02 3.680000000000000000e+02 3.690000000000000000e+02 3.700000000000000000e+02 3.710000000000000000e+02 3.720000000000000000e+02 3.730000000000000000e+02 3.740000000000000000e+02 3.750000000000000000e+02 3.760000000000000000e+02 3.770000000000000000e+02 3.780000000000000000e+02 3.790000000000000000e+02 3.800000000000000000e+02 3.810000000000000000e+02 3.820000000000000000e+02 3.830000000000000000e+02 3.840000000000000000e+02 3.850000000000000000e+02 3.860000000000000000e+02 3.870000000000000000e+02 3.880000000000000000e+02 3.890000000000000000e+02 3.900000000000000000e+02 3.910000000000000000e+02 3.920000000000000000e+02 3.930000000000000000e+02 3.940000000000000000e+02 3.950000000000000000e+02 3.960000000000000000e+02 3.970000000000000000e+02 3.980000000000000000e+02 3.990000000000000000e+02 4.000000000000000000e+02 4.010000000000000000e+02 4.020000000000000000e+02 4.030000000000000000e+02 4.040000000000000000e+02 4.050000000000000000e+02 4.060000000000000000e+02 4.070000000000000000e+02 4.080000000000000000e+02 4.090000000000000000e+02 4.100000000000000000e+02 4.110000000000000000e+02 4.120000000000000000e+02 4.130000000000000000e+02 4.140000000000000000e+02 4.150000000000000000e+02 4.160000000000000000e+02 4.170000000000000000e+02 4.180000000000000000e+02 4.190000000000000000e+02 4.200000000000000000e+02 4.210000000000000000e+02 4.220000000000000000e+02 4.230000000000000000e+02 4.240000000000000000e+02 4.250000000000000000e+02 4.260000000000000000e+02 4.270000000000000000e+02 4.280000000000000000e+02 4.290000000000000000e+02 4.300000000000000000e+02 4.310000000000000000e+02 4.320000000000000000e+02 4.330000000000000000e+02 4.340000000000000000e+02 4.350000000000000000e+02 4.360000000000000000e+02 4.370000000000000000e+02 4.380000000000000000e+02 4.390000000000000000e+02 4.400000000000000000e+02 4.410000000000000000e+02 4.420000000000000000e+02 4.430000000000000000e+02 4.440000000000000000e+02 4.450000000000000000e+02 4.460000000000000000e+02 4.470000000000000000e+02 4.480000000000000000e+02 4.490000000000000000e+02 4.500000000000000000e+02 4.510000000000000000e+02 4.520000000000000000e+02 4.530000000000000000e+02 4.540000000000000000e+02 4.550000000000000000e+02 4.560000000000000000e+02 4.570000000000000000e+02 4.580000000000000000e+02 4.590000000000000000e+02 4.600000000000000000e+02 4.610000000000000000e+02 4.620000000000000000e+02 4.630000000000000000e+02 4.640000000000000000e+02 4.650000000000000000e+02 4.660000000000000000e+02 4.670000000000000000e+02 4.680000000000000000e+02 4.690000000000000000e+02 4.700000000000000000e+02 4.710000000000000000e+02 4.720000000000000000e+02 4.730000000000000000e+02 4.740000000000000000e+02 4.750000000000000000e+02 4.760000000000000000e+02 4.770000000000000000e+02 4.780000000000000000e+02 4.790000000000000000e+02 4.800000000000000000e+02 4.810000000000000000e+02 4.820000000000000000e+02 4.830000000000000000e+02 4.840000000000000000e+02 4.850000000000000000e+02 4.860000000000000000e+02 4.870000000000000000e+02 4.880000000000000000e+02 4.890000000000000000e+02 4.900000000000000000e+02 4.910000000000000000e+02 4.920000000000000000e+02 4.930000000000000000e+02 4.940000000000000000e+02 4.950000000000000000e+02 4.960000000000000000e+02 4.970000000000000000e+02 4.980000000000000000e+02 4.990000000000000000e+02 5.000000000000000000e+02 5.010000000000000000e+02 5.020000000000000000e+02 5.030000000000000000e+02 5.040000000000000000e+02 5.050000000000000000e+02 5.060000000000000000e+02 5.070000000000000000e+02 5.080000000000000000e+02 5.090000000000000000e+02 5.100000000000000000e+02 5.110000000000000000e+02 5.120000000000000000e+02 5.130000000000000000e+02 5.140000000000000000e+02 5.150000000000000000e+02 5.160000000000000000e+02 5.170000000000000000e+02 5.180000000000000000e+02 5.190000000000000000e+02 5.200000000000000000e+02 5.210000000000000000e+02 5.220000000000000000e+02 5.230000000000000000e+02 5.240000000000000000e+02 5.250000000000000000e+02 5.260000000000000000e+02 5.270000000000000000e+02 5.280000000000000000e+02 5.290000000000000000e+02 5.300000000000000000e+02 5.310000000000000000e+02 5.320000000000000000e+02 5.330000000000000000e+02 5.340000000000000000e+02 5.350000000000000000e+02 5.360000000000000000e+02 5.370000000000000000e+02 5.380000000000000000e+02 5.390000000000000000e+02 5.400000000000000000e+02 5.410000000000000000e+02 5.420000000000000000e+02 5.430000000000000000e+02 5.440000000000000000e+02 5.450000000000000000e+02 5.460000000000000000e+02 5.470000000000000000e+02 5.480000000000000000e+02 5.490000000000000000e+02 5.500000000000000000e+02 5.510000000000000000e+02 5.520000000000000000e+02 5.530000000000000000e+02 5.540000000000000000e+02 5.550000000000000000e+02 5.560000000000000000e+02 5.570000000000000000e+02 5.580000000000000000e+02 5.590000000000000000e+02 5.600000000000000000e+02 5.610000000000000000e+02 5.620000000000000000e+02 5.630000000000000000e+02 5.640000000000000000e+02 5.650000000000000000e+02 5.660000000000000000e+02 5.670000000000000000e+02 5.680000000000000000e+02 5.690000000000000000e+02 5.700000000000000000e+02 5.710000000000000000e+02 5.720000000000000000e+02 5.730000000000000000e+02 5.740000000000000000e+02 5.750000000000000000e+02 5.760000000000000000e+02 5.770000000000000000e+02 5.780000000000000000e+02 5.790000000000000000e+02 5.800000000000000000e+02 5.810000000000000000e+02 5.820000000000000000e+02 5.830000000000000000e+02 5.840000000000000000e+02 5.850000000000000000e+02 5.860000000000000000e+02 5.870000000000000000e+02 5.880000000000000000e+02 5.890000000000000000e+02 5.900000000000000000e+02 5.910000000000000000e+02 5.920000000000000000e+02 5.930000000000000000e+02 5.940000000000000000e+02 5.950000000000000000e+02 5.960000000000000000e+02 5.970000000000000000e+02 5.980000000000000000e+02 5.990000000000000000e+02 6.000000000000000000e+02 6.010000000000000000e+02 6.020000000000000000e+02 6.030000000000000000e+02 6.040000000000000000e+02 6.050000000000000000e+02 6.060000000000000000e+02 6.070000000000000000e+02 6.080000000000000000e+02 6.090000000000000000e+02 6.100000000000000000e+02 6.110000000000000000e+02 6.120000000000000000e+02 6.130000000000000000e+02 6.140000000000000000e+02 6.150000000000000000e+02 6.160000000000000000e+02 6.170000000000000000e+02 6.180000000000000000e+02 6.190000000000000000e+02 6.200000000000000000e+02 6.210000000000000000e+02 6.220000000000000000e+02 6.230000000000000000e+02 6.240000000000000000e+02 6.250000000000000000e+02 6.260000000000000000e+02 6.270000000000000000e+02 6.280000000000000000e+02 6.290000000000000000e+02 6.300000000000000000e+02 6.310000000000000000e+02 6.320000000000000000e+02 6.330000000000000000e+02 6.340000000000000000e+02 6.350000000000000000e+02 6.360000000000000000e+02 6.370000000000000000e+02 6.380000000000000000e+02 6.390000000000000000e+02 6.400000000000000000e+02 6.410000000000000000e+02 6.420000000000000000e+02 6.430000000000000000e+02 6.440000000000000000e+02 6.450000000000000000e+02 6.460000000000000000e+02 6.470000000000000000e+02 6.480000000000000000e+02 6.490000000000000000e+02 6.500000000000000000e+02 6.510000000000000000e+02 6.520000000000000000e+02 6.530000000000000000e+02 6.540000000000000000e+02 6.550000000000000000e+02 6.560000000000000000e+02 6.570000000000000000e+02 6.580000000000000000e+02 6.590000000000000000e+02 6.600000000000000000e+02 6.610000000000000000e+02 6.620000000000000000e+02 6.630000000000000000e+02 6.640000000000000000e+02 6.650000000000000000e+02 6.660000000000000000e+02 6.670000000000000000e+02 6.680000000000000000e+02 6.690000000000000000e+02 6.700000000000000000e+02 6.710000000000000000e+02 6.720000000000000000e+02 6.730000000000000000e+02 6.740000000000000000e+02 6.750000000000000000e+02 6.760000000000000000e+02 6.770000000000000000e+02 6.780000000000000000e+02 6.790000000000000000e+02 6.800000000000000000e+02 6.810000000000000000e+02 6.820000000000000000e+02 6.830000000000000000e+02 6.840000000000000000e+02 6.850000000000000000e+02 6.860000000000000000e+02 6.870000000000000000e+02 6.880000000000000000e+02 6.890000000000000000e+02 6.900000000000000000e+02 6.910000000000000000e+02 6.920000000000000000e+02 6.930000000000000000e+02 6.940000000000000000e+02 6.950000000000000000e+02 6.960000000000000000e+02 6.970000000000000000e+02 6.980000000000000000e+02 6.990000000000000000e+02 7.000000000000000000e+02 7.010000000000000000e+02 7.020000000000000000e+02 7.030000000000000000e+02 7.040000000000000000e+02 7.050000000000000000e+02 7.060000000000000000e+02 7.070000000000000000e+02 7.080000000000000000e+02 7.090000000000000000e+02 7.100000000000000000e+02 7.110000000000000000e+02 7.120000000000000000e+02 7.130000000000000000e+02 7.140000000000000000e+02 7.150000000000000000e+02 7.160000000000000000e+02 7.170000000000000000e+02 7.180000000000000000e+02 7.190000000000000000e+02 7.200000000000000000e+02 7.210000000000000000e+02 7.220000000000000000e+02 7.230000000000000000e+02 7.240000000000000000e+02 7.250000000000000000e+02 7.260000000000000000e+02 7.270000000000000000e+02 7.280000000000000000e+02 7.290000000000000000e+02 7.300000000000000000e+02 7.310000000000000000e+02 7.320000000000000000e+02 7.330000000000000000e+02 7.340000000000000000e+02 7.350000000000000000e+02 7.360000000000000000e+02 7.370000000000000000e+02 7.380000000000000000e+02 7.390000000000000000e+02 7.400000000000000000e+02 7.410000000000000000e+02 7.420000000000000000e+02 7.430000000000000000e+02 7.440000000000000000e+02 7.450000000000000000e+02 7.460000000000000000e+02 7.470000000000000000e+02 7.480000000000000000e+02 7.490000000000000000e+02 7.500000000000000000e+02 7.510000000000000000e+02 7.520000000000000000e+02 7.530000000000000000e+02 7.540000000000000000e+02 7.550000000000000000e+02 7.560000000000000000e+02 7.570000000000000000e+02 7.580000000000000000e+02 7.590000000000000000e+02 7.600000000000000000e+02 7.610000000000000000e+02 7.620000000000000000e+02 7.630000000000000000e+02 7.640000000000000000e+02 7.650000000000000000e+02 7.660000000000000000e+02 7.670000000000000000e+02 7.680000000000000000e+02 7.690000000000000000e+02 7.700000000000000000e+02 7.710000000000000000e+02 7.720000000000000000e+02 7.730000000000000000e+02 7.740000000000000000e+02 7.750000000000000000e+02 7.760000000000000000e+02 7.770000000000000000e+02 7.780000000000000000e+02 7.790000000000000000e+02 7.800000000000000000e+02 7.810000000000000000e+02 7.820000000000000000e+02 7.830000000000000000e+02 7.840000000000000000e+02 7.850000000000000000e+02 7.860000000000000000e+02 7.870000000000000000e+02 7.880000000000000000e+02 7.890000000000000000e+02 7.900000000000000000e+02 7.910000000000000000e+02 7.920000000000000000e+02 7.930000000000000000e+02 7.940000000000000000e+02 7.950000000000000000e+02 7.960000000000000000e+02 7.970000000000000000e+02 7.980000000000000000e+02 7.990000000000000000e+02 8.000000000000000000e+02 8.010000000000000000e+02 8.020000000000000000e+02 8.030000000000000000e+02 8.040000000000000000e+02 8.050000000000000000e+02 8.060000000000000000e+02 8.070000000000000000e+02 8.080000000000000000e+02 8.090000000000000000e+02 8.100000000000000000e+02 8.110000000000000000e+02 8.120000000000000000e+02 8.130000000000000000e+02 8.140000000000000000e+02 8.150000000000000000e+02 8.160000000000000000e+02 8.170000000000000000e+02 8.180000000000000000e+02 8.190000000000000000e+02 8.200000000000000000e+02 8.210000000000000000e+02 8.220000000000000000e+02 8.230000000000000000e+02 8.240000000000000000e+02 8.250000000000000000e+02 8.260000000000000000e+02 8.270000000000000000e+02 8.280000000000000000e+02 8.290000000000000000e+02 8.300000000000000000e+02 8.310000000000000000e+02 8.320000000000000000e+02 8.330000000000000000e+02 8.340000000000000000e+02 8.350000000000000000e+02 8.360000000000000000e+02 8.370000000000000000e+02 8.380000000000000000e+02 8.390000000000000000e+02 8.400000000000000000e+02 8.410000000000000000e+02 8.420000000000000000e+02 8.430000000000000000e+02 8.440000000000000000e+02 8.450000000000000000e+02 8.460000000000000000e+02 8.470000000000000000e+02 8.480000000000000000e+02 8.490000000000000000e+02 8.500000000000000000e+02 8.510000000000000000e+02 8.520000000000000000e+02 8.530000000000000000e+02 8.540000000000000000e+02 8.550000000000000000e+02 8.560000000000000000e+02 8.570000000000000000e+02 8.580000000000000000e+02 8.590000000000000000e+02 8.600000000000000000e+02 8.610000000000000000e+02 8.620000000000000000e+02 8.630000000000000000e+02 8.640000000000000000e+02 8.650000000000000000e+02 8.660000000000000000e+02 8.670000000000000000e+02 8.680000000000000000e+02 8.690000000000000000e+02 8.700000000000000000e+02 8.710000000000000000e+02 8.720000000000000000e+02 8.730000000000000000e+02 8.740000000000000000e+02 8.750000000000000000e+02 8.760000000000000000e+02 8.770000000000000000e+02 8.780000000000000000e+02 8.790000000000000000e+02 8.800000000000000000e+02 8.810000000000000000e+02 8.820000000000000000e+02 8.830000000000000000e+02 8.840000000000000000e+02 8.850000000000000000e+02 8.860000000000000000e+02 8.870000000000000000e+02 8.880000000000000000e+02 8.890000000000000000e+02 8.900000000000000000e+02 8.910000000000000000e+02 8.920000000000000000e+02 8.930000000000000000e+02 8.940000000000000000e+02 8.950000000000000000e+02 8.960000000000000000e+02 8.970000000000000000e+02 8.980000000000000000e+02 8.990000000000000000e+02 9.000000000000000000e+02 9.010000000000000000e+02 9.020000000000000000e+02 9.030000000000000000e+02 9.040000000000000000e+02 9.050000000000000000e+02 9.060000000000000000e+02 9.070000000000000000e+02 9.080000000000000000e+02 9.090000000000000000e+02 9.100000000000000000e+02 9.110000000000000000e+02 9.120000000000000000e+02 9.130000000000000000e+02 9.140000000000000000e+02 9.150000000000000000e+02 9.160000000000000000e+02 9.170000000000000000e+02 9.180000000000000000e+02 9.190000000000000000e+02 9.200000000000000000e+02 9.210000000000000000e+02 9.220000000000000000e+02 9.230000000000000000e+02 9.240000000000000000e+02 9.250000000000000000e+02 9.260000000000000000e+02 9.270000000000000000e+02 9.280000000000000000e+02 9.290000000000000000e+02 9.300000000000000000e+02 9.310000000000000000e+02 9.320000000000000000e+02 9.330000000000000000e+02 9.340000000000000000e+02 9.350000000000000000e+02 9.360000000000000000e+02 9.370000000000000000e+02 9.380000000000000000e+02 9.390000000000000000e+02 9.400000000000000000e+02 9.410000000000000000e+02 9.420000000000000000e+02 9.430000000000000000e+02 9.440000000000000000e+02 9.450000000000000000e+02 9.460000000000000000e+02 9.470000000000000000e+02 9.480000000000000000e+02 9.490000000000000000e+02 9.500000000000000000e+02 9.510000000000000000e+02 9.520000000000000000e+02 9.530000000000000000e+02 9.540000000000000000e+02 9.550000000000000000e+02 9.560000000000000000e+02 9.570000000000000000e+02 9.580000000000000000e+02 9.590000000000000000e+02 9.600000000000000000e+02 9.610000000000000000e+02 9.620000000000000000e+02 9.630000000000000000e+02 9.640000000000000000e+02 9.650000000000000000e+02 9.660000000000000000e+02 9.670000000000000000e+02 9.680000000000000000e+02 9.690000000000000000e+02 9.700000000000000000e+02 9.710000000000000000e+02 9.720000000000000000e+02 9.730000000000000000e+02 9.740000000000000000e+02 9.750000000000000000e+02 9.760000000000000000e+02 9.770000000000000000e+02 9.780000000000000000e+02 9.790000000000000000e+02 9.800000000000000000e+02 9.810000000000000000e+02 9.820000000000000000e+02 9.830000000000000000e+02 9.840000000000000000e+02 9.850000000000000000e+02 9.860000000000000000e+02 9.870000000000000000e+02 9.880000000000000000e+02 9.890000000000000000e+02 9.900000000000000000e+02 9.910000000000000000e+02 9.920000000000000000e+02 9.930000000000000000e+02 9.940000000000000000e+02 9.950000000000000000e+02 9.960000000000000000e+02 9.970000000000000000e+02 9.980000000000000000e+02 9.990000000000000000e+02
1.000000000000000000e+00 1.000000000000000000e+00 1.000000000000000000e+00 1.000000000000000000e+00 1.000000000000000000e+00 1.000000000000000000e+00 1.000000000000000000e+00 1.000000000000000000e+00 1.000000000000000000e+00 1.000000000000000000e+00 1.000000000000000000e+00 1.000000000000000000e+00 1.000000000000000000e+00 1.000000000000000000e+00 1.000000000000000000e+00 1.000000000000000000e+00 1.000000000000000000e+00 1.000000000000000000e+00 1.000000000000000000e+00 1.000000000000000000e+00 1.000000000000000000e+00 1.000000000000000000e+00 1.000000000000000000e+00 1.000000000000000000e+00 1.000000000000000000e+00 1.000000000000000000e+00 1.000000000000000000e+00 1.000000000000000000e+00 1.000000000000000000e+00 1.000000000000000000e+00 1.000000000000000000e+00 1.000000000000000000e+00 1.000000000000000000e+00 1.000000000000000000e+00 1.000000000000000000e+00 1.000000000000000000e+00 1.000000000000000000e+00 1.000000000000000000e+00 1.000000000000000000e+00 1.000000000000000000e+00 1.000000000000000000e+00 1.000000000000000000e+00 1.000000000000000000e+00 1.000000000000000000e+00 1.000000000000000000e+00 1.000000000000000000e+00 1.000000000000000000e+00 1.000000000000000000e+00 1.000000000000000000e+00 1.000000000000000000e+00 1.000000000000000000e+00 1.000000000000000000e+00 1.000000000000000000e+00 1.000000000000000000e+00 1.000000000000000000e+00 1.000000000000000000e+00 1.000000000000000000e+00 1.000000000000000000e+00 1.000000000000000000e+00 1.000000000000000000e+00 1.000000000000000000e+00 1.000000000000000000e+00 1.000000000000000000e+00 1.000000000000000000e+00 1.000000000000000000e+00 1.000000000000000000e+00 1.000000000000000000e+00 1.000000000000000000e+00 1.000000000000000000e+00 1.000000000000000000e+00 1.000000000000000000e+00 1.000000000000000000e+00 1.000000000000000000e+00 1.000000000000000000e+00 1.000000000000000000e+00 1.000000000000000000e+00 1.000000000000000000e+00 1.000000000000000000e+00 1.000000000000000000e+00 1.000000000000000000e+00 1.000000000000000000e+00 1.000000000000000000e+00 1.000000000000000000e+00 1.000000000000000000e+00 1.000000000000000000e+00 1.000000000000000000e+00 1.000000000000000000e+00 1.000000000000000000e+00 1.000000000000000000e+00 1.000000000000000000e+00 1.000000000000000000e+00 1.000000000000000000e+00 1.000000000000000000e+00 1.000000000000000000e+00 1.000000000000000000e+00 1.000000000000000000e+00 1.000000000000000000e+00 1.000000000000000000e+00 1.000000000000000000e+00 1.000000000000000000e+00 1.000000000000000000e+00 1.000000000000000000e+00 1.000000000000000000e+00 1.000000000000000000e+00 1.000000000000000000e+00 1.000000000000000000e+00 1.000000000000000000e+00 1.000000000000000000e+00 1.000000000000000000e+00 1.000000000000000000e+00 1.000000000000000000e+00 1.000000000000000000e+00 1.000000000000000000e+00 1.000000000000000000e+00 1.000000000000000000e+00 1.000000000000000000e+00 1.000000000000000000e+00 1.000000000000000000e+00 1.000000000000000000e+00 1.000000000000000000e+00 1.000000000000000000e+00 1.000000000000000000e+00 1.000000000000000000e+00 1.000000000000000000e+00 1.000000000000000000e+00 1.000000000000000000e+00 1.000000000000000000e+00 1.000000000000000000e+00 1.000000000000000000e+00 1.000000000000000000e+00 1.000000000000000000e+00 1.000000000000000000e+00 1.000000000000000000e+00 1.000000000000000000e+00 1.000000000000000000e+00 1.000000000000000000e+00 1.000000000000000000e+00 1.000000000000000000e+00 1.000000000000000000e+00 1.000000000000000000e+00 1.000000000000000000e+00 1.000000000000000000e+00 1.000000000000000000e+00 1.000000000000000000e+00 1.000000000000000000e+00 1.000000000000000000e+00 1.000000000000000000e+00 1.000000000000000000e+00 1.000000000000000000e+00 1.000000000000000000e+00 1.000000000000000000e+00 1.000000000000000000e+00 1.000000000000000000e+00 1.000000000000000000e+00 1.000000000000000000e+00 1.000000000000000000e+00 1.000000000000000000e+00 1.000000000000000000e+00 1.000000000000000000e+00 1.000000000000000000e+00 1.000000000000000000e+00 1.000000000000000000e+00 1.000000000000000000e+00 1.000000000000000000e+00 1.000000000000000000e+00 1.000000000000000000e+00 1.000000000000000000e+00 1.000000000000000000e+00 1.000000000000000000e+00 1.000000000000000000e+00 1.000000000000000000e+00 1.000000000000000000e+00 1.000000000000000000e+00 1.000000000000000000e+00 1.000000000000000000e+00 1.000000000000000000e+00 1.000000000000000000e+00 1.000000000000000000e+00 1.000000000000000000e+00 1.000000000000000000e+00 1.000000000000000000e+00 1.000000000000000000e+00 1.000000000000000000e+00 1.000000000000000000e+00 1.000000000000000000e+00 1.000000000000000000e+00 1.000000000000000000e+00 1.000000000000000000e+00 1.000000000000000000e+00 1.000000000000000000e+00 1.000000000000000000e+00 1.000000000000000000e+00 1.000000000000000000e+00 1.000000000000000000e+00 1.000000000000000000e+00 1.000000000000000000e+00 1.000000000000000000e+00 1.000000000000000000e+00 1.000000000000000000e+00 1.000000000000000000e+00 1.000000000000000000e+00 1.000000000000000000e+00 1.000000000000000000e+00 1.000000000000000000e+00 1.000000000000000000e+00 1.000000000000000000e+00 1.000000000000000000e+00 1.000000000000000000e+00 1.000000000000000000e+00 1.000000000000000000e+00 1.000000000000000000e+00 1.000000000000000000e+00 1.000000000000000000e+00 1.000000000000000000e+00 1.000000000000000000e+00 1.000000000000000000e+00 1.000000000000000000e+00 1.000000000000000000e+00 1.000000000000000000e+00 1.000000000000000000e+00 1.000000000000000000e+00 1.000000000000000000e+00 1.000000000000000000e+00 1.000000000000000000e+00 1.000000000000000000e+00 1.000000000000000000e+00 1.000000000000000000e+00 1.000000000000000000e+00 1.000000000000000000e+00 1.000000000000000000e+00 1.000000000000000000e+00 1.000000000000000000e+00 1.000000000000000000e+00 1.000000000000000000e+00 1.000000000000000000e+00 1.000000000000000000e+00 1.000000000000000000e+00 1.000000000000000000e+00 1.000000000000000000e+00 1.000000000000000000e+00 1.000000000000000000e+00 1.000000000000000000e+00 1.000000000000000000e+00 1.000000000000000000e+00 1.000000000000000000e+00 1.000000000000000000e+00 1.000000000000000000e+00 1.000000000000000000e+00 1.000000000000000000e+00 1.000000000000000000e+00 1.000000000000000000e+00 1.000000000000000000e+00 1.000000000000000000e+00 1.000000000000000000e+00 1.000000000000000000e+00 1.000000000000000000e+00 1.000000000000000000e+00 1.000000000000000000e+00 1.000000000000000000e+00 1.000000000000000000e+00 1.000000000000000000e+00 1.000000000000000000e+00 1.000000000000000000e+00 1.000000000000000000e+00 1.000000000000000000e+00 1.000000000000000000e+00 1.000000000000000000e+00 1.000000000000000000e+00 1.000000000000000000e+00 1.000000000000000000e+00 1.000000000000000000e+00 1.000000000000000000e+00 1.000000000000000000e+00 1.000000000000000000e+00 1.000000000000000000e+00 1.000000000000000000e+00 1.000000000000000000e+00 1.000000000000000000e+00 1.000000000000000000e+00 1.000000000000000000e+00 1.000000000000000000e+00 1.000000000000000000e+00 1.000000000000000000e+00 1.000000000000000000e+00 1.000000000000000000e+00 1.000000000000000000e+00 1.000000000000000000e+00 1.000000000000000000e+00 1.000000000000000000e+00 1.000000000000000000e+00 1.000000000000000000e+00 1.000000000000000000e+00 1.000000000000000000e+00 1.000000000000000000e+00 1.000000000000000000e+00 1.000000000000000000e+00 1.000000000000000000e+00 1.000000000000000000e+00 1.000000000000000000e+00 1.000000000000000000e+00 1.000000000000000000e+00 1.000000000000000000e+00 1.000000000000000000e+00 1.000000000000000000e+00 1.000000000000000000e+00 1.000000000000000000e+00 1.000000000000000000e+00 1.000000000000000000e+00 1.000000000000000000e+00 1.000000000000000000e+00 1.000000000000000000e+00 1.000000000000000000e+00 1.000000000000000000e+00 1.000000000000000000e+00 1.000000000000000000e+00 1.000000000000000000e+00 1.000000000000000000e+00 1.000000000000000000e+00 1.000000000000000000e+00 1.000000000000000000e+00 1.000000000000000000e+00 1.000000000000000000e+00 1.000000000000000000e+00 1.000000000000000000e+00 1.000000000000000000e+00 1.000000000000000000e+00 1.000000000000000000e+00 1.000000000000000000e+00 1.000000000000000000e+00 1.000000000000000000e+00 1.000000000000000000e+00 1.000000000000000000e+00 1.000000000000000000e+00 1.000000000000000000e+00 1.000000000000000000e+00 1.000000000000000000e+00 1.000000000000000000e+00 1.000000000000000000e+00 1.000000000000000000e+00 1.000000000000000000e+00 1.000000000000000000e+00 1.000000000000000000e+00 1.000000000000000000e+00 1.000000000000000000e+00 1.000000000000000000e+00 1.000000000000000000e+00 1.000000000000000000e+00 1.000000000000000000e+00 1.000000000000000000e+00 1.000000000000000000e+00 1.000000000000000000e+00 1.000000000000000000e+00 1.000000000000000000e+00 1.000000000000000000e+00 1.000000000000000000e+00 1.000000000000000000e+00 1.000000000000000000e+00 1.000000000000000000e+00 1.000000000000000000e+00 1.000000000000000000e+00 1.000000000000000000e+00 1.000000000000000000e+00 1.000000000000000000e+00 1.000000000000000000e+00 1.000000000000000000e+00 1.000000000000000000e+00 1.000000000000000000e+00 1.000000000000000000e+00 1.000000000000000000e+00 1.000000000000000000e+00 1.000000000000000000e+00 1.000000000000000000e+00 1.000000000000000000e+00 1.000000000000000000e+00 1.000000000000000000e+00 1.000000000000000000e+00 1.000000000000000000e+00 1.000000000000000000e+00 1.000000000000000000e+00 1.000000000000000000e+00 1.000000000000000000e+00 1.000000000000000000e+00 1.000000000000000000e+00 1.000000000000000000e+00 1.000000000000000000e+00 1.000000000000000000e+00 1.000000000000000000e+00 1.000000000000000000e+00 1.000000000000000000e+00 1.000000000000000000e+00 1.000000000000000000e+00 1.000000000000000000e+00 1.000000000000000000e+00 1.000000000000000000e+00 1.000000000000000000e+00 1.000000000000000000e+00 1.000000000000000000e+00 1.000000000000000000e+00 1.000000000000000000e+00 1.000000000000000000e+00 1.000000000000000000e+00 1.000000000000000000e+00 1.000000000000000000e+00 1.000000000000000000e+00 1.000000000000000000e+00 1.000000000000000000e+00 1.000000000000000000e+00 1.000000000000000000e+00 1.000000000000000000e+00 1.000000000000000000e+00 1.000000000000000000e+00 1.000000000000000000e+00 1.000000000000000000e+00 1.000000000000000000e+00 1.000000000000000000e+00 1.000000000000000000e+00 1.000000000000000000e+00 1.000000000000000000e+00 1.000000000000000000e+00 1.000000000000000000e+00 1.000000000000000000e+00 1.000000000000000000e+00 1.000000000000000000e+00 1.000000000000000000e+00 1.000000000000000000e+00 1.000000000000000000e+00 1.000000000000000000e+00 1.000000000000000000e+00 1.000000000000000000e+00 1.000000000000000000e+00 1.000000000000000000e+00 1.000000000000000000e+00 1.000000000000000000e+00 1.000000000000000000e+00 1.000000000000000000e+00 1.000000000000000000e+00 1.000000000000000000e+00 1.000000000000000000e+00 1.000000000000000000e+00 1.000000000000000000e+00 1.000000000000000000e+00 1.000000000000000000e+00 1.000000000000000000e+00 1.000000000000000000e+00 1.000000000000000000e+00 1.000000000000000000e+00 1.000000000000000000e+00 1.000000000000000000e+00 1.000000000000000000e+00 1.000000000000000000e+00 1.000000000000000000e+00 1.000000000000000000e+00 1.000000000000000000e+00 1.000000000000000000e+00 1.000000000000000000e+00 1.000000000000000000e+00 1.000000000000000000e+00 1.000000000000000000e+00 1.000000000000000000e+00 1.000000000000000000e+00 1.000000000000000000e+00 1.000000000000000000e+00 1.000000000000000000e+00 1.000000000000000000e+00 1.000000000000000000e+00 1.000000000000000000e+00 1.000000000000000000e+00 1.000000000000000000e+00 1.000000000000000000e+00 1.000000000000000000e+00 1.000000000000000000e+00 1.000000000000000000e+00 1.000000000000000000e+00 1.000000000000000000e+00 1.000000000000000000e+00 1.000000000000000000e+00 1.000000000000000000e+00 1.000000000000000000e+00 1.000000000000000000e+00 1.000000000000000000e+00 1.000000000000000000e+00 1.000000000000000000e+00 1.000000000000000000e+00 1.000000000000000000e+00 1.000000000000000000e+00 1.000000000000000000e+00 1.000000000000000000e+00 1.000000000000000000e+00 1.000000000000000000e+00 1.000000000000000000e+00 1.000000000000000000e+00 1.000000000000000000e+00 1.000000000000000000e+00 1.000000000000000000e+00 1.000000000000000000e+00 1.000000000000000000e+00 1.000000000000000000e+00 1.000000000000000000e+00 1.000000000000000000e+00 1.000000000000000000e+00 1.000000000000000000e+00 1.000000000000000000e+00 1.000000000000000000e+00 1.000000000000000000e+00 1.000000000000000000e+00 1.000000000000000000e+00 1.000000000000000000e+00 1.000000000000000000e+00 1.000000000000000000e+00 1.000000000000000000e+00 1.000000000000000000e+00 1.000000000000000000e+00 1.000000000000000000e+00 1.000000000000000000e+00 1.000000000000000000e+00 1.000000000000000000e+00 1.000000000000000000e+00 1.000000000000000000e+00 1.000000000000000000e+00 1.000000000000000000e+00 1.000000000000000000e+00 1.000000000000000000e+00 1.000000000000000000e+00 1.000000000000000000e+00 1.000000000000000000e+00 1.000000000000000000e+00 1.000000000000000000e+00 1.000000000000000000e+00 1.000000000000000000e+00 1.000000000000000000e+00 1.000000000000000000e+00 1.000000000000000000e+00 1.000000000000000000e+00 1.000000000000000000e+00 1.000000000000000000e+00 1.000000000000000000e+00 1.000000000000000000e+00 1.000000000000000000e+00 1.000000000000000000e+00 1.000000000000000000e+00 1.000000000000000000e+00 1.000000000000000000e+00 1.000000000000000000e+00 1.000000000000000000e+00 1.000000000000000000e+00 1.000000000000000000e+00 1.000000000000000000e+00 1.000000000000000000e+00 1.000000000000000000e+00 1.000000000000000000e+00 1.000000000000000000e+00 1.000000000000000000e+00 1.000000000000000000e+00 1.000000000000000000e+00 1.000000000000000000e+00 1.000000000000000000e+00 1.000000000000000000e+00 1.000000000000000000e+00 1.000000000000000000e+00 1.000000000000000000e+00 1.000000000000000000e+00 1.000000000000000000e+00 1.000000000000000000e+00 1.000000000000000000e+00 1.000000000000000000e+00 1.000000000000000000e+00 1.000000000000000000e+00 1.000000000000000000e+00 1.000000000000000000e+00 1.000000000000000000e+00 1.000000000000000000e+00 1.000000000000000000e+00 1.000000000000000000e+00 1.000000000000000000e+00 1.000000000000000000e+00 1.000000000000000000e+00 1.000000000000000000e+00 1.000000000000000000e+00 1.000000000000000000e+00 1.000000000000000000e+00 1.000000000000000000e+00 1.000000000000000000e+00 1.000000000000000000e+00 1.000000000000000000e+00 1.000000000000000000e+00 1.000000000000000000e+00 1.000000000000000000e+00 1.000000000000000000e+00 1.000000000000000000e+00 1.000000000000000000e+00 1.000000000000000000e+00 1.000000000000000000e+00 1.000000000000000000e+00 1.000000000000000000e+00 1.000000000000000000e+00 1.000000000000000000e+00 1.000000000000000000e+00 1.000000000000000000e+00 1.000000000000000000e+00 1.000000000000000000e+00 1.000000000000000000e+00 1.000000000000000000e+00 1.000000000000000000e+00 1.000000000000000000e+00 1.000000000000000000e+00 1.000000000000000000e+00 1.000000000000000000e+00 1.000000000000000000e+00 1.000000000000000000e+00 1.000000000000000000e+00 1.000000000000000000e+00 1.000000000000000000e+00 1.000000000000000000e+00 1.000000000000000000e+00 1.000000000000000000e+00 1.000000000000000000e+00 1.000000000000000000e+00 1.000000000000000000e+00 1.000000000000000000e+00 1.000000000000000000e+00 1.000000000000000000e+00 1.000000000000000000e+00 1.000000000000000000e+00 1.000000000000000000e+00 1.000000000000000000e+00 1.000000000000000000e+00 1.000000000000000000e+00 1.000000000000000000e+00 1.000000000000000000e+00 1.000000000000000000e+00 1.000000000000000000e+00 1.000000000000000000e+00 1.000000000000000000e+00 1.000000000000000000e+00 1.000000000000000000e+00 1.000000000000000000e+00 1.000000000000000000e+00 1.000000000000000000e+00 1.000000000000000000e+00 1.000000000000000000e+00 1.000000000000000000e+00 1.000000000000000000e+00 1.000000000000000000e+00 1.000000000000000000e+00 1.000000000000000000e+00 1.000000000000000000e+00 1.000000000000000000e+00 1.000000000000000000e+00 1.000000000000000000e+00 1.000000000000000000e+00 1.000000000000000000e+00 1.000000000000000000e+00 1.000000000000000000e+00 1.000000000000000000e+00 1.000000000000000000e+00 1.000000000000000000e+00 1.000000000000000000e+00 1.000000000000000000e+00 1.000000000000000000e+00 1.000000000000000000e+00 1.000000000000000000e+00 1.000000000000000000e+00 1.000000000000000000e+00 1.000000000000000000e+00 1.000000000000000000e+00 1.000000000000000000e+00 1.000000000000000000e+00 1.000000000000000000e+00 1.000000000000000000e+00 1.000000000000000000e+00 1.000000000000000000e+00 1.000000000000000000e+00 1.000000000000000000e+00 1.000000000000000000e+00 1.000000000000000000e+00 1.000000000000000000e+00 1.000000000000000000e+00 1.000000000000000000e+00 1.000000000000000000e+00 1.000000000000000000e+00 1.000000000000000000e+00 1.000000000000000000e+00 1.000000000000000000e+00 1.000000000000000000e+00 1.000000000000000000e+00 1.000000000000000000e+00 1.000000000000000000e+00 1.000000000000000000e+00 1.000000000000000000e+00 1.000000000000000000e+00 1.000000000000000000e+00 1.000000000000000000e+00 1.000000000000000000e+00 1.000000000000000000e+00 1.000000000000000000e+00 1.000000000000000000e+00 1.000000000000000000e+00 1.000000000000000000e+00 1.000000000000000000e+00 1.000000000000000000e+00 1.000000000000000000e+00 1.000000000000000000e+00 1.000000000000000000e+00 1.000000000000000000e+00 1.000000000000000000e+00 1.000000000000000000e+00 1.000000000000000000e+00 1.000000000000000000e+00 1.000000000000000000e+00 1.000000000000000000e+00 1.000000000000000000e+00 1.000000000000000000e+00 1.000000000000000000e+00 1.000000000000000000e+00 1.000000000000000000e+00 1.000000000000000000e+00 1.000000000000000000e+00 1.000000000000000000e+00 1.000000000000000000e+00 1.000000000000000000e+00 1.000000000000000000e+00 1.000000000000000000e+00 1.000000000000000000e+00 1.000000000000000000e+00 1.000000000000000000e+00 1.000000000000000000e+00 1.000000000000000000e+00 1.000000000000000000e+00 1.000000000000000000e+00 1.000000000000000000e+00 1.000000000000000000e+00 1.000000000000000000e+00 1.000000000000000000e+00 1.000000000000000000e+00 1.000000000000000000e+00 1.000000000000000000e+00 1.000000000000000000e+00 1.000000000000000000e+00 1.000000000000000000e+00 1.000000000000000000e+00 1.000000000000000000e+00 1.000000000000000000e+00 1.000000000000000000e+00 1.000000000000000000e+00 1.000000000000000000e+00 1.000000000000000000e+00 1.000000000000000000e+00 1.000000000000000000e+00 1.000000000000000000e+00 1.000000000000000000e+00 1.000000000000000000e+00 1.000000000000000000e+00 1.000000000000000000e+00 1.000000000000000000e+00 1.000000000000000000e+00 1.000000000000000000e+00 1.000000000000000000e+00 1.000000000000000000e+00 1.000000000000000000e+00 1.000000000000000000e+00 1.000000000000000000e+00 1.000000000000000000e+00 1.000000000000000000e+00 1.000000000000000000e+00 1.000000000000000000e+00 1.000000000000000000e+00 1.000000000000000000e+00 1.000000000000000000e+00 1.000000000000000000e+00 1.000000000000000000e+00 1.000000000000000000e+00 1.000000000000000000e+00 1.000000000000000000e+00 1.000000000000000000e+00 1.000000000000000000e+00 1.000000000000000000e+00 1.000000000000000000e+00 1.000000000000000000e+00 1.000000000000000000e+00 1.000000000000000000e+00 1.000000000000000000e+00 1.000000000000000000e+00 1.000000000000000000e+00 1.000000000000000000e+00 1.000000000000000000e+00 1.000000000000000000e+00 1.000000000000000000e+00 1.000000000000000000e+00 1.000000000000000000e+00 1.000000000000000000e+00 1.000000000000000000e+00 1.000000000000000000e+00 1.000000000000000000e+00 1.000000000000000000e+00 1.000000000000000000e+00 1.000000000000000000e+00 1.000000000000000000e+00 1.000000000000000000e+00 1.000000000000000000e+00 1.000000000000000000e+00 1.000000000000000000e+00 1.000000000000000000e+00 1.000000000000000000e+00 1.000000000000000000e+00 1.000000000000000000e+00 1.000000000000000000e+00 1.000000000000000000e+00 1.000000000000000000e+00 1.000000000000000000e+00 1.000000000000000000e+00 1.000000000000000000e+00 1.000000000000000000e+00 1.000000000000000000e+00 1.000000000000000000e+00 1.000000000000000000e+00 1.000000000000000000e+00 1.000000000000000000e+00 1.000000000000000000e+00 1.000000000000000000e+00 1.000000000000000000e+00 1.000000000000000000e+00 1.000000000000000000e+00 1.000000000000000000e+00 1.000000000000000000e+00 1.000000000000000000e+00 1.000000000000000000e+00 1.000000000000000000e+00 1.000000000000000000e+00 1.000000000000000000e+00 1.000000000000000000e+00 1.000000000000000000e+00 1.000000000000000000e+00 1.000000000000000000e+00 1.000000000000000000e+00 1.000000000000000000e+00 1.000000000000000000e+00 1.000000000000000000e+00 1.000000000000000000e+00 1.000000000000000000e+00 1.000000000000000000e+00 1.000000000000000000e+00 1.000000000000000000e+00 1.000000000000000000e+00 1.000000000000000000e+00 1.000000000000000000e+00 1.000000000000000000e+00 1.000000000000000000e+00 1.000000000000000000e+00 1.000000000000000000e+00 1.000000000000000000e+00 1.000000000000000000e+00 1.000000000000000000e+00 1.000000000000000000e+00 1.000000000000000000e+00 1.000000000000000000e+00 1.000000000000000000e+00 1.000000000000000000e+00 1.000000000000000000e+00 1.000000000000000000e+00 1.000000000000000000e+00 1.000000000000000000e+00 1.000000000000000000e+00 1.000000000000000000e+00 1.000000000000000000e+00 1.000000000000000000e+00 1.000000000000000000e+00 1.000000000000000000e+00 1.000000000000000000e+00 1.000000000000000000e+00 1.000000000000000000e+00 1.000000000000000000e+00 1.000000000000000000e+00 1.000000000000000000e+00 1.000000000000000000e+00 1.000000000000000000e+00 1.000000000000000000e+00 1.000000000000000000e+00 1.000000000000000000e+00 1.000000000000000000e+00 1.000000000000000000e+00 1.000000000000000000e+00 1.000000000000000000e+00 1.000000000000000000e+00 1.000000000000000000e+00 1.000000000000000000e+00 1.000000000000000000e+00 1.000000000000000000e+00 1.000000000000000000e+00 1.000000000000000000e+00 1.000000000000000000e+00 1.000000000000000000e+00 1.000000000000000000e+00 1.000000000000000000e+00 1.000000000000000000e+00 1.000000000000000000e+00 1.000000000000000000e+00 1.000000000000000000e+00 1.000000000000000000e+00 1.000000000000000000e+00 1.000000000000000000e+00 1.000000000000000000e+00 1.000000000000000000e+00 1.000000000000000000e+00 1.000000000000000000e+00 1.000000000000000000e+00 1.000000000000000000e+00 1.000000000000000000e+00 1.000000000000000000e+00 1.000000000000000000e+00 1.000000000000000000e+00 1.000000000000000000e+00 1.000000000000000000e+00 1.000000000000000000e+00 1.000000000000000000e+00 1.000000000000000000e+00 1.000000000000000000e+00 1.000000000000000000e+00 1.000000000000000000e+00 1.000000000000000000e+00 1.000000000000000000e+00 1.000000000000000000e+00 1.000000000000000000e+00 1.000000000000000000e+00 1.000000000000000000e+00 1.000000000000000000e+00 1.000000000000000000e+00 1.000000000000000000e+00 1.000000000000000000e+00 1.000000000000000000e+00 1.000000000000000000e+00 1.000000000000000000e+00 1.000000000000000000e+00 1.000000000000000000e+00 1.000000000000000000e+00 1.000000000000000000e+00 1.000000000000000000e+00 1.000000000000000000e+00 1.000000000000000000e+00 1.000000000000000000e+00 1.000000000000000000e+00 1.000000000000000000e+00 1.000000000000000000e+00 1.000000000000000000e+00 1.000000000000000000e+00 1.000000000000000000e+00 1.000000000000000000e+00 1.000000000000000000e+00 1.000000000000000000e+00 1.000000000000000000e+00 1.000000000000000000e+00 1.000000000000000000e+00 1.000000000000000000e+00 1.000000000000000000e+00 1.000000000000000000e+00 1.000000000000000000e+00 1.000000000000000000e+00 1.000000000000000000e+00 1.000000000000000000e+00 1.000000000000000000e+00 1.000000000000000000e+00 1.000000000000000000e+00 1.000000000000000000e+00 1.000000000000000000e+00 1.000000000000000000e+00 1.000000000000000000e+00 1.000000000000000000e+00 1.000000000000000000e+00 1.000000000000000000e+00 1.000000000000000000e+00 1.000000000000000000e+00 1.000000000000000000e+00 1.000000000000000000e+00 1.000000000000000000e+00 1.000000000000000000e+00 1.000000000000000000e+00 1.000000000000000000e+00 1.000000000000000000e+00 1.000000000000000000e+00 1.000000000000000000e+00 1.000000000000000000e+00 1.000000000000000000e+00 1.000000000000000000e+00 1.000000000000000000e+00 1.000000000000000000e+00 1.000000000000000000e+00 1.000000000000000000e+00 1.000000000000000000e+00 1.000000000000000000e+00 1.000000000000000000e+00 1.000000000000000000e+00 1.000000000000000000e+00 1.000000000000000000e+00 1.000000000000000000e+00 1.000000000000000000e+00 1.000000000000000000e+00 1.000000000000000000e+00 1.000000000000000000e+00 1.000000000000000000e+00 1.000000000000000000e+00 1.000000000000000000e+00
4.975005418030187948e-02 4.478005145252706432e-01 1.495324642924361624e-01 4.669362112880863780e-01 5.320960279557945816e-01 6.010616839442689541e-01 7.656014900303822479e-01 1.773846345949063597e-01 4.199611899344037336e-01 5.388213634426897158e-01 1.050105459922060724e+00 -5.131397894605552734e-01 1.300080831362348421e+00 5.115638364768063662e-01 5.533054482100531191e-01 8.103273787605199674e-01 1.002646206621883751e+00 8.199643360806324610e-01 2.544026993893369615e-01 5.286184217798500784e-01 5.784064837182941732e-01 9.294707555013651534e-01 7.317308520859074905e-01 5.604191190940787104e-01 3.418343103579818409e-01 7.474353644015115927e-01 3.563597179748319577e-01 5.818225267821445224e-01 5.502338315778974032e-01 1.292529572169172081e+00 5.293549368236830643e-01 4.490469150660839626e-01 7.497066384278874285e-01 5.265074375435658816e-01 7.509321722101521823e-01 5.974087109511195814e-01 5.964144207410465581e-01 1.421310369548695274e+00 1.771837074984424290e-02 5.307797865704174667e-01 9.553252608816600877e-02 -5.180054593136649288e-01 7.571086063444742997e-01 2.007403382001212155e-01 2.397000401491327648e-01 6.001998413957531087e-01 4.655911171575863317e-01 5.265764602023141894e-01 4.941218476303503304e-01 -9.076195852745390369e-04 1.814320659021922619e-02 7.672233445093401549e-01 6.106292212224376792e-01 3.831484390439425791e-01 5.117876995778147808e-01 6.506333661656085385e-03 4.387069786162459128e-01 5.439738679380814457e-01 1.601953007296768594e-01 5.339341798178004472e-01 8.573398738972687338e-01 5.102097821023998669e-01 5.390943520456870086e-01 7.317303690841225894e-01 6.760016151143590779e-01 4.309926059597710690e-01 5.206162399265734653e-01 4.419912784124738758e-01 5.395143569566693831e-01 3.938617048202901205e-02 5.895179253672258035e-01 5.123426203499681364e-01 4.950104608971688247e-01 4.382878799490000886e-03 1.402167512986033815e+00 5.008963259639815924e-01 6.153658266833584856e-01 7.829735688154186857e-01 5.217191620664703988e-01 1.344706069998148124e+00 5.134657883855759941e-01 1.704267915512808762e-01 1.162959958571642805e+00 4.347772060669727878e-01 6.223049130321960387e-01 7.563232992945360111e-01 8.365001661476143546e-01 5.086106487671653298e-01 3.546753549164712305e-01 5.716367826342668712e-01 2.410219103264840679e-01 1.874870716991810404e+00 5.516543257473449646e-01 -9.510937123292474704e-02 5.917722137752139400e-01 5.309074772135778941e-01 4.982808659521288375e-01 4.481532145917589416e-01 2.016096363016846860e-01 7.580802625305764764e-01 1.361126937184425012e+00 6.341502886025731645e-01 5.045630526821304196e-01 1.014904986402182185e+00 6.616729723602912117e-01 -1.655536733088201595e+00 -1.041602825561209977e+00 5.668789597105802214e-01 4.888470896346598926e-01 9.675533303421673947e-01 4.888734309295064695e-01 5.080622760396503734e-01 3.901467648069656402e-01 4.628554655308788623e-01 4.896107271301687325e-01 6.051891518481993248e-01 4.130157775044096535e-01 6.332169884213011413e-01 4.838201965401637272e-01 5.770939258961095275e-01 1.219023027633611589e+00 4.790558594561652450e-01 4.561208262991430229e-01 1.485130740681527006e-01 5.488262409464048641e-01 1.778494426021103747e+00 5.271414857208378546e-01 4.530173039106043520e-01 4.100252496713331363e-01 5.258953467775330237e-01 5.158378774640565156e-01 5.403213556923425198e-01 3.898931941828531755e-01 8.091105221481864618e-02 3.165866071622469025e-01 -1.022837492884622196e-01 4.472281299700134327e-01 2.500147910499960456e-03 9.419125714527361026e-01 5.137549189370980152e-01 5.347404034473431933e-01 8.000147897172614764e-01 5.123033701352678326e-01 5.080826651954731821e-01 5.222676671989336938e-01 -2.073773879838963774e-02 4.677189100255105259e-01 5.317590194997077191e-01 4.966866098330054435e-01 -6.923668941168679147e-01 7.659102530048799151e-01 -2.741144694204120658e-01 6.002156915704008888e-01 4.967349948357794864e-01 7.385372388299867863e-01 5.348458711896643125e-01 1.447553923902189954e+00 2.259132528554770869e-01 7.980472216085809922e-01 7.406381435885921460e-01 4.832290620386396340e-01 6.562087636710779437e-01 5.044311261279831315e-01 5.205974916347998471e-01 1.132035326619848625e+00 -2.846083590479223102e-02 7.844972266027023799e-01 4.829796909580517661e-01 5.698025818107755880e-01 5.492770325639493301e-01 3.746633736754759747e-01 4.671725444013081763e-01 6.000614503477389450e-01 5.228395428717788063e-01 4.158341495437425372e-01 2.334807209575693113e-02 1.330353032244530886e-01 3.464486822781585179e-02 6.855268818638108330e-01 1.115105164349472933e+00 7.101638318605304478e-01 4.934398339642442899e-01 -2.239560928410272156e-01 3.772229171297408756e-01 4.652583493279314197e-01 5.061262123179590677e-01 5.265537162774319713e-01 5.347191421927838251e-01 2.359584150700405392e+00 6.856677965315958190e-01 4.792011902796156630e-01 -6.730558010312239769e-01 5.289001867426704750e-01 5.092079804985174540e-01 1.337658649997793825e-01 5.316645372203627762e-01 8.707599772259755344e-01 5.259564338726193666e-01 7.399933584203755021e-01 5.298868400098974973e-01 3.162376742091523307e-01 4.395851494346931787e-01 1.082150374209343902e+00 5.881944973913487695e-01 5.431992309789001050e-01 7.399933324499824439e-01 5.590574159883033856e-01 1.212249315706307895e+00 5.028641573745596949e-01 4.377693846709733716e-01 4.872483506504808881e-01 8.796177940861325123e-03 4.918272898830018391e-01 2.204718606676070725e-01 5.278160847323919436e-01 5.045414738259865750e-01 5.413653677347460835e-01 5.303469368130425687e-01 4.734371632215739201e-01 5.148915574157324482e-01 4.694353111047223637e-01 2.699575284810205034e-01 -5.957292620914886871e-01 4.000356387439953920e-01 1.934691629524279144e-01 5.767586749366263588e-01 5.709911564351869417e-01 1.079090341266375264e+00 8.852579681854202409e-01 6.559246756692957980e-01 -1.097883184396833134e-01 9.869455124211542474e-01 5.287729106391118039e-01 4.779772724985661414e-01 7.828639953880427160e-02 4.497280912668153996e-01 5.320038212282082180e-01 2.929171602142744968e-01 -9.045845073866468078e-02 -1.956203010511952112e-01 2.420400347824029352e-01 5.258743398832893545e-01 -4.146728668765073400e-02 4.573227710802722501e-01 5.297619481320341439e-01 8.371578430893816813e-01 -1.202785917792673354e-01 6.403184149495961819e-01 -1.745608693759817864e+00 5.546234660057466348e-01 -2.013095180023140862e-01 5.442261690391123619e-01 5.106698869042743949e-01 7.317294693032355690e-01 5.294809790981364062e-01 4.983618355719803827e-01 4.353719072402673640e-01 4.748182072921535712e-01 5.833089674498604937e-01 1.607539094864572027e+00 5.918317037403657555e-01 6.467850327019019074e-01 4.976680666113347251e-01 7.435553367844505157e-01 8.573342075313344912e-01 3.386218563961449490e-01 2.306119480969145208e+00 4.824906395242909984e-01 3.018442843990550295e-01 4.623251591622326018e-01 5.176652606188687500e-01 8.594888795632457112e-01 5.507310823780039444e-01 5.015888586533604476e-01 5.271038017012719123e-01 7.954468383569126555e-01 4.886235686243813325e-01 8.847249345540714183e-01 8.437905709974209412e-01 2.661123740861820464e-02 6.453844232083216781e-01 5.109739777304431740e-01 4.719620263057872633e-01 -5.628146555493650505e-01 3.617081154541428867e-01 8.688427497373985009e-01 6.061957714874389724e-01 5.541785942235429863e-01 6.051891654261026821e-01 6.166002656232598689e-01 5.115680344649947697e-01 -3.355444242117101572e-01 4.338612290733159793e-01 5.109739465653792001e-01 -3.361291341335960470e-02 5.261239046934746977e-01 1.770221653432646702e+00 5.583013253948660992e-01 5.278488282640506624e-01 4.967252092080814418e-01 -2.883343404543706079e+00 4.976318024823637165e-01 2.054718664676488782e+00 4.667055484170012924e-01 5.486852666913420995e-01 -5.914117950384296662e-01 5.350131840717758935e-01 5.380278492426826542e-01 7.764867285323493462e-01 4.443215078482971592e-01 5.435510302868684640e-01 5.963727754875387532e-01 3.199472027714132527e-01 4.874592395168217962e-01 5.375774070302986596e-01 5.317250399467003952e-01 5.335915493536540488e-01 4.669927186292927579e-01 5.335624498321537290e-01 1.115915430925620955e+00 2.511588036982303866e-03 2.084019468928464125e+00 2.360098593887239637e+00 3.073437910636498960e-01 -8.575372986470197745e-02 5.220475489736832175e-01 4.644387472878218071e-01 6.508625072015776780e-01 1.256303494945847810e+00 5.555677577090135655e-01 1.062694677827146217e+00 5.314274705633109663e-01 1.905291686903834991e-01 1.204963803786106125e+00 6.586004861486962625e-01 5.107320611854979653e-01 5.391084371101927397e-01 4.428678769046854313e-01 -2.972269882586800804e+00 1.474856072687817266e+00 4.612473421976509003e-01 6.509811081583164460e-01 5.549238923555646075e-01 1.421310383935181498e+00 3.558958576243537730e-01 4.367252639154620142e-01 2.835337135936654707e-01 6.242328607836470367e-01 1.395701201743328346e+00 7.528182434474909313e-01 7.399933815157865302e-01 4.573275757932062091e-01 5.881944949989406091e-01 6.850970285351016820e-01 5.071550668211091129e-01 8.127643028028773697e-01 5.203746588705848719e-01 5.825742462399764454e-01 6.664564740296820000e-01 4.969860223213060646e-01 5.280577392918544000e-01 5.029903730779780036e-01 4.367254400203128828e-01 4.149872755937381030e-01 5.253608829181362072e-01 6.672170986319300168e-01 1.090520015857017633e+00 1.003885744929188251e+00 5.226801385938111277e-01 4.454440625820822452e-01 8.570502480100559151e-01 -1.149937695653315134e-01 9.137861930870475602e-01 5.922590424025231393e-01 -7.686412543932933522e-04 5.430179163816866161e-01 1.137515014563613480e+00 4.539823006502424763e-01 6.223442244418521119e-01 2.269170464947249388e-01 -2.905763790476338926e-01 -2.101476876401432659e+00 4.673095151943715275e-01 5.881944902998424984e-01 5.881944942690487954e-01 4.990456182924312700e-01 6.984825603217383883e-01 -1.089231528017289286e-01 5.335968845771594804e-01 5.237374044645805027e-01 2.447874402475317124e-01 5.192532320355547348e-01 1.132310337590737293e+00 7.399933293538609735e-01 5.408077746681505538e-01 4.877905555873801036e-01 4.228235573022032789e-01 5.749296836019059942e-01 5.267039976777415644e-01 5.604639938719895298e-01 4.264124387866298771e-01 2.484573706003404825e-01 -9.825057338652151348e-03 5.881944942738936977e-01 6.402641150153909333e-01 5.323459857384856830e-01 7.874222282501217585e-01 8.412678561625972495e-01 5.642095165026304038e-01 5.580346358657400918e-01 1.490392351840029050e+00 5.019524346494447231e-01 -2.337046844761142772e+00 4.662449694982149229e-01 1.376109377431500747e+00 4.663942046318758639e-01 -8.130406581013085443e-01 4.804003693360450744e-01 5.659850093189801035e-01 4.382563046325798628e-01 5.256021627959327480e-01 2.434128323167225605e-01 4.797098580537285661e-01 1.022727459638777203e+00 5.642085682489202947e-01 -6.146448739303621289e-02 4.997467726848000558e-01 4.864507241549173022e-01 7.283952899543103543e-01 4.995960905753125680e-01 7.121734259301939485e-01 -3.362127555130866030e-01 4.686971940063097142e-01 5.398707475972260861e-01 5.486716235912212358e-01 5.452136857674521053e-01 7.456804637464494734e-01 5.367722259193309364e-01 4.000697021352312421e-01 9.545677241904942933e-01 4.675212782320999350e-01 5.819558696542352916e-01 1.347805267610239222e-01 1.581105225454908503e-01 8.964092645622218081e-01 5.099368928720108274e-01 2.844313419251018882e+00 6.243599796818063430e-01 3.540966313823188383e-01 5.916069582115596193e-01 7.598450203979174589e-01 -7.152189088522102611e-03 5.426578229236193041e-01 4.538334876368904647e-01 4.543069137362166776e-01 1.154962852887993385e+00 7.452632331763571205e-01 5.188876045499166700e-01 4.886139448690524634e-01 1.065925325949022673e+00 5.397794606669915618e-01 4.932430603293433413e-01 5.280110881865299755e-01 4.521664943612689891e-01 5.300178076087938006e-01 8.289247255189567953e-01 4.724843071098966396e-01 5.258112186002156241e-01 1.581414641055296690e-03 5.203009764163714079e-01 1.274998389554141305e-02 5.467211368743227773e-01 4.904920280493733631e-01 5.599602329989046279e-01 7.446399513724731856e-01 4.907921862264496005e-01 5.499892994118327216e-01 -1.989737033439997749e-02 5.085972825057888391e-01 5.160408081878736786e-01 4.122187447604888644e-01 8.598758909369331321e-03 5.531871166068076384e-01 4.595673603520803452e-01 5.142333493785267162e-01 6.337041546242245804e-01 1.135998971698232385e+00 7.063051861070307469e-01 5.055468759458714434e-01 5.060771204972853710e-01 3.544940818265970850e-01 4.340200606948790840e-01 9.348927024676897402e-01 3.519884935518957647e-01 4.035336401251344296e-01 6.253186217323378759e-01 1.778782324859776498e+00 6.351730873605472283e-01 4.880024484808530572e-01 5.037944069126338853e-01 4.342057593806569749e-01 5.063255759624268881e-01 6.733064811937378158e-01 -4.869038855802556576e-01 4.349185013912356679e-01 4.600275433406494363e-01 6.000294479382431989e-01 6.617167702054822520e-01 -4.515752872792934691e-01 4.058381017038252270e-01 5.217986804636144393e-01 6.320098898911000740e-01 6.371904652542977887e-01 9.703136755210918230e-01 5.285362224606020565e-01 5.620770842021411973e-01 -5.001411925273084869e-01 5.044917706675147162e-01 1.055941765553308320e+00 5.469014241858737302e-01 1.580025715497534455e-01 4.646618752492304716e-01 -7.579082285640548200e-01 4.939915377365232674e-01 5.362103978708139262e-01 1.035321750202888413e+00 8.176758849408729546e-01 5.604517901177218375e-01 4.464721925956842141e-01 2.676104515878840462e-01 4.656012664237899057e-01 6.111577633841699386e-01 6.091925605952965839e-01 5.699257133422444208e-04 4.880768423227971331e-01 3.072653140940758698e-01 7.137453353641508569e-01 6.445417769294691235e-01 5.738115282432497688e-01 9.043127443124463483e-01 -1.371977432608308400e-01 -1.682086831974706764e-01 5.605244371997580854e-01 4.339521274759831626e-01 4.028128105485618282e-01 4.871473034928227031e-01 -6.636693467772891708e-01 2.789728918439935423e+00 3.036074244435177372e-01 4.432096735243568064e-01 7.994428076067791045e-01 5.287961040807117596e-01 5.335095393317176304e-01 4.839140659423510349e-01 4.554679495325669181e-01 4.782515042316625165e-01 5.297416983503371313e-01 4.768514417474568057e-01 5.614378740631682518e-01 5.736297427509309266e-01 5.745497103712691178e-01 4.099422425045198271e-01 4.650143505672013067e-01 5.089297132473692420e-01 5.233154278046555641e-01 9.112138126602997712e-01 2.111481560393421830e+00 5.630462044762235552e-01 4.813151170894654496e-01 5.768219951654858235e-01 5.080584954586525592e-01 5.820123733194197957e-01 5.145606405752819468e-01 5.519802917553563448e-01 2.716504982169350990e-01 4.938465204506453654e-01 5.297727714868559756e-01 4.651892621976537745e-01 5.047748943298897562e-01 6.982813661361747526e-01 8.300094664491843854e-01 7.965694861447095709e-01 1.862394253986300319e-01 8.573369512462343245e-01 4.661247308469027573e-01 4.023478941694192956e-01 1.857826295051144161e+00 2.411156259186960082e-01 4.835930220578890104e-01 5.486912959957261915e-01 4.620113374018432195e-02 5.520141113264643851e-01 1.382887495123512611e+00 5.209434268612480601e-01 9.303962825192374497e-01 5.263061698604396543e-01 5.111739041795885230e-01 4.266546392513545505e-01 5.493352263402078162e-01 5.384850147142818955e-01 5.252660505725017526e-01 3.122033564994733390e-01 3.776944339586560950e-01 -6.837216166659155769e-01 4.825195945333276559e-01 4.857887187161244458e-01 4.465614581363117619e-01 4.967642721013725837e-01 8.573369069790676145e-01 3.956999168685228496e-01 3.461351358841379122e-01 1.116888686235113504e+00 -3.842004252020034816e-01 5.236576082877791860e-01 9.761339442762186902e-01 1.210884194674709091e+00 4.744694857367633967e-01 5.339871945005565390e-01 1.788573302950722740e-02 -1.391181675912819937e+00 3.286486165875253662e-01 4.942429779549487590e-01 5.042046391138373940e-01 5.286763181698674874e-01 4.918851877264761585e-01 5.115052243427176126e-01 -2.737384534341906206e-01 7.690800924530785121e-01 6.051891596685939900e-01 6.209075415488661820e-01 5.033824130419600751e-01 -9.150760103647964661e-02 -1.909017884317950609e-01 1.505120071531237169e+00 4.376471535399998891e-01 5.162696500835290969e-01 5.274796466146635110e-01 3.678684978468890199e-01 3.579172695463208043e-01 3.758802803224227662e-01 1.101648727511256309e-02 5.188255361872541327e-01 6.030086329036324910e-01 5.818156470355170251e-01 5.387028890249268009e-01 4.576145329018436736e-01 4.978445447355478448e-01 5.532619511331891005e-01 4.748742499100003789e-01 9.662644585298880706e-01 6.315297225056862862e-01 4.638867930389928285e-01 5.935119323563744498e-01 4.578774483607671586e-01 4.976684025655918608e-01 1.326646400877498633e-02 4.367251219183045929e-01 7.711861018790199251e-01 4.988121738203231126e-01 4.152053169094236940e-01 1.166375311818069305e+00 6.732800087840311587e-01 -2.337053896313019408e-01 4.655623163916993712e-01 4.890998625097515151e-01 5.485569764355275879e-01 4.309534229729686805e-01 7.389451467820580266e-01 4.899503352264426015e-01 5.288519200145602728e-01 2.175442243589298108e-01 -6.536285370747239032e-01 1.953089860149106238e+00 5.143677113560168879e-01 8.338734024360359154e-01 7.484827195808230194e-01 5.224746414545854423e-01 2.852781920977011665e-01 1.469237686235942419e-01 5.042939407013606878e-01 5.106016363259213708e-01 4.504412638889171774e-03 5.184963628062002616e-01 5.579057489604902775e-01 5.266557573238542789e-01 1.019413340336021712e+00 5.364009700688103788e-01 4.538448919836281514e-01 2.866501479812958442e-01 5.655717066533313409e-01 1.498947202773340814e-01 5.295926211568499076e-01 6.562735144572139356e-01 5.101319266465415003e-01 -3.938230718091277338e-01 4.760092261773439803e-01 6.273911195807576613e-01 4.753596541832256772e-01 4.671236416417174353e-01 8.574301505836802173e-01 7.530939305703412412e-01 -4.691372212303839273e-01 1.019261506468870815e+00 1.421310369040759580e+00 4.717197800310089506e-01 4.642724589150672432e-01 1.006926911210963338e+00 4.979249182253610573e-01 4.678753337063790152e-01 5.225549401519996584e-01 1.472682109784144489e+00 5.334585216638625393e-01 4.573256654022300749e-01 1.206394828000481478e+00 2.241919540470863059e-02 5.429879826106296381e-01 -7.817529865485468854e-02 -7.705348400442678658e-01 -1.906023465760120772e-01 7.255833069505063238e-01 4.932920040438269482e-01 6.090709401100578013e-01 -3.526774695303410145e-01 5.444278839072064224e-01 3.932001148725533524e-02 -1.132383424523991794e-01 4.784817794311711503e-01 5.330062267373467666e-01 5.433753094054412092e-01 5.345868985375838989e-01 4.619001946346214527e-01 8.480149524171999298e-01 -1.851024415074669638e-01 5.211867246048985658e-01 5.163003198695915730e-01 6.548249851181254799e-01 1.104205680204705775e+00 6.155103038798330761e-01 4.500619726169893253e-01 5.308255647414372724e-01 2.263915238276488495e-02 2.423615041694172356e-01 4.869710483907174758e-01 5.324185613713435794e-01 4.752441728538905341e-01 4.559188404563732644e-01 4.309356490425080288e-01 5.347738217207805844e-01 5.482944506322273703e-01 2.371850357748939431e-01 4.094674342018315705e-01 8.184902494655459382e-01 2.271815519002262196e+00 -1.855004765647070286e-01 6.710630288702013058e-01 5.591576497102446197e-01 3.723741729230915509e-01 7.351125052719652553e-01 4.304617702189997286e-03 -1.148819724838700207e+00 5.174488012521667457e-01 2.330727145825069346e+00 5.759067715399852627e-01 1.236676473783891450e-01 2.604518696531811783e-01 6.051891532063607970e-01 5.587260389863429877e-01 1.374813664415684533e+00 5.828057262452523979e-01 1.141813415728003822e-01 6.346944270296331903e-01 1.405543172122764028e+00 5.482091964557614938e-01 4.730342768018621080e-01 5.478015515666685431e-01 7.933017783855361715e-01 4.448289611247800424e-01 5.302380775179778016e-01 -1.785284131550538347e-02 5.543734119976629904e-01 5.178275660618094633e-01 -4.868103774123336835e-01 2.684802785268074476e-01 1.108535275632445360e+00 2.298224566489746601e-01 5.565635562966193550e-01 4.853265844714313992e-01 5.107929233467198848e-01 1.867208621889130393e+00 6.489428370289027637e-01 -5.476400544120181395e-03 3.255069459050615732e-01 5.260110624943620250e-01 9.119638060325373496e-01 5.288034166848192275e-01 5.867808055299566367e-02 5.290218655164952155e-01 -6.196495202954449555e-02 5.317506934055735712e-01 5.616792347030998833e-01 2.788663453751857174e-02 -1.291075352044110669e-01 6.286659347029905920e-01 4.682518253005693021e-01 5.244167300330545567e-01 6.015287392368992014e-01 4.704760876164077454e-01 5.945747435657423585e-01 5.487768172930409527e-01 6.193853444410908349e-01 5.284591754730711965e-01 7.448360049294283636e-01 9.862280610399233316e-01 2.805560468914735317e+00 3.982931538225214507e-01 4.879303685235413801e-01 5.570391020932433657e-01 1.880407253591900030e-01 5.282190670200925808e-01 7.171091765701407272e-01 5.100075805538240026e-01 1.303119955438236444e+00 6.582384950151257685e-01 -4.705075840348590943e-01 2.963008391588257615e-02 5.344957805324604960e-01 5.961090652892462316e-01 5.053495675547506893e-01 5.242134024474179865e-01 6.410364422557192354e-04 5.237998111109732902e-01 6.241356932991968254e-01 -2.687376674601388515e+00 5.074588670546500424e-01 5.020766140418270185e-01 1.048281674328886082e+00 5.495317541507418468e-01 4.336293291716994958e-01 7.404756222499815355e-01 -7.014327259646818691e-01 -5.027469214906671313e-01 7.503142065693887974e-02 4.434011984590062183e-01 5.392465981533172137e-01 4.101196282700509399e-01 4.989747056808690462e-01 -2.648898151777969168e-01 8.339493623916275356e-01 5.945991081597602479e-01 6.795926825910337810e-01 5.103654204705954101e-01 5.407267617833250162e-01 2.267649559827178696e-01 -5.620594828549057009e-01 3.210139443008724336e-01 5.335170007971254957e-01 2.057278863714974981e-01 5.311898825936101076e-01 4.994499841100195070e-01 5.303848772347351526e-01 5.833833220333786151e-01 5.276831033964900497e-01 4.933300584250968623e-01 4.757432814711670677e-01 1.421310368443965411e+00 4.434554559296584042e-01 5.424502505908767036e-01 -6.251054529763627743e-03 4.873045425958632548e-01 5.908423537740283837e-01 5.251830721658892198e-01 5.493043009501764606e-01 4.437808458500574482e-01 7.488196474611001907e-01 8.960559373324761268e-01 5.550379337834796534e-01 4.692657631050503597e-01 5.779567148110540398e-01 5.185146146576024018e-01 5.333093852914720934e-01 5.192477730595669305e-01 1.019286491368066150e+00 6.851719074955617828e-01 -3.855572353466042990e-01 3.877275993503106477e-01 9.133502507621913402e-01 4.952995621749337607e-01 1.075775930752197879e-01 5.003273363873002033e-01 3.394340304689648091e-01 -1.255213086384547871e-01 6.603025391383400278e-01 3.068690125565992632e-01 5.419926193069742881e-01 5.921428322932145161e-01 5.513449075879968131e-01 3.598614384750911666e-01 1.319583092385010481e+00 6.269145046313000513e-01 5.116445120183260586e-01 -3.032973730654459632e-01 5.568312347988501054e-01 1.053338422076301129e+00 4.673013309041106900e-01 4.790969522751209464e-01 6.943422701754508042e-01 -1.657606541404086087e-01 4.150678099620249695e-01 1.355289009865144889e+00 -7.807350110874011762e-01 5.070714456160120287e-01 5.428558907663362243e-01 -2.986197902492504497e-01 5.900851004439376934e-01 6.470485878311275085e-01 5.642133858745940200e-01 4.908743190684753954e-01 4.458663913518282063e-01 2.756733160044782527e-01 5.778011774565050551e-01 5.080305662027272406e-01 5.205773296551379214e-01 1.256683564591811256e-02 4.319866922402543774e-01 5.488391154118088533e-01 1.024465717184349867e+00 2.717356956854251604e-01 -4.853487275925100208e-01 5.482222624398398469e-01 5.267724481280526838e-01 3.537320285871746184e-01 1.282715819949765967e-02 4.677271500537971693e-01 5.228598152612153882e-01 5.335058569319677257e-01 5.021823267059715157e-01 6.412455560496166038e-03 4.721102344424051855e-01 4.235663084806131073e-01 4.826841571320538149e-01 1.925092355858601056e+00 1.895762459028099145e-01 3.601165524013197339e-01 5.209270927529746631e-01 1.660298055241089976e+00 2.887150339349831563e-01 4.943330578826476973e-01 1.147750807960900288e-01 4.367245436969354189e-01 5.266964507388027794e-01 4.509975026703168521e-01 5.378429168558210849e-01 5.087964480008361212e-01 5.015733872864522880e-01 6.245343468969648537e-01 -3.232072404456905468e-01 4.988971196960548249e-01 5.559218754231133319e-01 5.122677459287084956e-01 3.649787224799920238e-01 5.268699908996612447e-01 -1.859811129961097542e-01 7.725191566962442691e-01 -9.214653982173637292e-01 -3.791367040493627272e-01 4.838024125544390097e-01 5.248635196994845264e-01 6.210329752492075306e-01 4.940104044585865162e-01 2.631128911869289322e-01 6.622997302053528212e-01 4.367254901030805381e-01 5.429450615100541722e-01 4.984522424814459285e-01 4.103579417098376370e-01 5.262462236684338768e-01 4.913805662581651745e-01 4.959125901436432504e-01 5.217384663833150027e-01 2.482286554736485296e-01 5.216793605360373620e-01 5.003159736637429189e-01 5.077720987795244501e-01 4.935013487170579194e-01 5.125108208494355555e-01 4.361036689518065779e-01 4.194223238214597749e-01 5.122712902014132652e-01 5.688515079198932511e-01 1.628418985603228009e-01 6.357766079932323233e-01 2.019956018056699332e+00 5.185142214563189800e-01 3.731010835683725713e-01 6.898032132987611531e-01 4.798618071701122312e-01 1.059553663257864820e+00 4.773522852989333098e-01 7.672537526973828292e-01 5.245714079492985737e-01
8.018972148564017521e-01 3.959233145153876476e-01 2.672122239306540248e-01 3.826260513089327353e-01 2.904647498198298372e-01 1.475148148411000448e-01 4.495526101141881781e-01 5.290005181036350201e-01 3.917489171421684180e-01 2.973850914377871302e-01 1.850033730759350403e+00 1.571697717817864381e+00 -1.215276624653339077e+00 3.114106376644598662e-01 3.085265123385116381e-01 2.483913744572157634e-01 1.493258973053915029e-01 3.806891737658695263e-01 2.968204728851980834e-01 2.901725304672628791e-01 2.096034351922166639e-01 1.856766495560639996e+00 2.734130981202497201e-01 2.632616850592323643e-01 4.797123442078754518e-01 -4.533997261761474884e-01 4.861490823206826573e-01 2.061833408806366674e-01 2.644077657879157495e-01 -5.556491183270647616e-01 2.746837886209152479e-01 4.051043825637801743e-01 3.115158731918213908e-01 3.026678396619326139e-01 -3.988926075437276286e-01 2.152772529335136575e-01 3.889453477195524700e-01 -1.217378812523139953e-01 -2.767680267487723000e+00 3.003631964371787366e-01 8.277028713871689147e-01 1.240657544436890997e-01 -1.340755789714414004e-01 7.662129819395516739e-01 8.265232771244885868e-01 1.778562468965232957e-01 3.822168943215296655e-01 2.926840930772847682e-01 4.759298282336664743e-01 7.661447056911558917e-01 7.901396719102853350e-01 1.980667390063985400e-01 -5.344450926943761226e-01 4.370430418049264798e-01 3.118673121049450048e-01 7.383065111574993455e-01 3.715371045189334587e-01 4.912246777038827839e-01 3.586238955901097092e-01 2.924767874970943260e-01 3.884562571281032772e-01 4.345857455574057560e-01 2.611575747514529033e-01 2.734131636984846736e-01 -2.592316137787125108e-01 4.719927096786141196e-01 2.894289928476708740e-01 3.973159943955102968e-01 1.465784710667608626e-01 7.241697158435731474e-01 3.789176490928697905e-01 3.029492227980585817e-01 3.622253254334245609e-01 7.009499384158037749e-01 1.720011055808505107e+00 4.566517321053703005e-01 4.321302397089339942e-01 4.489681718795747734e-01 2.926438039323916440e-01 -1.171892726403900520e+00 3.298360583334830065e-01 8.452805615343734758e-01 1.797627340237986537e+00 5.185298987696757012e-01 2.425631780286888195e-01 -5.882188842901454606e-01 4.179865125606424536e-02 3.291535327389247256e-01 -5.095771103454936890e-01 -7.035401473811756512e-01 8.272055104049090835e-01 1.333892797039247125e+00 2.717663835057538835e-01 7.939860375569303130e-01 2.286285012956771889e-01 3.748701407695068100e-01 3.658576041586356076e-01 4.892558366967481032e-01 7.544429187267329695e-01 -4.452368499189422457e-01 -9.919761129112884823e-02 1.052793360291423841e-01 3.074639432517385917e-01 2.469435018863054554e-01 3.172611878454340006e-01 2.643140386576487089e+00 -2.229213700781233765e-01 -3.428730659981649165e-01 3.349827589273332018e-01 7.717769527455768941e-01 3.592495505148005086e-01 3.771530078009408538e-01 2.992661598256013966e-01 3.922235854483280826e-01 -5.398098601990978240e-01 2.617429686830273217e-01 5.629679294304913428e-01 2.945899030537137975e-01 1.648911736282815677e-01 3.033690477421880916e-01 -1.275807909051070999e+00 3.986752036869778415e-01 3.788635423453706741e-01 7.189994728522586254e-01 2.699302269910600627e-01 1.905401456442880725e+00 3.896031199285310276e-01 2.808491005148202047e-01 3.002571367961164861e-01 2.930251942611565297e-01 2.867530440447065287e-01 2.793643157941068100e-01 5.509907663939219713e-01 2.481696987024972489e-01 2.737635329475639479e-01 8.997873707620337447e-01 4.397624696118906384e-01 7.343679731208431205e-01 -2.863486616549338892e-01 2.952888384835666846e-01 3.013292547874790173e-01 3.190682281249286878e-01 2.108946370323567243e-01 3.365659020664503731e-01 2.933140181956297443e-01 7.781174725584085738e-01 3.495781354700013277e-01 2.641814227401272364e-01 6.387657122017115219e-02 3.685677746011379319e-01 -4.646400232564665833e-01 2.104629948218147972e-02 1.778520549461555245e-01 3.477596964900466769e-01 4.985457499308352247e-01 3.012794135566094766e-01 -1.424048757872497850e+00 3.750114202201654257e-01 -5.127792078158283084e-01 -4.478555979224533301e-01 2.635139828549684649e-01 2.886615542615837415e-01 3.390367278537148588e-01 2.852361826488387653e-01 5.195686276042962848e-02 -6.231443633416272609e-02 3.340635070909362403e-01 2.192222382699336169e-01 2.044959730927752017e-01 1.852496058129357859e-01 5.333883553715256243e-01 3.836244953691496096e-01 1.779968872928737733e-01 2.826440996007866246e-01 -2.210318156968375192e+00 6.719386317646400819e-01 7.597571138279215486e-01 1.054293983777972121e+00 -4.118428426995204283e-01 1.129265549275569436e+00 -5.851222865426039532e-03 4.433485475899204831e-01 1.142846608562455790e+00 4.173198324020595540e-01 3.322242769788679717e-01 2.770669255358572114e-01 3.040509774725486669e-01 3.053156001891225158e-01 -3.173483258473561164e-01 2.346976131572806323e-01 2.122703740713465237e-01 7.215392450437675409e-01 2.884055308845140941e-01 3.193185235396754917e-01 1.483861804446444388e-01 2.869636858201674579e-01 -1.327335741608785868e+00 2.989052434692182625e-01 3.043710388035247502e-02 2.949969808925488879e-01 4.667187160435985471e-01 2.935667853029345631e-01 2.999933854067434735e-01 7.341740887871769927e-02 -8.993625058840011288e-01 3.043713997578690461e-02 2.910043238396475274e-01 -4.328506988418681645e-01 3.371120251510558719e-01 3.078353626240252772e-01 2.977951417999219474e-01 -2.775177205326666119e+00 3.533462588302677121e-01 9.447131618227302408e-01 2.978837395770231322e-01 3.421705386219776601e-01 2.793971578371751696e-01 2.804691571341001444e-01 3.632990149219420539e-01 2.939702382028437921e-01 3.697122980174380458e-01 3.082822973595016336e-01 6.048208117466569167e-01 5.154782001902129540e-01 4.941794421571219509e-01 2.710761429385704080e-01 2.856310425444359979e-01 -3.784869730927839515e-01 1.916991973529680982e+00 6.880502626782794562e-02 1.145548245029851531e+00 -1.288182315086769281e+00 2.930906947045406885e-01 3.067140052903436498e-01 2.958016338503962617e-01 9.127822991432313904e-01 -8.193728765994615082e-02 6.551013730901252829e-01 2.472783285831549049e-01 6.463032276672046050e-01 5.752728922933941780e-01 3.587197699899762338e-01 -1.009006368926204100e+00 3.590888107847108324e-01 2.960643874006894105e-01 1.067438117360534761e-01 1.022198616369470514e+00 -1.238787311408856562e-01 2.592147984718407017e+00 2.541216207391978066e-01 9.066995020225329105e-01 2.932184678684259804e-01 2.850306186198685032e-01 2.734138554200501448e-01 2.528307362538550485e-01 3.467680855016102570e-01 1.955991643640232480e-01 4.118660635319691399e-01 4.222349187713327900e-01 5.493345913155621707e-01 4.008674098505023431e-01 1.616898783997752498e-01 1.557522287773525083e-01 2.259071576397096437e-01 3.884589390190308911e-01 3.523677965098155340e-01 2.710811023209773296e+00 2.578239615176571298e-01 6.667289271114994476e-01 1.645081726878631911e-01 3.047443366611440885e-01 3.864519006084748964e-01 2.641232032094665838e-01 3.458658449069265117e-01 2.933006850467518301e-01 -1.170778311952340167e-01 4.239755348773750487e-01 2.852647661954204605e-01 4.895949365291288324e-02 1.151537708403417154e-01 1.373581191505965249e+00 3.023670006947325462e-01 1.550607269696215040e-01 1.862509418143059925e+00 4.285117869927679846e-01 6.117555716093289186e-01 1.691518757459889721e-01 3.159439199920173191e-01 2.617429251652695354e-01 -1.896749815064711298e+00 3.203633314398166010e-01 1.059071297185684157e+00 3.825918154215234290e-01 -2.014632167224447157e-01 7.911844129476849341e-01 3.020617851796174591e-01 -6.335401320308778894e-01 2.511184106965950180e-01 2.896936364383911333e-01 6.401688927521718975e-02 -2.936571704921352999e-01 3.441623243047287617e-01 -1.370579862452919739e+00 3.837822969533873918e-01 2.501568964805113149e-01 6.319244512273756165e-01 2.969115648829162568e-01 2.926239249792048081e-01 2.076971721507726576e-01 4.013744484016855130e-01 -1.391351837451384466e-01 -6.687220304785633784e-01 3.792401814276991773e-02 5.256848177347299700e-01 2.806020300448499039e-01 3.009198958829523152e-01 2.967008853271008162e-01 3.834773758720469439e-01 2.920949660869266995e-01 2.142463084800694695e+00 7.712858849218360291e-01 2.443993113937238670e-01 -9.614510375517739682e-01 4.862508386933922511e-01 3.905211206691943993e+00 3.543223979442253757e-01 2.424718216056133968e-01 5.495229453489197669e-01 -4.746918819392245581e+00 3.984655268129015382e-01 1.313039464182760518e+00 2.975981641685024326e-01 5.785395960136204829e-01 -4.040941578606625506e-01 2.261516457092049848e-01 1.542608077787040732e-01 2.808748781402110040e-01 3.181494026720036450e-01 2.451642468567495570e+00 -2.963392991564485213e-01 3.870715733188175856e-01 -1.744794069990825314e+00 3.060688585931447547e-01 -1.217378844298787621e-01 6.648142969608439312e-01 5.088558396169119424e-01 4.708985809521286092e-01 3.417721725462860571e-01 1.331958118416886272e+00 1.693900930586188514e-01 3.043708570173920408e-02 3.590847533672227865e-01 7.341742531851831732e-02 1.348552497922294313e-01 4.157529552131781214e-01 -5.261125153532641985e-01 2.997280364560803712e-01 2.497851161933816455e-01 3.233771870741543042e-01 4.811041415349857631e-01 2.989273366335949422e-01 7.212852742509900938e-02 5.088554416287954796e-01 1.414587007037576005e-01 2.907088588344910463e-01 3.205951692095757033e-01 6.262202948242444611e-01 2.668715064821029603e+00 2.977095113996826026e-01 3.905044997950324337e-01 3.884959788323779639e-01 9.327541710975605360e-01 4.240756531677060681e-01 -6.939404546340553759e-02 7.698860648239168603e-01 3.182895854674579472e-01 1.151601271998768383e-01 2.917935219793311163e-01 4.055878782497819857e-01 8.150476737658787219e-01 6.941571010498854832e-01 7.563364525074218747e-01 3.016608032088493041e-01 7.341742265448235327e-02 7.341741839021956317e-02 3.649728576442463623e-01 2.931355174593792690e-01 1.115452831908429809e+00 8.644188695859458815e-02 3.179290594633795708e-01 4.789704242933200407e-01 3.163668316141634573e-01 8.650620084708332547e-01 3.043715052545090810e-02 3.039069897579680934e-01 3.559723028160013403e-01 5.200226516748469585e-01 -5.506973530802483641e-01 2.812703500202830553e-01 2.768838243668643728e-01 2.430953821956408356e-01 6.483943282483987103e-01 7.510259995611779926e-01 7.341741837697379758e-02 -1.775702139349097930e-01 2.996884719494755656e-01 -8.613811313855378182e-03 -5.458218887869761282e-01 4.628456000651711699e-01 -3.002345112173784525e+00 1.513320902782070876e+00 1.809474090326105289e-01 -2.989291465694486893e-01 3.819944348646845400e-01 1.795225924874385148e+00 4.194305106743687617e-01 5.657230769852827912e-01 6.679274185660705188e-01 3.951453674164371321e-01 5.305237884859159703e-01 2.972372864615185351e-01 3.936104529762345788e-02 3.652399447762763041e-01 1.804296601385342758e+00 4.187980705378407942e-01 -1.785887961290856529e-01 4.170489062378927581e-01 4.222096694255909610e-01 -1.307071455671202642e+00 3.688234580556336017e-01 2.560629898359886858e-02 3.988829308262401008e-01 3.619256794159808055e-01 2.940280888605888432e-01 4.127297304285755808e-01 2.772054310379212239e-01 -1.517913076393540561e-01 2.932127061104098376e-01 5.154982050789392867e-01 3.692780072363642252e-01 3.793351295998854122e-01 4.998560627207798146e-01 6.078594747674239684e-01 8.096593472264312918e-01 -1.125990052836339794e+00 1.313450274020261377e-01 -5.902969840958162406e-02 -1.738698392189670927e-01 5.155183216094706422e-01 3.852370356612440094e-01 3.485599130362826426e-01 7.078593380880616737e-01 3.730449941954653847e-01 1.915069677608508547e-01 4.039904912414670757e-01 9.115255325963265987e-02 -1.516711167093657553e-01 2.854046683489451786e-01 3.149989181510038927e-01 4.647336172778478991e-01 2.826408359720083974e-01 3.648865485535740527e-01 2.896278741754108599e-01 3.883718139908572953e-01 2.925910971374720004e-01 5.233233276497444297e-01 3.689298524140637303e-01 2.901873402735840601e-01 7.695808807834731979e-01 3.050303593788453727e-01 7.001816454784739463e-01 3.289973335671223520e-01 3.559157008323851623e-01 2.401325441346861267e-01 -1.282677908985673687e+00 3.494963623384264029e-01 2.286280849578463670e-01 4.878053322805409597e-01 4.272346279560320648e-01 3.138041572303211790e-01 5.827522642955588195e-01 7.602427595756333645e-01 2.591861085592176428e-01 1.807704605142809451e-01 3.041095340370382760e-01 7.042051080513903050e-02 3.430516192720594049e-01 4.936551486087461527e-01 3.771148628015308368e-01 4.868199598467478628e-01 3.954236966847028967e-01 2.273226503341592430e-02 1.414057186137447797e+00 5.505550027302852367e-01 3.204697499682112594e-01 3.239301838164102554e-01 -6.798739702436600307e-01 2.734863332253421042e-01 3.958450718669321300e-01 5.751679771490995075e-01 3.827487898931493104e-01 1.635578863323043364e-01 8.689073728506663263e-01 8.527813645699968692e-01 1.367072478322922113e-01 3.534979153208457348e-01 5.806367003584354813e-02 2.291123159448985869e-01 8.159090225394336482e-01 2.639869574270234942e+00 2.909073015073656010e-01 2.687100628424521909e-01 6.076322323481604393e-01 8.806076900758065540e-02 2.936034985050060553e-01 2.459720026356285449e-01 9.294728690460850595e-01 4.013498314561477209e-01 -1.862807810106897610e-01 3.088855690914839580e-01 6.065289311509345499e-02 6.367761579707831299e-01 1.143964607106688458e+00 3.686714027412225092e-01 2.491803145972226186e-01 1.539269522265358958e+00 4.677625394774120315e-01 2.765836669974803819e-01 1.453697140016560196e-01 4.732415150649578184e-01 3.836858197948290194e-01 1.455961793477675570e-01 2.081619244601879415e-01 7.072543407776722413e-01 3.148680775186832315e-01 2.765518246942976766e-01 3.037151391934510003e-01 1.323454752169905824e-01 3.769007731073002465e-01 2.324043039112441977e-01 9.879334662984636806e-01 4.512575049319808018e-01 3.331381810551546918e-01 4.260826077081599772e-01 2.957485958767059886e-01 4.049294867003737086e-01 5.541984419265055806e-01 6.859021760828729608e-01 2.405667402278198197e-01 3.474861405949271620e-01 2.498039162352343745e-01 2.825703184412466373e-01 7.141699312212843598e-01 3.576935232016945077e-01 3.013279534365588264e-01 -2.277326635135561994e-01 2.947588163273986983e-01 2.180203994387156785e-01 3.661332024258157070e-01 1.707073939709087551e-01 2.672942620550508019e-01 1.493532470236514031e+00 5.406704882182209460e-01 3.277328920733320050e-01 1.627597613753241912e-01 1.302629690865241718e+00 1.052984408341648193e+00 4.252158041274538003e-01 -4.343518475511460308e-01 -1.285949382055487089e-01 7.854195177018861995e-02 2.524863354673834159e-01 2.931297208887179706e-01 2.632969003937643548e-01 4.760084259886462887e-01 3.935508095794310046e-01 3.024677866917425684e-01 3.833478845498746734e-01 2.660332080905248309e-01 2.283008561607893783e-01 6.569539655397049760e-01 6.686054714451154790e-02 7.745716210178879013e-01 3.884577396242442360e-01 3.799174352128332210e-01 5.791747376559422955e-01 4.749381128814609276e-01 8.263448438435947452e-01 1.254517634337926624e-01 6.426423491437652791e-01 1.371121711219308370e+00 2.247917610428349922e-01 1.792990776940228681e+00 4.425954804183257485e-01 9.934117682997979648e-02 2.925064889409066393e-01 3.217537410256388619e-01 3.735098168222057424e-01 1.852488259542663107e-01 2.716967163614308345e-01 2.953230325857502114e-01 3.033485758337732263e-01 3.609770813016750513e-01 -5.237976687003255416e-02 3.602394996891790102e-01 1.822984327743291388e-01 3.860002804382747232e-01 6.426716825582443060e-02 3.884577551610853829e-01 1.735516761817263443e-01 4.460753519239842868e-01 -8.309933018382835712e-01 1.728468925341751561e+00 2.953357355679510632e-01 -4.536972468887406906e-01 3.021230591031585089e-01 3.246245816004316165e-01 2.946671603665967920e-01 -4.075343922626190718e+00 3.088590121350229811e+00 5.688568128416671144e-01 4.435150545486136742e-01 4.680494547305787401e-01 2.921862991403266774e-01 4.669333984120765946e-01 2.278351598118745436e+00 5.626056653955208153e-01 3.391408899246040054e-01 2.617429327459397381e-01 3.828404032647476640e-01 3.336958032908304839e-01 9.220332944634830330e-01 -3.789418925371478286e-01 -8.460327731897978598e-01 -9.867308567866637237e-01 3.721740328459160474e-01 2.937511974245807234e-01 5.929146342659650237e-01 3.966086857323957715e-01 5.273372907311421054e-01 3.713222618368335892e-01 3.075161962228813439e-01 2.115196622227860923e-01 3.061644663897374330e-01 2.418140086402607025e-01 3.848329923426810351e-01 6.210085945022658649e-01 2.703477072091630684e-01 1.902693171029204433e-01 1.625986834193767494e-01 1.040052292280723434e-01 3.862807377173794743e-01 2.141377368010280169e-01 3.338500600670991081e-01 3.092849407222532654e-01 7.620282261088288100e-01 5.088560768451590999e-01 5.246283789485458593e-01 3.291816340555920872e-01 3.537018110116533220e-01 2.116755914815828254e-01 8.688907702029654567e-01 1.464718162704458759e+00 3.856022788674094426e-01 3.656301659915303648e-01 2.680933772824189987e-01 4.637763446458926797e-01 3.143706507305691344e-01 3.483169476035628542e-01 2.852930660005374430e-01 3.119477352913002099e-01 7.193326240775260727e-01 7.615551871195253009e-01 5.410367685876992239e-01 1.644965091370183430e+00 1.563878532649205511e-01 3.387529353460537740e-01 -1.663357049487474704e-01 -3.698349553053807415e-01 3.095059805651412810e-01 3.238131033950230608e-01 7.307078404062413712e-01 2.888941941815931780e-01 2.557022253951540258e-01 2.926006499201759814e-01 3.451027341549708360e-01 2.842902491785882502e-01 4.967451137922339610e-01 9.600901308552728386e-01 2.315590295975033519e-01 6.013745460635582241e-01 2.969604940462792220e-01 -2.413576579094717928e-02 2.883058197006601597e-01 3.626175667659438107e-01 -2.218468199227618953e-01 2.281610984266701225e-01 3.567829722846642682e-01 3.819276210690124573e-01 3.883989147386388008e-01 1.163576579882672712e+00 8.504673915035948495e-01 -7.596416368187391965e-01 -1.217378811235833719e-01 3.639130709712470324e-01 -2.849319901050835213e+00 1.458155240485313753e+00 3.428929562054242597e-01 3.829507131930142139e-01 2.960896686369980380e-01 7.502539747126368841e-01 2.909010103638002831e-01 3.590869140264010273e-01 -3.752838569976056915e-01 7.053397371494979362e-01 2.715878384822050240e-01 9.192484469614340403e-01 1.874275240708873413e+00 -3.786687576560978652e-01 -1.297905592645712147e+00 3.509960872442094426e-01 1.443843325688359824e-01 8.618055045589843033e-01 2.966758418384852214e-01 7.840678429845029385e-01 4.631605632983681331e-01 2.158359803405515975e-01 2.977998728407602602e-01 2.682258371741508274e-01 3.143779214729501836e-01 4.521875015321871749e-01 1.185392224471810252e+00 1.316193363050419229e+00 3.179119974170513396e-01 2.955250298155926436e-01 -2.076304157564058395e-01 -1.590310489010402228e-01 2.241638341371444409e-01 3.924059248817048373e-01 2.972774046873447595e-01 7.152760635625750041e-01 4.098764192936598522e-02 3.564448638737474639e-01 2.754814347571485911e-01 4.278491725558338787e-01 2.764218939101912298e-01 5.260877982139755549e-01 2.967980165260242775e-01 2.817159456397734796e-01 -9.023469069076101023e-02 4.399216536178315318e-01 4.639024286528219410e-01 9.952883591461134660e-01 1.046385355238473425e+00 9.114886976674049235e-01 3.113507100398022476e-01 5.165108863268452755e-01 2.266938586529790994e-02 3.027768792191413705e-01 -1.647715971049022565e+00 2.803516061964779205e-01 6.107204063135985850e-01 2.482759023244220653e-01 9.120202079916628346e-01 1.248859954792310933e+00 2.617429721932936770e-01 9.663173423578917676e-02 3.587218201247825422e-01 1.203511081472110195e-01 6.055783520570069411e-01 1.577885912470982921e-01 -5.036212054111303127e-01 4.671781347859433886e-01 4.407155933440834450e-01 2.711331566208793342e-01 3.485544586872563744e-01 5.415826272019311771e-01 3.448073743747971376e-01 3.167890202580572190e-01 2.588923621559910959e-01 2.872160897496390808e-01 8.540675606617638138e-01 3.700036509486797631e-01 -1.686652801188342210e-01 8.391610645003798608e-01 2.901722929863768119e-01 2.451947213121434543e-01 3.235346337813393425e-01 1.190239989603645299e+00 2.210635724285917592e-01 7.079307652075961244e-01 3.115522615605857415e-01 2.843675266473848495e-01 -2.274877046616921861e-01 1.936362642779176357e-01 6.804895427803840935e-01 2.946639087665133272e-01 7.564354726041622179e-01 2.946920140750616257e-01 2.552058202240985452e-01 7.381386269306844383e-01 2.522412652978700195e-02 -1.839879102144779788e+00 2.106385762552550889e-01 3.145397625829683408e-01 1.557391512865101690e-01 1.721378279060816197e-01 2.046390831527492571e-01 2.480171115832829620e-01 2.451270690782668682e-01 2.896294995441039410e-01 -4.779080664579967580e-02 -1.507972709083656770e+00 7.065159289592340963e-01 3.469347764813604518e-01 3.602504716583008748e-01 2.242587530202349022e-01 7.985406031434855167e-01 2.901278182423317475e-01 8.430020429671485765e-03 3.295392578073825796e-01 1.066916034739502139e+00 3.982181345838997633e-01 4.085514293758538140e-01 1.078819549487758378e+00 4.095151384650677073e-01 2.257596706070244874e+00 3.318099379027344975e-01 2.911422438185862771e-01 8.173867328873967164e-01 2.922954267223542568e-01 2.787428124364106363e-01 -1.517596830609131198e+00 3.324451234041081449e-01 3.388355851364583393e-01 4.874461846363540296e-01 3.068285786549274641e-01 4.962751047044505204e-01 -4.587687520084143822e-01 1.805842135836439599e+00 -5.053391435327901915e-01 7.122392667564387825e-01 2.794281928689565375e-01 2.431715030507310138e-01 3.380219600260532253e-01 3.364525136999738653e-01 1.190574154173907884e+00 -4.192759836013505714e-03 1.487541557514003854e-01 -8.064149600324184153e-01 1.545992630455239603e-01 4.719838895823994518e-01 -3.017124913191528091e+00 2.533120431531226568e+00 4.128935532278700804e-01 2.968183101883733466e-01 -1.296070696943805611e+00 2.968228849761491706e-01 -3.498541025054100612e-02 2.968553798603063565e-01 1.047794705602856924e-01 6.150337833154637668e-01 5.313181971217625366e-01 5.760717261105364750e-01 -1.217378804285602217e-01 -1.061146111489654209e-01 2.808184934374299280e-01 -1.065112075583156681e+00 3.586274900263025089e-01 -5.728958568656642436e-01 2.943422457059192698e-01 5.184133571499820459e-01 5.371106577522891112e-02 3.192576866052803664e-01 3.008189540835550790e-01 -1.613636619632959346e-01 3.738146762357125175e-01 3.567927654294602569e-01 2.909644246069226781e-01 2.746178152564886510e-01 2.935979757592018236e-01 -7.600110681422777015e-01 6.541227311548586387e-01 1.438512576327539039e+00 1.033154174214129771e-02 2.610265727287889304e-01 3.428174371461278347e-01 1.230879206001542769e+00 3.376867441257677682e-01 2.948864291392135351e-01 9.102003910596443426e-01 2.130194342003654540e-01 1.610825523744875420e+00 2.887111231150970569e-01 5.303928953150734982e-01 2.638511163942531823e-01 7.045556224706859272e-01 1.282232454116474019e+00 3.446953968041684968e-01 1.315095905985785851e-01 7.527722839022263912e-01 3.585194688971351379e-02 7.676126522215494935e-03 -9.357818888642829847e-02 2.902464109264299430e-01 2.713876987524691531e-01 1.426967805980881576e-01 5.032504905416320673e-01 -2.153790152308950323e-01 1.283193287602822918e+00 3.297158432497354630e-01 2.780519345440878309e-01 -2.548361800125836130e+00 1.911017964679222192e-01 2.382692987197769785e-01 2.553558006108412881e-01 -1.220720325514579666e-02 3.813336826470722918e-01 -7.348914609587300362e-01 2.444251887960288416e-01 3.339081232726921478e-01 3.167466890618044761e-01 1.119809058472072127e+00 3.293174259823488104e-01 3.091782613885449837e-01 -1.250885223340469699e+00 5.192569919122657085e-01 8.544718064506889865e-01 3.154617292946515494e-01 2.943816314250572441e-01 -2.946249055505960335e-02 7.876388517480131801e-01 -7.618862708062769384e-02 2.981105948503471326e-01 2.901629746144719357e-01 1.159877174879277717e-01 7.475016915072228985e-01 3.274491048505987489e-01 7.715786937676226698e-01 4.393867380183590354e-01 6.539817987377352093e-01 -1.879097232296177145e-02 -1.441599298771778281e+00 3.164990840314915732e-01 7.625565846952269550e-03 3.567424576859722918e-01 3.989451772133603136e-01 1.301688947667000440e-01 5.088564718595591785e-01 2.996543400141272739e-01 1.794782316317607707e-01 2.886291849062191939e-01 3.107757571378028660e-01 2.301858381503290585e-01 2.422609720632548369e-01 -5.965637407695363326e-01 3.459658164179864048e-01 2.814187961945130434e-01 2.961174543573457663e-01 3.989036954491846365e-01 2.974385006158353217e-01 6.391441190123706706e-01 -5.447781735230428773e-02 9.309764629858759966e-01 5.409017618341198652e-01 3.714821542199492899e-01 2.951666806450238267e-01 -1.833146574771193915e+00 3.650941409589973929e-01 2.455520722527138044e-01 2.038097574473969609e-01 5.088556348004781293e-01 2.737002174983997338e-01 4.722838983163172855e-01 4.379578254078038690e-01 3.019337480702558585e-01 3.147889929023754418e-01 3.661086359043871363e-01 3.097418353568632265e-01 3.735964007148571131e-01 2.929902334830550847e-01 3.103986141766576501e-01 3.264033515756328274e-01 -7.212624600796103957e-02 3.189551436886207125e-01 1.765963403136174004e-01 4.094376405954125997e-01 3.136179236923993252e-01 4.587848808373007695e-03 -1.002579449891216265e-02 -1.337495764433369039e-01 3.572661823087525335e+00 3.088424319151660269e-01 4.563724869849485888e-01 1.621528984779719018e-01 4.264109418523530093e-01 1.389407734438432795e+00 3.365026298027329332e-01 7.232834626238008324e-01 2.929195113210161794e-01
