# 
#                 ----------------------------------------------------
#                 Data from a 3D direct N-body simulation. 
# 
#                 rows are i-particle; 
#                 coumns are :mass, tag, x ,y, z, vx, vy, vz, ax, ay, az
# 
#                 NTHU, Computational Physics 
# 
#                 ----------------------------------------------------
#                 Time = 0.0
0.000000000000000000e+00 1.000000000000000000e+00 2.000000000000000000e+00 3.000000000000000000e+00 4.000000000000000000e+00 5.000000000000000000e+00 6.000000000000000000e+00 7.000000000000000000e+00 8.000000000000000000e+00 9.000000000000000000e+00 1.000000000000000000e+01 1.100000000000000000e+01 1.200000000000000000e+01 1.300000000000000000e+01 1.400000000000000000e+01 1.500000000000000000e+01 1.600000000000000000e+01 1.700000000000000000e+01 1.800000000000000000e+01 1.900000000000000000e+01 2.000000000000000000e+01 2.100000000000000000e+01 2.200000000000000000e+01 2.300000000000000000e+01 2.400000000000000000e+01 2.500000000000000000e+01 2.600000000000000000e+01 2.700000000000000000e+01 2.800000000000000000e+01 2.900000000000000000e+01 3.000000000000000000e+01 3.100000000000000000e+01 3.200000000000000000e+01 3.300000000000000000e+01 3.400000000000000000e+01 3.500000000000000000e+01 3.600000000000000000e+01 3.700000000000000000e+01 3.800000000000000000e+01 3.900000000000000000e+01 4.000000000000000000e+01 4.100000000000000000e+01 4.200000000000000000e+01 4.300000000000000000e+01 4.400000000000000000e+01 4.500000000000000000e+01 4.600000000000000000e+01 4.700000000000000000e+01 4.800000000000000000e+01 4.900000000000000000e+01 5.000000000000000000e+01 5.100000000000000000e+01 5.200000000000000000e+01 5.300000000000000000e+01 5.400000000000000000e+01 5.500000000000000000e+01 5.600000000000000000e+01 5.700000000000000000e+01 5.800000000000000000e+01 5.900000000000000000e+01 6.000000000000000000e+01 6.100000000000000000e+01 6.200000000000000000e+01 6.300000000000000000e+01 6.400000000000000000e+01 6.500000000000000000e+01 6.600000000000000000e+01 6.700000000000000000e+01 6.800000000000000000e+01 6.900000000000000000e+01 7.000000000000000000e+01 7.100000000000000000e+01 7.200000000000000000e+01 7.300000000000000000e+01 7.400000000000000000e+01 7.500000000000000000e+01 7.600000000000000000e+01 7.700000000000000000e+01 7.800000000000000000e+01 7.900000000000000000e+01 8.000000000000000000e+01 8.100000000000000000e+01 8.200000000000000000e+01 8.300000000000000000e+01 8.400000000000000000e+01 8.500000000000000000e+01 8.600000000000000000e+01 8.700000000000000000e+01 8.800000000000000000e+01 8.900000000000000000e+01 9.000000000000000000e+01 9.100000000000000000e+01 9.200000000000000000e+01 9.300000000000000000e+01 9.400000000000000000e+01 9.500000000000000000e+01 9.600000000000000000e+01 9.700000000000000000e+01 9.800000000000000000e+01 9.900000000000000000e+01 1.000000000000000000e+02 1.010000000000000000e+02 1.020000000000000000e+02 1.030000000000000000e+02 1.040000000000000000e+02 1.050000000000000000e+02 1.060000000000000000e+02 1.070000000000000000e+02 1.080000000000000000e+02 1.090000000000000000e+02 1.100000000000000000e+02 1.110000000000000000e+02 1.120000000000000000e+02 1.130000000000000000e+02 1.140000000000000000e+02 1.150000000000000000e+02 1.160000000000000000e+02 1.170000000000000000e+02 1.180000000000000000e+02 1.190000000000000000e+02 1.200000000000000000e+02 1.210000000000000000e+02 1.220000000000000000e+02 1.230000000000000000e+02 1.240000000000000000e+02 1.250000000000000000e+02 1.260000000000000000e+02 1.270000000000000000e+02 1.280000000000000000e+02 1.290000000000000000e+02 1.300000000000000000e+02 1.310000000000000000e+02 1.320000000000000000e+02 1.330000000000000000e+02 1.340000000000000000e+02 1.350000000000000000e+02 1.360000000000000000e+02 1.370000000000000000e+02 1.380000000000000000e+02 1.390000000000000000e+02 1.400000000000000000e+02 1.410000000000000000e+02 1.420000000000000000e+02 1.430000000000000000e+02 1.440000000000000000e+02 1.450000000000000000e+02 1.460000000000000000e+02 1.470000000000000000e+02 1.480000000000000000e+02 1.490000000000000000e+02 1.500000000000000000e+02 1.510000000000000000e+02 1.520000000000000000e+02 1.530000000000000000e+02 1.540000000000000000e+02 1.550000000000000000e+02 1.560000000000000000e+02 1.570000000000000000e+02 1.580000000000000000e+02 1.590000000000000000e+02 1.600000000000000000e+02 1.610000000000000000e+02 1.620000000000000000e+02 1.630000000000000000e+02 1.640000000000000000e+02 1.650000000000000000e+02 1.660000000000000000e+02 1.670000000000000000e+02 1.680000000000000000e+02 1.690000000000000000e+02 1.700000000000000000e+02 1.710000000000000000e+02 1.720000000000000000e+02 1.730000000000000000e+02 1.740000000000000000e+02 1.750000000000000000e+02 1.760000000000000000e+02 1.770000000000000000e+02 1.780000000000000000e+02 1.790000000000000000e+02 1.800000000000000000e+02 1.810000000000000000e+02 1.820000000000000000e+02 1.830000000000000000e+02 1.840000000000000000e+02 1.850000000000000000e+02 1.860000000000000000e+02 1.870000000000000000e+02 1.880000000000000000e+02 1.890000000000000000e+02 1.900000000000000000e+02 1.910000000000000000e+02 1.920000000000000000e+02 1.930000000000000000e+02 1.940000000000000000e+02 1.950000000000000000e+02 1.960000000000000000e+02 1.970000000000000000e+02 1.980000000000000000e+02 1.990000000000000000e+02 2.000000000000000000e+02 2.010000000000000000e+02 2.020000000000000000e+02 2.030000000000000000e+02 2.040000000000000000e+02 2.050000000000000000e+02 2.060000000000000000e+02 2.070000000000000000e+02 2.080000000000000000e+02 2.090000000000000000e+02 2.100000000000000000e+02 2.110000000000000000e+02 2.120000000000000000e+02 2.130000000000000000e+02 2.140000000000000000e+02 2.150000000000000000e+02 2.160000000000000000e+02 2.170000000000000000e+02 2.180000000000000000e+02 2.190000000000000000e+02 2.200000000000000000e+02 2.210000000000000000e+02 2.220000000000000000e+02 2.230000000000000000e+02 2.240000000000000000e+02 2.250000000000000000e+02 2.260000000000000000e+02 2.270000000000000000e+02 2.280000000000000000e+02 2.290000000000000000e+02 2.300000000000000000e+02 2.310000000000000000e+02 2.320000000000000000e+02 2.330000000000000000e+02 2.340000000000000000e+02 2.350000000000000000e+02 2.360000000000000000e+02 2.370000000000000000e+02 2.380000000000000000e+02 2.390000000000000000e+02 2.400000000000000000e+02 2.410000000000000000e+02 2.420000000000000000e+02 2.430000000000000000e+02 2.440000000000000000e+02 2.450000000000000000e+02 2.460000000000000000e+02 2.470000000000000000e+02 2.480000000000000000e+02 2.490000000000000000e+02 2.500000000000000000e+02 2.510000000000000000e+02 2.520000000000000000e+02 2.530000000000000000e+02 2.540000000000000000e+02 2.550000000000000000e+02 2.560000000000000000e+02 2.570000000000000000e+02 2.580000000000000000e+02 2.590000000000000000e+02 2.600000000000000000e+02 2.610000000000000000e+02 2.620000000000000000e+02 2.630000000000000000e+02 2.640000000000000000e+02 2.650000000000000000e+02 2.660000000000000000e+02 2.670000000000000000e+02 2.680000000000000000e+02 2.690000000000000000e+02 2.700000000000000000e+02 2.710000000000000000e+02 2.720000000000000000e+02 2.730000000000000000e+02 2.740000000000000000e+02 2.750000000000000000e+02 2.760000000000000000e+02 2.770000000000000000e+02 2.780000000000000000e+02 2.790000000000000000e+02 2.800000000000000000e+02 2.810000000000000000e+02 2.820000000000000000e+02 2.830000000000000000e+02 2.840000000000000000e+02 2.850000000000000000e+02 2.860000000000000000e+02 2.870000000000000000e+02 2.880000000000000000e+02 2.890000000000000000e+02 2.900000000000000000e+02 2.910000000000000000e+02 2.920000000000000000e+02 2.930000000000000000e+02 2.940000000000000000e+02 2.950000000000000000e+02 2.960000000000000000e+02 2.970000000000000000e+02 2.980000000000000000e+02 2.990000000000000000e+02 3.000000000000000000e+02 3.010000000000000000e+02 3.020000000000000000e+02 3.030000000000000000e+02 3.040000000000000000e+02 3.050000000000000000e+02 3.060000000000000000e+02 3.070000000000000000e+02 3.080000000000000000e+02 3.090000000000000000e+02 3.100000000000000000e+02 3.110000000000000000e+02 3.120000000000000000e+02 3.130000000000000000e+02 3.140000000000000000e+02 3.150000000000000000e+02 3.160000000000000000e+02 3.170000000000000000e+02 3.180000000000000000e+02 3.190000000000000000e+02 3.200000000000000000e+02 3.210000000000000000e+02 3.220000000000000000e+02 3.230000000000000000e+02 3.240000000000000000e+02 3.250000000000000000e+02 3.260000000000000000e+02 3.270000000000000000e+02 3.280000000000000000e+02 3.290000000000000000e+02 3.300000000000000000e+02 3.310000000000000000e+02 3.320000000000000000e+02 3.330000000000000000e+02 3.340000000000000000e+02 3.350000000000000000e+02 3.360000000000000000e+02 3.370000000000000000e+02 3.380000000000000000e+02 3.390000000000000000e+02 3.400000000000000000e+02 3.410000000000000000e+02 3.420000000000000000e+02 3.430000000000000000e+02 3.440000000000000000e+02 3.450000000000000000e+02 3.460000000000000000e+02 3.470000000000000000e+02 3.480000000000000000e+02 3.490000000000000000e+02 3.500000000000000000e+02 3.510000000000000000e+02 3.520000000000000000e+02 3.530000000000000000e+02 3.540000000000000000e+02 3.550000000000000000e+02 3.560000000000000000e+02 3.570000000000000000e+02 3.580000000000000000e+02 3.590000000000000000e+02 3.600000000000000000e+02 3.610000000000000000e+02 3.620000000000000000e+02 3.630000000000000000e+02 3.640000000000000000e+02 3.650000000000000000e+02 3.660000000000000000e+02 3.670000000000000000e+02 3.680000000000000000e+02 3.690000000000000000e+02 3.700000000000000000e+02 3.710000000000000000e+02 3.720000000000000000e+02 3.730000000000000000e+02 3.740000000000000000e+02 3.750000000000000000e+02 3.760000000000000000e+02 3.770000000000000000e+02 3.780000000000000000e+02 3.790000000000000000e+02 3.800000000000000000e+02 3.810000000000000000e+02 3.820000000000000000e+02 3.830000000000000000e+02 3.840000000000000000e+02 3.850000000000000000e+02 3.860000000000000000e+02 3.870000000000000000e+02 3.880000000000000000e+02 3.890000000000000000e+02 3.900000000000000000e+02 3.910000000000000000e+02 3.920000000000000000e+02 3.930000000000000000e+02 3.940000000000000000e+02 3.950000000000000000e+02 3.960000000000000000e+02 3.970000000000000000e+02 3.980000000000000000e+02 3.990000000000000000e+02 4.000000000000000000e+02 4.010000000000000000e+02 4.020000000000000000e+02 4.030000000000000000e+02 4.040000000000000000e+02 4.050000000000000000e+02 4.060000000000000000e+02 4.070000000000000000e+02 4.080000000000000000e+02 4.090000000000000000e+02 4.100000000000000000e+02 4.110000000000000000e+02 4.120000000000000000e+02 4.130000000000000000e+02 4.140000000000000000e+02 4.150000000000000000e+02 4.160000000000000000e+02 4.170000000000000000e+02 4.180000000000000000e+02 4.190000000000000000e+02 4.200000000000000000e+02 4.210000000000000000e+02 4.220000000000000000e+02 4.230000000000000000e+02 4.240000000000000000e+02 4.250000000000000000e+02 4.260000000000000000e+02 4.270000000000000000e+02 4.280000000000000000e+02 4.290000000000000000e+02 4.300000000000000000e+02 4.310000000000000000e+02 4.320000000000000000e+02 4.330000000000000000e+02 4.340000000000000000e+02 4.350000000000000000e+02 4.360000000000000000e+02 4.370000000000000000e+02 4.380000000000000000e+02 4.390000000000000000e+02 4.400000000000000000e+02 4.410000000000000000e+02 4.420000000000000000e+02 4.430000000000000000e+02 4.440000000000000000e+02 4.450000000000000000e+02 4.460000000000000000e+02 4.470000000000000000e+02 4.480000000000000000e+02 4.490000000000000000e+02 4.500000000000000000e+02 4.510000000000000000e+02 4.520000000000000000e+02 4.530000000000000000e+02 4.540000000000000000e+02 4.550000000000000000e+02 4.560000000000000000e+02 4.570000000000000000e+02 4.580000000000000000e+02 4.590000000000000000e+02 4.600000000000000000e+02 4.610000000000000000e+02 4.620000000000000000e+02 4.630000000000000000e+02 4.640000000000000000e+02 4.650000000000000000e+02 4.660000000000000000e+02 4.670000000000000000e+02 4.680000000000000000e+02 4.690000000000000000e+02 4.700000000000000000e+02 4.710000000000000000e+02 4.720000000000000000e+02 4.730000000000000000e+02 4.740000000000000000e+02 4.750000000000000000e+02 4.760000000000000000e+02 4.770000000000000000e+02 4.780000000000000000e+02 4.790000000000000000e+02 4.800000000000000000e+02 4.810000000000000000e+02 4.820000000000000000e+02 4.830000000000000000e+02 4.840000000000000000e+02 4.850000000000000000e+02 4.860000000000000000e+02 4.870000000000000000e+02 4.880000000000000000e+02 4.890000000000000000e+02 4.900000000000000000e+02 4.910000000000000000e+02 4.920000000000000000e+02 4.930000000000000000e+02 4.940000000000000000e+02 4.950000000000000000e+02 4.960000000000000000e+02 4.970000000000000000e+02 4.980000000000000000e+02 4.990000000000000000e+02 5.000000000000000000e+02 5.010000000000000000e+02 5.020000000000000000e+02 5.030000000000000000e+02 5.040000000000000000e+02 5.050000000000000000e+02 5.060000000000000000e+02 5.070000000000000000e+02 5.080000000000000000e+02 5.090000000000000000e+02 5.100000000000000000e+02 5.110000000000000000e+02 5.120000000000000000e+02 5.130000000000000000e+02 5.140000000000000000e+02 5.150000000000000000e+02 5.160000000000000000e+02 5.170000000000000000e+02 5.180000000000000000e+02 5.190000000000000000e+02 5.200000000000000000e+02 5.210000000000000000e+02 5.220000000000000000e+02 5.230000000000000000e+02 5.240000000000000000e+02 5.250000000000000000e+02 5.260000000000000000e+02 5.270000000000000000e+02 5.280000000000000000e+02 5.290000000000000000e+02 5.300000000000000000e+02 5.310000000000000000e+02 5.320000000000000000e+02 5.330000000000000000e+02 5.340000000000000000e+02 5.350000000000000000e+02 5.360000000000000000e+02 5.370000000000000000e+02 5.380000000000000000e+02 5.390000000000000000e+02 5.400000000000000000e+02 5.410000000000000000e+02 5.420000000000000000e+02 5.430000000000000000e+02 5.440000000000000000e+02 5.450000000000000000e+02 5.460000000000000000e+02 5.470000000000000000e+02 5.480000000000000000e+02 5.490000000000000000e+02 5.500000000000000000e+02 5.510000000000000000e+02 5.520000000000000000e+02 5.530000000000000000e+02 5.540000000000000000e+02 5.550000000000000000e+02 5.560000000000000000e+02 5.570000000000000000e+02 5.580000000000000000e+02 5.590000000000000000e+02 5.600000000000000000e+02 5.610000000000000000e+02 5.620000000000000000e+02 5.630000000000000000e+02 5.640000000000000000e+02 5.650000000000000000e+02 5.660000000000000000e+02 5.670000000000000000e+02 5.680000000000000000e+02 5.690000000000000000e+02 5.700000000000000000e+02 5.710000000000000000e+02 5.720000000000000000e+02 5.730000000000000000e+02 5.740000000000000000e+02 5.750000000000000000e+02 5.760000000000000000e+02 5.770000000000000000e+02 5.780000000000000000e+02 5.790000000000000000e+02 5.800000000000000000e+02 5.810000000000000000e+02 5.820000000000000000e+02 5.830000000000000000e+02 5.840000000000000000e+02 5.850000000000000000e+02 5.860000000000000000e+02 5.870000000000000000e+02 5.880000000000000000e+02 5.890000000000000000e+02 5.900000000000000000e+02 5.910000000000000000e+02 5.920000000000000000e+02 5.930000000000000000e+02 5.940000000000000000e+02 5.950000000000000000e+02 5.960000000000000000e+02 5.970000000000000000e+02 5.980000000000000000e+02 5.990000000000000000e+02 6.000000000000000000e+02 6.010000000000000000e+02 6.020000000000000000e+02 6.030000000000000000e+02 6.040000000000000000e+02 6.050000000000000000e+02 6.060000000000000000e+02 6.070000000000000000e+02 6.080000000000000000e+02 6.090000000000000000e+02 6.100000000000000000e+02 6.110000000000000000e+02 6.120000000000000000e+02 6.130000000000000000e+02 6.140000000000000000e+02 6.150000000000000000e+02 6.160000000000000000e+02 6.170000000000000000e+02 6.180000000000000000e+02 6.190000000000000000e+02 6.200000000000000000e+02 6.210000000000000000e+02 6.220000000000000000e+02 6.230000000000000000e+02 6.240000000000000000e+02 6.250000000000000000e+02 6.260000000000000000e+02 6.270000000000000000e+02 6.280000000000000000e+02 6.290000000000000000e+02 6.300000000000000000e+02 6.310000000000000000e+02 6.320000000000000000e+02 6.330000000000000000e+02 6.340000000000000000e+02 6.350000000000000000e+02 6.360000000000000000e+02 6.370000000000000000e+02 6.380000000000000000e+02 6.390000000000000000e+02 6.400000000000000000e+02 6.410000000000000000e+02 6.420000000000000000e+02 6.430000000000000000e+02 6.440000000000000000e+02 6.450000000000000000e+02 6.460000000000000000e+02 6.470000000000000000e+02 6.480000000000000000e+02 6.490000000000000000e+02 6.500000000000000000e+02 6.510000000000000000e+02 6.520000000000000000e+02 6.530000000000000000e+02 6.540000000000000000e+02 6.550000000000000000e+02 6.560000000000000000e+02 6.570000000000000000e+02 6.580000000000000000e+02 6.590000000000000000e+02 6.600000000000000000e+02 6.610000000000000000e+02 6.620000000000000000e+02 6.630000000000000000e+02 6.640000000000000000e+02 6.650000000000000000e+02 6.660000000000000000e+02 6.670000000000000000e+02 6.680000000000000000e+02 6.690000000000000000e+02 6.700000000000000000e+02 6.710000000000000000e+02 6.720000000000000000e+02 6.730000000000000000e+02 6.740000000000000000e+02 6.750000000000000000e+02 6.760000000000000000e+02 6.770000000000000000e+02 6.780000000000000000e+02 6.790000000000000000e+02 6.800000000000000000e+02 6.810000000000000000e+02 6.820000000000000000e+02 6.830000000000000000e+02 6.840000000000000000e+02 6.850000000000000000e+02 6.860000000000000000e+02 6.870000000000000000e+02 6.880000000000000000e+02 6.890000000000000000e+02 6.900000000000000000e+02 6.910000000000000000e+02 6.920000000000000000e+02 6.930000000000000000e+02 6.940000000000000000e+02 6.950000000000000000e+02 6.960000000000000000e+02 6.970000000000000000e+02 6.980000000000000000e+02 6.990000000000000000e+02 7.000000000000000000e+02 7.010000000000000000e+02 7.020000000000000000e+02 7.030000000000000000e+02 7.040000000000000000e+02 7.050000000000000000e+02 7.060000000000000000e+02 7.070000000000000000e+02 7.080000000000000000e+02 7.090000000000000000e+02 7.100000000000000000e+02 7.110000000000000000e+02 7.120000000000000000e+02 7.130000000000000000e+02 7.140000000000000000e+02 7.150000000000000000e+02 7.160000000000000000e+02 7.170000000000000000e+02 7.180000000000000000e+02 7.190000000000000000e+02 7.200000000000000000e+02 7.210000000000000000e+02 7.220000000000000000e+02 7.230000000000000000e+02 7.240000000000000000e+02 7.250000000000000000e+02 7.260000000000000000e+02 7.270000000000000000e+02 7.280000000000000000e+02 7.290000000000000000e+02 7.300000000000000000e+02 7.310000000000000000e+02 7.320000000000000000e+02 7.330000000000000000e+02 7.340000000000000000e+02 7.350000000000000000e+02 7.360000000000000000e+02 7.370000000000000000e+02 7.380000000000000000e+02 7.390000000000000000e+02 7.400000000000000000e+02 7.410000000000000000e+02 7.420000000000000000e+02 7.430000000000000000e+02 7.440000000000000000e+02 7.450000000000000000e+02 7.460000000000000000e+02 7.470000000000000000e+02 7.480000000000000000e+02 7.490000000000000000e+02 7.500000000000000000e+02 7.510000000000000000e+02 7.520000000000000000e+02 7.530000000000000000e+02 7.540000000000000000e+02 7.550000000000000000e+02 7.560000000000000000e+02 7.570000000000000000e+02 7.580000000000000000e+02 7.590000000000000000e+02 7.600000000000000000e+02 7.610000000000000000e+02 7.620000000000000000e+02 7.630000000000000000e+02 7.640000000000000000e+02 7.650000000000000000e+02 7.660000000000000000e+02 7.670000000000000000e+02 7.680000000000000000e+02 7.690000000000000000e+02 7.700000000000000000e+02 7.710000000000000000e+02 7.720000000000000000e+02 7.730000000000000000e+02 7.740000000000000000e+02 7.750000000000000000e+02 7.760000000000000000e+02 7.770000000000000000e+02 7.780000000000000000e+02 7.790000000000000000e+02 7.800000000000000000e+02 7.810000000000000000e+02 7.820000000000000000e+02 7.830000000000000000e+02 7.840000000000000000e+02 7.850000000000000000e+02 7.860000000000000000e+02 7.870000000000000000e+02 7.880000000000000000e+02 7.890000000000000000e+02 7.900000000000000000e+02 7.910000000000000000e+02 7.920000000000000000e+02 7.930000000000000000e+02 7.940000000000000000e+02 7.950000000000000000e+02 7.960000000000000000e+02 7.970000000000000000e+02 7.980000000000000000e+02 7.990000000000000000e+02 8.000000000000000000e+02 8.010000000000000000e+02 8.020000000000000000e+02 8.030000000000000000e+02 8.040000000000000000e+02 8.050000000000000000e+02 8.060000000000000000e+02 8.070000000000000000e+02 8.080000000000000000e+02 8.090000000000000000e+02 8.100000000000000000e+02 8.110000000000000000e+02 8.120000000000000000e+02 8.130000000000000000e+02 8.140000000000000000e+02 8.150000000000000000e+02 8.160000000000000000e+02 8.170000000000000000e+02 8.180000000000000000e+02 8.190000000000000000e+02 8.200000000000000000e+02 8.210000000000000000e+02 8.220000000000000000e+02 8.230000000000000000e+02 8.240000000000000000e+02 8.250000000000000000e+02 8.260000000000000000e+02 8.270000000000000000e+02 8.280000000000000000e+02 8.290000000000000000e+02 8.300000000000000000e+02 8.310000000000000000e+02 8.320000000000000000e+02 8.330000000000000000e+02 8.340000000000000000e+02 8.350000000000000000e+02 8.360000000000000000e+02 8.370000000000000000e+02 8.380000000000000000e+02 8.390000000000000000e+02 8.400000000000000000e+02 8.410000000000000000e+02 8.420000000000000000e+02 8.430000000000000000e+02 8.440000000000000000e+02 8.450000000000000000e+02 8.460000000000000000e+02 8.470000000000000000e+02 8.480000000000000000e+02 8.490000000000000000e+02 8.500000000000000000e+02 8.510000000000000000e+02 8.520000000000000000e+02 8.530000000000000000e+02 8.540000000000000000e+02 8.550000000000000000e+02 8.560000000000000000e+02 8.570000000000000000e+02 8.580000000000000000e+02 8.590000000000000000e+02 8.600000000000000000e+02 8.610000000000000000e+02 8.620000000000000000e+02 8.630000000000000000e+02 8.640000000000000000e+02 8.650000000000000000e+02 8.660000000000000000e+02 8.670000000000000000e+02 8.680000000000000000e+02 8.690000000000000000e+02 8.700000000000000000e+02 8.710000000000000000e+02 8.720000000000000000e+02 8.730000000000000000e+02 8.740000000000000000e+02 8.750000000000000000e+02 8.760000000000000000e+02 8.770000000000000000e+02 8.780000000000000000e+02 8.790000000000000000e+02 8.800000000000000000e+02 8.810000000000000000e+02 8.820000000000000000e+02 8.830000000000000000e+02 8.840000000000000000e+02 8.850000000000000000e+02 8.860000000000000000e+02 8.870000000000000000e+02 8.880000000000000000e+02 8.890000000000000000e+02 8.900000000000000000e+02 8.910000000000000000e+02 8.920000000000000000e+02 8.930000000000000000e+02 8.940000000000000000e+02 8.950000000000000000e+02 8.960000000000000000e+02 8.970000000000000000e+02 8.980000000000000000e+02 8.990000000000000000e+02 9.000000000000000000e+02 9.010000000000000000e+02 9.020000000000000000e+02 9.030000000000000000e+02 9.040000000000000000e+02 9.050000000000000000e+02 9.060000000000000000e+02 9.070000000000000000e+02 9.080000000000000000e+02 9.090000000000000000e+02 9.100000000000000000e+02 9.110000000000000000e+02 9.120000000000000000e+02 9.130000000000000000e+02 9.140000000000000000e+02 9.150000000000000000e+02 9.160000000000000000e+02 9.170000000000000000e+02 9.180000000000000000e+02 9.190000000000000000e+02 9.200000000000000000e+02 9.210000000000000000e+02 9.220000000000000000e+02 9.230000000000000000e+02 9.240000000000000000e+02 9.250000000000000000e+02 9.260000000000000000e+02 9.270000000000000000e+02 9.280000000000000000e+02 9.290000000000000000e+02 9.300000000000000000e+02 9.310000000000000000e+02 9.320000000000000000e+02 9.330000000000000000e+02 9.340000000000000000e+02 9.350000000000000000e+02 9.360000000000000000e+02 9.370000000000000000e+02 9.380000000000000000e+02 9.390000000000000000e+02 9.400000000000000000e+02 9.410000000000000000e+02 9.420000000000000000e+02 9.430000000000000000e+02 9.440000000000000000e+02 9.450000000000000000e+02 9.460000000000000000e+02 9.470000000000000000e+02 9.480000000000000000e+02 9.490000000000000000e+02 9.500000000000000000e+02 9.510000000000000000e+02 9.520000000000000000e+02 9.530000000000000000e+02 9.540000000000000000e+02 9.550000000000000000e+02 9.560000000000000000e+02 9.570000000000000000e+02 9.580000000000000000e+02 9.590000000000000000e+02 9.600000000000000000e+02 9.610000000000000000e+02 9.620000000000000000e+02 9.630000000000000000e+02 9.640000000000000000e+02 9.650000000000000000e+02 9.660000000000000000e+02 9.670000000000000000e+02 9.680000000000000000e+02 9.690000000000000000e+02 9.700000000000000000e+02 9.710000000000000000e+02 9.720000000000000000e+02 9.730000000000000000e+02 9.740000000000000000e+02 9.750000000000000000e+02 9.760000000000000000e+02 9.770000000000000000e+02 9.780000000000000000e+02 9.790000000000000000e+02 9.800000000000000000e+02 9.810000000000000000e+02 9.820000000000000000e+02 9.830000000000000000e+02 9.840000000000000000e+02 9.850000000000000000e+02 9.860000000000000000e+02 9.870000000000000000e+02 9.880000000000000000e+02 9.890000000000000000e+02 9.900000000000000000e+02 9.910000000000000000e+02 9.920000000000000000e+02 9.930000000000000000e+02 9.940000000000000000e+02 9.950000000000000000e+02 9.960000000000000000e+02 9.970000000000000000e+02 9.980000000000000000e+02 9.990000000000000000e+02
1.000000000000000000e+00 1.000000000000000000e+00 1.000000000000000000e+00 1.000000000000000000e+00 1.000000000000000000e+00 1.000000000000000000e+00 1.000000000000000000e+00 1.000000000000000000e+00 1.000000000000000000e+00 1.000000000000000000e+00 1.000000000000000000e+00 1.000000000000000000e+00 1.000000000000000000e+00 1.000000000000000000e+00 1.000000000000000000e+00 1.000000000000000000e+00 1.000000000000000000e+00 1.000000000000000000e+00 1.000000000000000000e+00 1.000000000000000000e+00 1.000000000000000000e+00 1.000000000000000000e+00 1.000000000000000000e+00 1.000000000000000000e+00 1.000000000000000000e+00 1.000000000000000000e+00 1.000000000000000000e+00 1.000000000000000000e+00 1.000000000000000000e+00 1.000000000000000000e+00 1.000000000000000000e+00 1.000000000000000000e+00 1.000000000000000000e+00 1.000000000000000000e+00 1.000000000000000000e+00 1.000000000000000000e+00 1.000000000000000000e+00 1.000000000000000000e+00 1.000000000000000000e+00 1.000000000000000000e+00 1.000000000000000000e+00 1.000000000000000000e+00 1.000000000000000000e+00 1.000000000000000000e+00 1.000000000000000000e+00 1.000000000000000000e+00 1.000000000000000000e+00 1.000000000000000000e+00 1.000000000000000000e+00 1.000000000000000000e+00 1.000000000000000000e+00 1.000000000000000000e+00 1.000000000000000000e+00 1.000000000000000000e+00 1.000000000000000000e+00 1.000000000000000000e+00 1.000000000000000000e+00 1.000000000000000000e+00 1.000000000000000000e+00 1.000000000000000000e+00 1.000000000000000000e+00 1.000000000000000000e+00 1.000000000000000000e+00 1.000000000000000000e+00 1.000000000000000000e+00 1.000000000000000000e+00 1.000000000000000000e+00 1.000000000000000000e+00 1.000000000000000000e+00 1.000000000000000000e+00 1.000000000000000000e+00 1.000000000000000000e+00 1.000000000000000000e+00 1.000000000000000000e+00 1.000000000000000000e+00 1.000000000000000000e+00 1.000000000000000000e+00 1.000000000000000000e+00 1.000000000000000000e+00 1.000000000000000000e+00 1.000000000000000000e+00 1.000000000000000000e+00 1.000000000000000000e+00 1.000000000000000000e+00 1.000000000000000000e+00 1.000000000000000000e+00 1.000000000000000000e+00 1.000000000000000000e+00 1.000000000000000000e+00 1.000000000000000000e+00 1.000000000000000000e+00 1.000000000000000000e+00 1.000000000000000000e+00 1.000000000000000000e+00 1.000000000000000000e+00 1.000000000000000000e+00 1.000000000000000000e+00 1.000000000000000000e+00 1.000000000000000000e+00 1.000000000000000000e+00 1.000000000000000000e+00 1.000000000000000000e+00 1.000000000000000000e+00 1.000000000000000000e+00 1.000000000000000000e+00 1.000000000000000000e+00 1.000000000000000000e+00 1.000000000000000000e+00 1.000000000000000000e+00 1.000000000000000000e+00 1.000000000000000000e+00 1.000000000000000000e+00 1.000000000000000000e+00 1.000000000000000000e+00 1.000000000000000000e+00 1.000000000000000000e+00 1.000000000000000000e+00 1.000000000000000000e+00 1.000000000000000000e+00 1.000000000000000000e+00 1.000000000000000000e+00 1.000000000000000000e+00 1.000000000000000000e+00 1.000000000000000000e+00 1.000000000000000000e+00 1.000000000000000000e+00 1.000000000000000000e+00 1.000000000000000000e+00 1.000000000000000000e+00 1.000000000000000000e+00 1.000000000000000000e+00 1.000000000000000000e+00 1.000000000000000000e+00 1.000000000000000000e+00 1.000000000000000000e+00 1.000000000000000000e+00 1.000000000000000000e+00 1.000000000000000000e+00 1.000000000000000000e+00 1.000000000000000000e+00 1.000000000000000000e+00 1.000000000000000000e+00 1.000000000000000000e+00 1.000000000000000000e+00 1.000000000000000000e+00 1.000000000000000000e+00 1.000000000000000000e+00 1.000000000000000000e+00 1.000000000000000000e+00 1.000000000000000000e+00 1.000000000000000000e+00 1.000000000000000000e+00 1.000000000000000000e+00 1.000000000000000000e+00 1.000000000000000000e+00 1.000000000000000000e+00 1.000000000000000000e+00 1.000000000000000000e+00 1.000000000000000000e+00 1.000000000000000000e+00 1.000000000000000000e+00 1.000000000000000000e+00 1.000000000000000000e+00 1.000000000000000000e+00 1.000000000000000000e+00 1.000000000000000000e+00 1.000000000000000000e+00 1.000000000000000000e+00 1.000000000000000000e+00 1.000000000000000000e+00 1.000000000000000000e+00 1.000000000000000000e+00 1.000000000000000000e+00 1.000000000000000000e+00 1.000000000000000000e+00 1.000000000000000000e+00 1.000000000000000000e+00 1.000000000000000000e+00 1.000000000000000000e+00 1.000000000000000000e+00 1.000000000000000000e+00 1.000000000000000000e+00 1.000000000000000000e+00 1.000000000000000000e+00 1.000000000000000000e+00 1.000000000000000000e+00 1.000000000000000000e+00 1.000000000000000000e+00 1.000000000000000000e+00 1.000000000000000000e+00 1.000000000000000000e+00 1.000000000000000000e+00 1.000000000000000000e+00 1.000000000000000000e+00 1.000000000000000000e+00 1.000000000000000000e+00 1.000000000000000000e+00 1.000000000000000000e+00 1.000000000000000000e+00 1.000000000000000000e+00 1.000000000000000000e+00 1.000000000000000000e+00 1.000000000000000000e+00 1.000000000000000000e+00 1.000000000000000000e+00 1.000000000000000000e+00 1.000000000000000000e+00 1.000000000000000000e+00 1.000000000000000000e+00 1.000000000000000000e+00 1.000000000000000000e+00 1.000000000000000000e+00 1.000000000000000000e+00 1.000000000000000000e+00 1.000000000000000000e+00 1.000000000000000000e+00 1.000000000000000000e+00 1.000000000000000000e+00 1.000000000000000000e+00 1.000000000000000000e+00 1.000000000000000000e+00 1.000000000000000000e+00 1.000000000000000000e+00 1.000000000000000000e+00 1.000000000000000000e+00 1.000000000000000000e+00 1.000000000000000000e+00 1.000000000000000000e+00 1.000000000000000000e+00 1.000000000000000000e+00 1.000000000000000000e+00 1.000000000000000000e+00 1.000000000000000000e+00 1.000000000000000000e+00 1.000000000000000000e+00 1.000000000000000000e+00 1.000000000000000000e+00 1.000000000000000000e+00 1.000000000000000000e+00 1.000000000000000000e+00 1.000000000000000000e+00 1.000000000000000000e+00 1.000000000000000000e+00 1.000000000000000000e+00 1.000000000000000000e+00 1.000000000000000000e+00 1.000000000000000000e+00 1.000000000000000000e+00 1.000000000000000000e+00 1.000000000000000000e+00 1.000000000000000000e+00 1.000000000000000000e+00 1.000000000000000000e+00 1.000000000000000000e+00 1.000000000000000000e+00 1.000000000000000000e+00 1.000000000000000000e+00 1.000000000000000000e+00 1.000000000000000000e+00 1.000000000000000000e+00 1.000000000000000000e+00 1.000000000000000000e+00 1.000000000000000000e+00 1.000000000000000000e+00 1.000000000000000000e+00 1.000000000000000000e+00 1.000000000000000000e+00 1.000000000000000000e+00 1.000000000000000000e+00 1.000000000000000000e+00 1.000000000000000000e+00 1.000000000000000000e+00 1.000000000000000000e+00 1.000000000000000000e+00 1.000000000000000000e+00 1.000000000000000000e+00 1.000000000000000000e+00 1.000000000000000000e+00 1.000000000000000000e+00 1.000000000000000000e+00 1.000000000000000000e+00 1.000000000000000000e+00 1.000000000000000000e+00 1.000000000000000000e+00 1.000000000000000000e+00 1.000000000000000000e+00 1.000000000000000000e+00 1.000000000000000000e+00 1.000000000000000000e+00 1.000000000000000000e+00 1.000000000000000000e+00 1.000000000000000000e+00 1.000000000000000000e+00 1.000000000000000000e+00 1.000000000000000000e+00 1.000000000000000000e+00 1.000000000000000000e+00 1.000000000000000000e+00 1.000000000000000000e+00 1.000000000000000000e+00 1.000000000000000000e+00 1.000000000000000000e+00 1.000000000000000000e+00 1.000000000000000000e+00 1.000000000000000000e+00 1.000000000000000000e+00 1.000000000000000000e+00 1.000000000000000000e+00 1.000000000000000000e+00 1.000000000000000000e+00 1.000000000000000000e+00 1.000000000000000000e+00 1.000000000000000000e+00 1.000000000000000000e+00 1.000000000000000000e+00 1.000000000000000000e+00 1.000000000000000000e+00 1.000000000000000000e+00 1.000000000000000000e+00 1.000000000000000000e+00 1.000000000000000000e+00 1.000000000000000000e+00 1.000000000000000000e+00 1.000000000000000000e+00 1.000000000000000000e+00 1.000000000000000000e+00 1.000000000000000000e+00 1.000000000000000000e+00 1.000000000000000000e+00 1.000000000000000000e+00 1.000000000000000000e+00 1.000000000000000000e+00 1.000000000000000000e+00 1.000000000000000000e+00 1.000000000000000000e+00 1.000000000000000000e+00 1.000000000000000000e+00 1.000000000000000000e+00 1.000000000000000000e+00 1.000000000000000000e+00 1.000000000000000000e+00 1.000000000000000000e+00 1.000000000000000000e+00 1.000000000000000000e+00 1.000000000000000000e+00 1.000000000000000000e+00 1.000000000000000000e+00 1.000000000000000000e+00 1.000000000000000000e+00 1.000000000000000000e+00 1.000000000000000000e+00 1.000000000000000000e+00 1.000000000000000000e+00 1.000000000000000000e+00 1.000000000000000000e+00 1.000000000000000000e+00 1.000000000000000000e+00 1.000000000000000000e+00 1.000000000000000000e+00 1.000000000000000000e+00 1.000000000000000000e+00 1.000000000000000000e+00 1.000000000000000000e+00 1.000000000000000000e+00 1.000000000000000000e+00 1.000000000000000000e+00 1.000000000000000000e+00 1.000000000000000000e+00 1.000000000000000000e+00 1.000000000000000000e+00 1.000000000000000000e+00 1.000000000000000000e+00 1.000000000000000000e+00 1.000000000000000000e+00 1.000000000000000000e+00 1.000000000000000000e+00 1.000000000000000000e+00 1.000000000000000000e+00 1.000000000000000000e+00 1.000000000000000000e+00 1.000000000000000000e+00 1.000000000000000000e+00 1.000000000000000000e+00 1.000000000000000000e+00 1.000000000000000000e+00 1.000000000000000000e+00 1.000000000000000000e+00 1.000000000000000000e+00 1.000000000000000000e+00 1.000000000000000000e+00 1.000000000000000000e+00 1.000000000000000000e+00 1.000000000000000000e+00 1.000000000000000000e+00 1.000000000000000000e+00 1.000000000000000000e+00 1.000000000000000000e+00 1.000000000000000000e+00 1.000000000000000000e+00 1.000000000000000000e+00 1.000000000000000000e+00 1.000000000000000000e+00 1.000000000000000000e+00 1.000000000000000000e+00 1.000000000000000000e+00 1.000000000000000000e+00 1.000000000000000000e+00 1.000000000000000000e+00 1.000000000000000000e+00 1.000000000000000000e+00 1.000000000000000000e+00 1.000000000000000000e+00 1.000000000000000000e+00 1.000000000000000000e+00 1.000000000000000000e+00 1.000000000000000000e+00 1.000000000000000000e+00 1.000000000000000000e+00 1.000000000000000000e+00 1.000000000000000000e+00 1.000000000000000000e+00 1.000000000000000000e+00 1.000000000000000000e+00 1.000000000000000000e+00 1.000000000000000000e+00 1.000000000000000000e+00 1.000000000000000000e+00 1.000000000000000000e+00 1.000000000000000000e+00 1.000000000000000000e+00 1.000000000000000000e+00 1.000000000000000000e+00 1.000000000000000000e+00 1.000000000000000000e+00 1.000000000000000000e+00 1.000000000000000000e+00 1.000000000000000000e+00 1.000000000000000000e+00 1.000000000000000000e+00 1.000000000000000000e+00 1.000000000000000000e+00 1.000000000000000000e+00 1.000000000000000000e+00 1.000000000000000000e+00 1.000000000000000000e+00 1.000000000000000000e+00 1.000000000000000000e+00 1.000000000000000000e+00 1.000000000000000000e+00 1.000000000000000000e+00 1.000000000000000000e+00 1.000000000000000000e+00 1.000000000000000000e+00 1.000000000000000000e+00 1.000000000000000000e+00 1.000000000000000000e+00 1.000000000000000000e+00 1.000000000000000000e+00 1.000000000000000000e+00 1.000000000000000000e+00 1.000000000000000000e+00 1.000000000000000000e+00 1.000000000000000000e+00 1.000000000000000000e+00 1.000000000000000000e+00 1.000000000000000000e+00 1.000000000000000000e+00 1.000000000000000000e+00 1.000000000000000000e+00 1.000000000000000000e+00 1.000000000000000000e+00 1.000000000000000000e+00 1.000000000000000000e+00 1.000000000000000000e+00 1.000000000000000000e+00 1.000000000000000000e+00 1.000000000000000000e+00 1.000000000000000000e+00 1.000000000000000000e+00 1.000000000000000000e+00 1.000000000000000000e+00 1.000000000000000000e+00 1.000000000000000000e+00 1.000000000000000000e+00 1.000000000000000000e+00 1.000000000000000000e+00 1.000000000000000000e+00 1.000000000000000000e+00 1.000000000000000000e+00 1.000000000000000000e+00 1.000000000000000000e+00 1.000000000000000000e+00 1.000000000000000000e+00 1.000000000000000000e+00 1.000000000000000000e+00 1.000000000000000000e+00 1.000000000000000000e+00 1.000000000000000000e+00 1.000000000000000000e+00 1.000000000000000000e+00 1.000000000000000000e+00 1.000000000000000000e+00 1.000000000000000000e+00 1.000000000000000000e+00 1.000000000000000000e+00 1.000000000000000000e+00 1.000000000000000000e+00 1.000000000000000000e+00 1.000000000000000000e+00 1.000000000000000000e+00 1.000000000000000000e+00 1.000000000000000000e+00 1.000000000000000000e+00 1.000000000000000000e+00 1.000000000000000000e+00 1.000000000000000000e+00 1.000000000000000000e+00 1.000000000000000000e+00 1.000000000000000000e+00 1.000000000000000000e+00 1.000000000000000000e+00 1.000000000000000000e+00 1.000000000000000000e+00 1.000000000000000000e+00 1.000000000000000000e+00 1.000000000000000000e+00 1.000000000000000000e+00 1.000000000000000000e+00 1.000000000000000000e+00 1.000000000000000000e+00 1.000000000000000000e+00 1.000000000000000000e+00 1.000000000000000000e+00 1.000000000000000000e+00 1.000000000000000000e+00 1.000000000000000000e+00 1.000000000000000000e+00 1.000000000000000000e+00 1.000000000000000000e+00 1.000000000000000000e+00 1.000000000000000000e+00 1.000000000000000000e+00 1.000000000000000000e+00 1.000000000000000000e+00 1.000000000000000000e+00 1.000000000000000000e+00 1.000000000000000000e+00 1.000000000000000000e+00 1.000000000000000000e+00 1.000000000000000000e+00 1.000000000000000000e+00 1.000000000000000000e+00 1.000000000000000000e+00 1.000000000000000000e+00 1.000000000000000000e+00 1.000000000000000000e+00 1.000000000000000000e+00 1.000000000000000000e+00 1.000000000000000000e+00 1.000000000000000000e+00 1.000000000000000000e+00 1.000000000000000000e+00 1.000000000000000000e+00 1.000000000000000000e+00 1.000000000000000000e+00 1.000000000000000000e+00 1.000000000000000000e+00 1.000000000000000000e+00 1.000000000000000000e+00 1.000000000000000000e+00 1.000000000000000000e+00 1.000000000000000000e+00 1.000000000000000000e+00 1.000000000000000000e+00 1.000000000000000000e+00 1.000000000000000000e+00 1.000000000000000000e+00 1.000000000000000000e+00 1.000000000000000000e+00 1.000000000000000000e+00 1.000000000000000000e+00 1.000000000000000000e+00 1.000000000000000000e+00 1.000000000000000000e+00 1.000000000000000000e+00 1.000000000000000000e+00 1.000000000000000000e+00 1.000000000000000000e+00 1.000000000000000000e+00 1.000000000000000000e+00 1.000000000000000000e+00 1.000000000000000000e+00 1.000000000000000000e+00 1.000000000000000000e+00 1.000000000000000000e+00 1.000000000000000000e+00 1.000000000000000000e+00 1.000000000000000000e+00 1.000000000000000000e+00 1.000000000000000000e+00 1.000000000000000000e+00 1.000000000000000000e+00 1.000000000000000000e+00 1.000000000000000000e+00 1.000000000000000000e+00 1.000000000000000000e+00 1.000000000000000000e+00 1.000000000000000000e+00 1.000000000000000000e+00 1.000000000000000000e+00 1.000000000000000000e+00 1.000000000000000000e+00 1.000000000000000000e+00 1.000000000000000000e+00 1.000000000000000000e+00 1.000000000000000000e+00 1.000000000000000000e+00 1.000000000000000000e+00 1.000000000000000000e+00 1.000000000000000000e+00 1.000000000000000000e+00 1.000000000000000000e+00 1.000000000000000000e+00 1.000000000000000000e+00 1.000000000000000000e+00 1.000000000000000000e+00 1.000000000000000000e+00 1.000000000000000000e+00 1.000000000000000000e+00 1.000000000000000000e+00 1.000000000000000000e+00 1.000000000000000000e+00 1.000000000000000000e+00 1.000000000000000000e+00 1.000000000000000000e+00 1.000000000000000000e+00 1.000000000000000000e+00 1.000000000000000000e+00 1.000000000000000000e+00 1.000000000000000000e+00 1.000000000000000000e+00 1.000000000000000000e+00 1.000000000000000000e+00 1.000000000000000000e+00 1.000000000000000000e+00 1.000000000000000000e+00 1.000000000000000000e+00 1.000000000000000000e+00 1.000000000000000000e+00 1.000000000000000000e+00 1.000000000000000000e+00 1.000000000000000000e+00 1.000000000000000000e+00 1.000000000000000000e+00 1.000000000000000000e+00 1.000000000000000000e+00 1.000000000000000000e+00 1.000000000000000000e+00 1.000000000000000000e+00 1.000000000000000000e+00 1.000000000000000000e+00 1.000000000000000000e+00 1.000000000000000000e+00 1.000000000000000000e+00 1.000000000000000000e+00 1.000000000000000000e+00 1.000000000000000000e+00 1.000000000000000000e+00 1.000000000000000000e+00 1.000000000000000000e+00 1.000000000000000000e+00 1.000000000000000000e+00 1.000000000000000000e+00 1.000000000000000000e+00 1.000000000000000000e+00 1.000000000000000000e+00 1.000000000000000000e+00 1.000000000000000000e+00 1.000000000000000000e+00 1.000000000000000000e+00 1.000000000000000000e+00 1.000000000000000000e+00 1.000000000000000000e+00 1.000000000000000000e+00 1.000000000000000000e+00 1.000000000000000000e+00 1.000000000000000000e+00 1.000000000000000000e+00 1.000000000000000000e+00 1.000000000000000000e+00 1.000000000000000000e+00 1.000000000000000000e+00 1.000000000000000000e+00 1.000000000000000000e+00 1.000000000000000000e+00 1.000000000000000000e+00 1.000000000000000000e+00 1.000000000000000000e+00 1.000000000000000000e+00 1.000000000000000000e+00 1.000000000000000000e+00 1.000000000000000000e+00 1.000000000000000000e+00 1.000000000000000000e+00 1.000000000000000000e+00 1.000000000000000000e+00 1.000000000000000000e+00 1.000000000000000000e+00 1.000000000000000000e+00 1.000000000000000000e+00 1.000000000000000000e+00 1.000000000000000000e+00 1.000000000000000000e+00 1.000000000000000000e+00 1.000000000000000000e+00 1.000000000000000000e+00 1.000000000000000000e+00 1.000000000000000000e+00 1.000000000000000000e+00 1.000000000000000000e+00 1.000000000000000000e+00 1.000000000000000000e+00 1.000000000000000000e+00 1.000000000000000000e+00 1.000000000000000000e+00 1.000000000000000000e+00 1.000000000000000000e+00 1.000000000000000000e+00 1.000000000000000000e+00 1.000000000000000000e+00 1.000000000000000000e+00 1.000000000000000000e+00 1.000000000000000000e+00 1.000000000000000000e+00 1.000000000000000000e+00 1.000000000000000000e+00 1.000000000000000000e+00 1.000000000000000000e+00 1.000000000000000000e+00 1.000000000000000000e+00 1.000000000000000000e+00 1.000000000000000000e+00 1.000000000000000000e+00 1.000000000000000000e+00 1.000000000000000000e+00 1.000000000000000000e+00 1.000000000000000000e+00 1.000000000000000000e+00 1.000000000000000000e+00 1.000000000000000000e+00 1.000000000000000000e+00 1.000000000000000000e+00 1.000000000000000000e+00 1.000000000000000000e+00 1.000000000000000000e+00 1.000000000000000000e+00 1.000000000000000000e+00 1.000000000000000000e+00 1.000000000000000000e+00 1.000000000000000000e+00 1.000000000000000000e+00 1.000000000000000000e+00 1.000000000000000000e+00 1.000000000000000000e+00 1.000000000000000000e+00 1.000000000000000000e+00 1.000000000000000000e+00 1.000000000000000000e+00 1.000000000000000000e+00 1.000000000000000000e+00 1.000000000000000000e+00 1.000000000000000000e+00 1.000000000000000000e+00 1.000000000000000000e+00 1.000000000000000000e+00 1.000000000000000000e+00 1.000000000000000000e+00 1.000000000000000000e+00 1.000000000000000000e+00 1.000000000000000000e+00 1.000000000000000000e+00 1.000000000000000000e+00 1.000000000000000000e+00 1.000000000000000000e+00 1.000000000000000000e+00 1.000000000000000000e+00 1.000000000000000000e+00 1.000000000000000000e+00 1.000000000000000000e+00 1.000000000000000000e+00 1.000000000000000000e+00 1.000000000000000000e+00 1.000000000000000000e+00 1.000000000000000000e+00 1.000000000000000000e+00 1.000000000000000000e+00 1.000000000000000000e+00 1.000000000000000000e+00 1.000000000000000000e+00 1.000000000000000000e+00 1.000000000000000000e+00 1.000000000000000000e+00 1.000000000000000000e+00 1.000000000000000000e+00 1.000000000000000000e+00 1.000000000000000000e+00 1.000000000000000000e+00 1.000000000000000000e+00 1.000000000000000000e+00 1.000000000000000000e+00 1.000000000000000000e+00 1.000000000000000000e+00 1.000000000000000000e+00 1.000000000000000000e+00 1.000000000000000000e+00 1.000000000000000000e+00 1.000000000000000000e+00 1.000000000000000000e+00 1.000000000000000000e+00 1.000000000000000000e+00 1.000000000000000000e+00 1.000000000000000000e+00 1.000000000000000000e+00 1.000000000000000000e+00 1.000000000000000000e+00 1.000000000000000000e+00 1.000000000000000000e+00 1.000000000000000000e+00 1.000000000000000000e+00 1.000000000000000000e+00 1.000000000000000000e+00 1.000000000000000000e+00 1.000000000000000000e+00 1.000000000000000000e+00 1.000000000000000000e+00 1.000000000000000000e+00 1.000000000000000000e+00 1.000000000000000000e+00 1.000000000000000000e+00 1.000000000000000000e+00 1.000000000000000000e+00 1.000000000000000000e+00 1.000000000000000000e+00 1.000000000000000000e+00 1.000000000000000000e+00 1.000000000000000000e+00 1.000000000000000000e+00 1.000000000000000000e+00 1.000000000000000000e+00 1.000000000000000000e+00 1.000000000000000000e+00 1.000000000000000000e+00 1.000000000000000000e+00 1.000000000000000000e+00 1.000000000000000000e+00 1.000000000000000000e+00 1.000000000000000000e+00 1.000000000000000000e+00 1.000000000000000000e+00 1.000000000000000000e+00 1.000000000000000000e+00 1.000000000000000000e+00 1.000000000000000000e+00 1.000000000000000000e+00 1.000000000000000000e+00 1.000000000000000000e+00 1.000000000000000000e+00 1.000000000000000000e+00 1.000000000000000000e+00 1.000000000000000000e+00 1.000000000000000000e+00 1.000000000000000000e+00 1.000000000000000000e+00 1.000000000000000000e+00 1.000000000000000000e+00 1.000000000000000000e+00 1.000000000000000000e+00 1.000000000000000000e+00 1.000000000000000000e+00 1.000000000000000000e+00 1.000000000000000000e+00 1.000000000000000000e+00 1.000000000000000000e+00 1.000000000000000000e+00 1.000000000000000000e+00 1.000000000000000000e+00 1.000000000000000000e+00 1.000000000000000000e+00 1.000000000000000000e+00 1.000000000000000000e+00 1.000000000000000000e+00 1.000000000000000000e+00 1.000000000000000000e+00 1.000000000000000000e+00 1.000000000000000000e+00 1.000000000000000000e+00 1.000000000000000000e+00 1.000000000000000000e+00 1.000000000000000000e+00 1.000000000000000000e+00 1.000000000000000000e+00 1.000000000000000000e+00 1.000000000000000000e+00 1.000000000000000000e+00 1.000000000000000000e+00 1.000000000000000000e+00 1.000000000000000000e+00 1.000000000000000000e+00 1.000000000000000000e+00 1.000000000000000000e+00 1.000000000000000000e+00 1.000000000000000000e+00 1.000000000000000000e+00 1.000000000000000000e+00 1.000000000000000000e+00 1.000000000000000000e+00 1.000000000000000000e+00 1.000000000000000000e+00 1.000000000000000000e+00 1.000000000000000000e+00 1.000000000000000000e+00 1.000000000000000000e+00 1.000000000000000000e+00 1.000000000000000000e+00 1.000000000000000000e+00 1.000000000000000000e+00 1.000000000000000000e+00 1.000000000000000000e+00 1.000000000000000000e+00 1.000000000000000000e+00 1.000000000000000000e+00 1.000000000000000000e+00 1.000000000000000000e+00 1.000000000000000000e+00 1.000000000000000000e+00 1.000000000000000000e+00 1.000000000000000000e+00 1.000000000000000000e+00 1.000000000000000000e+00 1.000000000000000000e+00 1.000000000000000000e+00 1.000000000000000000e+00 1.000000000000000000e+00 1.000000000000000000e+00 1.000000000000000000e+00 1.000000000000000000e+00 1.000000000000000000e+00 1.000000000000000000e+00 1.000000000000000000e+00 1.000000000000000000e+00 1.000000000000000000e+00 1.000000000000000000e+00 1.000000000000000000e+00 1.000000000000000000e+00 1.000000000000000000e+00 1.000000000000000000e+00 1.000000000000000000e+00 1.000000000000000000e+00 1.000000000000000000e+00 1.000000000000000000e+00 1.000000000000000000e+00 1.000000000000000000e+00 1.000000000000000000e+00 1.000000000000000000e+00 1.000000000000000000e+00 1.000000000000000000e+00 1.000000000000000000e+00 1.000000000000000000e+00 1.000000000000000000e+00 1.000000000000000000e+00 1.000000000000000000e+00 1.000000000000000000e+00 1.000000000000000000e+00 1.000000000000000000e+00 1.000000000000000000e+00 1.000000000000000000e+00 1.000000000000000000e+00 1.000000000000000000e+00 1.000000000000000000e+00 1.000000000000000000e+00 1.000000000000000000e+00 1.000000000000000000e+00 1.000000000000000000e+00 1.000000000000000000e+00 1.000000000000000000e+00 1.000000000000000000e+00 1.000000000000000000e+00 1.000000000000000000e+00 1.000000000000000000e+00 1.000000000000000000e+00 1.000000000000000000e+00 1.000000000000000000e+00 1.000000000000000000e+00 1.000000000000000000e+00 1.000000000000000000e+00 1.000000000000000000e+00 1.000000000000000000e+00 1.000000000000000000e+00 1.000000000000000000e+00 1.000000000000000000e+00
4.754156474229527529e-02 5.046370178162088438e-01 -2.657071191297273871e-01 7.665706759077060006e-01 5.204221313384477243e-01 5.205695942344600313e-01 5.908515953441616508e-01 3.429562483301907827e-01 5.552596294829603707e-01 5.205791975969880081e-01 1.083926254839470582e+00 -7.159920038717140223e-01 1.415150135218691929e+00 4.620276789986709209e-01 5.190945782638153316e-01 4.065218780152549116e-01 8.598153462613223885e-01 9.794448443668934967e-01 7.351168478578093968e-01 5.143615340399955160e-01 3.737512796970661744e-01 9.897326705786406720e-01 3.735449005427624591e-01 5.295186737470044536e-01 7.782744755024496863e-02 6.675426482397259775e-01 3.948529931918440816e-01 6.965242957920929623e-01 5.421163177957120105e-01 1.608737969307508120e+00 4.981761089102594298e-01 6.068930162261811923e-01 7.187232023237497547e-01 5.235753011644551647e-01 6.970770522956218906e-01 4.564747144104721044e-01 5.401481401391363679e-01 1.829321588448656666e+00 -8.225133084092757507e-02 5.188206824046545096e-01 -2.007828259919241520e-01 -5.620825979547283691e-01 7.474947038154098333e-01 2.290786592074495198e-01 3.068540255167526154e-01 4.935897691388467790e-01 7.666073478458521606e-01 5.128871060775711532e-01 6.532909696861772808e-01 1.138075179746812250e-02 2.796880848437617237e-02 7.878309963871815702e-01 6.802571041437304178e-01 4.265738910907668768e-01 4.614797490420221582e-01 1.934565615759475943e-02 5.380951385998411496e-01 5.148950426303258165e-01 1.962280852124534125e-01 5.110530543452108665e-01 9.222070332037904938e-01 4.849925959439793655e-01 5.134659078368795093e-01 3.735448884575836570e-01 6.778908601631553621e-01 6.267116937666308285e-01 5.105867773242058760e-01 3.673500176823350505e-01 5.657060145851988686e-01 2.802838195047011385e-02 4.424926670644594995e-01 5.925984005463839077e-01 5.241122703001590555e-01 9.248893047282422120e-03 1.518470382854415934e+00 5.427833241896621308e-01 6.369791421351513883e-01 7.237297411081119458e-01 5.195417163231988988e-01 1.386572714126489192e+00 5.416475080172927781e-01 3.386461344343062452e-01 1.429180713178702655e+00 7.470581319133481335e-01 5.081639984593137038e-01 7.534323612785599478e-01 7.992197113486748661e-01 5.436369459631938961e-01 4.199673677414446638e-01 5.763757354683283207e-01 3.044018848928804477e-01 2.211140471258747020e+00 7.714529152077953533e-01 2.656032932875966243e-02 4.801302187933157994e-01 4.863129647725833449e-01 5.644140728198951962e-01 4.812589499650347658e-01 1.898379410638706410e-01 6.579750695877475408e-01 1.628650727270546605e+00 6.889499048218395982e-01 5.430535722451591552e-01 6.405442795592251048e-01 8.578261736521235470e-01 -2.112301995665367471e+00 -1.236636447051919996e+00 5.315883952792805900e-01 6.120666395479424926e-01 9.695324510896096148e-01 5.836845694412037266e-01 4.266701817036779310e-01 1.750223157290237141e-01 5.004085187503650722e-01 5.255304365243268494e-01 4.958399227104274831e-01 4.660603500931714271e-01 5.147601106895267620e-01 9.685356959765594187e-01 5.086583233124046810e-01 1.311962363642852347e+00 5.435342618487581934e-01 6.213888746223650283e-01 -5.005562557144787039e-01 5.221087389455012495e-01 1.964786328499951384e+00 5.350181668666710300e-01 5.418483194534753355e-01 6.791336621718183642e-01 5.314502584592031287e-01 5.565482119967264385e-01 5.186943609233058972e-01 4.310098956702422823e-01 4.220494102448473783e-01 -3.429965254281678311e-01 -1.711068997129418789e-01 6.615166995296594132e-01 5.398695088279439891e-02 1.006252024780786236e+00 5.862386685345916115e-01 5.080757851476028764e-01 8.707102772148794800e-01 5.385651507612608802e-01 5.208498494777801247e-01 5.170586706855517800e-01 4.368835381388472272e-02 9.518138612309232638e-01 -1.008299937693305642e-01 4.320458841841891551e-01 -9.104801998749809666e-01 7.604037939659736844e-01 -2.891453820555034415e-01 4.936072260306622606e-01 5.586001580222261786e-01 4.788857197706661295e-01 5.168065122090114150e-01 2.000460240033837600e+00 -1.409357669776620248e-01 8.211639472086506020e-01 6.721367322788041054e-01 5.478544311612711937e-01 4.280481823541444908e-01 5.154330614024793533e-01 5.174171935170206460e-01 1.072499652517565405e+00 2.246697451307773652e-01 8.518584697196921462e-01 3.299193925127448246e-01 4.247496291054360662e-01 6.567558530440167353e-01 5.670710010453510197e-01 7.676494951542458534e-01 4.935457403239410512e-01 5.206295570530479200e-01 4.036284625372749679e-01 4.720877624686202478e-02 2.084700991817522719e-01 1.011738885112060948e-01 7.530014929447846894e-01 1.143407408997145547e+00 6.816722148982846674e-01 5.181324814975903914e-01 -1.713134435441559522e-01 4.378806017621354463e-01 5.476428979878186221e-01 5.562601625654294279e-01 5.147850175336400325e-01 5.289314919707801543e-01 2.836787964622045966e+00 5.046308624882412941e-01 5.568380285503421456e-01 -9.108063060287786561e-01 5.443869670443642894e-01 5.224802079546885247e-01 1.957552881613355833e-01 5.172545298407484893e-01 9.413778977005782256e-01 5.152723669571068754e-01 5.108711650811871285e-01 4.982026933389477885e-01 6.320643291982983580e-01 4.990673985029097648e-01 8.815673623700511774e-01 6.018695994185756515e-01 5.432149854475173401e-01 5.108712224866255314e-01 2.153606134031620101e-01 1.295985851520572441e+00 5.616121700662100036e-01 4.397413640426416359e-01 4.253613557894296293e-01 -9.138572225060465071e-02 4.913446341033829157e-01 1.558751848687138508e-01 5.248207331565527545e-01 5.229314056302798441e-01 5.212395739047900323e-01 5.192130374716764640e-01 5.175336825848270150e-01 5.212717751043031145e-01 4.377591498198862285e-01 5.734507756970873560e-01 -7.159131926424954218e-01 6.161397761809754847e-01 4.296580545348874236e-01 3.620462090119099252e-01 4.390426776639092671e-02 1.325659040933019561e+00 9.669424993450500549e-01 4.930409342184877142e-01 -1.026396041775114176e-01 1.062573520239963543e+00 5.168166485863853188e-01 4.558245119799085310e-01 6.357342782005416248e-01 4.092087524779752239e-01 2.827943108461686839e-01 1.729682750273764946e-01 -1.608485712932243572e-01 -7.976718570092733440e-02 4.526230110543041918e-01 5.176286006312718069e-01 -1.139921789897830467e-01 4.304346236967099837e-01 5.211971154868452194e-01 5.047025227343669984e-01 -9.605556940840269398e-02 7.587603518939547431e-01 -2.335112902143904545e+00 6.167878833188599197e-01 -6.406271487043230239e-01 4.986775948395580915e-01 5.203756413670576064e-01 3.735466014212180941e-01 4.795791461225679675e-01 5.648108773380129399e-01 5.376501568379219442e-01 7.763194861433279081e-01 5.642590640216571529e-01 1.697625972876851685e+00 6.819409376190708194e-01 6.848438998136695544e-01 4.615546835515995650e-01 3.784606504917241154e-01 9.222070000740150153e-01 4.442332938341285731e-01 2.715887504267676444e+00 4.700976223230393103e-01 2.255097032578002036e-01 7.525385578581339496e-01 5.049287741543037056e-01 9.228351020460145993e-01 5.178024948236449321e-01 5.765264628635232702e-01 5.194901675766571136e-01 1.129902868425492146e+00 7.692880320256387794e-01 8.591820912957536249e-01 8.050914391894913313e-01 5.538733966287983090e-01 6.826170170443067731e-01 5.126574291334329292e-01 3.780873922351632443e-01 -7.367802355478452192e-01 3.887277005220964310e-01 5.081573644719714622e-01 5.622539830437827124e-01 5.452267170284160747e-01 4.958399530286337620e-01 6.097969402464892275e-01 5.440459251102210958e-01 -8.878235104556565505e-01 7.461887750727134172e-01 5.365954388342613068e-01 -4.796262451698113730e-03 4.984494291294638280e-01 1.855866364215217112e+00 5.065714906606143542e-01 5.198598249310371067e-01 4.320520781864165549e-01 -3.467019868545393457e+00 5.189011374394161269e-01 2.889111594022040652e+00 7.670207228021276302e-01 4.975096352230624075e-01 -5.733043869089837763e-01 5.142339261135755457e-01 5.186726843827386135e-01 4.470199162619543087e-01 4.500093103627566538e-01 3.476033723335162362e-01 6.474744512702450550e-01 3.140418397258191718e-01 5.230411407380159972e-01 5.239136868645846157e-01 3.513111574147163574e-01 5.088468363967780794e-01 7.666580857827250961e-01 5.183744912206382782e-01 1.207679383908411452e+00 2.403740675984314054e-02 2.231516533652696310e+00 2.665021700971101470e+00 4.962021330475788750e-01 -2.265382512236434609e-01 3.955737346017139666e-01 4.003156491423267016e-01 7.376746919302589189e-01 1.388839240079776660e+00 5.330883313462657647e-01 1.131899287596164427e+00 5.184317289575210985e-01 1.207814023672302423e-01 1.258287729023584323e+00 5.120310090859450103e-01 5.536873836576797769e-01 5.161640455960888607e-01 9.050282795863320295e-01 -3.790925463193396627e+00 1.648507640377535388e+00 5.133957427487012559e-01 6.362722750407088235e-01 5.179864716024054072e-01 1.829321587426397722e+00 2.992220093108844958e-01 5.591815736437648621e-01 5.036881400136762332e-01 5.441188502255530635e-01 1.373708134255593016e+00 5.503849237735466415e-01 5.108714660899438265e-01 4.304322679383307815e-01 6.018695964601041837e-01 4.831691440560966222e-01 5.700235731450854493e-01 9.008272388816574994e-01 5.190342139023315093e-01 3.825630485619053722e-01 1.609545386729584471e-01 6.610449355886094391e-01 5.203948373962938856e-01 3.215911707709245837e-01 5.591815564527801152e-01 6.421934194954269648e-01 5.241388174437556779e-01 1.036312613225978341e+00 9.533794934099777407e-01 1.150078065732184962e+00 5.238161881305060108e-01 2.185558080699235850e-01 9.222063315376313186e-01 -1.096241494662540672e-01 9.336408480786362318e-01 6.300919454953437526e-01 2.500731789704441557e-02 5.217615168476894549e-01 9.226799874208397867e-01 3.856664672815280914e-01 4.935005053923350316e-01 2.995447689823523829e-01 -3.382815135796116701e-01 -2.500264205735375889e+00 5.079157052755758350e-01 6.018695951124373167e-01 6.018695781864863426e-01 5.027209410128928857e-01 3.786266354197445061e-01 -2.305603707260086843e-01 2.933136105205521038e-01 5.243459846354622256e-01 7.087868426803728417e-01 5.205530216036710067e-01 1.033224602960910898e+00 5.108707559004569410e-01 5.197563548265292654e-01 4.903790267443701723e-01 2.815524808130799861e-01 6.593457538319147382e-01 5.089381724780576155e-01 5.212049406546119812e-01 5.137344776999600571e-01 3.032799926800845425e-01 1.628704274330834006e-02 6.018695954474861942e-01 6.625820680960711195e-01 5.187515301589518124e-01 3.973108894566331761e-01 8.597157060856263078e-01 7.465402177200137768e-01 5.642331405991583004e-01 1.893156204414581101e+00 4.982479678296221626e-01 -3.142750716906765440e+00 7.669243290158274107e-01 1.535906622805755850e+00 5.872902095831674663e-01 -1.095398077722465668e+00 8.143253361108044874e-01 4.402325274143488731e-01 5.291213738273227163e-01 4.996816372623398839e-01 -3.971173907757910571e-01 5.115651260481989260e-01 1.074667808683559267e+00 4.678879462742505102e-01 -3.858631851655255907e-01 5.128017711223719077e-01 5.163282859019588944e-01 7.905375976316787456e-01 4.878124519310573781e-01 5.882810131991706992e-01 -5.373763752238366331e-01 5.610949924401663624e-01 5.170668316271659348e-01 5.938900633243319183e-01 5.103513091005895674e-01 7.691608870871559089e-01 5.180700901177018869e-01 6.162064285835854305e-01 5.203387588917433026e-01 5.070841073311378455e-01 2.590104225518604641e-01 3.152301931400446344e-01 3.496877355947169419e-01 9.685271425789375721e-01 5.551938611960184344e-01 3.233187899487445449e+00 6.574703466413576169e-01 6.538383795667520593e-01 5.487234013773584218e-01 5.698289115225894097e-01 2.234123963221545245e-02 4.909818280849437278e-01 5.014889446150994079e-01 5.220190784280851481e-01 1.159282901793488252e+00 7.689856564868547961e-01 5.207907749571029088e-01 4.397457111246281802e-01 1.118929934066192899e+00 5.321853586744381692e-01 5.705245047581951612e-01 4.965138454226012965e-01 8.243903361952906739e-01 5.141536012449690052e-01 9.404242728861186285e-01 5.314710287965069835e-01 5.187454445210007981e-01 2.455068027846669595e-02 5.330902285252018258e-01 8.462794401105325215e-03 3.057828912665833676e-01 4.026207054459121082e-01 5.784529957999697825e-01 7.851342337891776824e-01 5.051950411351011638e-01 3.859627783581403571e-01 9.995432877579009390e-02 5.038043225029905647e-01 5.401237150969836476e-01 4.476175483005592759e-01 2.027449152584608755e-02 5.183908862444528420e-01 2.544077970013183254e-01 5.191364618072019654e-01 4.111676737928903758e-01 1.261533756960606212e+00 7.660167385724709899e-01 5.115745482847779968e-01 2.517299955115432364e-01 7.669127104052361199e-01 4.391275588291042031e-01 9.990565295571940396e-01 5.943288951586950253e-01 6.152986101889466042e-01 7.019226811376695352e-01 2.014180338914508983e+00 4.774257356473614045e-01 5.125301132911853630e-01 5.105729606241410368e-01 7.459639165764703206e-01 5.903159915869051755e-01 8.584305612477158842e-01 -5.802404196008944526e-01 3.785732082515634311e-01 5.167448262473001153e-01 4.305247215174608511e-01 4.034791501763546062e-01 -6.296588121758625034e-01 3.863713402704741506e-01 5.221431164415513138e-01 7.303203617775642087e-01 6.686699206794234351e-01 1.522423034857123714e+00 5.220212162215734919e-01 5.207891142259614137e-01 -7.206329654508804028e-01 5.173028527192663484e-01 1.234010091792187014e+00 7.184753330134366900e-01 2.814159192238141483e-01 2.440012631211553040e-01 -1.777412269349506246e+00 5.521620704146193992e-01 1.874323796886291082e-01 1.105622191144675304e+00 8.231341923752385492e-01 5.265502256424557936e-01 5.411241372396115024e-01 5.920234449161626555e-01 7.670622888462603761e-01 4.290796368107918646e-01 5.560235079648899736e-01 2.263988796316342145e-02 5.584665617786137570e-01 5.618297954139203076e-01 4.521431403709051944e-01 5.117587890206698464e-01 4.574572812236145647e-01 1.226055868681000804e+00 -9.978004979585780587e-02 -2.415430644205137090e-01 4.130625140794890737e-01 5.456686705432216566e-01 5.331765123698734010e-01 5.165136870594531082e-01 -8.739450484482871317e-01 3.197788597404199074e+00 5.052152658760821202e-01 4.414540717498023903e-01 4.397005566314308722e-01 5.149860545932400946e-01 5.082807496529655467e-01 5.220091482885699241e-01 3.265439488464452200e-01 6.049721397143195123e-01 5.175607616368429476e-01 5.169746820954150834e-01 3.306150957528273815e-01 4.037347255569542215e-01 5.685823006857213535e-01 4.054014204268694410e-01 5.292138412812535941e-01 5.434311583287382286e-01 6.725939383887232781e-01 1.019514423885383270e+00 2.334304299144709827e+00 5.141033146718124724e-01 4.990848149364455200e-01 3.793709732624852005e-01 4.774839455462218107e-01 3.756462286633310277e-01 5.173897664387007156e-01 5.261660563350364361e-01 5.030408834978855603e-01 5.639286049994552963e-01 4.911017677441503748e-01 7.667667207372963478e-01 3.646999685314280537e-01 4.155203221145565839e-01 4.190587594805675886e-01 5.094828881581127122e-01 1.103546274346193651e-01 9.222070173674887794e-01 5.687089377230952758e-01 1.003442297616061046e-01 1.913154812139287619e+00 3.040194682838323059e-01 4.105925383154087616e-01 5.941633474075509458e-01 6.469150947099526483e-02 5.466044934369124197e-01 1.525406563150556227e+00 7.943433759135030137e-01 7.181896957063761411e-01 5.212848486832746264e-01 5.447313260633623866e-01 4.428410915839224304e-01 6.567654773050407568e-01 5.483386583557293692e-01 5.222801400205228095e-01 -2.464401431532206310e-01 5.035789189585243575e-01 -1.550827762334462623e+00 4.808505095235365845e-01 5.143968073879883196e-01 5.153270867078100226e-01 4.320646121276049967e-01 9.222070174480804239e-01 2.210912501820187226e-01 5.212553863531027565e-01 1.358438529403742212e+00 -5.714509078588044799e-01 5.199937543191203160e-01 1.148348848374057818e+00 1.542468111608176207e+00 5.561335942538568888e-01 5.181484624707152209e-01 -6.114958953611433767e-02 -1.703592234055931076e+00 2.717022181964656724e-01 8.229566716154480543e-01 5.221772731211236085e-01 5.169603913675792084e-01 6.136862745504982897e-01 4.821341385054883633e-01 -4.185375576842631506e-01 8.281531829737450723e-01 4.958392134310937172e-01 3.271206102529842785e-01 5.402509058903625094e-01 -4.118881721344760417e-03 -1.675845156338782171e-01 1.815265899059376187e+00 4.121322749562477128e-01 5.455041656723071952e-01 5.226512958142109921e-01 3.229710382698392501e-01 5.400615832389205062e-01 -1.119768158543370667e-01 -1.255190491583431101e+00 5.147444456009208080e-01 5.404782577917059960e-01 4.863670085213764871e-01 5.948574064255643945e-01 5.145691865713383217e-01 5.463827076155642892e-01 5.395166743246185836e-01 5.654062586466779283e-01 1.036746560383620341e+00 7.178050017328675425e-01 5.141304471496167539e-01 6.150182457178109408e-01 4.893837352097313298e-01 4.856633070316751510e-01 4.820817401593705670e-02 5.591816140743767205e-01 4.447204395478610572e-01 5.465895660538655498e-01 7.573632329460812107e-01 8.746944486296648336e-01 8.584091530678431559e-01 -5.276760661041122180e-01 5.160775608607399700e-01 4.507744316740205370e-01 5.198181092155366168e-01 5.932340650576192198e-01 9.120594229076706139e-01 5.343101532849342528e-01 5.292396045272583782e-01 -2.837596819266218762e-01 -8.871942330875373095e-01 2.323933669756378606e+00 5.044805484006841256e-01 9.013250125557826786e-01 4.167090740885979749e-01 5.751762519385698047e-01 3.907835949277791432e-01 1.515287728140138068e-01 5.213754528890836015e-01 5.445544017227870182e-01 -5.428413395225313402e-03 5.225958727498867251e-01 4.413369022984437451e-01 5.246096034431037003e-01 5.701736429861158362e-01 5.218469801043068568e-01 6.256709987403219486e-01 4.184922978389642445e-01 5.547662927217167361e-01 4.694908079450419436e-01 5.266564691636788087e-01 4.125918341551503832e-01 5.193715943545202940e-01 -2.597013433249900083e-01 5.148683389480654959e-01 6.420901125140715537e-01 5.414229839046662551e-01 7.664562393687854858e-01 9.222073183315263600e-01 7.278639307699821259e-01 -6.084736643996663252e-01 9.823343247474319861e-01 1.829321588465240067e+00 5.013391764400849659e-01 4.637806038377591533e-01 1.084003075392378834e+00 5.684108946273990215e-01 7.662803597136955691e-01 5.229843430813648775e-01 1.860974645839305719e+00 5.190103238800292118e-01 4.304348038408409849e-01 1.235370419522028751e+00 -6.520047245284771309e-02 5.093642623532732561e-01 -1.568105381719164804e-01 -9.763524998150465706e-01 -1.674972679879606907e-01 7.729397627081298072e-01 5.748604440984059760e-01 5.138927868540577037e-01 -3.228246737259661270e-01 5.227925372278346972e-01 5.482311272010535058e-02 -3.988156025915405856e-01 5.231590320164712926e-01 5.185963259017624116e-01 5.292783259336919510e-01 5.326488622171374754e-01 4.890232399904411720e-01 9.149660079120508493e-01 -4.296952832280467871e-01 5.209629332432349491e-01 5.046020122739415248e-01 5.989235076239270983e-01 1.172339369848684809e+00 4.889964497419300171e-01 6.718058760406405705e-01 5.228584637075512909e-01 4.838156922752475525e-02 -3.978406392971446937e-01 5.537879638575616825e-01 5.670903662298424353e-01 6.853588558091494587e-01 5.282429993846375904e-01 3.600611724881935261e-01 5.185581768939663272e-01 5.218327663858624010e-01 3.913971107644580449e-01 5.298504279248011928e-01 8.403584656369469386e-01 2.579473808157914050e+00 -2.474747214729328959e-01 6.598900783841085138e-01 3.351850829183402047e-01 2.040138579388568185e-01 6.610731077368210418e-01 -5.653863649483158865e-02 -1.567949309546114778e+00 5.008895617805558809e-01 2.641623418467261786e+00 5.668949406622221243e-01 1.634691135283166952e-01 1.609957472352339658e-01 4.958399225908902697e-01 5.875896027299720714e-01 1.574832246942274638e+00 5.076351700521527510e-01 1.260972858323115564e-01 4.214319313608427819e-01 1.724468641798906354e+00 6.034085189413556094e-01 7.785153737837925414e-01 5.161109957653423619e-01 7.384227439095888412e-01 4.624174568379644801e-01 5.766358708285034274e-01 2.227361327084099660e-02 5.196972301364309876e-01 5.425688803071669897e-01 -5.799015022069912151e-01 -8.751965348905588193e-02 1.179778946849453725e+00 2.388220113027729463e-01 4.814536478252498530e-01 7.125648868616841769e-01 5.416817579465901256e-01 2.015133540635102083e+00 6.750919912209601970e-01 2.029622472024852908e-02 3.362238735775708309e-01 3.954753797940718796e-01 1.132752326964668654e+00 5.029916651996435562e-01 -2.729928464883439251e-02 5.331203281185409315e-01 -1.117220556830629541e-02 5.399922410222246505e-01 5.238858235518054629e-01 1.735548804544011659e-03 -3.684396485863444815e-02 6.647005439038199404e-01 5.459193695010342573e-01 5.871316017145683519e-01 2.175964074640495960e-01 4.222785840357032860e-01 5.156288441039793558e-01 4.854324982731229032e-01 5.099200768903053849e-01 4.792366554780407295e-01 5.962578083895048175e-01 1.019345348522482597e+00 3.158257240646312969e+00 9.506773444577594212e-01 5.177849281691908612e-01 6.031325868857276840e-01 2.166065065995607386e-01 5.209489927066887072e-01 8.545498627969166927e-01 5.037642880119013178e-01 1.317012287002133686e+00 4.602232764046997882e-01 -5.864389852932709868e-01 -1.944344004557196220e-02 4.140804124168411260e-01 6.146461164203477212e-01 5.576735335762091905e-01 5.186776299136883761e-01 5.466276642985174600e-02 5.119962129947889240e-01 4.569191035356188202e-01 -3.768954639050889899e+00 4.791420029210852749e-01 5.185633447396728046e-01 1.134666949751911735e+00 5.196148657475424537e-01 4.609322844673866548e-01 6.793126478129110080e-01 -9.008126386424253340e-01 -5.012883133292531657e-01 3.251884090293108431e-02 5.185748421657003782e-01 5.090613408997609612e-01 2.134162973697636412e-01 5.238897121994215977e-01 -3.428847236761535799e-01 5.797071235789011956e-01 5.308293544133614317e-01 6.959621352714679965e-01 5.495195727274856390e-01 4.692753797340785682e-01 1.499890765528784364e-01 -7.717468366804461910e-01 6.557714292148003610e-01 5.515441281105052385e-01 1.576095216525148779e-01 5.214470371249929626e-01 5.446689439492247153e-01 5.268004333156032226e-01 6.701855906793138251e-01 5.772294026984844395e-01 5.469809555512489263e-01 5.027228470742027833e-01 1.829321584914306742e+00 3.554261469764206649e-01 5.403650059366309488e-01 -1.298493465362492993e-01 5.412025179216291004e-01 6.350197094947398480e-01 5.055281674378103718e-01 4.880444250713413257e-01 3.614398376733913287e-01 9.484487401526512373e-01 1.216605812172959267e+00 5.555282746897132196e-01 5.870102645282976317e-01 5.967992726812472171e-01 4.826447795467845858e-01 5.461363467492764689e-01 5.191124599050342958e-01 9.823738841682763123e-01 7.011207408748262315e-01 -4.611741768157999188e-01 4.596675630412608293e-01 9.078350017861170906e-01 5.226533326633231447e-01 -2.860534336462045024e-02 5.301361122546579541e-01 1.423052208385948703e+00 -1.388197514074664962e-01 6.271360375089446437e-01 2.393283566850102073e-01 4.775563992162122351e-01 8.551487261372956450e-01 5.186276938404161818e-01 3.718715193880728354e-01 1.406386279085656943e+00 4.695071085609611172e-01 5.252285665267173442e-01 -6.859887357934990604e-01 4.455240489033520657e-01 1.040606315965243001e+00 6.150929931812246787e-01 7.274609273544227483e-02 9.820098355029737158e-01 -3.004645149336181154e-02 6.950048406854889560e-01 1.639697634645749025e+00 -8.633446038475480755e-01 5.834173705082036365e-01 5.195799912719593072e-01 -4.692687582324301387e-01 3.052169764285997400e-01 5.990020756113606515e-01 4.986852323180891444e-01 4.929828898130099724e-01 3.987159073671245335e-01 2.629683832582941361e-01 3.455428402088956408e-01 5.794324875978330569e-01 5.204207718156437235e-01 8.038071985150887014e-03 -1.339057901598971756e-01 5.187482132484743103e-01 1.066299797147462813e+00 5.022050856273276853e-01 -5.801685670396216077e-01 4.847295425739838737e-01 5.181238205623307502e-01 5.553898344713471547e-01 4.459952138861532356e-02 3.272514713199329850e-01 5.215950499518143824e-01 5.101625446457471735e-01 4.518769461595715797e-01 -3.939626285325153153e-03 5.595546774312594174e-01 5.256707389432393462e-01 6.048181844259693518e-01 2.098239437651628680e+00 -3.837287382865277232e-03 3.872804085297698595e-01 5.626370778114290205e-01 1.845099608251627776e+00 5.408728892848221337e-01 5.293365228363700048e-01 2.134054889022695203e-02 5.591815610283189519e-01 5.236260323057733146e-01 4.772702716315521676e-01 3.887141159142880054e-01 5.032205105392074662e-01 4.352856848688952396e-01 5.232973599693229172e-01 -5.478603516305676768e-01 5.196724553891250986e-01 5.183826494544038210e-01 5.309428979750683286e-01 1.182387532423916587e+00 5.124525680525920945e-01 -2.470405950050027499e-01 1.107060352808372672e+00 -1.294255863186600131e+00 -5.341983238998476713e-01 5.337809670646094240e-01 5.206469949754607418e-01 6.588673037638744789e-01 5.230791967420239663e-01 4.543369012262001849e-01 5.552665646075408690e-01 5.591815623349326581e-01 5.214433871527991426e-01 4.803324264345253392e-01 5.959470977445057160e-01 5.189075168445750341e-01 3.081240433191785866e-01 5.094622715087865350e-01 5.395653679272619518e-01 3.959251046261705875e-01 5.064985432982351821e-01 5.185953152122516618e-01 5.434594253059616964e-01 6.530135387534240499e-01 5.171378917528219876e-01 7.064225919654201213e-01 5.035436571390604632e-01 5.134860921461781302e-01 5.397929696650530795e-01 3.959516412124222673e-01 3.807808198415140732e-01 2.448679877373794778e+00 4.782429424471203450e-01 6.125899048358366406e-01 2.987716602454695836e-01 5.816009757246047851e-01 1.116960157501577511e+00 4.234219298119323849e-01 6.966617394877371305e-01 5.179480589959181147e-01
7.118247393330563444e-01 3.114859276389666531e-01 4.397633207258329624e-01 -1.636308328259602346e-02 3.096538733562699819e-01 3.562493320607656444e-01 5.364199286905815267e-01 4.121037127979924608e-01 3.348785193313870701e-01 3.164654117049499060e-01 2.068150398087384989e+00 1.726702432198919945e+00 -1.460130124551091590e+00 6.047377964448999998e-01 3.111911405165739275e-01 4.502240044241982986e-01 1.329666602321339097e-01 4.414758815673089365e-01 4.228300416538994799e-01 3.025243157642664160e-01 4.385157303302265053e-01 2.135844522122651412e+00 3.698411514895088570e-01 3.578212460201928291e-01 7.422208261788569850e-01 -1.905894105114128156e-01 4.260226225744223605e-01 2.006802341609463247e-01 2.732879726129870956e-01 -9.065291374172950167e-01 4.162942741457876239e-01 -1.485589738913028479e-01 2.890364743143259973e-01 3.418075555391680287e-01 -4.168603283460020070e-01 4.927456288492161329e-01 3.317843476846313311e-01 -3.769048626411337088e-01 -3.273891735763134303e+00 2.844160865905798197e-01 1.177420429607022090e+00 1.443586917167128669e-01 -1.679089067635139432e-01 7.917394063173707197e-01 5.860085872960485442e-01 3.275271165049196687e-01 -1.629209712687298625e-02 3.130385066638360358e-01 1.693587058419428748e-01 6.545112242903938782e-01 6.836941811491806797e-01 4.946831292340447273e-01 -1.851842210961976987e-01 2.282740747010089388e-01 5.980784031218755459e-01 6.528249139960833336e-01 3.253244086962275294e-01 2.418084449089779875e-01 3.457352815707270266e-01 3.508596892462662598e-01 4.301508482814042633e-01 4.332609501676940589e-01 3.279455252705922863e-01 3.698411469252045336e-01 -3.445349195115962049e-01 1.361332349969449074e-01 3.215772838548655588e-01 3.160209998955986754e-01 2.139289977894314465e-01 7.145983659170951352e-01 1.395213192929486146e-01 2.450591301128371702e-01 3.288012926751439080e-01 7.280751776113553175e-01 1.933440536642633489e+00 4.476607440209214306e-01 4.753962750102561641e-01 4.820306569461092483e-01 3.105075050777382772e-01 -1.348624510780598751e+00 3.194312700688650697e-01 5.680078253825755485e-01 2.364645756511518204e+00 7.950554482818442126e-02 2.581899314346071117e-01 -3.729637311998711402e-01 1.340891480734693331e-01 2.665804526259435980e-01 -5.809985681690076342e-01 -9.004981633258267726e-01 5.861742194916653714e-01 1.596717949528742020e+00 6.231057736263928559e-02 6.822762488548801407e-01 3.398896864233547088e-01 3.355617017365298271e-01 2.657081762852417928e-01 7.708969283978240883e-01 7.371617563257482075e-01 -1.918807440520879370e-01 -1.782312870109939995e-01 5.504328155728160921e-02 2.726370507833966728e-01 2.146682259230529854e-01 -4.162653707686880811e-02 3.139883319295442288e+00 -2.909550028388944720e-01 2.582817766874787591e-01 9.839561387954900984e-02 8.110866906036908741e-01 2.585152586437152178e-01 5.055619720480063473e-01 1.624777233311892055e-01 4.059397848956034505e-01 -4.784557134524031197e-01 2.391238030406369619e-01 1.335796946084867876e-01 4.313086739659497959e-01 1.127285942976573363e+00 3.357517690213242534e-01 -1.464601850117851489e+00 1.620210614557611450e-01 1.023692359963087051e-01 1.433569317913547803e+00 3.079837048907316799e-01 2.188039895581319616e+00 3.312220608333646954e-01 2.258877144268515991e-01 3.075365105026948709e-01 3.078545541033684274e-01 3.412475882441186048e-01 3.086645910863730080e-01 6.748115580654266976e-01 4.209246994067316616e-01 1.661957812424416925e-01 8.603020907369686165e-01 7.213117563799880116e-01 7.143347241073062515e-01 -3.375698063517437730e-01 2.106634900246887598e-01 2.989708690414061287e-01 3.219248909962159622e-01 3.354148780265475138e-01 2.421106366061744064e-01 3.079040261018498037e-01 6.985837489635164932e-01 -1.663060294195629618e-01 3.191611940090547939e-01 4.349314008446302782e-01 4.014227402913785325e-01 -2.215892448730002184e-01 2.595905007332293540e-02 3.275119283013547267e-01 2.720103613643549689e-01 2.946621738350077013e-01 3.154282582507356714e-01 -2.432742705510086090e+00 4.629943590871352654e-01 -6.028964533243528212e-01 -1.976507825802019669e-01 1.744336436551937597e-01 3.298037116202792163e-01 3.144527104736158929e-01 3.097281061330368623e-01 1.243791591190616941e-01 1.020295113854663843e-01 3.179921598469367394e-01 4.710985548721721705e-01 4.181306602411765105e-01 3.034163231460454968e-01 2.004970271521041292e-01 -1.510458206276909555e-02 3.276236751654629242e-01 3.136392742147435797e-01 -2.519697951287331872e+00 6.781810308155357125e-01 5.907856504713148160e-01 9.478802943513741086e-01 -4.587862598059502806e-01 1.173403609170903694e+00 2.363667227971334370e-02 3.095067316099834320e-01 1.241836178767492083e+00 3.325112307309617821e-01 3.096227832600901841e-01 2.841500006067048667e-01 3.627708958274887263e-01 2.956128932158783029e-01 -4.897048140116406212e-01 2.903796476739323174e-01 2.973925902091502649e-01 8.192372180944844651e-01 2.830396338623810681e-01 3.398197772000991490e-01 2.421715820286126364e-01 3.140476838054014341e-01 -1.674639455805037036e+00 3.179855060417314250e-01 3.191754943478367634e-01 3.347388381729080042e-01 5.177019416988196121e-02 3.587571000686613498e-01 3.876728916070638631e-01 1.450225912054992905e-01 -7.702224802966405326e-01 3.191754671638802332e-01 4.819407627778056202e-01 -5.188992165089886255e-01 3.554735806470269988e-01 1.929197296142934059e-01 2.396183095286796016e-01 -3.278303220585198741e+00 4.426378009077491793e-01 9.206120704087755735e-01 2.993442829452027665e-01 3.123504766127769838e-01 3.102551094584208302e-01 2.989479719425340298e-01 3.143063408607061904e-01 3.098220047798626031e-01 3.616479920313335761e-01 1.038061899801888538e-01 6.685252732151910626e-01 1.057568184570504694e-01 4.780439282870390660e-01 5.055064458143269102e-01 4.019754188048885180e-01 -6.873719062733776308e-01 2.309239048670796990e+00 4.015221090690119232e-01 1.246075760262544074e+00 -1.395880289428983900e+00 3.067880899489809354e-01 2.452689721908377085e-01 3.530936538766095700e-01 1.181840322613672001e+00 5.186703215283035018e-01 8.230439226614968407e-01 2.857800039553274329e-01 6.682424268203718265e-01 2.537074579135268904e-01 3.187604868778511902e-01 -1.179811919029825962e+00 4.165027945390094577e-01 3.127701352446258798e-01 4.981968195517000875e-01 8.869740190815399439e-01 -3.715008215202486586e-01 3.185572891880763535e+00 5.000756947158314647e-01 1.282387196075645885e+00 -2.424914209991782532e-01 3.042670523016434148e-01 3.698443743349586477e-01 3.394912591302853833e-01 2.401398208863732286e-01 3.642862903456500767e-01 -1.413673696933150647e-01 1.068958794815761115e-01 5.622588470733292931e-01 2.520053584337846875e-01 9.795093276833123641e-02 2.416912657588269897e-01 4.475347631829834083e-01 4.301508832810012062e-01 2.572021140197290889e-01 3.264112036650620219e+00 3.593311108008153676e-01 6.523694330699829624e-01 5.312881813805089282e-01 2.219596113217435773e-01 4.296414855509183006e-01 3.131836746276331351e-01 2.984280912679539433e-01 3.110659038056206027e-01 -5.901489974421014750e-01 4.345504152130279518e-01 2.852642583357746231e-01 1.395957189660793074e-01 3.183479374511763438e-01 1.543383136354478768e+00 3.547936604863830001e-01 3.091311678540706875e-01 2.002864318129039756e+00 5.054851076727859827e-01 2.666573321634723714e-01 2.654154488146778790e-01 3.323118013696506057e-01 2.391241716674887274e-01 -2.067136433404594964e+00 2.710453732971608298e-01 1.561692759117689455e+00 -6.051356173785962800e-02 3.602754021059928480e-01 6.784785911879379627e-01 3.211784695124013100e-01 -7.264732304622477654e-01 3.922159899922136317e-01 3.172042822516597527e-01 4.349459407346109030e-01 -3.966021108739933299e-01 3.236159875033760014e-01 -2.290825526296288217e+00 -1.580587369589247712e-02 3.330540802972621894e-01 6.000814572118733370e-01 3.129230304429608256e-01 3.108028155622747368e-01 4.878318024443777379e-01 1.817297007430167810e-01 -9.539668824634435496e-02 -7.694040703882558674e-01 -1.121462128994892178e-03 6.879234218558969438e-01 3.093973668808844835e-01 5.019976217737757151e-01 3.303634139030550143e-01 -1.623948129495006096e-02 3.116698213062839562e-01 2.457477697488674728e+00 6.831450015866975534e-01 2.470141384954794850e-01 -1.168846787636734330e+00 2.309202243160287105e-01 4.727314414824041577e+00 3.835282344506318886e-01 -1.683035988383769777e-01 5.710656358721265535e-01 -5.628824864781985404e+00 5.232671322391964086e-01 1.561767458826154309e+00 3.092184671668511964e-01 5.298328408952547308e-01 -4.486911792096789919e-01 4.332399815066001469e-01 2.909385978308503540e-01 3.012196488702954533e-01 2.257258399536656857e-01 2.956201907017700581e+00 -3.769838178142068119e-01 3.050218178289828552e-01 -1.924673483329445212e+00 3.173609892156878387e-01 -3.769048646609306497e-01 7.535448675700284760e-01 5.172153324830525145e-01 2.642004540932323398e-01 2.846658442628408059e-01 1.270957979049749387e+00 1.489543520538524901e-01 3.191752080817356618e-01 4.165065238456020502e-01 1.450225883539458249e-01 3.317818624900140123e-01 3.903058792371123520e-01 -6.167516268841869431e-01 3.096393592329258482e-01 5.568737099617667718e-01 3.943973902071008508e-01 1.706506060280257864e-01 3.082796191936739150e-01 4.957713694502932089e-01 5.172152631934192613e-01 4.667032518456742940e-01 3.071420549602649763e-01 1.774697598029807699e-01 4.035768689198604431e-01 3.457941640895200397e+00 3.125647735701274077e-01 1.237445331027692830e-01 4.301519694945706851e-01 8.425587870158087744e-01 4.683755996305296043e-01 -1.943855400709462722e-01 6.831472622478982348e-01 3.493451202700963432e-01 1.213986746655000976e-01 4.126169308406526515e-01 6.745548461049881706e-01 5.738773564158325957e-01 7.896008943755813414e-01 8.179517052500961949e-01 3.397116746428386902e-01 1.450225911178291693e-01 1.450226201544829452e-01 2.285127792181524398e-01 1.794112513213935167e-01 1.119881293216721474e+00 3.966139918448070567e-01 3.174710791726132464e-01 3.057402098632244214e-01 3.124758030074406556e-01 7.594719891922998567e-01 3.191756970443961894e-01 3.096408221198267419e-01 4.378311333390696447e-01 2.333087732434895867e-01 -6.376054910779568319e-01 3.288556413232824882e-01 3.119607684903882849e-01 3.830083083058433147e-01 6.833589569861285851e-01 6.949407735219861326e-01 1.450225900137236401e-01 1.041310589070047060e-01 3.043384576304566935e-01 4.990916305547449805e-01 -5.932420717933907239e-01 1.824704451503019187e-01 -3.539830734336130380e+00 1.990056888296189763e+00 6.352116487220073049e-01 -4.701437453596475913e-01 -1.638324432383671952e-02 2.066648098245499998e+00 3.162324976465604731e-01 6.452046066527739043e-01 -2.856640816685945480e-02 3.645051638583708398e-01 4.186548848577845705e-01 3.161665917190345509e-01 -5.105357469135985982e-01 3.606884282587358714e-01 2.072216940862210866e+00 2.806212492391465529e-01 -4.417714977645591512e-01 3.099983880742852582e-01 3.154673962913119856e-01 -1.458523930883050657e+00 2.852783778998415065e-01 3.670953136968009289e-01 4.032968431070192983e-01 1.372938624667230378e-01 3.097299437469083205e-01 2.083916134179886193e-01 3.005118182509136093e-01 -1.611062385897808202e-01 3.112273808338589243e-01 1.057559914824122982e-01 3.086384908715958941e-01 3.084373257629435261e-01 1.277036189624074745e-02 3.979478219540417694e-01 5.464084424954069874e-01 -1.401274533072151218e+00 -6.127347663459123961e-01 -1.147669593292851009e-01 1.137394497603052557e-01 2.062292294647287971e-01 4.323089139379581725e-01 3.613491063289073768e-01 7.262607501526283649e-01 -1.326159386124872164e-01 3.204404020692547816e-01 3.282208994784886480e-01 9.436216597661932493e-02 -1.611735367869667757e-01 3.165814347064045964e-01 4.617955432654387571e-01 4.797606444342088494e-01 2.890949228890003497e-01 2.757223792227013193e-01 3.062138170851333441e-01 2.498590068485165572e-01 3.144665762838535494e-01 4.971935190022274687e-01 3.605017549749473527e-01 3.101427208801750268e-01 6.840136874537047218e-01 3.338864313323434696e-01 7.347487046472268579e-01 1.761944427938390290e-02 5.487196252956257903e-01 2.649970969847916802e-01 -1.459482190499622023e+00 3.072189669500351994e-01 6.413950430022864468e-01 3.622093947567473493e-01 3.359994613907568706e-01 2.550657378623023552e-01 1.872753700851167713e-01 6.847051750910675416e-01 3.102987291078357912e-01 4.086474468067209376e-01 3.117373897038201447e-01 2.779263360732650012e-01 1.919076412848006175e-01 4.957395690239288499e-01 3.155015648269220985e-01 2.002719795631909827e-01 8.270631943614616122e-02 7.905250690800853797e-02 1.649654222034564688e+00 1.989728075695250120e-01 3.565731473888978931e-01 3.851602595295277043e-01 -8.527850190891412829e-01 3.576614460029721720e-01 2.561801350979185377e-01 3.933960968836826555e-01 -6.087217940368937208e-02 2.864851215932921469e-01 1.633439759217662601e+00 8.923439203470715508e-01 4.509084755090982388e-01 3.322028865772830297e-01 3.390832325351878507e-01 3.432678271644609702e-01 9.261260356382124970e-01 3.058583489754757689e+00 3.097109714460727914e-01 2.496698651473973005e-02 5.886747080534990850e-01 -2.164433578682437853e-01 3.135406647965079951e-01 3.023317824883304805e-01 1.077095213732401247e+00 3.089558673481535012e-01 -3.333467337220000770e-01 3.841121159967847420e-01 1.306298201165947692e-01 6.340516880599365024e-01 1.804282550759724435e+00 2.551796985734491319e-01 2.665883765145427020e-01 1.664519678594448715e+00 3.977246810029263502e-01 2.673196324138205071e-01 1.734023904986325970e-01 2.270622168565201715e-01 -1.669400264456252433e-02 5.092392059892799638e-01 2.419129086079218061e-01 7.255177333646047888e-01 2.708019479767445059e-01 2.336560504525040660e-01 3.173249181749564496e-01 4.185953117565511805e-01 3.885568214728263858e-01 2.601767339632558018e-01 8.943708955403586458e-01 5.125541105075803738e-01 4.829071826486687757e-01 2.704317511529874540e-01 2.544227274354247670e-01 3.164063063344810800e-01 5.899296523797844527e-01 7.754593583758578879e-01 3.652927901851711900e-01 3.094715846221247624e-01 5.447122810583810981e-01 3.088985363958177133e-01 7.150580570908700029e-01 2.772259531765647322e-01 4.675495420476459274e-01 -3.113806148814592389e-01 3.133303496010871325e-01 3.272408075249161330e-01 4.382102291561056906e-01 2.488040719478250840e-01 3.149764948259295427e-01 1.800270584191065781e+00 4.128652458178848350e-02 2.686526703915109171e-01 -1.976449145754423098e-01 1.658708772146049615e+00 1.155213664698973242e+00 4.001220740946995202e-02 -4.498935259312710766e-01 4.274084567484187636e-01 3.168054267332447993e-01 5.042254622882379467e-01 3.089368910349535313e-01 3.079553838957906908e-01 2.100442674358646289e-01 3.392144022530440561e-01 3.453774641258413602e-01 -1.663837559994924345e-02 -2.170143639247108514e-01 3.439565767223263237e-01 2.649305048331647150e-01 2.312779194281859851e-01 8.741548135840032652e-01 4.301508657327930418e-01 2.751615643286715041e-01 8.493373479307383400e-01 4.756565686764334111e-01 5.866528686309333551e-01 4.632732876753155038e-01 6.949370427812838757e-01 1.475903260840976339e+00 3.715512370971677525e-01 2.097518708365810003e+00 -2.421269839054352932e-02 1.486847489372762621e-01 3.104472494114845493e-01 2.736847731479371548e-01 3.621005026346887923e-01 3.034350962085073378e-01 3.215806833592984026e-01 3.104674295226664826e-01 3.647376733296721629e-01 2.032920133195813273e-01 -3.313578686976829113e-01 2.515459416319097419e-01 -6.868714508256859586e-02 3.037289730897406725e-01 4.349682334835509590e-01 4.301508657447585260e-01 2.198084211224689832e-01 2.028555938854325336e-01 -1.262337262877484267e+00 1.967186240636733308e+00 3.124508254459493761e-01 -7.374381232161040245e-01 2.971998673315569550e-01 3.166673577008106699e-01 3.128089524152473655e-01 -4.799876330152370585e+00 3.548195394686231019e+00 6.296026411362178887e-01 4.709562142460692324e-02 3.253568331885245413e-01 3.131301555775029000e-01 2.741497089096812667e-01 2.630024174389359981e+00 6.257752195163446274e-01 3.192923480818823379e-01 2.391239768398202847e-01 2.855937099125346879e-01 2.832316135286719883e-01 8.619941729693532118e-01 -3.753972126927190289e-01 -1.200554039389966299e+00 -1.221659681155790045e+00 3.152687319612685335e-01 3.158303290924801554e-01 7.286374343242215668e-01 3.716597965225775235e-01 1.423603248549069500e+00 4.817550603721520996e-01 3.122537845109610299e-01 2.992239504487585466e-01 3.276505598707947775e-01 3.249694429344529012e-01 3.045979046826424730e-01 6.446068522663201961e-01 2.669057902351242850e-01 6.598465594443237991e-01 2.280430725285323423e-01 4.615343895912026040e-02 3.048254169474612918e-01 1.831272437416926191e-01 3.460991047237654827e-01 2.585452710190257464e-01 6.450895903954459998e-01 5.172153091354745325e-01 3.547941402292111301e-01 2.739505365837157647e-01 3.091821031830392918e-01 2.683354347594847367e-01 1.633440269100100206e+00 1.902140210188831837e+00 3.044106514242299610e-01 3.574267229176603666e-01 3.139256608277729010e-01 1.625264776239974951e-01 2.270545232108078793e-01 3.491036795037433249e-01 3.057415739616985983e-01 3.255986015353471985e-01 8.030253670706889446e-01 8.858552489132157648e-01 2.441101560881555610e-01 1.873755439102428699e+00 2.957260990412485246e-01 -2.364371020093438691e-01 -2.728119130097241274e-01 -3.104880293245464995e-01 3.121396417786415634e-01 2.714957373524194417e-01 7.106040709487420060e-01 3.087699252821158868e-01 4.568635870130751120e-01 3.318286335142489607e-01 3.550898180200519616e-01 3.354931635616504315e-01 -3.021956940998793417e-02 1.015597397760826137e+00 3.339832575023553018e-01 4.030581722199098604e-01 3.053846299845848211e-01 3.559222402884805736e-01 3.024893842787665932e-01 3.934443352875944266e-01 -9.315390675430475220e-02 2.225784699627461338e-01 3.034603295378228704e-01 -1.609486752764021852e-02 4.301505564429453643e-01 1.104163646657942532e+00 9.623082339137317698e-01 -7.264585924099180581e-01 -3.769048625999328328e-01 6.574095182961769979e-01 -3.337666596927837848e+00 1.573638059017776758e+00 2.741499553155889446e-01 -1.624415628438775211e-02 3.141465049799833653e-01 8.939034285147056114e-01 3.132152628239134873e-01 4.165030789133003508e-01 -4.372652139312720454e-01 8.216654505814855458e-01 3.189466609514858275e-01 8.721233176798872666e-01 2.095422934441936391e+00 -3.752016920695696034e-01 -1.468088941548007176e+00 2.372485335428326514e-01 3.158388575689572431e-01 7.590278759538268138e-01 3.044300147530752398e-01 7.041404603659093819e-01 4.691274594326387271e-01 2.472294635204407842e-01 3.075244533305954153e-01 3.141578853412507200e-01 2.526049877304583080e-01 3.045629598965642892e-01 1.416147743759876843e+00 1.640664625151850187e+00 3.170698383290705968e-01 3.299876913615570895e-01 1.547753925891353077e-01 -2.452402176208160756e-01 2.173069165299086336e-01 -3.539078013129889899e-02 3.115627592786142097e-01 7.040285022915571123e-01 -5.095818987845800452e-01 2.725410876563834628e-01 2.837031627838753622e-01 1.529563744857693752e-01 2.978720306143287089e-01 2.131226048912487070e-01 3.119069292813428373e-01 3.126111463424548487e-01 2.255077940480137988e-02 2.816241855745394429e-01 4.359312467614359643e-01 1.124438092336303763e+00 1.106377016401202118e+00 9.232993167731932127e-01 2.013457234436225596e-01 7.864401859808328732e-01 1.471823875750151722e-01 4.876435770445371465e-01 -2.141489846914047313e+00 3.106476985277085712e-01 6.587843961336761200e-01 2.866326486141744789e-01 9.514109750159815970e-01 1.372723777251342314e+00 2.391238022194971669e-01 2.567938743885254671e-01 3.747077218348610628e-01 3.552027085510540139e-01 5.502938386555893402e-01 9.101681910734379377e-01 -7.953804704285347693e-01 2.045959231931968603e-01 5.586292254566066484e-02 3.227092572131023962e-01 3.415326973228714480e-01 7.684828469452626987e-01 -2.335162587632708120e-01 4.032788997114924445e-01 3.095645644957867870e-01 3.586401373387383407e-01 8.924443511305848453e-01 4.300052802632404747e-01 -2.160148019162254074e-01 8.589098124239941123e-01 -4.331056426733506659e-02 5.681850110106771989e-01 2.716270411371893290e-01 1.289642857967006506e+00 5.859964756016446952e-01 7.268413546288103877e-01 4.379486889913218328e-01 4.868781179332705156e-01 -5.656249646535620457e-01 2.368435272468978892e-01 7.590554591772794568e-01 3.188117283013134906e-01 6.201406411813792374e-01 2.782679971002658958e-01 3.072641097075921590e-01 7.222164700842941265e-01 1.506985551976590954e-01 -2.055716939714654412e+00 2.063726962465989023e-01 2.574491669195483334e-01 8.700923022780548965e-01 3.701739494670626129e-01 3.926296197882890304e-01 3.719971646482325145e-01 3.165216982752809272e-01 3.918147747515344781e-01 7.779186251266881347e-02 -1.625611533575415768e+00 7.578760403943498591e-01 2.487028256051489195e-01 3.050185577040096518e-01 2.162012346445107425e-01 8.215312377749619532e-01 3.080967133761898236e-01 -1.484628100412961338e-01 3.385233401549037069e-01 1.122486224112336783e+00 2.655928332244819612e-01 4.158790022630091121e-01 1.049262295719665783e+00 3.961357175577829848e-01 2.803724686940352928e+00 3.370552217978761700e-01 3.063350634450758836e-01 7.027132990595702511e-01 3.416169475369269515e-01 3.306579007859404284e-01 -2.125322957250757483e+00 4.386584782236071511e-01 3.305469542092873692e-01 5.171143517410472512e-01 3.056267879028432000e-01 2.047415703996386949e-01 -1.966042962056767651e-01 2.062498596954461583e+00 -5.192256735042958260e-01 8.276393957239776000e-01 3.108366711555992645e-01 2.925250313715981876e-01 8.226668203788544131e-01 3.309548078918269076e-01 1.337146257244822056e+00 2.048973327540060396e-01 3.713877619110980133e-01 -8.849405183979343059e-01 -1.329951180010046086e-01 -4.935546121916870588e-01 -3.988143920197416037e+00 2.969162672856094698e+00 3.106832981123032814e-02 2.961168747369796184e-01 -1.640392725869219248e+00 3.139066882517301260e-01 3.701067115527412188e-01 3.010045281473316403e-01 1.681490564340643867e-01 6.413841815390972645e-01 6.005987901319794764e-01 1.062131633771565387e+00 -3.769048620724197995e-01 -2.302027491352005850e-01 2.300223871009775822e-01 -1.190616584067006878e+00 2.602805955339456134e-01 -6.500003605811073282e-01 3.303794196332173194e-01 4.556395403572292002e-01 8.727907962667949548e-02 4.503893384955686141e-01 2.657342627517095823e-01 -4.825504270413935592e-02 2.276164338274251908e-01 2.895198046666689340e-01 3.639714629405922386e-01 3.285162144321885358e-01 3.126962806524491989e-01 -7.266854170072575281e-01 5.072217597533833500e-01 1.541427536027131007e+00 6.962714463799309084e-02 2.374853679291837882e-01 2.883913147158221335e-01 1.207210006015668746e+00 3.313635842639891527e-01 1.123187538627610227e-01 8.895458409224880070e-01 2.631161349463985166e-01 1.871023340318458628e+00 2.696841722645727524e-01 1.308963634432188661e+00 3.076659821311322207e-01 7.356433154801873542e-01 1.353054132020470535e+00 3.667065603640642935e-01 3.484997010389754291e-01 9.366175101963778449e-01 -1.874018947039636784e-01 -6.161017057303672106e-02 2.193948631299439678e-01 3.026849623714295001e-01 3.582773403510368104e-01 1.440441242449875259e-01 1.459726027149868821e-01 -3.748939251331593892e-01 1.292455948053932602e+00 2.920274563433370996e-01 3.114508807984511796e-01 -3.207428830014172672e+00 5.427443289504552126e-01 2.686266869468617591e-01 3.938542400256154763e-01 3.963725243845116486e-01 4.611872426900660571e-01 -1.097448529051013866e+00 6.246790957034937808e-01 2.878244034302890331e-01 3.092619089499964447e-01 1.027321024798894644e+00 4.614831503728833995e-01 3.124145403141211919e-01 -1.407838849003912429e+00 3.884191259735215729e-01 8.923710520625032228e-01 3.210709894942090914e-01 3.172753851820779847e-01 3.359087106550034396e-01 7.122003921319516317e-01 -5.989328427394481624e-02 3.096036355558514086e-01 3.228695615011185627e-01 8.866287225445752818e-02 6.703452012260122661e-01 2.734013224059911873e-01 7.064331257889631122e-01 1.738103012655025370e-01 6.910106436865784962e-01 -2.365505819069271820e-01 -1.509041207213582370e+00 2.969510024421916916e-01 -1.920484960859512175e-02 3.306922824449357035e-01 3.763158174385837773e-01 5.468132319366960509e-02 5.172152674973441444e-01 3.082280386583763354e-01 8.331508947541776955e-02 4.414782126519506966e-01 2.741567731489155668e-01 3.040901096240375412e-01 2.727303311549639786e-01 -8.462185265585165928e-01 3.181781852158679924e-01 2.917188505094505668e-01 3.294808629636453712e-01 -2.595793446186001607e-01 3.168672060575034033e-01 8.248804526364764689e-01 -5.782874696488389255e-01 1.122692933302593010e+00 6.145720643255198068e-01 2.646561981999760449e-01 3.088414688305194389e-01 -2.051686010281252859e+00 3.282923908170869987e-01 2.113477713990637441e-01 2.781241405527164479e-01 5.172153557853784722e-01 3.097304107109750682e-01 3.158163230650115616e-01 7.048010612160968136e-02 3.124237406030260789e-01 4.351985612327882169e-01 3.517928256357422678e-01 2.539346241044078134e-01 2.886588884418911927e-01 3.162644021921505177e-01 3.095843573769302970e-01 2.675085153008019967e-01 9.006236329576620958e-02 3.086491914051173180e-01 6.201797824686350324e-01 1.787799577734878465e-01 3.105369448158352697e-01 -1.409675246089386880e-01 1.740334435172060656e-01 6.030036340462566757e-01 4.501277059027185778e+00 3.466463259017081855e-01 8.269125622284823063e-02 5.600044780683955947e-01 1.846370454864173227e-01 1.558876129451406189e+00 3.474780625713015381e-01 6.418475553660522026e-01 3.061349479011375996e-01
