# 
#                 ----------------------------------------------------
#                 Data from a 3D direct N-body simulation. 
# 
#                 rows are i-particle; 
#                 coumns are :mass, tag, x ,y, z, vx, vy, vz, ax, ay, az
# 
#                 NTHU, Computational Physics 
# 
#                 ----------------------------------------------------
#                 Time = 0.0
0.000000000000000000e+00 1.000000000000000000e+00 2.000000000000000000e+00 3.000000000000000000e+00 4.000000000000000000e+00 5.000000000000000000e+00 6.000000000000000000e+00 7.000000000000000000e+00 8.000000000000000000e+00 9.000000000000000000e+00 1.000000000000000000e+01 1.100000000000000000e+01 1.200000000000000000e+01 1.300000000000000000e+01 1.400000000000000000e+01 1.500000000000000000e+01 1.600000000000000000e+01 1.700000000000000000e+01 1.800000000000000000e+01 1.900000000000000000e+01 2.000000000000000000e+01 2.100000000000000000e+01 2.200000000000000000e+01 2.300000000000000000e+01 2.400000000000000000e+01 2.500000000000000000e+01 2.600000000000000000e+01 2.700000000000000000e+01 2.800000000000000000e+01 2.900000000000000000e+01 3.000000000000000000e+01 3.100000000000000000e+01 3.200000000000000000e+01 3.300000000000000000e+01 3.400000000000000000e+01 3.500000000000000000e+01 3.600000000000000000e+01 3.700000000000000000e+01 3.800000000000000000e+01 3.900000000000000000e+01 4.000000000000000000e+01 4.100000000000000000e+01 4.200000000000000000e+01 4.300000000000000000e+01 4.400000000000000000e+01 4.500000000000000000e+01 4.600000000000000000e+01 4.700000000000000000e+01 4.800000000000000000e+01 4.900000000000000000e+01 5.000000000000000000e+01 5.100000000000000000e+01 5.200000000000000000e+01 5.300000000000000000e+01 5.400000000000000000e+01 5.500000000000000000e+01 5.600000000000000000e+01 5.700000000000000000e+01 5.800000000000000000e+01 5.900000000000000000e+01 6.000000000000000000e+01 6.100000000000000000e+01 6.200000000000000000e+01 6.300000000000000000e+01 6.400000000000000000e+01 6.500000000000000000e+01 6.600000000000000000e+01 6.700000000000000000e+01 6.800000000000000000e+01 6.900000000000000000e+01 7.000000000000000000e+01 7.100000000000000000e+01 7.200000000000000000e+01 7.300000000000000000e+01 7.400000000000000000e+01 7.500000000000000000e+01 7.600000000000000000e+01 7.700000000000000000e+01 7.800000000000000000e+01 7.900000000000000000e+01 8.000000000000000000e+01 8.100000000000000000e+01 8.200000000000000000e+01 8.300000000000000000e+01 8.400000000000000000e+01 8.500000000000000000e+01 8.600000000000000000e+01 8.700000000000000000e+01 8.800000000000000000e+01 8.900000000000000000e+01 9.000000000000000000e+01 9.100000000000000000e+01 9.200000000000000000e+01 9.300000000000000000e+01 9.400000000000000000e+01 9.500000000000000000e+01 9.600000000000000000e+01 9.700000000000000000e+01 9.800000000000000000e+01 9.900000000000000000e+01 1.000000000000000000e+02 1.010000000000000000e+02 1.020000000000000000e+02 1.030000000000000000e+02 1.040000000000000000e+02 1.050000000000000000e+02 1.060000000000000000e+02 1.070000000000000000e+02 1.080000000000000000e+02 1.090000000000000000e+02 1.100000000000000000e+02 1.110000000000000000e+02 1.120000000000000000e+02 1.130000000000000000e+02 1.140000000000000000e+02 1.150000000000000000e+02 1.160000000000000000e+02 1.170000000000000000e+02 1.180000000000000000e+02 1.190000000000000000e+02 1.200000000000000000e+02 1.210000000000000000e+02 1.220000000000000000e+02 1.230000000000000000e+02 1.240000000000000000e+02 1.250000000000000000e+02 1.260000000000000000e+02 1.270000000000000000e+02 1.280000000000000000e+02 1.290000000000000000e+02 1.300000000000000000e+02 1.310000000000000000e+02 1.320000000000000000e+02 1.330000000000000000e+02 1.340000000000000000e+02 1.350000000000000000e+02 1.360000000000000000e+02 1.370000000000000000e+02 1.380000000000000000e+02 1.390000000000000000e+02 1.400000000000000000e+02 1.410000000000000000e+02 1.420000000000000000e+02 1.430000000000000000e+02 1.440000000000000000e+02 1.450000000000000000e+02 1.460000000000000000e+02 1.470000000000000000e+02 1.480000000000000000e+02 1.490000000000000000e+02 1.500000000000000000e+02 1.510000000000000000e+02 1.520000000000000000e+02 1.530000000000000000e+02 1.540000000000000000e+02 1.550000000000000000e+02 1.560000000000000000e+02 1.570000000000000000e+02 1.580000000000000000e+02 1.590000000000000000e+02 1.600000000000000000e+02 1.610000000000000000e+02 1.620000000000000000e+02 1.630000000000000000e+02 1.640000000000000000e+02 1.650000000000000000e+02 1.660000000000000000e+02 1.670000000000000000e+02 1.680000000000000000e+02 1.690000000000000000e+02 1.700000000000000000e+02 1.710000000000000000e+02 1.720000000000000000e+02 1.730000000000000000e+02 1.740000000000000000e+02 1.750000000000000000e+02 1.760000000000000000e+02 1.770000000000000000e+02 1.780000000000000000e+02 1.790000000000000000e+02 1.800000000000000000e+02 1.810000000000000000e+02 1.820000000000000000e+02 1.830000000000000000e+02 1.840000000000000000e+02 1.850000000000000000e+02 1.860000000000000000e+02 1.870000000000000000e+02 1.880000000000000000e+02 1.890000000000000000e+02 1.900000000000000000e+02 1.910000000000000000e+02 1.920000000000000000e+02 1.930000000000000000e+02 1.940000000000000000e+02 1.950000000000000000e+02 1.960000000000000000e+02 1.970000000000000000e+02 1.980000000000000000e+02 1.990000000000000000e+02 2.000000000000000000e+02 2.010000000000000000e+02 2.020000000000000000e+02 2.030000000000000000e+02 2.040000000000000000e+02 2.050000000000000000e+02 2.060000000000000000e+02 2.070000000000000000e+02 2.080000000000000000e+02 2.090000000000000000e+02 2.100000000000000000e+02 2.110000000000000000e+02 2.120000000000000000e+02 2.130000000000000000e+02 2.140000000000000000e+02 2.150000000000000000e+02 2.160000000000000000e+02 2.170000000000000000e+02 2.180000000000000000e+02 2.190000000000000000e+02 2.200000000000000000e+02 2.210000000000000000e+02 2.220000000000000000e+02 2.230000000000000000e+02 2.240000000000000000e+02 2.250000000000000000e+02 2.260000000000000000e+02 2.270000000000000000e+02 2.280000000000000000e+02 2.290000000000000000e+02 2.300000000000000000e+02 2.310000000000000000e+02 2.320000000000000000e+02 2.330000000000000000e+02 2.340000000000000000e+02 2.350000000000000000e+02 2.360000000000000000e+02 2.370000000000000000e+02 2.380000000000000000e+02 2.390000000000000000e+02 2.400000000000000000e+02 2.410000000000000000e+02 2.420000000000000000e+02 2.430000000000000000e+02 2.440000000000000000e+02 2.450000000000000000e+02 2.460000000000000000e+02 2.470000000000000000e+02 2.480000000000000000e+02 2.490000000000000000e+02 2.500000000000000000e+02 2.510000000000000000e+02 2.520000000000000000e+02 2.530000000000000000e+02 2.540000000000000000e+02 2.550000000000000000e+02 2.560000000000000000e+02 2.570000000000000000e+02 2.580000000000000000e+02 2.590000000000000000e+02 2.600000000000000000e+02 2.610000000000000000e+02 2.620000000000000000e+02 2.630000000000000000e+02 2.640000000000000000e+02 2.650000000000000000e+02 2.660000000000000000e+02 2.670000000000000000e+02 2.680000000000000000e+02 2.690000000000000000e+02 2.700000000000000000e+02 2.710000000000000000e+02 2.720000000000000000e+02 2.730000000000000000e+02 2.740000000000000000e+02 2.750000000000000000e+02 2.760000000000000000e+02 2.770000000000000000e+02 2.780000000000000000e+02 2.790000000000000000e+02 2.800000000000000000e+02 2.810000000000000000e+02 2.820000000000000000e+02 2.830000000000000000e+02 2.840000000000000000e+02 2.850000000000000000e+02 2.860000000000000000e+02 2.870000000000000000e+02 2.880000000000000000e+02 2.890000000000000000e+02 2.900000000000000000e+02 2.910000000000000000e+02 2.920000000000000000e+02 2.930000000000000000e+02 2.940000000000000000e+02 2.950000000000000000e+02 2.960000000000000000e+02 2.970000000000000000e+02 2.980000000000000000e+02 2.990000000000000000e+02 3.000000000000000000e+02 3.010000000000000000e+02 3.020000000000000000e+02 3.030000000000000000e+02 3.040000000000000000e+02 3.050000000000000000e+02 3.060000000000000000e+02 3.070000000000000000e+02 3.080000000000000000e+02 3.090000000000000000e+02 3.100000000000000000e+02 3.110000000000000000e+02 3.120000000000000000e+02 3.130000000000000000e+02 3.140000000000000000e+02 3.150000000000000000e+02 3.160000000000000000e+02 3.170000000000000000e+02 3.180000000000000000e+02 3.190000000000000000e+02 3.200000000000000000e+02 3.210000000000000000e+02 3.220000000000000000e+02 3.230000000000000000e+02 3.240000000000000000e+02 3.250000000000000000e+02 3.260000000000000000e+02 3.270000000000000000e+02 3.280000000000000000e+02 3.290000000000000000e+02 3.300000000000000000e+02 3.310000000000000000e+02 3.320000000000000000e+02 3.330000000000000000e+02 3.340000000000000000e+02 3.350000000000000000e+02 3.360000000000000000e+02 3.370000000000000000e+02 3.380000000000000000e+02 3.390000000000000000e+02 3.400000000000000000e+02 3.410000000000000000e+02 3.420000000000000000e+02 3.430000000000000000e+02 3.440000000000000000e+02 3.450000000000000000e+02 3.460000000000000000e+02 3.470000000000000000e+02 3.480000000000000000e+02 3.490000000000000000e+02 3.500000000000000000e+02 3.510000000000000000e+02 3.520000000000000000e+02 3.530000000000000000e+02 3.540000000000000000e+02 3.550000000000000000e+02 3.560000000000000000e+02 3.570000000000000000e+02 3.580000000000000000e+02 3.590000000000000000e+02 3.600000000000000000e+02 3.610000000000000000e+02 3.620000000000000000e+02 3.630000000000000000e+02 3.640000000000000000e+02 3.650000000000000000e+02 3.660000000000000000e+02 3.670000000000000000e+02 3.680000000000000000e+02 3.690000000000000000e+02 3.700000000000000000e+02 3.710000000000000000e+02 3.720000000000000000e+02 3.730000000000000000e+02 3.740000000000000000e+02 3.750000000000000000e+02 3.760000000000000000e+02 3.770000000000000000e+02 3.780000000000000000e+02 3.790000000000000000e+02 3.800000000000000000e+02 3.810000000000000000e+02 3.820000000000000000e+02 3.830000000000000000e+02 3.840000000000000000e+02 3.850000000000000000e+02 3.860000000000000000e+02 3.870000000000000000e+02 3.880000000000000000e+02 3.890000000000000000e+02 3.900000000000000000e+02 3.910000000000000000e+02 3.920000000000000000e+02 3.930000000000000000e+02 3.940000000000000000e+02 3.950000000000000000e+02 3.960000000000000000e+02 3.970000000000000000e+02 3.980000000000000000e+02 3.990000000000000000e+02 4.000000000000000000e+02 4.010000000000000000e+02 4.020000000000000000e+02 4.030000000000000000e+02 4.040000000000000000e+02 4.050000000000000000e+02 4.060000000000000000e+02 4.070000000000000000e+02 4.080000000000000000e+02 4.090000000000000000e+02 4.100000000000000000e+02 4.110000000000000000e+02 4.120000000000000000e+02 4.130000000000000000e+02 4.140000000000000000e+02 4.150000000000000000e+02 4.160000000000000000e+02 4.170000000000000000e+02 4.180000000000000000e+02 4.190000000000000000e+02 4.200000000000000000e+02 4.210000000000000000e+02 4.220000000000000000e+02 4.230000000000000000e+02 4.240000000000000000e+02 4.250000000000000000e+02 4.260000000000000000e+02 4.270000000000000000e+02 4.280000000000000000e+02 4.290000000000000000e+02 4.300000000000000000e+02 4.310000000000000000e+02 4.320000000000000000e+02 4.330000000000000000e+02 4.340000000000000000e+02 4.350000000000000000e+02 4.360000000000000000e+02 4.370000000000000000e+02 4.380000000000000000e+02 4.390000000000000000e+02 4.400000000000000000e+02 4.410000000000000000e+02 4.420000000000000000e+02 4.430000000000000000e+02 4.440000000000000000e+02 4.450000000000000000e+02 4.460000000000000000e+02 4.470000000000000000e+02 4.480000000000000000e+02 4.490000000000000000e+02 4.500000000000000000e+02 4.510000000000000000e+02 4.520000000000000000e+02 4.530000000000000000e+02 4.540000000000000000e+02 4.550000000000000000e+02 4.560000000000000000e+02 4.570000000000000000e+02 4.580000000000000000e+02 4.590000000000000000e+02 4.600000000000000000e+02 4.610000000000000000e+02 4.620000000000000000e+02 4.630000000000000000e+02 4.640000000000000000e+02 4.650000000000000000e+02 4.660000000000000000e+02 4.670000000000000000e+02 4.680000000000000000e+02 4.690000000000000000e+02 4.700000000000000000e+02 4.710000000000000000e+02 4.720000000000000000e+02 4.730000000000000000e+02 4.740000000000000000e+02 4.750000000000000000e+02 4.760000000000000000e+02 4.770000000000000000e+02 4.780000000000000000e+02 4.790000000000000000e+02 4.800000000000000000e+02 4.810000000000000000e+02 4.820000000000000000e+02 4.830000000000000000e+02 4.840000000000000000e+02 4.850000000000000000e+02 4.860000000000000000e+02 4.870000000000000000e+02 4.880000000000000000e+02 4.890000000000000000e+02 4.900000000000000000e+02 4.910000000000000000e+02 4.920000000000000000e+02 4.930000000000000000e+02 4.940000000000000000e+02 4.950000000000000000e+02 4.960000000000000000e+02 4.970000000000000000e+02 4.980000000000000000e+02 4.990000000000000000e+02 5.000000000000000000e+02 5.010000000000000000e+02 5.020000000000000000e+02 5.030000000000000000e+02 5.040000000000000000e+02 5.050000000000000000e+02 5.060000000000000000e+02 5.070000000000000000e+02 5.080000000000000000e+02 5.090000000000000000e+02 5.100000000000000000e+02 5.110000000000000000e+02 5.120000000000000000e+02 5.130000000000000000e+02 5.140000000000000000e+02 5.150000000000000000e+02 5.160000000000000000e+02 5.170000000000000000e+02 5.180000000000000000e+02 5.190000000000000000e+02 5.200000000000000000e+02 5.210000000000000000e+02 5.220000000000000000e+02 5.230000000000000000e+02 5.240000000000000000e+02 5.250000000000000000e+02 5.260000000000000000e+02 5.270000000000000000e+02 5.280000000000000000e+02 5.290000000000000000e+02 5.300000000000000000e+02 5.310000000000000000e+02 5.320000000000000000e+02 5.330000000000000000e+02 5.340000000000000000e+02 5.350000000000000000e+02 5.360000000000000000e+02 5.370000000000000000e+02 5.380000000000000000e+02 5.390000000000000000e+02 5.400000000000000000e+02 5.410000000000000000e+02 5.420000000000000000e+02 5.430000000000000000e+02 5.440000000000000000e+02 5.450000000000000000e+02 5.460000000000000000e+02 5.470000000000000000e+02 5.480000000000000000e+02 5.490000000000000000e+02 5.500000000000000000e+02 5.510000000000000000e+02 5.520000000000000000e+02 5.530000000000000000e+02 5.540000000000000000e+02 5.550000000000000000e+02 5.560000000000000000e+02 5.570000000000000000e+02 5.580000000000000000e+02 5.590000000000000000e+02 5.600000000000000000e+02 5.610000000000000000e+02 5.620000000000000000e+02 5.630000000000000000e+02 5.640000000000000000e+02 5.650000000000000000e+02 5.660000000000000000e+02 5.670000000000000000e+02 5.680000000000000000e+02 5.690000000000000000e+02 5.700000000000000000e+02 5.710000000000000000e+02 5.720000000000000000e+02 5.730000000000000000e+02 5.740000000000000000e+02 5.750000000000000000e+02 5.760000000000000000e+02 5.770000000000000000e+02 5.780000000000000000e+02 5.790000000000000000e+02 5.800000000000000000e+02 5.810000000000000000e+02 5.820000000000000000e+02 5.830000000000000000e+02 5.840000000000000000e+02 5.850000000000000000e+02 5.860000000000000000e+02 5.870000000000000000e+02 5.880000000000000000e+02 5.890000000000000000e+02 5.900000000000000000e+02 5.910000000000000000e+02 5.920000000000000000e+02 5.930000000000000000e+02 5.940000000000000000e+02 5.950000000000000000e+02 5.960000000000000000e+02 5.970000000000000000e+02 5.980000000000000000e+02 5.990000000000000000e+02 6.000000000000000000e+02 6.010000000000000000e+02 6.020000000000000000e+02 6.030000000000000000e+02 6.040000000000000000e+02 6.050000000000000000e+02 6.060000000000000000e+02 6.070000000000000000e+02 6.080000000000000000e+02 6.090000000000000000e+02 6.100000000000000000e+02 6.110000000000000000e+02 6.120000000000000000e+02 6.130000000000000000e+02 6.140000000000000000e+02 6.150000000000000000e+02 6.160000000000000000e+02 6.170000000000000000e+02 6.180000000000000000e+02 6.190000000000000000e+02 6.200000000000000000e+02 6.210000000000000000e+02 6.220000000000000000e+02 6.230000000000000000e+02 6.240000000000000000e+02 6.250000000000000000e+02 6.260000000000000000e+02 6.270000000000000000e+02 6.280000000000000000e+02 6.290000000000000000e+02 6.300000000000000000e+02 6.310000000000000000e+02 6.320000000000000000e+02 6.330000000000000000e+02 6.340000000000000000e+02 6.350000000000000000e+02 6.360000000000000000e+02 6.370000000000000000e+02 6.380000000000000000e+02 6.390000000000000000e+02 6.400000000000000000e+02 6.410000000000000000e+02 6.420000000000000000e+02 6.430000000000000000e+02 6.440000000000000000e+02 6.450000000000000000e+02 6.460000000000000000e+02 6.470000000000000000e+02 6.480000000000000000e+02 6.490000000000000000e+02 6.500000000000000000e+02 6.510000000000000000e+02 6.520000000000000000e+02 6.530000000000000000e+02 6.540000000000000000e+02 6.550000000000000000e+02 6.560000000000000000e+02 6.570000000000000000e+02 6.580000000000000000e+02 6.590000000000000000e+02 6.600000000000000000e+02 6.610000000000000000e+02 6.620000000000000000e+02 6.630000000000000000e+02 6.640000000000000000e+02 6.650000000000000000e+02 6.660000000000000000e+02 6.670000000000000000e+02 6.680000000000000000e+02 6.690000000000000000e+02 6.700000000000000000e+02 6.710000000000000000e+02 6.720000000000000000e+02 6.730000000000000000e+02 6.740000000000000000e+02 6.750000000000000000e+02 6.760000000000000000e+02 6.770000000000000000e+02 6.780000000000000000e+02 6.790000000000000000e+02 6.800000000000000000e+02 6.810000000000000000e+02 6.820000000000000000e+02 6.830000000000000000e+02 6.840000000000000000e+02 6.850000000000000000e+02 6.860000000000000000e+02 6.870000000000000000e+02 6.880000000000000000e+02 6.890000000000000000e+02 6.900000000000000000e+02 6.910000000000000000e+02 6.920000000000000000e+02 6.930000000000000000e+02 6.940000000000000000e+02 6.950000000000000000e+02 6.960000000000000000e+02 6.970000000000000000e+02 6.980000000000000000e+02 6.990000000000000000e+02 7.000000000000000000e+02 7.010000000000000000e+02 7.020000000000000000e+02 7.030000000000000000e+02 7.040000000000000000e+02 7.050000000000000000e+02 7.060000000000000000e+02 7.070000000000000000e+02 7.080000000000000000e+02 7.090000000000000000e+02 7.100000000000000000e+02 7.110000000000000000e+02 7.120000000000000000e+02 7.130000000000000000e+02 7.140000000000000000e+02 7.150000000000000000e+02 7.160000000000000000e+02 7.170000000000000000e+02 7.180000000000000000e+02 7.190000000000000000e+02 7.200000000000000000e+02 7.210000000000000000e+02 7.220000000000000000e+02 7.230000000000000000e+02 7.240000000000000000e+02 7.250000000000000000e+02 7.260000000000000000e+02 7.270000000000000000e+02 7.280000000000000000e+02 7.290000000000000000e+02 7.300000000000000000e+02 7.310000000000000000e+02 7.320000000000000000e+02 7.330000000000000000e+02 7.340000000000000000e+02 7.350000000000000000e+02 7.360000000000000000e+02 7.370000000000000000e+02 7.380000000000000000e+02 7.390000000000000000e+02 7.400000000000000000e+02 7.410000000000000000e+02 7.420000000000000000e+02 7.430000000000000000e+02 7.440000000000000000e+02 7.450000000000000000e+02 7.460000000000000000e+02 7.470000000000000000e+02 7.480000000000000000e+02 7.490000000000000000e+02 7.500000000000000000e+02 7.510000000000000000e+02 7.520000000000000000e+02 7.530000000000000000e+02 7.540000000000000000e+02 7.550000000000000000e+02 7.560000000000000000e+02 7.570000000000000000e+02 7.580000000000000000e+02 7.590000000000000000e+02 7.600000000000000000e+02 7.610000000000000000e+02 7.620000000000000000e+02 7.630000000000000000e+02 7.640000000000000000e+02 7.650000000000000000e+02 7.660000000000000000e+02 7.670000000000000000e+02 7.680000000000000000e+02 7.690000000000000000e+02 7.700000000000000000e+02 7.710000000000000000e+02 7.720000000000000000e+02 7.730000000000000000e+02 7.740000000000000000e+02 7.750000000000000000e+02 7.760000000000000000e+02 7.770000000000000000e+02 7.780000000000000000e+02 7.790000000000000000e+02 7.800000000000000000e+02 7.810000000000000000e+02 7.820000000000000000e+02 7.830000000000000000e+02 7.840000000000000000e+02 7.850000000000000000e+02 7.860000000000000000e+02 7.870000000000000000e+02 7.880000000000000000e+02 7.890000000000000000e+02 7.900000000000000000e+02 7.910000000000000000e+02 7.920000000000000000e+02 7.930000000000000000e+02 7.940000000000000000e+02 7.950000000000000000e+02 7.960000000000000000e+02 7.970000000000000000e+02 7.980000000000000000e+02 7.990000000000000000e+02 8.000000000000000000e+02 8.010000000000000000e+02 8.020000000000000000e+02 8.030000000000000000e+02 8.040000000000000000e+02 8.050000000000000000e+02 8.060000000000000000e+02 8.070000000000000000e+02 8.080000000000000000e+02 8.090000000000000000e+02 8.100000000000000000e+02 8.110000000000000000e+02 8.120000000000000000e+02 8.130000000000000000e+02 8.140000000000000000e+02 8.150000000000000000e+02 8.160000000000000000e+02 8.170000000000000000e+02 8.180000000000000000e+02 8.190000000000000000e+02 8.200000000000000000e+02 8.210000000000000000e+02 8.220000000000000000e+02 8.230000000000000000e+02 8.240000000000000000e+02 8.250000000000000000e+02 8.260000000000000000e+02 8.270000000000000000e+02 8.280000000000000000e+02 8.290000000000000000e+02 8.300000000000000000e+02 8.310000000000000000e+02 8.320000000000000000e+02 8.330000000000000000e+02 8.340000000000000000e+02 8.350000000000000000e+02 8.360000000000000000e+02 8.370000000000000000e+02 8.380000000000000000e+02 8.390000000000000000e+02 8.400000000000000000e+02 8.410000000000000000e+02 8.420000000000000000e+02 8.430000000000000000e+02 8.440000000000000000e+02 8.450000000000000000e+02 8.460000000000000000e+02 8.470000000000000000e+02 8.480000000000000000e+02 8.490000000000000000e+02 8.500000000000000000e+02 8.510000000000000000e+02 8.520000000000000000e+02 8.530000000000000000e+02 8.540000000000000000e+02 8.550000000000000000e+02 8.560000000000000000e+02 8.570000000000000000e+02 8.580000000000000000e+02 8.590000000000000000e+02 8.600000000000000000e+02 8.610000000000000000e+02 8.620000000000000000e+02 8.630000000000000000e+02 8.640000000000000000e+02 8.650000000000000000e+02 8.660000000000000000e+02 8.670000000000000000e+02 8.680000000000000000e+02 8.690000000000000000e+02 8.700000000000000000e+02 8.710000000000000000e+02 8.720000000000000000e+02 8.730000000000000000e+02 8.740000000000000000e+02 8.750000000000000000e+02 8.760000000000000000e+02 8.770000000000000000e+02 8.780000000000000000e+02 8.790000000000000000e+02 8.800000000000000000e+02 8.810000000000000000e+02 8.820000000000000000e+02 8.830000000000000000e+02 8.840000000000000000e+02 8.850000000000000000e+02 8.860000000000000000e+02 8.870000000000000000e+02 8.880000000000000000e+02 8.890000000000000000e+02 8.900000000000000000e+02 8.910000000000000000e+02 8.920000000000000000e+02 8.930000000000000000e+02 8.940000000000000000e+02 8.950000000000000000e+02 8.960000000000000000e+02 8.970000000000000000e+02 8.980000000000000000e+02 8.990000000000000000e+02 9.000000000000000000e+02 9.010000000000000000e+02 9.020000000000000000e+02 9.030000000000000000e+02 9.040000000000000000e+02 9.050000000000000000e+02 9.060000000000000000e+02 9.070000000000000000e+02 9.080000000000000000e+02 9.090000000000000000e+02 9.100000000000000000e+02 9.110000000000000000e+02 9.120000000000000000e+02 9.130000000000000000e+02 9.140000000000000000e+02 9.150000000000000000e+02 9.160000000000000000e+02 9.170000000000000000e+02 9.180000000000000000e+02 9.190000000000000000e+02 9.200000000000000000e+02 9.210000000000000000e+02 9.220000000000000000e+02 9.230000000000000000e+02 9.240000000000000000e+02 9.250000000000000000e+02 9.260000000000000000e+02 9.270000000000000000e+02 9.280000000000000000e+02 9.290000000000000000e+02 9.300000000000000000e+02 9.310000000000000000e+02 9.320000000000000000e+02 9.330000000000000000e+02 9.340000000000000000e+02 9.350000000000000000e+02 9.360000000000000000e+02 9.370000000000000000e+02 9.380000000000000000e+02 9.390000000000000000e+02 9.400000000000000000e+02 9.410000000000000000e+02 9.420000000000000000e+02 9.430000000000000000e+02 9.440000000000000000e+02 9.450000000000000000e+02 9.460000000000000000e+02 9.470000000000000000e+02 9.480000000000000000e+02 9.490000000000000000e+02 9.500000000000000000e+02 9.510000000000000000e+02 9.520000000000000000e+02 9.530000000000000000e+02 9.540000000000000000e+02 9.550000000000000000e+02 9.560000000000000000e+02 9.570000000000000000e+02 9.580000000000000000e+02 9.590000000000000000e+02 9.600000000000000000e+02 9.610000000000000000e+02 9.620000000000000000e+02 9.630000000000000000e+02 9.640000000000000000e+02 9.650000000000000000e+02 9.660000000000000000e+02 9.670000000000000000e+02 9.680000000000000000e+02 9.690000000000000000e+02 9.700000000000000000e+02 9.710000000000000000e+02 9.720000000000000000e+02 9.730000000000000000e+02 9.740000000000000000e+02 9.750000000000000000e+02 9.760000000000000000e+02 9.770000000000000000e+02 9.780000000000000000e+02 9.790000000000000000e+02 9.800000000000000000e+02 9.810000000000000000e+02 9.820000000000000000e+02 9.830000000000000000e+02 9.840000000000000000e+02 9.850000000000000000e+02 9.860000000000000000e+02 9.870000000000000000e+02 9.880000000000000000e+02 9.890000000000000000e+02 9.900000000000000000e+02 9.910000000000000000e+02 9.920000000000000000e+02 9.930000000000000000e+02 9.940000000000000000e+02 9.950000000000000000e+02 9.960000000000000000e+02 9.970000000000000000e+02 9.980000000000000000e+02 9.990000000000000000e+02
1.000000000000000000e+00 1.000000000000000000e+00 1.000000000000000000e+00 1.000000000000000000e+00 1.000000000000000000e+00 1.000000000000000000e+00 1.000000000000000000e+00 1.000000000000000000e+00 1.000000000000000000e+00 1.000000000000000000e+00 1.000000000000000000e+00 1.000000000000000000e+00 1.000000000000000000e+00 1.000000000000000000e+00 1.000000000000000000e+00 1.000000000000000000e+00 1.000000000000000000e+00 1.000000000000000000e+00 1.000000000000000000e+00 1.000000000000000000e+00 1.000000000000000000e+00 1.000000000000000000e+00 1.000000000000000000e+00 1.000000000000000000e+00 1.000000000000000000e+00 1.000000000000000000e+00 1.000000000000000000e+00 1.000000000000000000e+00 1.000000000000000000e+00 1.000000000000000000e+00 1.000000000000000000e+00 1.000000000000000000e+00 1.000000000000000000e+00 1.000000000000000000e+00 1.000000000000000000e+00 1.000000000000000000e+00 1.000000000000000000e+00 1.000000000000000000e+00 1.000000000000000000e+00 1.000000000000000000e+00 1.000000000000000000e+00 1.000000000000000000e+00 1.000000000000000000e+00 1.000000000000000000e+00 1.000000000000000000e+00 1.000000000000000000e+00 1.000000000000000000e+00 1.000000000000000000e+00 1.000000000000000000e+00 1.000000000000000000e+00 1.000000000000000000e+00 1.000000000000000000e+00 1.000000000000000000e+00 1.000000000000000000e+00 1.000000000000000000e+00 1.000000000000000000e+00 1.000000000000000000e+00 1.000000000000000000e+00 1.000000000000000000e+00 1.000000000000000000e+00 1.000000000000000000e+00 1.000000000000000000e+00 1.000000000000000000e+00 1.000000000000000000e+00 1.000000000000000000e+00 1.000000000000000000e+00 1.000000000000000000e+00 1.000000000000000000e+00 1.000000000000000000e+00 1.000000000000000000e+00 1.000000000000000000e+00 1.000000000000000000e+00 1.000000000000000000e+00 1.000000000000000000e+00 1.000000000000000000e+00 1.000000000000000000e+00 1.000000000000000000e+00 1.000000000000000000e+00 1.000000000000000000e+00 1.000000000000000000e+00 1.000000000000000000e+00 1.000000000000000000e+00 1.000000000000000000e+00 1.000000000000000000e+00 1.000000000000000000e+00 1.000000000000000000e+00 1.000000000000000000e+00 1.000000000000000000e+00 1.000000000000000000e+00 1.000000000000000000e+00 1.000000000000000000e+00 1.000000000000000000e+00 1.000000000000000000e+00 1.000000000000000000e+00 1.000000000000000000e+00 1.000000000000000000e+00 1.000000000000000000e+00 1.000000000000000000e+00 1.000000000000000000e+00 1.000000000000000000e+00 1.000000000000000000e+00 1.000000000000000000e+00 1.000000000000000000e+00 1.000000000000000000e+00 1.000000000000000000e+00 1.000000000000000000e+00 1.000000000000000000e+00 1.000000000000000000e+00 1.000000000000000000e+00 1.000000000000000000e+00 1.000000000000000000e+00 1.000000000000000000e+00 1.000000000000000000e+00 1.000000000000000000e+00 1.000000000000000000e+00 1.000000000000000000e+00 1.000000000000000000e+00 1.000000000000000000e+00 1.000000000000000000e+00 1.000000000000000000e+00 1.000000000000000000e+00 1.000000000000000000e+00 1.000000000000000000e+00 1.000000000000000000e+00 1.000000000000000000e+00 1.000000000000000000e+00 1.000000000000000000e+00 1.000000000000000000e+00 1.000000000000000000e+00 1.000000000000000000e+00 1.000000000000000000e+00 1.000000000000000000e+00 1.000000000000000000e+00 1.000000000000000000e+00 1.000000000000000000e+00 1.000000000000000000e+00 1.000000000000000000e+00 1.000000000000000000e+00 1.000000000000000000e+00 1.000000000000000000e+00 1.000000000000000000e+00 1.000000000000000000e+00 1.000000000000000000e+00 1.000000000000000000e+00 1.000000000000000000e+00 1.000000000000000000e+00 1.000000000000000000e+00 1.000000000000000000e+00 1.000000000000000000e+00 1.000000000000000000e+00 1.000000000000000000e+00 1.000000000000000000e+00 1.000000000000000000e+00 1.000000000000000000e+00 1.000000000000000000e+00 1.000000000000000000e+00 1.000000000000000000e+00 1.000000000000000000e+00 1.000000000000000000e+00 1.000000000000000000e+00 1.000000000000000000e+00 1.000000000000000000e+00 1.000000000000000000e+00 1.000000000000000000e+00 1.000000000000000000e+00 1.000000000000000000e+00 1.000000000000000000e+00 1.000000000000000000e+00 1.000000000000000000e+00 1.000000000000000000e+00 1.000000000000000000e+00 1.000000000000000000e+00 1.000000000000000000e+00 1.000000000000000000e+00 1.000000000000000000e+00 1.000000000000000000e+00 1.000000000000000000e+00 1.000000000000000000e+00 1.000000000000000000e+00 1.000000000000000000e+00 1.000000000000000000e+00 1.000000000000000000e+00 1.000000000000000000e+00 1.000000000000000000e+00 1.000000000000000000e+00 1.000000000000000000e+00 1.000000000000000000e+00 1.000000000000000000e+00 1.000000000000000000e+00 1.000000000000000000e+00 1.000000000000000000e+00 1.000000000000000000e+00 1.000000000000000000e+00 1.000000000000000000e+00 1.000000000000000000e+00 1.000000000000000000e+00 1.000000000000000000e+00 1.000000000000000000e+00 1.000000000000000000e+00 1.000000000000000000e+00 1.000000000000000000e+00 1.000000000000000000e+00 1.000000000000000000e+00 1.000000000000000000e+00 1.000000000000000000e+00 1.000000000000000000e+00 1.000000000000000000e+00 1.000000000000000000e+00 1.000000000000000000e+00 1.000000000000000000e+00 1.000000000000000000e+00 1.000000000000000000e+00 1.000000000000000000e+00 1.000000000000000000e+00 1.000000000000000000e+00 1.000000000000000000e+00 1.000000000000000000e+00 1.000000000000000000e+00 1.000000000000000000e+00 1.000000000000000000e+00 1.000000000000000000e+00 1.000000000000000000e+00 1.000000000000000000e+00 1.000000000000000000e+00 1.000000000000000000e+00 1.000000000000000000e+00 1.000000000000000000e+00 1.000000000000000000e+00 1.000000000000000000e+00 1.000000000000000000e+00 1.000000000000000000e+00 1.000000000000000000e+00 1.000000000000000000e+00 1.000000000000000000e+00 1.000000000000000000e+00 1.000000000000000000e+00 1.000000000000000000e+00 1.000000000000000000e+00 1.000000000000000000e+00 1.000000000000000000e+00 1.000000000000000000e+00 1.000000000000000000e+00 1.000000000000000000e+00 1.000000000000000000e+00 1.000000000000000000e+00 1.000000000000000000e+00 1.000000000000000000e+00 1.000000000000000000e+00 1.000000000000000000e+00 1.000000000000000000e+00 1.000000000000000000e+00 1.000000000000000000e+00 1.000000000000000000e+00 1.000000000000000000e+00 1.000000000000000000e+00 1.000000000000000000e+00 1.000000000000000000e+00 1.000000000000000000e+00 1.000000000000000000e+00 1.000000000000000000e+00 1.000000000000000000e+00 1.000000000000000000e+00 1.000000000000000000e+00 1.000000000000000000e+00 1.000000000000000000e+00 1.000000000000000000e+00 1.000000000000000000e+00 1.000000000000000000e+00 1.000000000000000000e+00 1.000000000000000000e+00 1.000000000000000000e+00 1.000000000000000000e+00 1.000000000000000000e+00 1.000000000000000000e+00 1.000000000000000000e+00 1.000000000000000000e+00 1.000000000000000000e+00 1.000000000000000000e+00 1.000000000000000000e+00 1.000000000000000000e+00 1.000000000000000000e+00 1.000000000000000000e+00 1.000000000000000000e+00 1.000000000000000000e+00 1.000000000000000000e+00 1.000000000000000000e+00 1.000000000000000000e+00 1.000000000000000000e+00 1.000000000000000000e+00 1.000000000000000000e+00 1.000000000000000000e+00 1.000000000000000000e+00 1.000000000000000000e+00 1.000000000000000000e+00 1.000000000000000000e+00 1.000000000000000000e+00 1.000000000000000000e+00 1.000000000000000000e+00 1.000000000000000000e+00 1.000000000000000000e+00 1.000000000000000000e+00 1.000000000000000000e+00 1.000000000000000000e+00 1.000000000000000000e+00 1.000000000000000000e+00 1.000000000000000000e+00 1.000000000000000000e+00 1.000000000000000000e+00 1.000000000000000000e+00 1.000000000000000000e+00 1.000000000000000000e+00 1.000000000000000000e+00 1.000000000000000000e+00 1.000000000000000000e+00 1.000000000000000000e+00 1.000000000000000000e+00 1.000000000000000000e+00 1.000000000000000000e+00 1.000000000000000000e+00 1.000000000000000000e+00 1.000000000000000000e+00 1.000000000000000000e+00 1.000000000000000000e+00 1.000000000000000000e+00 1.000000000000000000e+00 1.000000000000000000e+00 1.000000000000000000e+00 1.000000000000000000e+00 1.000000000000000000e+00 1.000000000000000000e+00 1.000000000000000000e+00 1.000000000000000000e+00 1.000000000000000000e+00 1.000000000000000000e+00 1.000000000000000000e+00 1.000000000000000000e+00 1.000000000000000000e+00 1.000000000000000000e+00 1.000000000000000000e+00 1.000000000000000000e+00 1.000000000000000000e+00 1.000000000000000000e+00 1.000000000000000000e+00 1.000000000000000000e+00 1.000000000000000000e+00 1.000000000000000000e+00 1.000000000000000000e+00 1.000000000000000000e+00 1.000000000000000000e+00 1.000000000000000000e+00 1.000000000000000000e+00 1.000000000000000000e+00 1.000000000000000000e+00 1.000000000000000000e+00 1.000000000000000000e+00 1.000000000000000000e+00 1.000000000000000000e+00 1.000000000000000000e+00 1.000000000000000000e+00 1.000000000000000000e+00 1.000000000000000000e+00 1.000000000000000000e+00 1.000000000000000000e+00 1.000000000000000000e+00 1.000000000000000000e+00 1.000000000000000000e+00 1.000000000000000000e+00 1.000000000000000000e+00 1.000000000000000000e+00 1.000000000000000000e+00 1.000000000000000000e+00 1.000000000000000000e+00 1.000000000000000000e+00 1.000000000000000000e+00 1.000000000000000000e+00 1.000000000000000000e+00 1.000000000000000000e+00 1.000000000000000000e+00 1.000000000000000000e+00 1.000000000000000000e+00 1.000000000000000000e+00 1.000000000000000000e+00 1.000000000000000000e+00 1.000000000000000000e+00 1.000000000000000000e+00 1.000000000000000000e+00 1.000000000000000000e+00 1.000000000000000000e+00 1.000000000000000000e+00 1.000000000000000000e+00 1.000000000000000000e+00 1.000000000000000000e+00 1.000000000000000000e+00 1.000000000000000000e+00 1.000000000000000000e+00 1.000000000000000000e+00 1.000000000000000000e+00 1.000000000000000000e+00 1.000000000000000000e+00 1.000000000000000000e+00 1.000000000000000000e+00 1.000000000000000000e+00 1.000000000000000000e+00 1.000000000000000000e+00 1.000000000000000000e+00 1.000000000000000000e+00 1.000000000000000000e+00 1.000000000000000000e+00 1.000000000000000000e+00 1.000000000000000000e+00 1.000000000000000000e+00 1.000000000000000000e+00 1.000000000000000000e+00 1.000000000000000000e+00 1.000000000000000000e+00 1.000000000000000000e+00 1.000000000000000000e+00 1.000000000000000000e+00 1.000000000000000000e+00 1.000000000000000000e+00 1.000000000000000000e+00 1.000000000000000000e+00 1.000000000000000000e+00 1.000000000000000000e+00 1.000000000000000000e+00 1.000000000000000000e+00 1.000000000000000000e+00 1.000000000000000000e+00 1.000000000000000000e+00 1.000000000000000000e+00 1.000000000000000000e+00 1.000000000000000000e+00 1.000000000000000000e+00 1.000000000000000000e+00 1.000000000000000000e+00 1.000000000000000000e+00 1.000000000000000000e+00 1.000000000000000000e+00 1.000000000000000000e+00 1.000000000000000000e+00 1.000000000000000000e+00 1.000000000000000000e+00 1.000000000000000000e+00 1.000000000000000000e+00 1.000000000000000000e+00 1.000000000000000000e+00 1.000000000000000000e+00 1.000000000000000000e+00 1.000000000000000000e+00 1.000000000000000000e+00 1.000000000000000000e+00 1.000000000000000000e+00 1.000000000000000000e+00 1.000000000000000000e+00 1.000000000000000000e+00 1.000000000000000000e+00 1.000000000000000000e+00 1.000000000000000000e+00 1.000000000000000000e+00 1.000000000000000000e+00 1.000000000000000000e+00 1.000000000000000000e+00 1.000000000000000000e+00 1.000000000000000000e+00 1.000000000000000000e+00 1.000000000000000000e+00 1.000000000000000000e+00 1.000000000000000000e+00 1.000000000000000000e+00 1.000000000000000000e+00 1.000000000000000000e+00 1.000000000000000000e+00 1.000000000000000000e+00 1.000000000000000000e+00 1.000000000000000000e+00 1.000000000000000000e+00 1.000000000000000000e+00 1.000000000000000000e+00 1.000000000000000000e+00 1.000000000000000000e+00 1.000000000000000000e+00 1.000000000000000000e+00 1.000000000000000000e+00 1.000000000000000000e+00 1.000000000000000000e+00 1.000000000000000000e+00 1.000000000000000000e+00 1.000000000000000000e+00 1.000000000000000000e+00 1.000000000000000000e+00 1.000000000000000000e+00 1.000000000000000000e+00 1.000000000000000000e+00 1.000000000000000000e+00 1.000000000000000000e+00 1.000000000000000000e+00 1.000000000000000000e+00 1.000000000000000000e+00 1.000000000000000000e+00 1.000000000000000000e+00 1.000000000000000000e+00 1.000000000000000000e+00 1.000000000000000000e+00 1.000000000000000000e+00 1.000000000000000000e+00 1.000000000000000000e+00 1.000000000000000000e+00 1.000000000000000000e+00 1.000000000000000000e+00 1.000000000000000000e+00 1.000000000000000000e+00 1.000000000000000000e+00 1.000000000000000000e+00 1.000000000000000000e+00 1.000000000000000000e+00 1.000000000000000000e+00 1.000000000000000000e+00 1.000000000000000000e+00 1.000000000000000000e+00 1.000000000000000000e+00 1.000000000000000000e+00 1.000000000000000000e+00 1.000000000000000000e+00 1.000000000000000000e+00 1.000000000000000000e+00 1.000000000000000000e+00 1.000000000000000000e+00 1.000000000000000000e+00 1.000000000000000000e+00 1.000000000000000000e+00 1.000000000000000000e+00 1.000000000000000000e+00 1.000000000000000000e+00 1.000000000000000000e+00 1.000000000000000000e+00 1.000000000000000000e+00 1.000000000000000000e+00 1.000000000000000000e+00 1.000000000000000000e+00 1.000000000000000000e+00 1.000000000000000000e+00 1.000000000000000000e+00 1.000000000000000000e+00 1.000000000000000000e+00 1.000000000000000000e+00 1.000000000000000000e+00 1.000000000000000000e+00 1.000000000000000000e+00 1.000000000000000000e+00 1.000000000000000000e+00 1.000000000000000000e+00 1.000000000000000000e+00 1.000000000000000000e+00 1.000000000000000000e+00 1.000000000000000000e+00 1.000000000000000000e+00 1.000000000000000000e+00 1.000000000000000000e+00 1.000000000000000000e+00 1.000000000000000000e+00 1.000000000000000000e+00 1.000000000000000000e+00 1.000000000000000000e+00 1.000000000000000000e+00 1.000000000000000000e+00 1.000000000000000000e+00 1.000000000000000000e+00 1.000000000000000000e+00 1.000000000000000000e+00 1.000000000000000000e+00 1.000000000000000000e+00 1.000000000000000000e+00 1.000000000000000000e+00 1.000000000000000000e+00 1.000000000000000000e+00 1.000000000000000000e+00 1.000000000000000000e+00 1.000000000000000000e+00 1.000000000000000000e+00 1.000000000000000000e+00 1.000000000000000000e+00 1.000000000000000000e+00 1.000000000000000000e+00 1.000000000000000000e+00 1.000000000000000000e+00 1.000000000000000000e+00 1.000000000000000000e+00 1.000000000000000000e+00 1.000000000000000000e+00 1.000000000000000000e+00 1.000000000000000000e+00 1.000000000000000000e+00 1.000000000000000000e+00 1.000000000000000000e+00 1.000000000000000000e+00 1.000000000000000000e+00 1.000000000000000000e+00 1.000000000000000000e+00 1.000000000000000000e+00 1.000000000000000000e+00 1.000000000000000000e+00 1.000000000000000000e+00 1.000000000000000000e+00 1.000000000000000000e+00 1.000000000000000000e+00 1.000000000000000000e+00 1.000000000000000000e+00 1.000000000000000000e+00 1.000000000000000000e+00 1.000000000000000000e+00 1.000000000000000000e+00 1.000000000000000000e+00 1.000000000000000000e+00 1.000000000000000000e+00 1.000000000000000000e+00 1.000000000000000000e+00 1.000000000000000000e+00 1.000000000000000000e+00 1.000000000000000000e+00 1.000000000000000000e+00 1.000000000000000000e+00 1.000000000000000000e+00 1.000000000000000000e+00 1.000000000000000000e+00 1.000000000000000000e+00 1.000000000000000000e+00 1.000000000000000000e+00 1.000000000000000000e+00 1.000000000000000000e+00 1.000000000000000000e+00 1.000000000000000000e+00 1.000000000000000000e+00 1.000000000000000000e+00 1.000000000000000000e+00 1.000000000000000000e+00 1.000000000000000000e+00 1.000000000000000000e+00 1.000000000000000000e+00 1.000000000000000000e+00 1.000000000000000000e+00 1.000000000000000000e+00 1.000000000000000000e+00 1.000000000000000000e+00 1.000000000000000000e+00 1.000000000000000000e+00 1.000000000000000000e+00 1.000000000000000000e+00 1.000000000000000000e+00 1.000000000000000000e+00 1.000000000000000000e+00 1.000000000000000000e+00 1.000000000000000000e+00 1.000000000000000000e+00 1.000000000000000000e+00 1.000000000000000000e+00 1.000000000000000000e+00 1.000000000000000000e+00 1.000000000000000000e+00 1.000000000000000000e+00 1.000000000000000000e+00 1.000000000000000000e+00 1.000000000000000000e+00 1.000000000000000000e+00 1.000000000000000000e+00 1.000000000000000000e+00 1.000000000000000000e+00 1.000000000000000000e+00 1.000000000000000000e+00 1.000000000000000000e+00 1.000000000000000000e+00 1.000000000000000000e+00 1.000000000000000000e+00 1.000000000000000000e+00 1.000000000000000000e+00 1.000000000000000000e+00 1.000000000000000000e+00 1.000000000000000000e+00 1.000000000000000000e+00 1.000000000000000000e+00 1.000000000000000000e+00 1.000000000000000000e+00 1.000000000000000000e+00 1.000000000000000000e+00 1.000000000000000000e+00 1.000000000000000000e+00 1.000000000000000000e+00 1.000000000000000000e+00 1.000000000000000000e+00 1.000000000000000000e+00 1.000000000000000000e+00 1.000000000000000000e+00 1.000000000000000000e+00 1.000000000000000000e+00 1.000000000000000000e+00 1.000000000000000000e+00 1.000000000000000000e+00 1.000000000000000000e+00 1.000000000000000000e+00 1.000000000000000000e+00 1.000000000000000000e+00 1.000000000000000000e+00 1.000000000000000000e+00 1.000000000000000000e+00 1.000000000000000000e+00 1.000000000000000000e+00 1.000000000000000000e+00 1.000000000000000000e+00 1.000000000000000000e+00 1.000000000000000000e+00 1.000000000000000000e+00 1.000000000000000000e+00 1.000000000000000000e+00 1.000000000000000000e+00 1.000000000000000000e+00 1.000000000000000000e+00 1.000000000000000000e+00 1.000000000000000000e+00 1.000000000000000000e+00 1.000000000000000000e+00 1.000000000000000000e+00 1.000000000000000000e+00 1.000000000000000000e+00 1.000000000000000000e+00 1.000000000000000000e+00 1.000000000000000000e+00 1.000000000000000000e+00 1.000000000000000000e+00 1.000000000000000000e+00 1.000000000000000000e+00 1.000000000000000000e+00 1.000000000000000000e+00 1.000000000000000000e+00 1.000000000000000000e+00 1.000000000000000000e+00 1.000000000000000000e+00 1.000000000000000000e+00 1.000000000000000000e+00 1.000000000000000000e+00 1.000000000000000000e+00 1.000000000000000000e+00 1.000000000000000000e+00 1.000000000000000000e+00 1.000000000000000000e+00 1.000000000000000000e+00 1.000000000000000000e+00 1.000000000000000000e+00 1.000000000000000000e+00 1.000000000000000000e+00 1.000000000000000000e+00 1.000000000000000000e+00 1.000000000000000000e+00 1.000000000000000000e+00 1.000000000000000000e+00 1.000000000000000000e+00 1.000000000000000000e+00 1.000000000000000000e+00 1.000000000000000000e+00 1.000000000000000000e+00 1.000000000000000000e+00 1.000000000000000000e+00 1.000000000000000000e+00 1.000000000000000000e+00 1.000000000000000000e+00 1.000000000000000000e+00 1.000000000000000000e+00 1.000000000000000000e+00 1.000000000000000000e+00 1.000000000000000000e+00 1.000000000000000000e+00 1.000000000000000000e+00 1.000000000000000000e+00 1.000000000000000000e+00 1.000000000000000000e+00 1.000000000000000000e+00 1.000000000000000000e+00 1.000000000000000000e+00 1.000000000000000000e+00 1.000000000000000000e+00 1.000000000000000000e+00 1.000000000000000000e+00 1.000000000000000000e+00 1.000000000000000000e+00 1.000000000000000000e+00 1.000000000000000000e+00 1.000000000000000000e+00 1.000000000000000000e+00 1.000000000000000000e+00 1.000000000000000000e+00 1.000000000000000000e+00 1.000000000000000000e+00 1.000000000000000000e+00 1.000000000000000000e+00 1.000000000000000000e+00 1.000000000000000000e+00 1.000000000000000000e+00 1.000000000000000000e+00 1.000000000000000000e+00 1.000000000000000000e+00 1.000000000000000000e+00 1.000000000000000000e+00 1.000000000000000000e+00 1.000000000000000000e+00 1.000000000000000000e+00 1.000000000000000000e+00 1.000000000000000000e+00 1.000000000000000000e+00 1.000000000000000000e+00 1.000000000000000000e+00 1.000000000000000000e+00 1.000000000000000000e+00 1.000000000000000000e+00 1.000000000000000000e+00 1.000000000000000000e+00 1.000000000000000000e+00 1.000000000000000000e+00 1.000000000000000000e+00 1.000000000000000000e+00 1.000000000000000000e+00 1.000000000000000000e+00 1.000000000000000000e+00 1.000000000000000000e+00 1.000000000000000000e+00 1.000000000000000000e+00 1.000000000000000000e+00 1.000000000000000000e+00 1.000000000000000000e+00 1.000000000000000000e+00 1.000000000000000000e+00 1.000000000000000000e+00 1.000000000000000000e+00 1.000000000000000000e+00 1.000000000000000000e+00 1.000000000000000000e+00 1.000000000000000000e+00 1.000000000000000000e+00 1.000000000000000000e+00 1.000000000000000000e+00 1.000000000000000000e+00 1.000000000000000000e+00 1.000000000000000000e+00 1.000000000000000000e+00 1.000000000000000000e+00 1.000000000000000000e+00 1.000000000000000000e+00 1.000000000000000000e+00 1.000000000000000000e+00 1.000000000000000000e+00 1.000000000000000000e+00 1.000000000000000000e+00 1.000000000000000000e+00 1.000000000000000000e+00 1.000000000000000000e+00 1.000000000000000000e+00 1.000000000000000000e+00 1.000000000000000000e+00 1.000000000000000000e+00 1.000000000000000000e+00 1.000000000000000000e+00 1.000000000000000000e+00 1.000000000000000000e+00 1.000000000000000000e+00 1.000000000000000000e+00 1.000000000000000000e+00 1.000000000000000000e+00 1.000000000000000000e+00 1.000000000000000000e+00 1.000000000000000000e+00 1.000000000000000000e+00 1.000000000000000000e+00 1.000000000000000000e+00 1.000000000000000000e+00 1.000000000000000000e+00 1.000000000000000000e+00 1.000000000000000000e+00 1.000000000000000000e+00 1.000000000000000000e+00 1.000000000000000000e+00 1.000000000000000000e+00 1.000000000000000000e+00 1.000000000000000000e+00 1.000000000000000000e+00 1.000000000000000000e+00 1.000000000000000000e+00 1.000000000000000000e+00 1.000000000000000000e+00 1.000000000000000000e+00 1.000000000000000000e+00 1.000000000000000000e+00 1.000000000000000000e+00 1.000000000000000000e+00 1.000000000000000000e+00 1.000000000000000000e+00 1.000000000000000000e+00 1.000000000000000000e+00 1.000000000000000000e+00 1.000000000000000000e+00 1.000000000000000000e+00 1.000000000000000000e+00 1.000000000000000000e+00 1.000000000000000000e+00 1.000000000000000000e+00 1.000000000000000000e+00 1.000000000000000000e+00 1.000000000000000000e+00 1.000000000000000000e+00 1.000000000000000000e+00 1.000000000000000000e+00 1.000000000000000000e+00 1.000000000000000000e+00 1.000000000000000000e+00 1.000000000000000000e+00 1.000000000000000000e+00 1.000000000000000000e+00 1.000000000000000000e+00 1.000000000000000000e+00 1.000000000000000000e+00 1.000000000000000000e+00 1.000000000000000000e+00 1.000000000000000000e+00 1.000000000000000000e+00 1.000000000000000000e+00 1.000000000000000000e+00 1.000000000000000000e+00 1.000000000000000000e+00 1.000000000000000000e+00 1.000000000000000000e+00 1.000000000000000000e+00 1.000000000000000000e+00 1.000000000000000000e+00 1.000000000000000000e+00 1.000000000000000000e+00 1.000000000000000000e+00 1.000000000000000000e+00 1.000000000000000000e+00 1.000000000000000000e+00 1.000000000000000000e+00 1.000000000000000000e+00 1.000000000000000000e+00 1.000000000000000000e+00 1.000000000000000000e+00 1.000000000000000000e+00 1.000000000000000000e+00 1.000000000000000000e+00 1.000000000000000000e+00 1.000000000000000000e+00 1.000000000000000000e+00 1.000000000000000000e+00 1.000000000000000000e+00 1.000000000000000000e+00 1.000000000000000000e+00 1.000000000000000000e+00 1.000000000000000000e+00 1.000000000000000000e+00 1.000000000000000000e+00 1.000000000000000000e+00 1.000000000000000000e+00 1.000000000000000000e+00 1.000000000000000000e+00 1.000000000000000000e+00 1.000000000000000000e+00 1.000000000000000000e+00 1.000000000000000000e+00 1.000000000000000000e+00 1.000000000000000000e+00 1.000000000000000000e+00 1.000000000000000000e+00 1.000000000000000000e+00 1.000000000000000000e+00 1.000000000000000000e+00 1.000000000000000000e+00 1.000000000000000000e+00 1.000000000000000000e+00 1.000000000000000000e+00 1.000000000000000000e+00 1.000000000000000000e+00 1.000000000000000000e+00 1.000000000000000000e+00 1.000000000000000000e+00 1.000000000000000000e+00 1.000000000000000000e+00 1.000000000000000000e+00 1.000000000000000000e+00 1.000000000000000000e+00 1.000000000000000000e+00 1.000000000000000000e+00 1.000000000000000000e+00 1.000000000000000000e+00 1.000000000000000000e+00 1.000000000000000000e+00 1.000000000000000000e+00 1.000000000000000000e+00 1.000000000000000000e+00 1.000000000000000000e+00 1.000000000000000000e+00 1.000000000000000000e+00 1.000000000000000000e+00 1.000000000000000000e+00 1.000000000000000000e+00 1.000000000000000000e+00 1.000000000000000000e+00
6.274422804671392351e-02 4.827866009946426562e-01 8.957301644061519408e-01 5.375521064090124090e-01 5.168041892759087652e-01 5.580395271357098119e-01 1.263100499941036958e-01 3.873034631104853576e-01 6.077500246257342420e-01 5.025779902754892170e-01 9.978920061162358524e-01 -2.092138137304790646e-01 1.091537433299173854e+00 4.882501322453297044e-01 4.978091148983347924e-01 6.361850999691479602e-01 8.887035943521288672e-01 6.754694535303003011e-01 5.643335302801586462e-01 4.761649100478347330e-01 4.373746170786217968e-01 8.419128793468020344e-01 4.462597087352926928e-01 4.799722692468332830e-01 6.181134293636617594e-01 7.928047657275405502e-01 3.735083378624865502e-01 5.249643931234118099e-01 5.052712961722153340e-01 7.838725984818257775e-01 4.992306187814377072e-01 5.437374673009948145e-01 7.773221533366837521e-01 4.609204215340786392e-01 7.158376602662501753e-01 4.734823294464456378e-01 7.485177287884413611e-01 7.028854957777994628e-01 1.631223750590482524e-01 4.729878082239979964e-01 5.949033714385585370e-01 -2.956604824755587613e-01 7.351084678440966691e-01 2.077687128278042361e-01 2.275777617431340993e-01 4.927001816969436288e-01 5.379266518280183540e-01 5.264848217698918642e-01 4.487034131997970632e-01 7.186024230687818037e-02 5.428116387801927567e-02 4.194037491483759705e-01 4.882416241499288323e-01 5.028987655787369171e-01 5.029503781706494703e-01 8.178617102116056414e-02 5.130319862049186330e-01 8.514535220694826601e-01 1.822582498324477607e-01 4.784865210108478761e-01 7.177900900904320425e-01 4.184071897923582473e-01 4.797732401251603163e-01 4.462648153072421020e-01 4.238542607766744297e-01 4.435892649774078600e-01 4.903971113936677062e-01 3.743369510214167306e-01 5.963499421416100787e-01 5.000855243139860906e-02 4.091684977746296581e-01 4.872273324270998129e-01 5.125766209369472248e-01 7.269266185770179023e-02 1.222934634432680356e+00 4.696131482535495505e-01 5.843312309281618599e-01 7.454623516108012105e-01 4.842217204268706165e-01 1.234202895079987705e+00 4.669189362830585277e-01 2.338796396294668123e-01 7.415117552150466418e-01 5.482893495969850539e-01 5.013368703147429439e-01 7.210262820986409471e-01 8.508046561099054106e-01 5.174179655629829178e-01 2.909350686341014569e-01 5.604627354466450440e-01 2.301931941231780132e-01 1.357939866018440966e+00 4.977864605735471959e-01 8.236321428400873723e-02 3.826926377615534336e-01 5.230798286130108332e-01 5.706030303170668283e-01 6.549924629778871576e-01 2.231456235189351045e-01 7.854090769404138417e-01 6.738111969399560586e-01 5.007838894358027648e-01 4.730224034802247290e-01 1.020703727903180313e+00 1.826959837369790396e-01 -9.823178405025237980e-01 -7.440459514787323148e-01 5.461310964780824451e-01 5.789145027263266075e-01 8.698742571082243025e-01 4.076760641441009581e-01 5.383764601233897995e-01 9.039813304010676509e-01 5.139838433975727483e-01 4.350994917871413015e-01 5.961819091819446914e-01 4.886463650784019230e-01 6.964239124691260496e-01 5.945534547500078704e-01 4.512794091781714423e-01 1.067913669545777600e+00 4.700022013486901962e-01 6.626948508676597793e-01 5.683941476411220606e-01 5.183661732254642995e-01 1.503906113504761999e+00 2.863507553347330314e-01 8.041707623247585923e-01 5.164848573649228891e-01 4.738547140691559689e-01 5.345698363256718988e-01 4.875449272475881335e-01 5.290071515727248208e-01 5.028536650665926810e-01 4.754857093586407069e-01 -6.054835262697009710e-03 9.484699916464673919e-01 -1.174202381377591545e-02 8.436615511923389876e-01 4.664252795310309119e-01 4.873779004541786142e-01 5.340259283463160145e-01 5.673427702762037228e-01 4.916507639240013106e-01 5.006884552599197846e-01 3.866388019945715682e-02 5.568025179595212926e-01 4.790112701640418802e-01 4.415560206995737813e-01 -3.724592613977854572e-01 7.520106457283403101e-01 3.566673417258173218e-02 4.932177471059208673e-01 5.068316409653983445e-01 7.378054481761566752e-01 6.280546649885380139e-01 5.811346679146907057e-01 5.884652299358991145e-01 7.772310108545417151e-01 7.745003019599068228e-01 4.092899291117936267e-01 5.367768583597471999e-01 5.059016526271279401e-01 5.041355756339859218e-01 1.117904517025493760e+00 -1.394199324440247856e-01 7.522344676201777602e-01 4.861191790993555362e-01 5.196074633632763451e-01 5.144315603347392463e-01 6.199523980538929058e-01 5.363071815981974577e-01 4.927083982947695340e-01 4.844231177311545955e-01 4.363286539015426846e-01 1.884124033863966707e-02 1.790564271842491340e-01 1.041287270036557466e-01 5.660495344928521133e-01 1.004816359560493755e+00 4.778833314199430471e-01 5.093713803438801868e-01 -2.225106156304102190e-01 7.602965680821461847e-01 4.877586355215732805e-01 5.963898216688903187e-01 5.449730159922691053e-01 5.197924397909061689e-01 1.595100065641329001e+00 6.927703873678421331e-01 3.884992644232214687e-01 -1.472073888579139289e-01 5.076888340559133628e-01 7.055978552954540461e-01 1.001178315760090226e-01 5.423374697354745866e-01 7.463204474675287914e-01 4.946662788371515296e-01 4.944725573858176348e-01 4.883640762918031175e-01 3.688375472965614299e-01 4.498848969205736514e-01 8.906467018379241596e-01 5.522004094971298960e-01 5.377804977319338153e-01 4.944734703101469897e-01 5.081463096151153103e-01 1.067709151996795836e+00 4.872133283054125297e-01 4.565309044188275434e-01 3.726252058512373733e-01 1.585111476142251341e-01 5.379764666179059907e-01 4.294667176789476737e-01 4.832325862728892307e-01 5.072771030153169214e-01 4.831167484001679946e-01 4.864666280059503078e-01 5.045498905480041429e-01 5.009363487485795075e-01 5.161018952722666864e-01 4.990179273469761978e-01 -2.833991835610449317e-01 6.213356112628403150e-01 7.750613295490030863e-01 4.189909345966275067e-01 6.826782188165373411e-01 4.259408052156496427e-01 7.589424576365021435e-01 8.216435352662849745e-01 -1.106344638144734910e-01 8.639561273391007656e-01 4.881244025744165271e-01 4.291728790340653132e-01 -1.353839664537456050e-02 6.486069827129966603e-01 3.791153901688527617e-01 4.746542441003482327e-01 2.119115889368930472e-02 -4.127834714715788306e-02 6.415901680640951898e-01 5.081186556852113068e-01 1.089397645087339939e-01 4.982169502802736294e-01 4.975147157331941128e-01 1.056334748259758261e+00 -8.859520744195836794e-02 5.723808287833264119e-01 -8.674412698949582889e-01 7.226393144367607713e-01 6.363882705339256596e-01 4.905014460284116140e-01 5.001868681618314438e-01 4.462757457508984560e-01 5.441419884529493656e-01 5.049806426309970675e-01 4.659730888799810122e-01 4.054986851639843515e-01 6.105382869583814154e-01 1.372626301092152223e+00 4.102018836685578096e-01 5.410267845653264907e-01 3.604881755610914729e-01 4.017967518513039238e-01 7.236051970073696937e-01 4.685939837045758338e-01 1.694540346095556815e+00 4.896188109909975217e-01 4.097159396497742079e-01 9.619419897489964733e-01 4.528768678208862641e-01 7.087715854690592732e-01 4.831346954916468928e-01 5.119124800070560255e-01 4.859554645111617832e-01 5.146225243734745547e-01 1.492710808252282195e-01 8.724747441191861297e-01 8.459608715618774921e-01 -6.224913483842153816e-02 5.905611225490950966e-01 5.010227188492257788e-01 6.269626260280847241e-01 -2.862797622145897836e-01 3.422839906259242948e-01 7.234372152381259857e-01 4.653917303359978996e-01 4.967522099211570952e-01 5.961808798808329035e-01 5.853794068789625049e-01 4.827339818144493755e-01 6.785638354650795900e-01 5.513060027784029149e-01 5.577411914294944095e-01 4.129733354057328609e-02 4.855776575162750186e-01 1.551249710394938086e+00 4.766476706098456417e-01 5.020213027423003904e-01 4.409322340577100929e-01 -2.010471560483494180e+00 5.523025557511407335e-01 7.881672238787827967e-01 5.370433629238551276e-01 5.191199498601259954e-01 -5.202136307224672906e-01 4.946852651813025692e-01 4.795181763225482841e-01 4.734119195522581980e-01 5.226900517896673204e-01 7.620103880772667315e-01 5.336712182237304258e-01 3.405982677662871549e-01 5.086698068229711378e-01 4.930910103230462527e-01 4.899824707218504161e-01 4.944701298983503746e-01 5.373672918380962837e-01 4.978601495464761162e-01 9.789372332883226058e-01 7.443412443895308650e-02 1.825143729637691115e+00 1.867353793756105107e+00 5.407741100445460081e-01 1.219270979242627340e-01 4.233300511980162550e-01 3.703237260728934888e-01 4.885573133594471873e-01 1.063392245748137954e+00 5.064286114037602760e-01 9.580678991517138643e-01 4.905747508655423639e-01 4.512230707563010257e-01 1.103185591707353641e+00 6.335946612424995239e-01 6.446207651777725589e-01 4.922375620445892941e-01 6.720380583644678385e-01 -1.767489794127412361e+00 1.218847639533606309e+00 5.121698480860960023e-01 6.306701754085595191e-01 5.070503784035891304e-01 7.028854852915525919e-01 4.687514557129834336e-01 5.394498543686155889e-01 4.382665233658395998e-01 5.413063854753252802e-01 1.344878543411651917e+00 3.169471401617166006e-01 4.944714297850795193e-01 4.982020546518513560e-01 5.522004094971406651e-01 3.402392597484092396e-01 4.175558425061152712e-01 7.596139755268072058e-01 4.729423650184443328e-01 5.100338514566512549e-01 4.949904816475094727e-01 6.382143838124719748e-01 4.923516084677347360e-01 4.117364978226547012e-01 5.394517011217678792e-01 5.386468623205146189e-01 5.056328019263700568e-01 7.112871739539469162e-01 9.746496203020466043e-01 7.789162248149941181e-01 5.337907909170998000e-01 4.386985243816718394e-01 7.158260192457537308e-01 2.370844537473771815e-02 6.676943062635705139e-01 6.037471708574859708e-01 6.585617041981961517e-02 5.020026276760317652e-01 9.167272770028798146e-01 5.607545923602103022e-01 4.012494593806767429e-01 2.193180427886132211e-01 -1.904451988608572566e-01 -1.502610619310929652e+00 4.789899317937802437e-01 5.522004094982725375e-01 5.522004094990673462e-01 4.985635613258074805e-01 3.712883762195255954e-01 8.504839036134795305e-02 4.918313350755956215e-01 4.771944076751864494e-01 5.769545089052166009e-01 4.851866488529897325e-01 1.152989620926395009e+00 4.944734452632607580e-01 4.917304298252340167e-01 4.539467300263586025e-01 3.611063546282999859e-01 4.870580872144132378e-01 6.516813263722757155e-01 4.094449810242662413e-01 6.587528573500537332e-01 5.080055746452486476e-01 4.313463091505489316e-02 5.522004094992017942e-01 5.583653655105167424e-01 5.026560602210066175e-01 5.999468795962971113e-01 6.948535094432118919e-01 7.523363614380029762e-01 5.470736897337928895e-01 8.783396756600981847e-01 5.104215144189356845e-01 -1.138984216320025444e+00 5.371431746546625474e-01 1.152161469757137402e+00 4.848211311197472839e-01 -3.632931275690498008e-01 4.838620825645629231e-01 5.198670925743986704e-01 9.408811539100956356e-01 4.931251942748239858e-01 7.089041467320464918e-01 4.940162786563082609e-01 9.456961251945951163e-01 4.963289626086513362e-01 6.800552542924900301e-01 4.681147555652210857e-01 5.119816135345395258e-01 6.653381884138570568e-01 5.026178637764892043e-01 8.163771866453276571e-01 2.489264692172550864e-01 4.368940254904248865e-01 4.935088929804883895e-01 6.102831390837926140e-01 4.886632390848157370e-01 7.077101019161569084e-01 4.919870951726157959e-01 6.211676896033319073e-01 4.308245569587930701e-01 4.968271452073323435e-01 1.561283373459611268e-01 1.135007466590898656e-01 1.545212285586048673e-01 7.887799351187340102e-01 5.013475860602095713e-01 2.270794928440286853e+00 5.572103177536565921e-01 6.950863512613081330e-01 5.685145031852903985e-01 7.147938757865134329e-01 5.296978093303517099e-02 4.965168501638548282e-01 4.772823748661235155e-01 5.427527956713799062e-01 9.753110921083595342e-01 7.079924480091983607e-01 5.066639307880026477e-01 5.299611960883472417e-01 7.351771715453481182e-01 5.488883126903719711e-01 4.850744894398267282e-01 4.753429209519898224e-01 5.174634066603883698e-01 4.828081162402166338e-01 7.266103004160481271e-01 5.119953151645734168e-01 4.877385638839884519e-01 7.407792512250234440e-02 4.803507357410329304e-01 6.095064698522413560e-02 5.189168952709758420e-01 4.803765621764044536e-01 5.236377139813612747e-01 6.513416380883940704e-01 5.216257496024998552e-01 4.742082089581444726e-01 4.093618084480478148e-01 4.758658278660116703e-01 5.191722492431601887e-01 4.964626511542012399e-01 4.786640174693670285e-02 4.829266685028769657e-01 3.412126015836829951e-01 4.667624236965237650e-01 4.572400248659033717e-01 3.494726003726433827e-01 4.389346294145055616e-01 4.953981879960606127e-01 4.206355393260788333e-01 3.756459663648948344e-01 6.128655145819859040e-01 8.284255340168720227e-01 6.096412380079290205e-01 4.907359088226092569e-01 5.731439103397121260e-01 1.435246217558796555e+00 4.833240724750464401e-01 4.703297630271197072e-01 6.412862384593006615e-01 5.511726722956865610e-01 2.117987335204853938e-01 4.440438314141274545e-01 -3.034352012435873047e-01 3.333358609005273587e-01 5.164158734325350331e-01 4.568517562524518349e-01 5.635430679940860443e-01 -3.833047875851697261e-02 4.346542167689058656e-01 4.826651388365112427e-01 6.705970457729660827e-01 5.473259894506711243e-01 5.110206285765506173e-01 4.884551636541355490e-01 4.920582523885765891e-01 7.759324064093783835e-04 4.837532685861152815e-01 7.766876756078138211e-01 4.292391613299401665e-01 7.139381747644796272e-02 4.344858403044322137e-01 7.125372395331560638e-01 4.834419980684509510e-01 3.567169788981196521e-01 9.127532380114992128e-01 8.476150520663870980e-01 4.901059946014216240e-01 4.084559328337757922e-01 3.574621051800084270e-01 5.371910450833984330e-01 3.356220884462884357e-01 6.931053937269675558e-01 5.010687431377140733e-02 5.726066090610859582e-01 3.612131933203404088e-01 6.681016576049986222e-01 5.999648329891217324e-01 7.079669073948008373e-01 1.850525013515148254e-01 -1.418079063575315366e-02 -5.227266667792362931e-02 5.134546588201507333e-01 5.020675381429645645e-01 5.376157106862743396e-01 4.583200013622927282e-01 -3.555861079886529219e-01 2.244667810715485157e+00 5.748501125455430794e-01 4.995272370673022877e-01 1.052742694268280488e+00 4.936457307632679536e-01 4.870790873192035741e-01 4.437868679951754158e-01 5.778695042997566977e-01 5.502553255959896639e-01 4.712194942045875856e-01 4.491127327054622587e-01 4.641483433787670365e-01 5.120231640380641380e-01 5.060527144379017850e-01 4.184553762694751544e-01 5.746068026117620020e-01 5.119814856678047699e-01 5.512337858978066940e-01 6.470811553766744328e-01 1.733235412623433058e+00 5.215883467505673110e-01 5.006700146996369005e-01 5.389504036590808678e-01 4.455831927423692940e-01 5.548120960640059440e-01 4.978050291563484997e-01 4.949765123309350923e-01 4.288518960190724205e-01 4.764381307817447397e-01 3.648044577623800189e-01 5.379236630869833613e-01 4.892165340928735784e-01 6.162760899123644887e-01 1.029184714294559599e+00 9.689646951051733570e-01 3.041464873425848148e-01 7.237394960489391682e-01 4.525120035358506931e-01 4.168918276586000560e-01 1.644281656644920986e+00 2.339109465814246391e-01 3.930663870362746115e-01 4.831987230642670883e-01 2.919785108086276129e-02 4.864550880061063731e-01 1.165308665627783791e+00 4.242664937349565069e-01 7.847670583028166780e-01 5.041114289244792435e-01 4.831921265728393311e-01 5.033296821965634882e-01 5.143791410064543212e-01 5.060660775120707777e-01 4.991784912859482115e-01 4.721350656049544958e-01 4.695134647082727097e-01 5.587973805055888032e-01 5.012565147837116930e-01 4.110913962607196104e-01 5.037615933721492079e-01 4.402726112043948148e-01 7.237935896651274126e-01 4.506244606435320099e-01 4.904708253588547229e-01 6.647473568276970335e-01 -1.066102658557620264e-01 4.928853829945903375e-01 5.164118678388095462e-01 5.631823669934078458e-01 5.476170831443254450e-01 4.960674878420944789e-01 1.339992544159326338e-01 -9.233837796995589819e-01 4.120872700925254373e-01 4.449057318544084594e-01 6.534280564014419701e-01 4.991759114802826747e-01 5.074154417084820734e-01 5.540356289903692888e-01 -5.318405281331664569e-02 7.692809261814586019e-01 5.961834921336579551e-01 6.369897099445530619e-01 4.905375629997134057e-01 -1.115235565182327165e-01 -1.430691849398362525e-01 9.794247152876304208e-01 4.926960842561415865e-01 5.159425229940460822e-01 4.929870167523866531e-01 4.520141486107883133e-01 4.809854586007409893e-01 5.112254701805738488e-01 7.435878735521435079e-01 4.562697933383184634e-01 5.090060085834592352e-01 4.735107880915427336e-01 6.061919604624036451e-01 5.096960240987756796e-01 5.013853053336846388e-01 4.907987412058302801e-01 6.349077213086278260e-01 8.047499734124640147e-01 5.103561158702389911e-01 5.037892858865399281e-01 4.923497766337849302e-01 4.227013844970285983e-01 5.004658122295678746e-01 4.294900115791144835e-02 5.394496560943953245e-01 2.636272288401477759e-01 4.804534097003181348e-01 4.630803006438801717e-01 1.111057656575118013e+00 4.440601256660726137e-01 2.123724613792891402e-01 5.675995498465649103e-01 4.721984663814964289e-01 4.973022191280458415e-01 5.122548476181374433e-01 5.778283822395167135e-01 4.887980210149133753e-01 5.060175730253471116e-01 8.876283117942318501e-01 -3.136972993667716536e-01 1.324285252404858060e+00 8.638320320691184051e-01 7.348273298993541758e-01 2.011376765390410493e-01 3.711477434975116174e-01 7.937577896100850294e-01 1.805223766654278361e-01 4.844869153356223257e-01 4.396936630620728037e-01 3.180693095092421846e-02 5.332357572897354903e-01 3.838625234494350558e-01 4.910205010712581086e-01 9.069250095440680726e-01 4.935752358138159046e-01 2.908256369463456115e-01 3.417534475963804885e-01 5.071841243027731538e-01 6.259603638570592210e-01 4.828304673309126160e-01 4.813521834467758831e-01 4.618323344134119823e-01 -4.694784555288710748e-01 4.309481891741497872e-01 5.530569826739428763e-01 5.006825017425107216e-01 5.381098665132432179e-01 7.207464502550839924e-01 7.501863474277997712e-01 -2.581234119192458154e-01 9.966084331543229036e-01 7.028856603786385326e-01 4.771305757963788530e-01 4.652125428119676664e-01 8.903628115265179721e-01 5.063308426977132237e-01 5.365069596231322180e-01 4.198603053244709948e-01 8.177675736714793420e-01 4.843842186633681712e-01 4.981980427531728650e-01 1.129333270707242765e+00 7.335230337037848547e-02 6.475331021348159632e-01 9.447426208411831283e-03 -4.589563933196990630e-01 -1.433273999253165676e-01 6.647043331800277510e-01 5.089736977037604415e-01 4.280508747514811252e-01 -2.621882864230929977e-01 4.851696915257548426e-01 6.827763796087928105e-02 6.445577360214922447e-01 5.897562809360684666e-01 4.805618277230076507e-01 4.904651682287233250e-01 4.772896195379321971e-01 6.112620061782483294e-01 7.416985993275149180e-01 2.120718067356667513e-01 5.440708356066897844e-01 5.784825793805041805e-01 5.235665158482157855e-01 9.689183462193656782e-01 4.181209014621359299e-01 7.048201418559338904e-01 5.169963316328158864e-01 2.901777509473763006e-02 7.104673727074370948e-01 4.625114904626418388e-01 4.978260637496613183e-01 4.844627488270057403e-01 5.023584241985511456e-01 3.657476018165382592e-01 5.374490448716450208e-01 5.010002281558030290e-01 6.827716701031305568e-01 5.363058426110868249e-01 7.533901808612782913e-01 1.794321009347054963e+00 -6.844025075181639495e-02 4.688363988390797932e-01 4.900544365719559092e-01 4.612824027353288336e-01 6.908325080321565670e-01 5.119452985682240165e-01 -5.145226516114435045e-01 5.088755056850834402e-01 1.872328841659791188e+00 4.905544997035083954e-01 3.997227476989022588e-01 4.139998242450674271e-01 5.961830791970981203e-01 6.655668322744524579e-01 1.011725505803732883e+00 4.674170320048390281e-01 2.016565261632346021e-02 5.328557516464185184e-01 7.838743188949236496e-01 3.201920659498445620e-01 6.696884451389082393e-01 5.100027382700274003e-01 7.055632329879599762e-01 4.355813965971399582e-01 3.732700167356744481e-01 1.941275501112652360e-03 4.843455943325776225e-01 4.762232859050615774e-01 -3.080963867155866454e-01 6.606501490279771405e-01 9.694069272575251972e-01 2.747334822647190533e-01 5.354968460364154526e-01 9.273560856406413144e-01 4.872910517409039244e-01 1.622329280523453487e+00 3.540074380710467317e-01 4.346222810261708702e-02 3.865015977242052814e-01 4.986832459058294642e-01 2.681623848261252552e-01 4.787108785987574944e-01 2.622486257443568461e-03 4.899373951113815684e-01 -6.395026406933310148e-02 4.936795282343621194e-01 5.127387364980414697e-01 8.618292799407893667e-02 5.896961225033632570e-02 6.020209673797674022e-01 6.386573703337745656e-01 4.933170720617284788e-01 5.615025351679857613e-01 7.510435782978694963e-01 4.843421653750851763e-01 5.156846331958190310e-01 3.629957952128615162e-01 5.221472604439643117e-01 3.181854670031533106e-01 9.258856460037397929e-01 2.230373059419452630e+00 5.094425130902331400e-01 4.938925651141303774e-01 4.835957095988814292e-01 4.841547371961237023e-02 4.902483749178692674e-01 5.211249936087293255e-01 4.823326930164718584e-01 1.242216729841505440e+00 5.570070152909407657e-01 -2.866543818490276951e-01 1.182584910422774388e-01 4.035165145720567281e-01 5.686312161521112074e-01 5.084267950919413304e-01 4.950210925480009738e-01 3.926029177946399606e-02 4.917072069411835278e-01 5.276477626084139505e-01 -1.096523751706305561e+00 4.463084563498502799e-01 5.042904564304153681e-01 9.120408222323339587e-01 6.037663938942059438e-01 5.678110356024972383e-01 7.917353618150549943e-01 -4.062110080239645926e-01 -3.846454176313392481e-01 -2.359959245495783439e-02 5.480621217089275410e-01 4.103104644740599438e-01 1.182467182051080590e+00 5.111136567041996148e-01 -5.686184830951548225e-02 9.133363032848004215e-01 5.210730509302211599e-01 6.360191338162142216e-01 4.259943800101705924e-01 5.067531274971787125e-01 3.406696753066592587e-01 -2.432419217390760224e-01 3.695559083229587594e-01 5.436058664957529318e-01 3.058245423009648412e-01 4.723456462456165350e-01 3.495008760211625320e-01 4.859462757393133714e-01 4.781456443445161186e-01 4.751743604019774692e-01 5.967812812320515414e-01 5.342586249220877548e-01 7.028854630441122575e-01 3.451210335522031936e-01 4.963185428682651001e-01 1.454119329627084622e-01 5.094487194484248471e-01 5.124599450767481912e-01 4.912421890813026826e-01 2.979382573043307114e-01 2.189870257182323643e-01 6.683884355126576970e-01 3.958059181359225298e-01 3.428058975655576823e-01 4.824054907411637894e-01 4.926788256822495771e-01 3.949894881336393215e-01 4.899683077536727271e-01 4.910180641674157243e-01 9.964818633339039833e-01 7.301801041931472724e-01 -2.188754489525285840e-01 3.271414000287007351e-01 6.515366129139269491e-01 5.162948879410026448e-01 3.077097619732388489e-01 5.050883317720775700e-01 1.541682976298102137e-01 -1.411473562193565380e-02 8.410209399438770550e-01 4.180231805966883596e-01 5.870184521968478952e-01 7.575346427264633142e-01 4.972413511895438232e-01 5.483493008963453708e-01 1.172015231401147384e+00 3.684401063007243793e-01 5.953332244783702265e-01 5.247994005401369622e-01 2.689800257009719586e-01 1.037482481527154388e+00 3.227948283694205278e-01 3.777995896456544100e-01 3.507535448826206159e-01 -2.300964173066600560e-01 6.444470796016931180e-01 8.266443929844589089e-01 -5.988157015074544454e-01 5.053446544229057702e-01 4.959893052931897417e-01 -3.895666800419482489e-02 5.019023398891528931e-01 6.472424999896678743e-01 5.528994157644468999e-01 5.113007760082515230e-01 3.713878941526109201e-01 3.754670311808875893e-01 4.778845467489870047e-01 5.110283702780293869e-01 4.906107075239344306e-01 1.308011804682385759e-01 1.157193207231440590e+00 4.992545201115251574e-01 9.476151105061108026e-01 6.185838781429043864e-01 -3.096728028280649747e-01 6.906926897427655421e-01 4.891998615666046102e-01 3.201598777744278923e-01 5.908240643835336453e-02 2.529066434385967010e-01 4.966489234100914807e-01 4.941562972155449929e-01 3.155572169412094730e-01 7.387352986208854666e-02 4.720554111487700322e-01 5.764747985805200869e-01 5.165740433605903181e-01 1.645638219429354843e+00 9.323122085277326665e-01 3.307575636773255612e-01 4.890422440801755477e-01 1.360615914632345547e+00 3.363185689711202242e-01 4.868933708079938305e-01 9.411415354217753659e-01 5.394494557037178284e-01 5.168126411983910984e-01 5.597855028952071210e-01 5.492870671810539118e-01 4.776128973215960638e-01 5.344236390452929975e-01 5.039248953200666792e-01 1.071629882641307874e-01 4.995177070658691210e-01 5.949825270088109352e-01 4.385972774130624807e-01 4.613202756415327177e-01 5.170708703108024551e-01 8.559611516137877185e-02 3.246954713962830752e-01 -3.567077487526258417e-01 -1.495187494711500975e-01 5.067483829497436698e-01 5.039771338139941159e-01 6.109622623631294491e-01 5.036762874314706373e-01 4.097110332090266871e-01 5.092979734003341141e-01 5.394500221606949308e-01 4.967828196951443731e-01 5.046804241294085003e-01 4.168367965779591344e-01 4.875208945838252483e-01 1.097532656358525482e+00 4.906893265193680853e-01 4.823018081650088384e-01 1.231066197455216032e-01 4.763408971020764437e-01 5.007439111084434069e-01 4.995214983823030863e-01 9.012579628771202334e-01 5.035753854966414922e-01 8.500210533534297008e-01 7.758645115719474683e-01 4.602457879072027191e-01 4.737658951151854647e-01 3.006124409729408753e-01 7.065908100886837406e-01 1.391910080002416006e+00 4.844427306901938901e-01 2.632611555606821363e-01 4.742039177499490221e-01 5.283131350797881653e-01 9.762093056143655856e-01 3.914244593402491645e-01 8.038325180131422609e-01 5.146523633592798852e-01
7.830386055227596120e-01 3.388837090803096253e-01 7.417023791705646962e-01 2.854907806688436467e-01 3.055809761856340123e-01 2.579648461143205229e-01 2.963692056059472058e-01 4.912653223212273823e-01 2.598906111513396566e-01 3.271636549777995895e-01 1.518598588710708075e+00 1.334235169296214885e+00 -7.823248500008483930e-01 3.380660762647591522e-01 1.269014626165654025e-01 4.302718163514475669e-01 2.739871833146768632e-01 3.444785796312775927e-01 2.775767255786927845e-01 3.579446311101606160e-01 5.056465706778912050e-01 1.445272999435615491e+00 4.808987694251728451e-01 3.289014580900468943e-01 1.676775553272989161e-01 -6.166569142409390469e-01 4.713037661003091072e-01 3.766459460630142142e-01 3.135912509984227770e-01 1.275344023852268555e-03 3.207525915208612743e-01 3.151380992360837685e-01 3.347702700259519437e-01 3.720060513856758844e-01 -7.065594549240580835e-02 3.783229952299551613e-01 1.581552915600599463e-01 2.859625401267636424e-01 -2.031096583934687505e+00 3.469974414481510894e-01 -5.145475954091396908e-02 1.321653019221402936e-01 -2.462041415603817562e-02 6.660698210596601720e-01 9.143675640061778020e-01 3.302738898077909879e-01 2.854335183095592088e-01 3.217433404098382632e-01 3.545687886215214135e-01 7.478424537592742727e-01 7.551600089251921943e-01 5.550818134077281085e-01 -7.350092820542046823e-01 3.103982206251951204e-01 3.207509388405579420e-01 8.275188449710174643e-01 3.070945666563783538e-01 1.746641663678760448e-01 3.925627404366291429e-01 2.987306113972306720e-01 3.701141524810668826e-01 2.905977145802882688e-01 3.190042930284081590e-01 4.808980325618045226e-01 3.387433603931055415e-01 3.579769339345989509e-01 3.560099452834591949e-01 2.802985282572394987e-01 2.434982060829307127e-01 7.505258666817756774e-01 5.328551286898255412e-01 3.390966641793783931e-01 3.207436994461103641e-01 7.556071533307079369e-01 1.398980488292945301e+00 3.781998235221776805e-01 3.687649311339518121e-01 3.281366763802492925e-01 3.401495110958374091e-01 -8.349036282621355998e-01 3.327076342079541837e-01 9.098907204525404913e-01 8.980424777916556911e-01 2.800386811060079362e-01 3.911285480335686682e-01 -7.007480699179287065e-01 -5.755307698640456382e-02 3.407416537780467714e-01 -3.347110828752941636e-01 -3.301747740528209185e-01 9.071438956436377321e-01 9.301048568188822196e-01 3.594679677858594880e-01 6.780941820583243906e-01 4.672236916257895833e-01 2.813092268631975923e-01 1.550272966135685937e-01 1.755865014950800662e-01 7.665235572196996694e-01 -6.174635108801711514e-01 1.659941254607986139e-01 3.538271065022836614e-01 3.143320139240011746e-01 3.123110670755592788e-01 2.775675021818886923e-01 1.911411105792067078e+00 -1.186502640610067050e-01 -6.454485505973815984e-01 2.621157587868929162e-01 6.248330906333243728e-01 4.230632425381251616e-01 2.857626940568913088e-01 3.908159717684253631e-01 3.115647970673123823e-01 -5.533888220547991121e-01 3.362961499362651652e-01 3.351421770192673510e-01 4.911302404902118113e-01 -3.059163350988634011e-01 2.366749430130295762e-01 -9.753394983237800853e-01 3.183866597700525936e-01 1.850657549300716576e-01 3.571267719943951868e-02 2.932396430351397743e-01 1.491605367692025785e+00 5.345543958666533202e-01 3.759703119127240090e-01 2.962127614853198310e-01 3.446112010516381163e-01 3.415570878462489968e-01 3.455908356544084015e-01 2.727770799739534513e-01 2.167733218544085627e-01 4.318661273601110406e-01 9.093370824587214685e-01 9.155698950282423199e-02 8.193596568149330572e-01 -1.939032676419692736e-01 3.604952201158130864e-01 3.511758417469789118e-01 3.253434993463620861e-01 4.323945015306715489e-01 3.327858059308970162e-01 3.409106427892822366e-01 7.786886170639095717e-01 6.767119871008644427e-01 3.967972510779490536e-01 1.518763100207837224e-01 3.219653528793537389e-01 -5.654329776116404638e-01 1.167375447326899629e-01 3.299866728368132662e-01 3.142545039346989477e-01 3.995754643864414812e-01 2.437261445504570745e-01 1.595942542980222090e-01 2.818336027082616324e-01 -4.311977979551288032e-01 -6.282278780463437240e-01 3.230398209236675644e-01 1.912031945862691790e-02 3.144899814582570730e-01 3.310508702044787643e-01 -3.663762018873955445e-03 -1.209155724653505071e-01 3.085346949541974415e-01 4.755277052879709476e-01 2.744188959699716546e-01 4.542887261758834505e-01 7.099081527316671858e-01 2.841862951126765680e-01 3.303991607738120395e-01 3.597275993068247413e-01 -1.711169359929527456e+00 7.830427090429319392e-01 8.437859324943379757e-01 9.412322159432212620e-01 -2.627674954141982488e-01 9.749588260847723564e-01 3.230040376744647834e-01 3.092795249150712134e-01 9.052977364337093658e-01 2.193589436576861562e-01 5.005934356281668274e-01 2.335496563689315463e-01 2.799566335038572440e-01 2.881373239780382622e-01 -4.502079812604373871e-02 1.718757599513975054e-01 2.057579149764460213e-01 5.266800796019512898e-01 3.275688491443511374e-01 1.767499913749114027e-01 3.079039236150169986e-02 2.626046040645860224e-01 -7.182506064510477684e-01 3.382725863812094391e-01 4.092453007437295565e-01 3.308024624178098061e-01 3.768184502801558144e-01 4.100116423127032061e-01 1.732637584249263063e-01 5.177517664055979185e-02 -9.239732651425480725e-01 4.092408995202791999e-01 3.013704866746585442e-01 -2.949720516562539530e-01 3.320555467548632622e-01 1.451647745719286675e-01 5.909185133465940654e-01 -2.032466621833242115e+00 3.112123396907604533e-01 6.784638646727185751e-01 3.361680215113946324e-01 3.142080138075104001e-01 3.480327365783225657e-01 3.366630059051103907e-01 3.828056127861712010e-01 3.420890820099901086e-01 3.012660433248412484e-01 2.215408343212910691e-01 4.857885755529164906e-01 8.053955427751853524e-02 2.038554840040011640e-01 4.626654254757884832e-01 6.495294280690488975e-02 4.243384329168682911e-01 1.320103249606741080e+00 -3.446150148116774309e-02 9.867247765408138083e-01 -1.088845992868379131e+00 3.115116636385570348e-01 4.049201692819384690e-01 2.612256616294611478e-01 2.206417363531729126e-01 -1.055090042248643112e-01 3.952611538145027192e-01 1.991086268918983437e-01 4.851799702751825039e-01 3.671629524899214236e-01 3.175538856956016676e-01 -7.947263250217632136e-01 3.272865235568687137e-01 3.200877276004402416e-01 5.999723987310880136e-02 1.025800092249388396e+00 2.976749489961196815e-01 1.708197527692630224e+00 1.349822866849876846e-01 1.529899512817418372e-01 3.145210369812129203e-01 3.151061701504957457e-01 4.808914733972858846e-01 3.902403408332446588e-01 3.107183137462049549e-01 -9.864764806819557863e-02 4.810968434624159906e-01 2.469375164593437810e-01 5.066388017480506489e-01 3.372023139327435248e-01 2.860195012577647078e-01 2.991377559366225070e-01 2.307680250508915287e-01 3.578064320896701123e-01 1.487483843182746054e-02 1.886082797712954395e+00 3.366845065621690281e-01 6.696195759019347715e-01 1.034165192327738680e-01 3.838496193409309254e-01 3.276241964271088825e-01 3.491942769524967183e-01 3.077644351478484031e-01 3.338728742586568043e-01 2.861130263495351156e-01 1.132458372588299317e-01 2.791685453437166564e-01 -6.123407181074876776e-02 1.015144886645958366e-01 1.114421678048731490e+00 2.733259535264555007e-01 -3.718465071087707907e-02 1.622962451802490991e+00 3.168235125167712107e-01 7.028251521582025152e-01 3.355068887216876572e-01 3.275747697624243338e-01 3.362925278013188524e-01 -1.461507634292679603e+00 3.258426806813950471e-01 2.121086303460824884e-01 2.752911227231996660e-01 -5.299507171591134602e-01 7.931184491804795789e-01 3.354670774015847678e-01 -4.344391256589542061e-01 3.356172097861655490e-01 3.140129213315411283e-01 1.522037778311644551e-01 -1.395464094445351688e-01 2.741880778683500886e-01 2.270238561397540378e-02 2.855357538483641600e-01 3.100410505667476335e-01 6.561272129388673324e-01 3.460184673210403572e-01 3.453004398499213146e-01 3.849101667880353017e-01 2.870179794624879710e-01 2.389628895505110651e-01 -4.947972318833951944e-01 1.079738653894002365e-01 3.013713569095500255e-01 3.379598862774412238e-01 3.287549589249885718e-01 3.263726220643839437e-01 2.846757538712740288e-01 3.438446602952381914e-01 1.674954124681679257e+00 7.477555637594631710e-01 2.414458936667064626e-01 -6.284714728481959334e-01 2.576541427652664362e-01 2.689759256442979307e+00 3.947109955539047643e-01 1.074586067801295078e-02 5.082834045564104120e-01 -3.463215405220090748e+00 3.588494316262724193e-01 9.704952094385530525e-01 3.483751892336303668e-01 5.069530972754395792e-01 -2.861207770615851187e-01 2.520301082997289943e-01 2.414762769237960294e-01 3.256470766620033763e-01 3.806447340585247252e-01 1.709486908982725817e+00 -1.760837815748692303e-01 3.180538812490507072e-01 -1.495242874445439130e+00 3.238532364592560109e-01 2.859625410579847427e-01 4.218022156229166986e-01 2.295716040114995082e-01 3.085058683457072015e-01 3.122609341996386845e-01 1.327608026367445015e+00 4.148992241104075274e-01 4.092488897481322274e-01 3.272547526724986500e-01 5.177517664043560647e-02 1.957588730572332736e-01 4.206895050700888428e-01 -3.994821604840900764e-01 3.556796094875777081e-01 3.577898026402351883e-01 4.485578333770678383e-01 1.857072441631495707e-01 3.243187032586050123e-01 3.241534189522540244e-01 2.295716215499299662e-01 2.851604966795631135e-01 3.236488688162441063e-01 3.127988578669042563e-01 7.541689160849438522e-01 1.468206565856519763e+00 2.878288270570553697e-01 1.879296933962831262e-01 3.739456583789321220e-01 9.132905357961215165e-01 3.480427767564172603e-01 2.354810828847267723e-01 7.559776429587236057e-01 4.395991064254924363e-01 2.336688397512692306e-01 1.990946537356099166e-01 5.973541313584810331e-01 9.010210062290835431e-01 5.489349660591645863e-01 6.639811298048939880e-01 3.271965638470388793e-01 5.177517663874905279e-02 5.177517674736090841e-02 3.054961730978060230e-01 1.743258251199677200e-01 1.077553872943972424e+00 -4.798803744441408614e-02 3.470895133629681717e-01 2.806888135245766969e-01 3.331113061652878349e-01 9.119567824968508596e-01 4.092391368028832077e-01 3.412925330765778087e-01 3.876662900568371706e-01 -5.105165754391526034e-02 -4.183414746835604214e-01 1.485066835637584570e-01 2.945213094581535795e-01 1.392182786994395904e-01 3.397610778453838409e-01 7.878640539048759051e-01 5.177517663390394931e-02 -4.208034193897943753e-01 3.380572331189325430e-01 2.240230226652044632e-01 -3.808140682577363378e-01 1.284214530795986797e-01 -2.213676509587571228e+00 7.900671702596394619e-01 3.820881460965709908e-01 -4.388546484811901849e-02 2.831287645944915443e-01 1.396817387170048885e+00 3.313051642159821064e-01 4.496983996797943028e-01 7.105293881236204312e-01 2.220587181928036224e-01 1.704019371195803489e-01 3.407694878953607676e-01 7.925935029509012519e-01 3.282605833635394155e-01 1.411972414977541224e+00 2.358854359647889198e-01 4.179384872153931729e-01 3.700408906341045578e-01 2.916996365371971045e-01 -1.019025352953917718e+00 3.036388873107125352e-01 1.321630348062330651e-01 3.667981346261713904e-01 3.624047153666878907e-01 2.947346643167758629e-01 3.339967799743612797e-01 3.371870887378692339e-01 -1.166615037168279856e-01 3.250997117064631792e-01 8.061825263191446655e-02 2.993101768352489644e-01 3.336618798893130622e-01 5.637731425635783555e-01 7.371795479134308771e-01 8.479773252016952201e-01 -7.159286843917382903e-01 3.680675132436329045e-01 2.428423836249313586e-02 -4.108393500268865961e-01 1.523325760979567234e-01 3.211756323981258543e-01 3.060145293106779629e-01 7.644368030677620718e-01 3.323646969414430496e-01 3.009919164116668933e-01 2.730716223201860027e-01 1.443717213230787666e-01 -1.160883557024148666e-01 3.106396670121571169e-01 2.885202483075390845e-01 3.705624782522262128e-01 2.740787606296362089e-01 1.763607575430843899e-01 3.261981923482853984e-01 1.734778895013902311e-01 3.407363060777952590e-01 3.205372826670248587e-01 3.210310595865374372e-01 3.361765149801366759e-01 7.405827269730045348e-01 3.749936539831568161e-01 7.675022431963804959e-01 -6.034246713269859896e-02 3.303428753446238098e-01 2.908330109855651879e-01 -1.034435836650542395e+00 3.010947016734806803e-01 3.873214849352983880e-01 4.568881844496611722e-01 3.320931482157540304e-01 2.575779336001153275e-01 3.402296960521102864e-01 7.572876961269575657e-01 4.000709391164888884e-01 4.551992217237976757e-01 3.551807680737583128e-01 4.209165114155250520e-01 2.375384063146082636e-01 1.929220859697867718e-01 3.328572190426826172e-01 -5.236729272410617364e-02 5.062061783969270534e-01 3.059692832491651138e-01 1.041279303639726983e+00 3.062429457700046043e-01 4.451452909333122321e-01 2.594086047959592300e-01 -4.272834298946801557e-01 3.305199986461665462e-01 3.810533359279240084e-01 4.470477185030541367e-01 2.754686907356887482e-01 5.207966111680930599e-01 -5.982866367247636347e-02 7.808479558649985552e-01 4.103441208579659549e-01 2.402173873569906637e-01 3.249227469724968453e-01 1.912853356583750219e-01 5.860545532713363759e-01 2.029361222935618603e+00 3.397775570572340587e-01 2.131985155143361621e-01 5.543590502294163391e-01 3.211310963811884744e-01 3.246427357639985467e-01 3.264712731623682362e-01 6.111688033346965865e-01 3.083282340536948607e-01 4.903108213547426736e-02 5.070114660389559713e-01 5.188295066770168967e-02 -1.498870236344067852e-01 8.735471884564999234e-02 3.240617346053722980e-01 2.954126617773925600e-01 1.309904584796158122e+00 4.529298753831384472e-01 3.385412333889392666e-01 5.299612113749315734e-01 2.489161686296221532e-01 2.851484696177502554e-01 3.289962320354630765e-01 2.100726545593860073e-01 7.724778353881945892e-01 3.092338341789954148e-01 3.971864633962889357e-01 1.553388624054504452e-01 2.742639740642225377e-01 1.690917639802391459e-01 5.039047121515399796e-01 8.855669756431886475e-01 3.582832006889015153e-01 2.828303546034821592e-01 3.500011982003757849e-01 3.915223946725676085e-01 3.187126051568703322e-01 5.089733552475748102e-01 5.824191776141193211e-01 2.092573771203512512e-01 3.076212299060477884e-01 5.122441499497232265e-01 3.291028081816029793e-01 3.106753394701702864e-01 3.639239662984508072e-01 2.525545235486561513e-01 6.085731615021381380e-01 3.282911821899895943e-01 4.791483700312256233e-01 3.331648115211213179e-01 3.584109693062207391e-01 3.056988388801186174e-01 1.027273618219425311e+00 8.324333063057080817e-02 3.148243602292147836e-01 2.522208828889836996e-01 5.530624519228154456e-01 8.796696293551844459e-01 4.423081322561588369e-01 6.339057209293497142e-02 -2.938080629789878787e-02 3.252244739460891099e-01 2.762822907693384678e-01 3.379993573342102708e-01 3.274123238070182351e-01 4.118402811443573341e-01 3.572560065757275360e-01 3.599407508941511735e-01 2.870834826025089881e-01 4.106359224806004349e-01 2.913371705877942364e-01 8.068437703360732405e-01 -4.096798237360077533e-02 6.171169489825509835e-01 3.605983252073414747e-01 3.840084915257021558e-01 -9.744165255715305646e-03 4.545480687639560369e-01 9.100629816456767829e-01 3.524383968365372710e-01 5.669940903732557658e-01 1.185405551298239768e+00 3.351092604039304645e-01 1.351555293880392083e+00 4.894914841087381063e-01 1.859481931363521356e-01 3.145246974893221026e-01 3.401751439242234332e-01 3.107377079512749218e-01 4.542886091568815732e-01 3.400124555824895478e-01 3.184563619995866013e-01 1.327134309159862247e-01 2.596452920398754083e-01 3.982780290211820340e-01 3.432538957690725590e-01 3.907837684750496421e-01 3.072506155420723362e-01 1.519728254844950888e-01 3.606189321016756710e-01 3.504862712265373603e-01 2.633239434420461822e-01 -1.633552915694014979e-02 1.371588502692784761e+00 3.218415269470356055e-01 3.061810664400887450e-01 3.138405828041194168e-01 1.893914886353532112e-01 3.329695842150847684e-01 -3.012604379933553567e+00 2.399655547524372157e+00 4.785866335463754284e-01 4.523520940083913255e-01 2.020469221639665525e-01 3.188706287095166014e-01 3.013931404379450729e-01 1.766019299199814707e+00 4.687097469099612002e-01 3.348082533412970463e-01 3.362989997291318534e-01 8.708397988068198314e-01 3.322389898879137271e-01 8.974380867719240484e-01 -3.052244971852653421e-01 -2.561581598525039527e-01 -4.941537617142205407e-01 4.562191465218696229e-01 3.334484092854920756e-01 3.636123879466489628e-01 4.418438771488464312e-01 3.134137499022890960e-01 1.558634079437798692e-01 3.871554259729818592e-01 3.086333554444941063e-01 3.700037871566876913e-01 2.228244747969660156e-01 2.987171483671995365e-01 3.228232471983469298e-01 3.796109937737174311e-01 4.082200756724366775e-01 9.750532672680366220e-02 3.150583686454990207e-01 3.156202145012235172e-01 3.236177781920678842e-01 3.786228197591393063e-01 4.137929619761575029e-01 7.506184274086100672e-01 2.295716770020266029e-01 5.094697163847435872e-01 3.469266307711065256e-01 4.416002130003365833e-01 1.933224042729237147e-01 -5.980517380295232582e-02 8.015151085698565270e-01 2.754868827850173729e-01 3.416942694179092022e-01 3.280005575584444277e-01 2.963645424812808571e-01 3.382483481167418704e-01 1.316455287212143499e-01 3.108643916288075237e-01 1.842965050977892760e-01 5.898425990057243329e-01 5.512160851149885410e-01 2.072139240207524491e-01 1.307683336622833092e+00 1.478874187573015753e-01 8.811472903944433943e-02 4.537001604257780984e-01 -3.993904144874145246e-01 3.224708217851095515e-01 2.453123591341944687e-01 7.296694767494066314e-01 2.900011693877596608e-01 4.010685333155931120e-01 2.920250470222001127e-01 2.151591691251846516e-01 3.238462867385477617e-01 6.801123130518906823e-01 3.652754596139885512e-01 2.864355303220921245e-01 2.609452380874383026e-01 3.374801468060265597e-01 3.433593317977676196e-01 3.857101902946882821e-01 3.366325023467051092e-01 -3.395365676681710299e-01 2.028672847715046745e-01 3.150924194590674632e-01 2.863976208429312442e-01 3.754603917188478746e-01 1.144764890804386814e+00 6.827889529547137570e-01 -6.687780583238144283e-01 2.859624680422179210e-01 3.312266703438518922e-01 -2.127559195254155266e+00 1.284298180826342728e+00 3.164397723179023236e-01 2.851140783402714707e-01 3.515877867842033822e-01 4.952535994406785935e-01 3.404869582328439170e-01 3.272753676558778912e-01 -2.939891023482726351e-01 8.013092049028428532e-01 7.655586705759223620e-02 9.325939227233648321e-01 1.537280143896086138e+00 -3.059428268069133705e-01 -1.013139252478480801e+00 3.112674370039196226e-01 6.171207241646303743e-01 9.714397272102004433e-01 3.938653148316815789e-01 7.806817563443776420e-01 3.472641220430444653e-02 3.326468499101448151e-01 3.606254949374441687e-01 3.293342141583519567e-01 3.265248404693308348e-01 -2.248899198455637724e-02 8.345201902987444686e-01 7.856215326362223639e-01 2.815924667442745721e-01 1.818025493299378070e-01 1.454901964136737225e-01 6.602833868872778206e-03 4.010210648324398219e-01 1.616478540184852486e-01 2.924625950279657882e-01 7.784223087300987665e-01 7.913013773136835516e-01 3.794328862260543667e-01 3.371493488117461301e-01 3.420516158976699139e-01 3.191206607243256554e-01 1.527729435070224531e-02 2.859938325748391241e-01 3.042629336228464543e-01 5.075433433532392513e-01 2.374587885133856713e-01 4.818087089168406889e-01 7.959281953829606682e-01 9.285001815736690922e-01 2.197231862328726526e-01 3.451656778308780926e-01 3.300556939002216583e-01 -4.950603814107393252e-02 1.936062703811081698e-01 -9.009312768404703631e-01 3.553449214926948097e-01 5.405457141368245066e-01 3.402508157652930354e-01 3.920887651224813641e-01 9.960538022164053817e-01 3.362992274420280592e-01 2.030836053170400890e-01 3.304963023898631613e-01 1.545072002735731198e-01 7.953068786556342085e-01 4.538912067353531588e-01 6.007607387171318147e-02 5.016942123928355146e-01 1.735694314370647140e-01 3.093179343929794989e-01 3.657384033249378996e-01 4.319270924255079191e-01 9.558605594570762642e-02 2.065769359897924595e-01 3.608243503661125451e-01 3.594921445116426861e-01 7.801208144423845692e-01 1.132183385785200253e-01 -1.029592782653538929e-01 6.838641766179435200e-01 3.339051279379560144e-01 2.826821727048258182e-01 3.346408014329420588e-01 1.029543908546960207e+00 6.102904739555627123e-02 7.744204601960457124e-01 2.797942071654411222e-01 3.201003992202482995e-01 5.116808758098112531e-01 3.856577290212879205e-01 8.192121639304349445e-01 3.225708383278250158e-01 9.728939140037493605e-01 3.317112229215052333e-01 3.016650564620299013e-01 7.074580514212119864e-01 5.508184706521339000e-03 -1.476359122178968253e+00 2.105440072312195210e-01 3.228803670464911457e-01 2.587599529775244100e-01 7.481317511891044658e-01 3.337624068568550983e-01 3.344244090174259831e-01 4.857064855501037615e-01 2.990759652835116023e-01 4.676369709323821566e-01 -1.284987515535402025e+00 6.018464163576633386e-01 3.080834398091689685e-01 3.207585725037230828e-01 3.536537236798953376e-01 6.922387841377792839e-01 3.335688653978633456e-01 3.016431367465335356e-01 3.059610771139040231e-01 9.487104392569759570e-01 2.744845103979987599e-01 3.985829203967636847e-01 1.069903888729672126e+00 3.320524386417613716e-01 1.442952150292418301e+00 3.097915516743973696e-01 3.157097644526786206e-01 7.640287401068081019e-01 3.245635799839590163e-01 3.974665021442088664e-01 -6.233156789076972348e-01 3.596931585629463135e-01 3.204370130447893872e-01 4.396146004124277806e-01 1.797709737555979737e-01 4.860593343254697163e-01 -6.351499725259098783e-01 1.426283178903783977e+00 -3.902190909849049261e-01 4.517603904988810037e-01 2.655507492157449523e-01 3.717885747276230002e-01 4.102960128325058853e-01 3.173576465733800034e-01 8.707035312008218897e-01 -6.728406540826624427e-02 2.967682177632477436e-01 -5.013556229381812557e-01 4.731261589447763871e-01 3.143433255634233703e-01 -1.584903478596337845e+00 1.868518556115232210e+00 4.489949112056277891e-01 2.819427431231663617e-01 -6.899334431964825320e-01 3.340730704062380152e-01 5.037590423290791430e-02 3.185335777944040547e-01 3.545260674817160007e-01 5.503738847470551754e-01 2.037072646837600476e-01 2.947792873858879337e-01 2.859625551169934221e-01 5.841258381567399072e-01 3.175689352121240372e-01 -8.041167898190751950e-01 3.134695864657199849e-01 -4.373866306338219379e-01 3.336736343243986158e-01 -6.228421416063431582e-02 2.772046360207900406e-01 2.884905294973695855e-01 4.697037027208660898e-01 5.065616429694814737e-01 3.557516590204988782e-01 3.682921581535747446e-01 4.288246621295863092e-01 3.314187785534546959e-01 3.494503241032195229e-01 -6.679351482197257717e-01 1.401651704581901581e-01 1.210644659416739266e+00 3.894694923284570086e-03 2.806881526269999205e-01 3.031984496220344050e-01 1.187302192998063832e+00 3.059223983286406545e-01 2.470560859149094901e-01 9.059656208384242460e-01 1.653908826906746454e-01 1.095469990404930316e+00 3.301574523636877090e-01 4.211657033174605602e-01 3.233910927136693925e-01 2.782163389245832508e-01 1.158764080402451935e+00 4.636386065582427940e-01 2.203315645120760558e-01 3.429334520405754594e-01 4.002759565788719942e-01 1.024500900838158646e-01 -3.202381170306528024e-01 4.165984688168267724e-01 6.855853793356710968e-01 1.875769455705299793e-01 4.100274972849561328e-01 9.716365646499672271e-02 1.223606453416277606e+00 3.169095355356247867e-01 3.278632682513542007e-01 -1.555842561540771607e+00 3.134759856806648703e-01 3.076515147635199843e-01 2.727019116190618209e-01 1.056793398149830088e-01 3.548943356277186045e-01 2.027903616210607191e-02 1.265000713187333925e-01 3.191502586193032398e-01 3.318676783779728190e-01 1.062863495462973207e+00 1.094354887323025355e-01 3.183772790225090632e-01 -9.877412334840661723e-01 2.537440671874325870e-01 7.781049475625161360e-01 8.339575182013779786e-01 3.332868535829412449e-01 -2.542380993120454402e-01 7.599196115593600531e-01 3.810300401554947980e-01 3.215964664386584682e-01 2.920376575977327027e-01 6.290864563650622188e-01 7.437181540718359463e-01 3.643726576813063334e-01 2.965018542944667934e-01 3.010120338624209246e-01 5.933638187646482764e-01 5.777733927996847596e-01 -1.251467294213967296e+00 3.287376252043384683e-01 5.575766880436604234e-02 4.409268548766425155e-01 3.319912189438822825e-01 2.700926423244558450e-01 2.295717331111235826e-01 2.982451787611269944e-01 2.843676855397085923e-01 3.593527631434687564e-01 3.299888817893391058e-01 3.112120234804731100e-01 3.913290607184272685e-01 -1.216932162733478096e-01 3.051508584418949899e-01 2.577278621002019321e-01 3.152964417886875426e-01 3.057814948593373661e-01 3.224836514322765857e-01 3.188711019067685948e-01 3.345102439072741851e-01 6.455628054599024113e-01 4.334847691561741767e-01 2.786937472718117315e-01 3.149975653239314166e-01 -1.492816626760511189e+00 3.090570841772511956e-01 6.553190951894380389e-02 2.620413195521909544e-01 2.295717272762696215e-01 3.152288096591173705e-01 3.106139340881324262e-01 3.297198422405653306e-01 3.244627421577296333e-01 1.858767268038618858e-01 3.312447229640860802e-01 3.232350671508684714e-01 4.879923968248097710e-01 3.412859571571214001e-01 3.259816316549088988e-01 3.243155878704609973e-01 4.423283073815507116e-01 3.096911080511473568e-01 3.426513400991175740e-01 -2.263284801748458377e-03 3.434956813488249106e-01 3.318292772471441721e-01 1.437838094263363398e-01 -4.229678587841842474e-01 2.212847251885173616e+00 2.938048594578278050e-01 7.055342796202753730e-01 2.677829675471430915e-01 2.916659480688718054e-01 1.121416693120317332e+00 6.128310271438547341e-01 7.620142028909528964e-01 3.631307672264610376e-01
