# 
#                 ----------------------------------------------------
#                 Data from a 3D direct N-body simulation. 
# 
#                 rows are i-particle; 
#                 coumns are :mass, tag, x ,y, z, vx, vy, vz, ax, ay, az
# 
#                 NTHU, Computational Physics 
# 
#                 ----------------------------------------------------
#                 Time = 0.0
0.000000000000000000e+00 1.000000000000000000e+00 2.000000000000000000e+00 3.000000000000000000e+00 4.000000000000000000e+00 5.000000000000000000e+00 6.000000000000000000e+00 7.000000000000000000e+00 8.000000000000000000e+00 9.000000000000000000e+00 1.000000000000000000e+01 1.100000000000000000e+01 1.200000000000000000e+01 1.300000000000000000e+01 1.400000000000000000e+01 1.500000000000000000e+01 1.600000000000000000e+01 1.700000000000000000e+01 1.800000000000000000e+01 1.900000000000000000e+01 2.000000000000000000e+01 2.100000000000000000e+01 2.200000000000000000e+01 2.300000000000000000e+01 2.400000000000000000e+01 2.500000000000000000e+01 2.600000000000000000e+01 2.700000000000000000e+01 2.800000000000000000e+01 2.900000000000000000e+01 3.000000000000000000e+01 3.100000000000000000e+01 3.200000000000000000e+01 3.300000000000000000e+01 3.400000000000000000e+01 3.500000000000000000e+01 3.600000000000000000e+01 3.700000000000000000e+01 3.800000000000000000e+01 3.900000000000000000e+01 4.000000000000000000e+01 4.100000000000000000e+01 4.200000000000000000e+01 4.300000000000000000e+01 4.400000000000000000e+01 4.500000000000000000e+01 4.600000000000000000e+01 4.700000000000000000e+01 4.800000000000000000e+01 4.900000000000000000e+01 5.000000000000000000e+01 5.100000000000000000e+01 5.200000000000000000e+01 5.300000000000000000e+01 5.400000000000000000e+01 5.500000000000000000e+01 5.600000000000000000e+01 5.700000000000000000e+01 5.800000000000000000e+01 5.900000000000000000e+01 6.000000000000000000e+01 6.100000000000000000e+01 6.200000000000000000e+01 6.300000000000000000e+01 6.400000000000000000e+01 6.500000000000000000e+01 6.600000000000000000e+01 6.700000000000000000e+01 6.800000000000000000e+01 6.900000000000000000e+01 7.000000000000000000e+01 7.100000000000000000e+01 7.200000000000000000e+01 7.300000000000000000e+01 7.400000000000000000e+01 7.500000000000000000e+01 7.600000000000000000e+01 7.700000000000000000e+01 7.800000000000000000e+01 7.900000000000000000e+01 8.000000000000000000e+01 8.100000000000000000e+01 8.200000000000000000e+01 8.300000000000000000e+01 8.400000000000000000e+01 8.500000000000000000e+01 8.600000000000000000e+01 8.700000000000000000e+01 8.800000000000000000e+01 8.900000000000000000e+01 9.000000000000000000e+01 9.100000000000000000e+01 9.200000000000000000e+01 9.300000000000000000e+01 9.400000000000000000e+01 9.500000000000000000e+01 9.600000000000000000e+01 9.700000000000000000e+01 9.800000000000000000e+01 9.900000000000000000e+01 1.000000000000000000e+02 1.010000000000000000e+02 1.020000000000000000e+02 1.030000000000000000e+02 1.040000000000000000e+02 1.050000000000000000e+02 1.060000000000000000e+02 1.070000000000000000e+02 1.080000000000000000e+02 1.090000000000000000e+02 1.100000000000000000e+02 1.110000000000000000e+02 1.120000000000000000e+02 1.130000000000000000e+02 1.140000000000000000e+02 1.150000000000000000e+02 1.160000000000000000e+02 1.170000000000000000e+02 1.180000000000000000e+02 1.190000000000000000e+02 1.200000000000000000e+02 1.210000000000000000e+02 1.220000000000000000e+02 1.230000000000000000e+02 1.240000000000000000e+02 1.250000000000000000e+02 1.260000000000000000e+02 1.270000000000000000e+02 1.280000000000000000e+02 1.290000000000000000e+02 1.300000000000000000e+02 1.310000000000000000e+02 1.320000000000000000e+02 1.330000000000000000e+02 1.340000000000000000e+02 1.350000000000000000e+02 1.360000000000000000e+02 1.370000000000000000e+02 1.380000000000000000e+02 1.390000000000000000e+02 1.400000000000000000e+02 1.410000000000000000e+02 1.420000000000000000e+02 1.430000000000000000e+02 1.440000000000000000e+02 1.450000000000000000e+02 1.460000000000000000e+02 1.470000000000000000e+02 1.480000000000000000e+02 1.490000000000000000e+02 1.500000000000000000e+02 1.510000000000000000e+02 1.520000000000000000e+02 1.530000000000000000e+02 1.540000000000000000e+02 1.550000000000000000e+02 1.560000000000000000e+02 1.570000000000000000e+02 1.580000000000000000e+02 1.590000000000000000e+02 1.600000000000000000e+02 1.610000000000000000e+02 1.620000000000000000e+02 1.630000000000000000e+02 1.640000000000000000e+02 1.650000000000000000e+02 1.660000000000000000e+02 1.670000000000000000e+02 1.680000000000000000e+02 1.690000000000000000e+02 1.700000000000000000e+02 1.710000000000000000e+02 1.720000000000000000e+02 1.730000000000000000e+02 1.740000000000000000e+02 1.750000000000000000e+02 1.760000000000000000e+02 1.770000000000000000e+02 1.780000000000000000e+02 1.790000000000000000e+02 1.800000000000000000e+02 1.810000000000000000e+02 1.820000000000000000e+02 1.830000000000000000e+02 1.840000000000000000e+02 1.850000000000000000e+02 1.860000000000000000e+02 1.870000000000000000e+02 1.880000000000000000e+02 1.890000000000000000e+02 1.900000000000000000e+02 1.910000000000000000e+02 1.920000000000000000e+02 1.930000000000000000e+02 1.940000000000000000e+02 1.950000000000000000e+02 1.960000000000000000e+02 1.970000000000000000e+02 1.980000000000000000e+02 1.990000000000000000e+02 2.000000000000000000e+02 2.010000000000000000e+02 2.020000000000000000e+02 2.030000000000000000e+02 2.040000000000000000e+02 2.050000000000000000e+02 2.060000000000000000e+02 2.070000000000000000e+02 2.080000000000000000e+02 2.090000000000000000e+02 2.100000000000000000e+02 2.110000000000000000e+02 2.120000000000000000e+02 2.130000000000000000e+02 2.140000000000000000e+02 2.150000000000000000e+02 2.160000000000000000e+02 2.170000000000000000e+02 2.180000000000000000e+02 2.190000000000000000e+02 2.200000000000000000e+02 2.210000000000000000e+02 2.220000000000000000e+02 2.230000000000000000e+02 2.240000000000000000e+02 2.250000000000000000e+02 2.260000000000000000e+02 2.270000000000000000e+02 2.280000000000000000e+02 2.290000000000000000e+02 2.300000000000000000e+02 2.310000000000000000e+02 2.320000000000000000e+02 2.330000000000000000e+02 2.340000000000000000e+02 2.350000000000000000e+02 2.360000000000000000e+02 2.370000000000000000e+02 2.380000000000000000e+02 2.390000000000000000e+02 2.400000000000000000e+02 2.410000000000000000e+02 2.420000000000000000e+02 2.430000000000000000e+02 2.440000000000000000e+02 2.450000000000000000e+02 2.460000000000000000e+02 2.470000000000000000e+02 2.480000000000000000e+02 2.490000000000000000e+02 2.500000000000000000e+02 2.510000000000000000e+02 2.520000000000000000e+02 2.530000000000000000e+02 2.540000000000000000e+02 2.550000000000000000e+02 2.560000000000000000e+02 2.570000000000000000e+02 2.580000000000000000e+02 2.590000000000000000e+02 2.600000000000000000e+02 2.610000000000000000e+02 2.620000000000000000e+02 2.630000000000000000e+02 2.640000000000000000e+02 2.650000000000000000e+02 2.660000000000000000e+02 2.670000000000000000e+02 2.680000000000000000e+02 2.690000000000000000e+02 2.700000000000000000e+02 2.710000000000000000e+02 2.720000000000000000e+02 2.730000000000000000e+02 2.740000000000000000e+02 2.750000000000000000e+02 2.760000000000000000e+02 2.770000000000000000e+02 2.780000000000000000e+02 2.790000000000000000e+02 2.800000000000000000e+02 2.810000000000000000e+02 2.820000000000000000e+02 2.830000000000000000e+02 2.840000000000000000e+02 2.850000000000000000e+02 2.860000000000000000e+02 2.870000000000000000e+02 2.880000000000000000e+02 2.890000000000000000e+02 2.900000000000000000e+02 2.910000000000000000e+02 2.920000000000000000e+02 2.930000000000000000e+02 2.940000000000000000e+02 2.950000000000000000e+02 2.960000000000000000e+02 2.970000000000000000e+02 2.980000000000000000e+02 2.990000000000000000e+02 3.000000000000000000e+02 3.010000000000000000e+02 3.020000000000000000e+02 3.030000000000000000e+02 3.040000000000000000e+02 3.050000000000000000e+02 3.060000000000000000e+02 3.070000000000000000e+02 3.080000000000000000e+02 3.090000000000000000e+02 3.100000000000000000e+02 3.110000000000000000e+02 3.120000000000000000e+02 3.130000000000000000e+02 3.140000000000000000e+02 3.150000000000000000e+02 3.160000000000000000e+02 3.170000000000000000e+02 3.180000000000000000e+02 3.190000000000000000e+02 3.200000000000000000e+02 3.210000000000000000e+02 3.220000000000000000e+02 3.230000000000000000e+02 3.240000000000000000e+02 3.250000000000000000e+02 3.260000000000000000e+02 3.270000000000000000e+02 3.280000000000000000e+02 3.290000000000000000e+02 3.300000000000000000e+02 3.310000000000000000e+02 3.320000000000000000e+02 3.330000000000000000e+02 3.340000000000000000e+02 3.350000000000000000e+02 3.360000000000000000e+02 3.370000000000000000e+02 3.380000000000000000e+02 3.390000000000000000e+02 3.400000000000000000e+02 3.410000000000000000e+02 3.420000000000000000e+02 3.430000000000000000e+02 3.440000000000000000e+02 3.450000000000000000e+02 3.460000000000000000e+02 3.470000000000000000e+02 3.480000000000000000e+02 3.490000000000000000e+02 3.500000000000000000e+02 3.510000000000000000e+02 3.520000000000000000e+02 3.530000000000000000e+02 3.540000000000000000e+02 3.550000000000000000e+02 3.560000000000000000e+02 3.570000000000000000e+02 3.580000000000000000e+02 3.590000000000000000e+02 3.600000000000000000e+02 3.610000000000000000e+02 3.620000000000000000e+02 3.630000000000000000e+02 3.640000000000000000e+02 3.650000000000000000e+02 3.660000000000000000e+02 3.670000000000000000e+02 3.680000000000000000e+02 3.690000000000000000e+02 3.700000000000000000e+02 3.710000000000000000e+02 3.720000000000000000e+02 3.730000000000000000e+02 3.740000000000000000e+02 3.750000000000000000e+02 3.760000000000000000e+02 3.770000000000000000e+02 3.780000000000000000e+02 3.790000000000000000e+02 3.800000000000000000e+02 3.810000000000000000e+02 3.820000000000000000e+02 3.830000000000000000e+02 3.840000000000000000e+02 3.850000000000000000e+02 3.860000000000000000e+02 3.870000000000000000e+02 3.880000000000000000e+02 3.890000000000000000e+02 3.900000000000000000e+02 3.910000000000000000e+02 3.920000000000000000e+02 3.930000000000000000e+02 3.940000000000000000e+02 3.950000000000000000e+02 3.960000000000000000e+02 3.970000000000000000e+02 3.980000000000000000e+02 3.990000000000000000e+02 4.000000000000000000e+02 4.010000000000000000e+02 4.020000000000000000e+02 4.030000000000000000e+02 4.040000000000000000e+02 4.050000000000000000e+02 4.060000000000000000e+02 4.070000000000000000e+02 4.080000000000000000e+02 4.090000000000000000e+02 4.100000000000000000e+02 4.110000000000000000e+02 4.120000000000000000e+02 4.130000000000000000e+02 4.140000000000000000e+02 4.150000000000000000e+02 4.160000000000000000e+02 4.170000000000000000e+02 4.180000000000000000e+02 4.190000000000000000e+02 4.200000000000000000e+02 4.210000000000000000e+02 4.220000000000000000e+02 4.230000000000000000e+02 4.240000000000000000e+02 4.250000000000000000e+02 4.260000000000000000e+02 4.270000000000000000e+02 4.280000000000000000e+02 4.290000000000000000e+02 4.300000000000000000e+02 4.310000000000000000e+02 4.320000000000000000e+02 4.330000000000000000e+02 4.340000000000000000e+02 4.350000000000000000e+02 4.360000000000000000e+02 4.370000000000000000e+02 4.380000000000000000e+02 4.390000000000000000e+02 4.400000000000000000e+02 4.410000000000000000e+02 4.420000000000000000e+02 4.430000000000000000e+02 4.440000000000000000e+02 4.450000000000000000e+02 4.460000000000000000e+02 4.470000000000000000e+02 4.480000000000000000e+02 4.490000000000000000e+02 4.500000000000000000e+02 4.510000000000000000e+02 4.520000000000000000e+02 4.530000000000000000e+02 4.540000000000000000e+02 4.550000000000000000e+02 4.560000000000000000e+02 4.570000000000000000e+02 4.580000000000000000e+02 4.590000000000000000e+02 4.600000000000000000e+02 4.610000000000000000e+02 4.620000000000000000e+02 4.630000000000000000e+02 4.640000000000000000e+02 4.650000000000000000e+02 4.660000000000000000e+02 4.670000000000000000e+02 4.680000000000000000e+02 4.690000000000000000e+02 4.700000000000000000e+02 4.710000000000000000e+02 4.720000000000000000e+02 4.730000000000000000e+02 4.740000000000000000e+02 4.750000000000000000e+02 4.760000000000000000e+02 4.770000000000000000e+02 4.780000000000000000e+02 4.790000000000000000e+02 4.800000000000000000e+02 4.810000000000000000e+02 4.820000000000000000e+02 4.830000000000000000e+02 4.840000000000000000e+02 4.850000000000000000e+02 4.860000000000000000e+02 4.870000000000000000e+02 4.880000000000000000e+02 4.890000000000000000e+02 4.900000000000000000e+02 4.910000000000000000e+02 4.920000000000000000e+02 4.930000000000000000e+02 4.940000000000000000e+02 4.950000000000000000e+02 4.960000000000000000e+02 4.970000000000000000e+02 4.980000000000000000e+02 4.990000000000000000e+02 5.000000000000000000e+02 5.010000000000000000e+02 5.020000000000000000e+02 5.030000000000000000e+02 5.040000000000000000e+02 5.050000000000000000e+02 5.060000000000000000e+02 5.070000000000000000e+02 5.080000000000000000e+02 5.090000000000000000e+02 5.100000000000000000e+02 5.110000000000000000e+02 5.120000000000000000e+02 5.130000000000000000e+02 5.140000000000000000e+02 5.150000000000000000e+02 5.160000000000000000e+02 5.170000000000000000e+02 5.180000000000000000e+02 5.190000000000000000e+02 5.200000000000000000e+02 5.210000000000000000e+02 5.220000000000000000e+02 5.230000000000000000e+02 5.240000000000000000e+02 5.250000000000000000e+02 5.260000000000000000e+02 5.270000000000000000e+02 5.280000000000000000e+02 5.290000000000000000e+02 5.300000000000000000e+02 5.310000000000000000e+02 5.320000000000000000e+02 5.330000000000000000e+02 5.340000000000000000e+02 5.350000000000000000e+02 5.360000000000000000e+02 5.370000000000000000e+02 5.380000000000000000e+02 5.390000000000000000e+02 5.400000000000000000e+02 5.410000000000000000e+02 5.420000000000000000e+02 5.430000000000000000e+02 5.440000000000000000e+02 5.450000000000000000e+02 5.460000000000000000e+02 5.470000000000000000e+02 5.480000000000000000e+02 5.490000000000000000e+02 5.500000000000000000e+02 5.510000000000000000e+02 5.520000000000000000e+02 5.530000000000000000e+02 5.540000000000000000e+02 5.550000000000000000e+02 5.560000000000000000e+02 5.570000000000000000e+02 5.580000000000000000e+02 5.590000000000000000e+02 5.600000000000000000e+02 5.610000000000000000e+02 5.620000000000000000e+02 5.630000000000000000e+02 5.640000000000000000e+02 5.650000000000000000e+02 5.660000000000000000e+02 5.670000000000000000e+02 5.680000000000000000e+02 5.690000000000000000e+02 5.700000000000000000e+02 5.710000000000000000e+02 5.720000000000000000e+02 5.730000000000000000e+02 5.740000000000000000e+02 5.750000000000000000e+02 5.760000000000000000e+02 5.770000000000000000e+02 5.780000000000000000e+02 5.790000000000000000e+02 5.800000000000000000e+02 5.810000000000000000e+02 5.820000000000000000e+02 5.830000000000000000e+02 5.840000000000000000e+02 5.850000000000000000e+02 5.860000000000000000e+02 5.870000000000000000e+02 5.880000000000000000e+02 5.890000000000000000e+02 5.900000000000000000e+02 5.910000000000000000e+02 5.920000000000000000e+02 5.930000000000000000e+02 5.940000000000000000e+02 5.950000000000000000e+02 5.960000000000000000e+02 5.970000000000000000e+02 5.980000000000000000e+02 5.990000000000000000e+02 6.000000000000000000e+02 6.010000000000000000e+02 6.020000000000000000e+02 6.030000000000000000e+02 6.040000000000000000e+02 6.050000000000000000e+02 6.060000000000000000e+02 6.070000000000000000e+02 6.080000000000000000e+02 6.090000000000000000e+02 6.100000000000000000e+02 6.110000000000000000e+02 6.120000000000000000e+02 6.130000000000000000e+02 6.140000000000000000e+02 6.150000000000000000e+02 6.160000000000000000e+02 6.170000000000000000e+02 6.180000000000000000e+02 6.190000000000000000e+02 6.200000000000000000e+02 6.210000000000000000e+02 6.220000000000000000e+02 6.230000000000000000e+02 6.240000000000000000e+02 6.250000000000000000e+02 6.260000000000000000e+02 6.270000000000000000e+02 6.280000000000000000e+02 6.290000000000000000e+02 6.300000000000000000e+02 6.310000000000000000e+02 6.320000000000000000e+02 6.330000000000000000e+02 6.340000000000000000e+02 6.350000000000000000e+02 6.360000000000000000e+02 6.370000000000000000e+02 6.380000000000000000e+02 6.390000000000000000e+02 6.400000000000000000e+02 6.410000000000000000e+02 6.420000000000000000e+02 6.430000000000000000e+02 6.440000000000000000e+02 6.450000000000000000e+02 6.460000000000000000e+02 6.470000000000000000e+02 6.480000000000000000e+02 6.490000000000000000e+02 6.500000000000000000e+02 6.510000000000000000e+02 6.520000000000000000e+02 6.530000000000000000e+02 6.540000000000000000e+02 6.550000000000000000e+02 6.560000000000000000e+02 6.570000000000000000e+02 6.580000000000000000e+02 6.590000000000000000e+02 6.600000000000000000e+02 6.610000000000000000e+02 6.620000000000000000e+02 6.630000000000000000e+02 6.640000000000000000e+02 6.650000000000000000e+02 6.660000000000000000e+02 6.670000000000000000e+02 6.680000000000000000e+02 6.690000000000000000e+02 6.700000000000000000e+02 6.710000000000000000e+02 6.720000000000000000e+02 6.730000000000000000e+02 6.740000000000000000e+02 6.750000000000000000e+02 6.760000000000000000e+02 6.770000000000000000e+02 6.780000000000000000e+02 6.790000000000000000e+02 6.800000000000000000e+02 6.810000000000000000e+02 6.820000000000000000e+02 6.830000000000000000e+02 6.840000000000000000e+02 6.850000000000000000e+02 6.860000000000000000e+02 6.870000000000000000e+02 6.880000000000000000e+02 6.890000000000000000e+02 6.900000000000000000e+02 6.910000000000000000e+02 6.920000000000000000e+02 6.930000000000000000e+02 6.940000000000000000e+02 6.950000000000000000e+02 6.960000000000000000e+02 6.970000000000000000e+02 6.980000000000000000e+02 6.990000000000000000e+02 7.000000000000000000e+02 7.010000000000000000e+02 7.020000000000000000e+02 7.030000000000000000e+02 7.040000000000000000e+02 7.050000000000000000e+02 7.060000000000000000e+02 7.070000000000000000e+02 7.080000000000000000e+02 7.090000000000000000e+02 7.100000000000000000e+02 7.110000000000000000e+02 7.120000000000000000e+02 7.130000000000000000e+02 7.140000000000000000e+02 7.150000000000000000e+02 7.160000000000000000e+02 7.170000000000000000e+02 7.180000000000000000e+02 7.190000000000000000e+02 7.200000000000000000e+02 7.210000000000000000e+02 7.220000000000000000e+02 7.230000000000000000e+02 7.240000000000000000e+02 7.250000000000000000e+02 7.260000000000000000e+02 7.270000000000000000e+02 7.280000000000000000e+02 7.290000000000000000e+02 7.300000000000000000e+02 7.310000000000000000e+02 7.320000000000000000e+02 7.330000000000000000e+02 7.340000000000000000e+02 7.350000000000000000e+02 7.360000000000000000e+02 7.370000000000000000e+02 7.380000000000000000e+02 7.390000000000000000e+02 7.400000000000000000e+02 7.410000000000000000e+02 7.420000000000000000e+02 7.430000000000000000e+02 7.440000000000000000e+02 7.450000000000000000e+02 7.460000000000000000e+02 7.470000000000000000e+02 7.480000000000000000e+02 7.490000000000000000e+02 7.500000000000000000e+02 7.510000000000000000e+02 7.520000000000000000e+02 7.530000000000000000e+02 7.540000000000000000e+02 7.550000000000000000e+02 7.560000000000000000e+02 7.570000000000000000e+02 7.580000000000000000e+02 7.590000000000000000e+02 7.600000000000000000e+02 7.610000000000000000e+02 7.620000000000000000e+02 7.630000000000000000e+02 7.640000000000000000e+02 7.650000000000000000e+02 7.660000000000000000e+02 7.670000000000000000e+02 7.680000000000000000e+02 7.690000000000000000e+02 7.700000000000000000e+02 7.710000000000000000e+02 7.720000000000000000e+02 7.730000000000000000e+02 7.740000000000000000e+02 7.750000000000000000e+02 7.760000000000000000e+02 7.770000000000000000e+02 7.780000000000000000e+02 7.790000000000000000e+02 7.800000000000000000e+02 7.810000000000000000e+02 7.820000000000000000e+02 7.830000000000000000e+02 7.840000000000000000e+02 7.850000000000000000e+02 7.860000000000000000e+02 7.870000000000000000e+02 7.880000000000000000e+02 7.890000000000000000e+02 7.900000000000000000e+02 7.910000000000000000e+02 7.920000000000000000e+02 7.930000000000000000e+02 7.940000000000000000e+02 7.950000000000000000e+02 7.960000000000000000e+02 7.970000000000000000e+02 7.980000000000000000e+02 7.990000000000000000e+02 8.000000000000000000e+02 8.010000000000000000e+02 8.020000000000000000e+02 8.030000000000000000e+02 8.040000000000000000e+02 8.050000000000000000e+02 8.060000000000000000e+02 8.070000000000000000e+02 8.080000000000000000e+02 8.090000000000000000e+02 8.100000000000000000e+02 8.110000000000000000e+02 8.120000000000000000e+02 8.130000000000000000e+02 8.140000000000000000e+02 8.150000000000000000e+02 8.160000000000000000e+02 8.170000000000000000e+02 8.180000000000000000e+02 8.190000000000000000e+02 8.200000000000000000e+02 8.210000000000000000e+02 8.220000000000000000e+02 8.230000000000000000e+02 8.240000000000000000e+02 8.250000000000000000e+02 8.260000000000000000e+02 8.270000000000000000e+02 8.280000000000000000e+02 8.290000000000000000e+02 8.300000000000000000e+02 8.310000000000000000e+02 8.320000000000000000e+02 8.330000000000000000e+02 8.340000000000000000e+02 8.350000000000000000e+02 8.360000000000000000e+02 8.370000000000000000e+02 8.380000000000000000e+02 8.390000000000000000e+02 8.400000000000000000e+02 8.410000000000000000e+02 8.420000000000000000e+02 8.430000000000000000e+02 8.440000000000000000e+02 8.450000000000000000e+02 8.460000000000000000e+02 8.470000000000000000e+02 8.480000000000000000e+02 8.490000000000000000e+02 8.500000000000000000e+02 8.510000000000000000e+02 8.520000000000000000e+02 8.530000000000000000e+02 8.540000000000000000e+02 8.550000000000000000e+02 8.560000000000000000e+02 8.570000000000000000e+02 8.580000000000000000e+02 8.590000000000000000e+02 8.600000000000000000e+02 8.610000000000000000e+02 8.620000000000000000e+02 8.630000000000000000e+02 8.640000000000000000e+02 8.650000000000000000e+02 8.660000000000000000e+02 8.670000000000000000e+02 8.680000000000000000e+02 8.690000000000000000e+02 8.700000000000000000e+02 8.710000000000000000e+02 8.720000000000000000e+02 8.730000000000000000e+02 8.740000000000000000e+02 8.750000000000000000e+02 8.760000000000000000e+02 8.770000000000000000e+02 8.780000000000000000e+02 8.790000000000000000e+02 8.800000000000000000e+02 8.810000000000000000e+02 8.820000000000000000e+02 8.830000000000000000e+02 8.840000000000000000e+02 8.850000000000000000e+02 8.860000000000000000e+02 8.870000000000000000e+02 8.880000000000000000e+02 8.890000000000000000e+02 8.900000000000000000e+02 8.910000000000000000e+02 8.920000000000000000e+02 8.930000000000000000e+02 8.940000000000000000e+02 8.950000000000000000e+02 8.960000000000000000e+02 8.970000000000000000e+02 8.980000000000000000e+02 8.990000000000000000e+02 9.000000000000000000e+02 9.010000000000000000e+02 9.020000000000000000e+02 9.030000000000000000e+02 9.040000000000000000e+02 9.050000000000000000e+02 9.060000000000000000e+02 9.070000000000000000e+02 9.080000000000000000e+02 9.090000000000000000e+02 9.100000000000000000e+02 9.110000000000000000e+02 9.120000000000000000e+02 9.130000000000000000e+02 9.140000000000000000e+02 9.150000000000000000e+02 9.160000000000000000e+02 9.170000000000000000e+02 9.180000000000000000e+02 9.190000000000000000e+02 9.200000000000000000e+02 9.210000000000000000e+02 9.220000000000000000e+02 9.230000000000000000e+02 9.240000000000000000e+02 9.250000000000000000e+02 9.260000000000000000e+02 9.270000000000000000e+02 9.280000000000000000e+02 9.290000000000000000e+02 9.300000000000000000e+02 9.310000000000000000e+02 9.320000000000000000e+02 9.330000000000000000e+02 9.340000000000000000e+02 9.350000000000000000e+02 9.360000000000000000e+02 9.370000000000000000e+02 9.380000000000000000e+02 9.390000000000000000e+02 9.400000000000000000e+02 9.410000000000000000e+02 9.420000000000000000e+02 9.430000000000000000e+02 9.440000000000000000e+02 9.450000000000000000e+02 9.460000000000000000e+02 9.470000000000000000e+02 9.480000000000000000e+02 9.490000000000000000e+02 9.500000000000000000e+02 9.510000000000000000e+02 9.520000000000000000e+02 9.530000000000000000e+02 9.540000000000000000e+02 9.550000000000000000e+02 9.560000000000000000e+02 9.570000000000000000e+02 9.580000000000000000e+02 9.590000000000000000e+02 9.600000000000000000e+02 9.610000000000000000e+02 9.620000000000000000e+02 9.630000000000000000e+02 9.640000000000000000e+02 9.650000000000000000e+02 9.660000000000000000e+02 9.670000000000000000e+02 9.680000000000000000e+02 9.690000000000000000e+02 9.700000000000000000e+02 9.710000000000000000e+02 9.720000000000000000e+02 9.730000000000000000e+02 9.740000000000000000e+02 9.750000000000000000e+02 9.760000000000000000e+02 9.770000000000000000e+02 9.780000000000000000e+02 9.790000000000000000e+02 9.800000000000000000e+02 9.810000000000000000e+02 9.820000000000000000e+02 9.830000000000000000e+02 9.840000000000000000e+02 9.850000000000000000e+02 9.860000000000000000e+02 9.870000000000000000e+02 9.880000000000000000e+02 9.890000000000000000e+02 9.900000000000000000e+02 9.910000000000000000e+02 9.920000000000000000e+02 9.930000000000000000e+02 9.940000000000000000e+02 9.950000000000000000e+02 9.960000000000000000e+02 9.970000000000000000e+02 9.980000000000000000e+02 9.990000000000000000e+02
1.000000000000000000e+00 1.000000000000000000e+00 1.000000000000000000e+00 1.000000000000000000e+00 1.000000000000000000e+00 1.000000000000000000e+00 1.000000000000000000e+00 1.000000000000000000e+00 1.000000000000000000e+00 1.000000000000000000e+00 1.000000000000000000e+00 1.000000000000000000e+00 1.000000000000000000e+00 1.000000000000000000e+00 1.000000000000000000e+00 1.000000000000000000e+00 1.000000000000000000e+00 1.000000000000000000e+00 1.000000000000000000e+00 1.000000000000000000e+00 1.000000000000000000e+00 1.000000000000000000e+00 1.000000000000000000e+00 1.000000000000000000e+00 1.000000000000000000e+00 1.000000000000000000e+00 1.000000000000000000e+00 1.000000000000000000e+00 1.000000000000000000e+00 1.000000000000000000e+00 1.000000000000000000e+00 1.000000000000000000e+00 1.000000000000000000e+00 1.000000000000000000e+00 1.000000000000000000e+00 1.000000000000000000e+00 1.000000000000000000e+00 1.000000000000000000e+00 1.000000000000000000e+00 1.000000000000000000e+00 1.000000000000000000e+00 1.000000000000000000e+00 1.000000000000000000e+00 1.000000000000000000e+00 1.000000000000000000e+00 1.000000000000000000e+00 1.000000000000000000e+00 1.000000000000000000e+00 1.000000000000000000e+00 1.000000000000000000e+00 1.000000000000000000e+00 1.000000000000000000e+00 1.000000000000000000e+00 1.000000000000000000e+00 1.000000000000000000e+00 1.000000000000000000e+00 1.000000000000000000e+00 1.000000000000000000e+00 1.000000000000000000e+00 1.000000000000000000e+00 1.000000000000000000e+00 1.000000000000000000e+00 1.000000000000000000e+00 1.000000000000000000e+00 1.000000000000000000e+00 1.000000000000000000e+00 1.000000000000000000e+00 1.000000000000000000e+00 1.000000000000000000e+00 1.000000000000000000e+00 1.000000000000000000e+00 1.000000000000000000e+00 1.000000000000000000e+00 1.000000000000000000e+00 1.000000000000000000e+00 1.000000000000000000e+00 1.000000000000000000e+00 1.000000000000000000e+00 1.000000000000000000e+00 1.000000000000000000e+00 1.000000000000000000e+00 1.000000000000000000e+00 1.000000000000000000e+00 1.000000000000000000e+00 1.000000000000000000e+00 1.000000000000000000e+00 1.000000000000000000e+00 1.000000000000000000e+00 1.000000000000000000e+00 1.000000000000000000e+00 1.000000000000000000e+00 1.000000000000000000e+00 1.000000000000000000e+00 1.000000000000000000e+00 1.000000000000000000e+00 1.000000000000000000e+00 1.000000000000000000e+00 1.000000000000000000e+00 1.000000000000000000e+00 1.000000000000000000e+00 1.000000000000000000e+00 1.000000000000000000e+00 1.000000000000000000e+00 1.000000000000000000e+00 1.000000000000000000e+00 1.000000000000000000e+00 1.000000000000000000e+00 1.000000000000000000e+00 1.000000000000000000e+00 1.000000000000000000e+00 1.000000000000000000e+00 1.000000000000000000e+00 1.000000000000000000e+00 1.000000000000000000e+00 1.000000000000000000e+00 1.000000000000000000e+00 1.000000000000000000e+00 1.000000000000000000e+00 1.000000000000000000e+00 1.000000000000000000e+00 1.000000000000000000e+00 1.000000000000000000e+00 1.000000000000000000e+00 1.000000000000000000e+00 1.000000000000000000e+00 1.000000000000000000e+00 1.000000000000000000e+00 1.000000000000000000e+00 1.000000000000000000e+00 1.000000000000000000e+00 1.000000000000000000e+00 1.000000000000000000e+00 1.000000000000000000e+00 1.000000000000000000e+00 1.000000000000000000e+00 1.000000000000000000e+00 1.000000000000000000e+00 1.000000000000000000e+00 1.000000000000000000e+00 1.000000000000000000e+00 1.000000000000000000e+00 1.000000000000000000e+00 1.000000000000000000e+00 1.000000000000000000e+00 1.000000000000000000e+00 1.000000000000000000e+00 1.000000000000000000e+00 1.000000000000000000e+00 1.000000000000000000e+00 1.000000000000000000e+00 1.000000000000000000e+00 1.000000000000000000e+00 1.000000000000000000e+00 1.000000000000000000e+00 1.000000000000000000e+00 1.000000000000000000e+00 1.000000000000000000e+00 1.000000000000000000e+00 1.000000000000000000e+00 1.000000000000000000e+00 1.000000000000000000e+00 1.000000000000000000e+00 1.000000000000000000e+00 1.000000000000000000e+00 1.000000000000000000e+00 1.000000000000000000e+00 1.000000000000000000e+00 1.000000000000000000e+00 1.000000000000000000e+00 1.000000000000000000e+00 1.000000000000000000e+00 1.000000000000000000e+00 1.000000000000000000e+00 1.000000000000000000e+00 1.000000000000000000e+00 1.000000000000000000e+00 1.000000000000000000e+00 1.000000000000000000e+00 1.000000000000000000e+00 1.000000000000000000e+00 1.000000000000000000e+00 1.000000000000000000e+00 1.000000000000000000e+00 1.000000000000000000e+00 1.000000000000000000e+00 1.000000000000000000e+00 1.000000000000000000e+00 1.000000000000000000e+00 1.000000000000000000e+00 1.000000000000000000e+00 1.000000000000000000e+00 1.000000000000000000e+00 1.000000000000000000e+00 1.000000000000000000e+00 1.000000000000000000e+00 1.000000000000000000e+00 1.000000000000000000e+00 1.000000000000000000e+00 1.000000000000000000e+00 1.000000000000000000e+00 1.000000000000000000e+00 1.000000000000000000e+00 1.000000000000000000e+00 1.000000000000000000e+00 1.000000000000000000e+00 1.000000000000000000e+00 1.000000000000000000e+00 1.000000000000000000e+00 1.000000000000000000e+00 1.000000000000000000e+00 1.000000000000000000e+00 1.000000000000000000e+00 1.000000000000000000e+00 1.000000000000000000e+00 1.000000000000000000e+00 1.000000000000000000e+00 1.000000000000000000e+00 1.000000000000000000e+00 1.000000000000000000e+00 1.000000000000000000e+00 1.000000000000000000e+00 1.000000000000000000e+00 1.000000000000000000e+00 1.000000000000000000e+00 1.000000000000000000e+00 1.000000000000000000e+00 1.000000000000000000e+00 1.000000000000000000e+00 1.000000000000000000e+00 1.000000000000000000e+00 1.000000000000000000e+00 1.000000000000000000e+00 1.000000000000000000e+00 1.000000000000000000e+00 1.000000000000000000e+00 1.000000000000000000e+00 1.000000000000000000e+00 1.000000000000000000e+00 1.000000000000000000e+00 1.000000000000000000e+00 1.000000000000000000e+00 1.000000000000000000e+00 1.000000000000000000e+00 1.000000000000000000e+00 1.000000000000000000e+00 1.000000000000000000e+00 1.000000000000000000e+00 1.000000000000000000e+00 1.000000000000000000e+00 1.000000000000000000e+00 1.000000000000000000e+00 1.000000000000000000e+00 1.000000000000000000e+00 1.000000000000000000e+00 1.000000000000000000e+00 1.000000000000000000e+00 1.000000000000000000e+00 1.000000000000000000e+00 1.000000000000000000e+00 1.000000000000000000e+00 1.000000000000000000e+00 1.000000000000000000e+00 1.000000000000000000e+00 1.000000000000000000e+00 1.000000000000000000e+00 1.000000000000000000e+00 1.000000000000000000e+00 1.000000000000000000e+00 1.000000000000000000e+00 1.000000000000000000e+00 1.000000000000000000e+00 1.000000000000000000e+00 1.000000000000000000e+00 1.000000000000000000e+00 1.000000000000000000e+00 1.000000000000000000e+00 1.000000000000000000e+00 1.000000000000000000e+00 1.000000000000000000e+00 1.000000000000000000e+00 1.000000000000000000e+00 1.000000000000000000e+00 1.000000000000000000e+00 1.000000000000000000e+00 1.000000000000000000e+00 1.000000000000000000e+00 1.000000000000000000e+00 1.000000000000000000e+00 1.000000000000000000e+00 1.000000000000000000e+00 1.000000000000000000e+00 1.000000000000000000e+00 1.000000000000000000e+00 1.000000000000000000e+00 1.000000000000000000e+00 1.000000000000000000e+00 1.000000000000000000e+00 1.000000000000000000e+00 1.000000000000000000e+00 1.000000000000000000e+00 1.000000000000000000e+00 1.000000000000000000e+00 1.000000000000000000e+00 1.000000000000000000e+00 1.000000000000000000e+00 1.000000000000000000e+00 1.000000000000000000e+00 1.000000000000000000e+00 1.000000000000000000e+00 1.000000000000000000e+00 1.000000000000000000e+00 1.000000000000000000e+00 1.000000000000000000e+00 1.000000000000000000e+00 1.000000000000000000e+00 1.000000000000000000e+00 1.000000000000000000e+00 1.000000000000000000e+00 1.000000000000000000e+00 1.000000000000000000e+00 1.000000000000000000e+00 1.000000000000000000e+00 1.000000000000000000e+00 1.000000000000000000e+00 1.000000000000000000e+00 1.000000000000000000e+00 1.000000000000000000e+00 1.000000000000000000e+00 1.000000000000000000e+00 1.000000000000000000e+00 1.000000000000000000e+00 1.000000000000000000e+00 1.000000000000000000e+00 1.000000000000000000e+00 1.000000000000000000e+00 1.000000000000000000e+00 1.000000000000000000e+00 1.000000000000000000e+00 1.000000000000000000e+00 1.000000000000000000e+00 1.000000000000000000e+00 1.000000000000000000e+00 1.000000000000000000e+00 1.000000000000000000e+00 1.000000000000000000e+00 1.000000000000000000e+00 1.000000000000000000e+00 1.000000000000000000e+00 1.000000000000000000e+00 1.000000000000000000e+00 1.000000000000000000e+00 1.000000000000000000e+00 1.000000000000000000e+00 1.000000000000000000e+00 1.000000000000000000e+00 1.000000000000000000e+00 1.000000000000000000e+00 1.000000000000000000e+00 1.000000000000000000e+00 1.000000000000000000e+00 1.000000000000000000e+00 1.000000000000000000e+00 1.000000000000000000e+00 1.000000000000000000e+00 1.000000000000000000e+00 1.000000000000000000e+00 1.000000000000000000e+00 1.000000000000000000e+00 1.000000000000000000e+00 1.000000000000000000e+00 1.000000000000000000e+00 1.000000000000000000e+00 1.000000000000000000e+00 1.000000000000000000e+00 1.000000000000000000e+00 1.000000000000000000e+00 1.000000000000000000e+00 1.000000000000000000e+00 1.000000000000000000e+00 1.000000000000000000e+00 1.000000000000000000e+00 1.000000000000000000e+00 1.000000000000000000e+00 1.000000000000000000e+00 1.000000000000000000e+00 1.000000000000000000e+00 1.000000000000000000e+00 1.000000000000000000e+00 1.000000000000000000e+00 1.000000000000000000e+00 1.000000000000000000e+00 1.000000000000000000e+00 1.000000000000000000e+00 1.000000000000000000e+00 1.000000000000000000e+00 1.000000000000000000e+00 1.000000000000000000e+00 1.000000000000000000e+00 1.000000000000000000e+00 1.000000000000000000e+00 1.000000000000000000e+00 1.000000000000000000e+00 1.000000000000000000e+00 1.000000000000000000e+00 1.000000000000000000e+00 1.000000000000000000e+00 1.000000000000000000e+00 1.000000000000000000e+00 1.000000000000000000e+00 1.000000000000000000e+00 1.000000000000000000e+00 1.000000000000000000e+00 1.000000000000000000e+00 1.000000000000000000e+00 1.000000000000000000e+00 1.000000000000000000e+00 1.000000000000000000e+00 1.000000000000000000e+00 1.000000000000000000e+00 1.000000000000000000e+00 1.000000000000000000e+00 1.000000000000000000e+00 1.000000000000000000e+00 1.000000000000000000e+00 1.000000000000000000e+00 1.000000000000000000e+00 1.000000000000000000e+00 1.000000000000000000e+00 1.000000000000000000e+00 1.000000000000000000e+00 1.000000000000000000e+00 1.000000000000000000e+00 1.000000000000000000e+00 1.000000000000000000e+00 1.000000000000000000e+00 1.000000000000000000e+00 1.000000000000000000e+00 1.000000000000000000e+00 1.000000000000000000e+00 1.000000000000000000e+00 1.000000000000000000e+00 1.000000000000000000e+00 1.000000000000000000e+00 1.000000000000000000e+00 1.000000000000000000e+00 1.000000000000000000e+00 1.000000000000000000e+00 1.000000000000000000e+00 1.000000000000000000e+00 1.000000000000000000e+00 1.000000000000000000e+00 1.000000000000000000e+00 1.000000000000000000e+00 1.000000000000000000e+00 1.000000000000000000e+00 1.000000000000000000e+00 1.000000000000000000e+00 1.000000000000000000e+00 1.000000000000000000e+00 1.000000000000000000e+00 1.000000000000000000e+00 1.000000000000000000e+00 1.000000000000000000e+00 1.000000000000000000e+00 1.000000000000000000e+00 1.000000000000000000e+00 1.000000000000000000e+00 1.000000000000000000e+00 1.000000000000000000e+00 1.000000000000000000e+00 1.000000000000000000e+00 1.000000000000000000e+00 1.000000000000000000e+00 1.000000000000000000e+00 1.000000000000000000e+00 1.000000000000000000e+00 1.000000000000000000e+00 1.000000000000000000e+00 1.000000000000000000e+00 1.000000000000000000e+00 1.000000000000000000e+00 1.000000000000000000e+00 1.000000000000000000e+00 1.000000000000000000e+00 1.000000000000000000e+00 1.000000000000000000e+00 1.000000000000000000e+00 1.000000000000000000e+00 1.000000000000000000e+00 1.000000000000000000e+00 1.000000000000000000e+00 1.000000000000000000e+00 1.000000000000000000e+00 1.000000000000000000e+00 1.000000000000000000e+00 1.000000000000000000e+00 1.000000000000000000e+00 1.000000000000000000e+00 1.000000000000000000e+00 1.000000000000000000e+00 1.000000000000000000e+00 1.000000000000000000e+00 1.000000000000000000e+00 1.000000000000000000e+00 1.000000000000000000e+00 1.000000000000000000e+00 1.000000000000000000e+00 1.000000000000000000e+00 1.000000000000000000e+00 1.000000000000000000e+00 1.000000000000000000e+00 1.000000000000000000e+00 1.000000000000000000e+00 1.000000000000000000e+00 1.000000000000000000e+00 1.000000000000000000e+00 1.000000000000000000e+00 1.000000000000000000e+00 1.000000000000000000e+00 1.000000000000000000e+00 1.000000000000000000e+00 1.000000000000000000e+00 1.000000000000000000e+00 1.000000000000000000e+00 1.000000000000000000e+00 1.000000000000000000e+00 1.000000000000000000e+00 1.000000000000000000e+00 1.000000000000000000e+00 1.000000000000000000e+00 1.000000000000000000e+00 1.000000000000000000e+00 1.000000000000000000e+00 1.000000000000000000e+00 1.000000000000000000e+00 1.000000000000000000e+00 1.000000000000000000e+00 1.000000000000000000e+00 1.000000000000000000e+00 1.000000000000000000e+00 1.000000000000000000e+00 1.000000000000000000e+00 1.000000000000000000e+00 1.000000000000000000e+00 1.000000000000000000e+00 1.000000000000000000e+00 1.000000000000000000e+00 1.000000000000000000e+00 1.000000000000000000e+00 1.000000000000000000e+00 1.000000000000000000e+00 1.000000000000000000e+00 1.000000000000000000e+00 1.000000000000000000e+00 1.000000000000000000e+00 1.000000000000000000e+00 1.000000000000000000e+00 1.000000000000000000e+00 1.000000000000000000e+00 1.000000000000000000e+00 1.000000000000000000e+00 1.000000000000000000e+00 1.000000000000000000e+00 1.000000000000000000e+00 1.000000000000000000e+00 1.000000000000000000e+00 1.000000000000000000e+00 1.000000000000000000e+00 1.000000000000000000e+00 1.000000000000000000e+00 1.000000000000000000e+00 1.000000000000000000e+00 1.000000000000000000e+00 1.000000000000000000e+00 1.000000000000000000e+00 1.000000000000000000e+00 1.000000000000000000e+00 1.000000000000000000e+00 1.000000000000000000e+00 1.000000000000000000e+00 1.000000000000000000e+00 1.000000000000000000e+00 1.000000000000000000e+00 1.000000000000000000e+00 1.000000000000000000e+00 1.000000000000000000e+00 1.000000000000000000e+00 1.000000000000000000e+00 1.000000000000000000e+00 1.000000000000000000e+00 1.000000000000000000e+00 1.000000000000000000e+00 1.000000000000000000e+00 1.000000000000000000e+00 1.000000000000000000e+00 1.000000000000000000e+00 1.000000000000000000e+00 1.000000000000000000e+00 1.000000000000000000e+00 1.000000000000000000e+00 1.000000000000000000e+00 1.000000000000000000e+00 1.000000000000000000e+00 1.000000000000000000e+00 1.000000000000000000e+00 1.000000000000000000e+00 1.000000000000000000e+00 1.000000000000000000e+00 1.000000000000000000e+00 1.000000000000000000e+00 1.000000000000000000e+00 1.000000000000000000e+00 1.000000000000000000e+00 1.000000000000000000e+00 1.000000000000000000e+00 1.000000000000000000e+00 1.000000000000000000e+00 1.000000000000000000e+00 1.000000000000000000e+00 1.000000000000000000e+00 1.000000000000000000e+00 1.000000000000000000e+00 1.000000000000000000e+00 1.000000000000000000e+00 1.000000000000000000e+00 1.000000000000000000e+00 1.000000000000000000e+00 1.000000000000000000e+00 1.000000000000000000e+00 1.000000000000000000e+00 1.000000000000000000e+00 1.000000000000000000e+00 1.000000000000000000e+00 1.000000000000000000e+00 1.000000000000000000e+00 1.000000000000000000e+00 1.000000000000000000e+00 1.000000000000000000e+00 1.000000000000000000e+00 1.000000000000000000e+00 1.000000000000000000e+00 1.000000000000000000e+00 1.000000000000000000e+00 1.000000000000000000e+00 1.000000000000000000e+00 1.000000000000000000e+00 1.000000000000000000e+00 1.000000000000000000e+00 1.000000000000000000e+00 1.000000000000000000e+00 1.000000000000000000e+00 1.000000000000000000e+00 1.000000000000000000e+00 1.000000000000000000e+00 1.000000000000000000e+00 1.000000000000000000e+00 1.000000000000000000e+00 1.000000000000000000e+00 1.000000000000000000e+00 1.000000000000000000e+00 1.000000000000000000e+00 1.000000000000000000e+00 1.000000000000000000e+00 1.000000000000000000e+00 1.000000000000000000e+00 1.000000000000000000e+00 1.000000000000000000e+00 1.000000000000000000e+00 1.000000000000000000e+00 1.000000000000000000e+00 1.000000000000000000e+00 1.000000000000000000e+00 1.000000000000000000e+00 1.000000000000000000e+00 1.000000000000000000e+00 1.000000000000000000e+00 1.000000000000000000e+00 1.000000000000000000e+00 1.000000000000000000e+00 1.000000000000000000e+00 1.000000000000000000e+00 1.000000000000000000e+00 1.000000000000000000e+00 1.000000000000000000e+00 1.000000000000000000e+00 1.000000000000000000e+00 1.000000000000000000e+00 1.000000000000000000e+00 1.000000000000000000e+00 1.000000000000000000e+00 1.000000000000000000e+00 1.000000000000000000e+00 1.000000000000000000e+00 1.000000000000000000e+00 1.000000000000000000e+00 1.000000000000000000e+00 1.000000000000000000e+00 1.000000000000000000e+00 1.000000000000000000e+00 1.000000000000000000e+00 1.000000000000000000e+00 1.000000000000000000e+00 1.000000000000000000e+00 1.000000000000000000e+00 1.000000000000000000e+00 1.000000000000000000e+00 1.000000000000000000e+00 1.000000000000000000e+00 1.000000000000000000e+00 1.000000000000000000e+00 1.000000000000000000e+00 1.000000000000000000e+00 1.000000000000000000e+00 1.000000000000000000e+00 1.000000000000000000e+00 1.000000000000000000e+00 1.000000000000000000e+00 1.000000000000000000e+00 1.000000000000000000e+00 1.000000000000000000e+00 1.000000000000000000e+00 1.000000000000000000e+00 1.000000000000000000e+00 1.000000000000000000e+00 1.000000000000000000e+00 1.000000000000000000e+00 1.000000000000000000e+00 1.000000000000000000e+00 1.000000000000000000e+00 1.000000000000000000e+00 1.000000000000000000e+00 1.000000000000000000e+00 1.000000000000000000e+00 1.000000000000000000e+00 1.000000000000000000e+00 1.000000000000000000e+00 1.000000000000000000e+00 1.000000000000000000e+00 1.000000000000000000e+00 1.000000000000000000e+00 1.000000000000000000e+00 1.000000000000000000e+00 1.000000000000000000e+00 1.000000000000000000e+00 1.000000000000000000e+00 1.000000000000000000e+00 1.000000000000000000e+00 1.000000000000000000e+00 1.000000000000000000e+00 1.000000000000000000e+00 1.000000000000000000e+00 1.000000000000000000e+00 1.000000000000000000e+00 1.000000000000000000e+00 1.000000000000000000e+00 1.000000000000000000e+00 1.000000000000000000e+00 1.000000000000000000e+00 1.000000000000000000e+00 1.000000000000000000e+00 1.000000000000000000e+00 1.000000000000000000e+00 1.000000000000000000e+00 1.000000000000000000e+00 1.000000000000000000e+00 1.000000000000000000e+00 1.000000000000000000e+00 1.000000000000000000e+00 1.000000000000000000e+00 1.000000000000000000e+00 1.000000000000000000e+00 1.000000000000000000e+00 1.000000000000000000e+00 1.000000000000000000e+00 1.000000000000000000e+00 1.000000000000000000e+00 1.000000000000000000e+00 1.000000000000000000e+00 1.000000000000000000e+00 1.000000000000000000e+00 1.000000000000000000e+00 1.000000000000000000e+00 1.000000000000000000e+00 1.000000000000000000e+00 1.000000000000000000e+00 1.000000000000000000e+00 1.000000000000000000e+00 1.000000000000000000e+00 1.000000000000000000e+00 1.000000000000000000e+00 1.000000000000000000e+00 1.000000000000000000e+00 1.000000000000000000e+00 1.000000000000000000e+00 1.000000000000000000e+00 1.000000000000000000e+00 1.000000000000000000e+00 1.000000000000000000e+00 1.000000000000000000e+00 1.000000000000000000e+00 1.000000000000000000e+00 1.000000000000000000e+00 1.000000000000000000e+00 1.000000000000000000e+00 1.000000000000000000e+00 1.000000000000000000e+00 1.000000000000000000e+00 1.000000000000000000e+00 1.000000000000000000e+00 1.000000000000000000e+00 1.000000000000000000e+00 1.000000000000000000e+00 1.000000000000000000e+00 1.000000000000000000e+00 1.000000000000000000e+00 1.000000000000000000e+00 1.000000000000000000e+00 1.000000000000000000e+00 1.000000000000000000e+00 1.000000000000000000e+00 1.000000000000000000e+00 1.000000000000000000e+00 1.000000000000000000e+00 1.000000000000000000e+00 1.000000000000000000e+00 1.000000000000000000e+00 1.000000000000000000e+00 1.000000000000000000e+00 1.000000000000000000e+00 1.000000000000000000e+00 1.000000000000000000e+00 1.000000000000000000e+00 1.000000000000000000e+00 1.000000000000000000e+00 1.000000000000000000e+00 1.000000000000000000e+00 1.000000000000000000e+00 1.000000000000000000e+00 1.000000000000000000e+00 1.000000000000000000e+00 1.000000000000000000e+00 1.000000000000000000e+00 1.000000000000000000e+00 1.000000000000000000e+00 1.000000000000000000e+00 1.000000000000000000e+00 1.000000000000000000e+00 1.000000000000000000e+00 1.000000000000000000e+00 1.000000000000000000e+00 1.000000000000000000e+00 1.000000000000000000e+00 1.000000000000000000e+00 1.000000000000000000e+00 1.000000000000000000e+00 1.000000000000000000e+00 1.000000000000000000e+00 1.000000000000000000e+00 1.000000000000000000e+00 1.000000000000000000e+00 1.000000000000000000e+00 1.000000000000000000e+00 1.000000000000000000e+00 1.000000000000000000e+00 1.000000000000000000e+00 1.000000000000000000e+00 1.000000000000000000e+00 1.000000000000000000e+00 1.000000000000000000e+00 1.000000000000000000e+00 1.000000000000000000e+00 1.000000000000000000e+00 1.000000000000000000e+00 1.000000000000000000e+00 1.000000000000000000e+00 1.000000000000000000e+00 1.000000000000000000e+00 1.000000000000000000e+00 1.000000000000000000e+00 1.000000000000000000e+00 1.000000000000000000e+00 1.000000000000000000e+00 1.000000000000000000e+00 1.000000000000000000e+00 1.000000000000000000e+00 1.000000000000000000e+00 1.000000000000000000e+00 1.000000000000000000e+00 1.000000000000000000e+00 1.000000000000000000e+00 1.000000000000000000e+00 1.000000000000000000e+00 1.000000000000000000e+00 1.000000000000000000e+00 1.000000000000000000e+00 1.000000000000000000e+00 1.000000000000000000e+00 1.000000000000000000e+00 1.000000000000000000e+00 1.000000000000000000e+00 1.000000000000000000e+00 1.000000000000000000e+00 1.000000000000000000e+00 1.000000000000000000e+00 1.000000000000000000e+00 1.000000000000000000e+00 1.000000000000000000e+00 1.000000000000000000e+00 1.000000000000000000e+00 1.000000000000000000e+00 1.000000000000000000e+00 1.000000000000000000e+00 1.000000000000000000e+00 1.000000000000000000e+00 1.000000000000000000e+00 1.000000000000000000e+00 1.000000000000000000e+00 1.000000000000000000e+00 1.000000000000000000e+00 1.000000000000000000e+00 1.000000000000000000e+00 1.000000000000000000e+00 1.000000000000000000e+00 1.000000000000000000e+00 1.000000000000000000e+00 1.000000000000000000e+00 1.000000000000000000e+00 1.000000000000000000e+00 1.000000000000000000e+00 1.000000000000000000e+00 1.000000000000000000e+00 1.000000000000000000e+00 1.000000000000000000e+00 1.000000000000000000e+00 1.000000000000000000e+00 1.000000000000000000e+00 1.000000000000000000e+00 1.000000000000000000e+00 1.000000000000000000e+00 1.000000000000000000e+00 1.000000000000000000e+00 1.000000000000000000e+00 1.000000000000000000e+00 1.000000000000000000e+00 1.000000000000000000e+00 1.000000000000000000e+00 1.000000000000000000e+00 1.000000000000000000e+00 1.000000000000000000e+00 1.000000000000000000e+00 1.000000000000000000e+00 1.000000000000000000e+00 1.000000000000000000e+00 1.000000000000000000e+00 1.000000000000000000e+00 1.000000000000000000e+00 1.000000000000000000e+00 1.000000000000000000e+00 1.000000000000000000e+00 1.000000000000000000e+00 1.000000000000000000e+00 1.000000000000000000e+00 1.000000000000000000e+00 1.000000000000000000e+00 1.000000000000000000e+00 1.000000000000000000e+00 1.000000000000000000e+00 1.000000000000000000e+00 1.000000000000000000e+00 1.000000000000000000e+00 1.000000000000000000e+00 1.000000000000000000e+00 1.000000000000000000e+00 1.000000000000000000e+00 1.000000000000000000e+00 1.000000000000000000e+00 1.000000000000000000e+00 1.000000000000000000e+00 1.000000000000000000e+00 1.000000000000000000e+00 1.000000000000000000e+00 1.000000000000000000e+00 1.000000000000000000e+00 1.000000000000000000e+00 1.000000000000000000e+00 1.000000000000000000e+00 1.000000000000000000e+00 1.000000000000000000e+00 1.000000000000000000e+00 1.000000000000000000e+00 1.000000000000000000e+00 1.000000000000000000e+00 1.000000000000000000e+00 1.000000000000000000e+00 1.000000000000000000e+00 1.000000000000000000e+00 1.000000000000000000e+00 1.000000000000000000e+00 1.000000000000000000e+00 1.000000000000000000e+00
6.184243855329218248e-02 5.486484432613344397e-01 -3.099807060276157378e-01 7.873121013190501616e-01 5.240100434849110922e-01 5.771038706667348528e-01 5.509311021113022511e-01 4.641556713366372100e-01 5.645929936137575877e-01 5.197232474711183103e-01 1.089678626256179061e+00 -7.508087730564697582e-01 1.433357527320578528e+00 4.736559174904332870e-01 5.206599873699324643e-01 4.384631537646440091e-01 8.109542516275352053e-01 9.789567196130362081e-01 7.532518966419189388e-01 4.969384339762844549e-01 3.800801772310474780e-01 1.000200755550126885e+00 3.511656795815210064e-01 5.815794842015901134e-01 5.763805360552398671e-02 6.553098392777266801e-01 4.490188969905086758e-01 7.239914062155068386e-01 5.242705878532261110e-01 1.662287380566183526e+00 4.854106180546204352e-01 5.979141713126322477e-01 7.185237832284019355e-01 5.116515400543929504e-01 6.823542866907610360e-01 4.687075885922772911e-01 5.958278392443387972e-01 1.897488999793743192e+00 -1.058609940137986150e-01 5.269977468881477112e-01 -2.493827469570931987e-01 -5.619459066636529609e-01 7.443280611327746099e-01 2.335617201736934767e-01 3.517272448222646397e-01 5.019821092294319831e-01 7.876817908212171426e-01 5.562701823165968618e-01 6.991464672822430559e-01 1.139440625629298612e-02 4.817215096704580146e-02 7.234521659482874290e-01 6.857405146185605593e-01 4.134391365763608328e-01 4.718384404238952778e-01 2.798536157512892739e-02 5.783604695554459552e-01 5.214142019268876993e-01 2.053768973752191085e-01 5.074803581369073946e-01 9.353182704053799590e-01 4.336804827732846368e-01 5.212463260095051565e-01 3.511658007495668254e-01 6.721076733346519338e-01 6.842642780962510107e-01 5.278296796392220047e-01 5.155704556953780715e-01 5.190358223762184808e-01 5.824716148475167499e-02 4.995263581296746636e-01 5.770818531053630851e-01 5.411688352349380837e-01 2.341955250248202100e-02 1.538250627409578186e+00 5.126622998732662806e-01 6.407675758928461640e-01 7.071499227446560454e-01 5.207417312688250588e-01 1.391684035994275037e+00 5.272048793015496893e-01 3.848155481171498526e-01 1.474503306212566756e+00 7.812731501675743706e-01 5.321616909356757796e-01 7.479490035867948361e-01 7.946664199762778491e-01 5.013953650421927311e-01 4.323422636944526665e-01 5.770732166034772126e-01 3.527796892450120181e-01 2.268582173869593710e+00 7.987521050798728206e-01 8.399842623548618714e-02 5.007878561353749092e-01 5.467005211026075839e-01 5.350355055185326281e-01 4.883712461667519822e-01 1.908988421682648318e-01 6.597588598975353547e-01 1.665699814680003499e+00 6.852483114290670585e-01 5.105334439170583494e-01 4.980484353600623804e-01 8.484991242036035164e-01 -2.191302390829241720e+00 -1.269907586437655445e+00 4.917028426573168409e-01 6.361353262921725094e-01 9.654365041591604912e-01 5.683753739225271273e-01 4.151501209909389534e-01 1.982955824588093774e-01 5.260202887463111265e-01 5.317624581219622115e-01 5.277510834662214600e-01 4.456074994975768866e-01 4.775126009467481336e-01 1.041632276510216837e+00 5.187885892319136216e-01 1.327381841626003922e+00 5.295793364914813672e-01 6.642482739508136502e-01 -6.086959274791410301e-01 5.263600783075100820e-01 1.996994030088959038e+00 4.547646588384164912e-01 4.957283054054215099e-01 6.616060938591495910e-01 5.300512806196804316e-01 5.937670535267196570e-01 5.177378704730271064e-01 4.489724219372442926e-01 5.827672840774610341e-01 -4.339261629527101372e-01 -1.713191805417129121e-01 6.911634119101257578e-01 3.886490572665729504e-02 1.017511815584584367e+00 4.917547278275630207e-01 5.416708402314879267e-01 8.809104484291223613e-01 4.315922017055660587e-01 4.706375543924664617e-01 5.184889344495443586e-01 1.999587958109970073e-02 1.006095667593431608e+00 -2.475043891403660989e-01 4.133205010292392290e-01 -9.482532386716346906e-01 7.398319072605906710e-01 -2.763343734622348835e-01 5.019691632894630606e-01 4.852129970135851678e-01 6.102676429974012162e-01 5.252779919559440458e-01 2.095532084662774963e+00 -2.027887051394508533e-01 8.353458729017440021e-01 6.436820360836064125e-01 5.734379510369546074e-01 5.031085898150952085e-01 5.037612879284778522e-01 5.231848745393130606e-01 1.057383087518324105e+00 2.915282991424319459e-01 8.513753738992558828e-01 2.784129757749706502e-01 3.603880594971122231e-01 5.835227108022358333e-01 6.603703449125163383e-01 7.865607902880124014e-01 5.020346940802643543e-01 5.238476352218884857e-01 4.016483713564496516e-01 4.076091427815441148e-02 2.420529134397175486e-01 1.235392778547916987e-01 7.634435097114175006e-01 1.144880399013969097e+00 6.417228981132714338e-01 5.211948942612427693e-01 -1.594093369841327323e-01 4.639356953414036089e-01 3.864301790269185077e-01 4.807525692162359920e-01 5.348675310559037888e-01 5.456290744647191993e-01 2.917156783029062339e+00 4.765976620832118593e-01 5.814232803481045320e-01 -9.453228635403237989e-01 5.213662636760620916e-01 4.905189679449367124e-01 2.098341277815097827e-01 5.195685738102421292e-01 9.528404933893317441e-01 5.410719916369428617e-01 3.604402787441920442e-01 5.675403146987404446e-01 6.330993803669654474e-01 5.489623335109322655e-01 7.975666747867746764e-01 6.027508980814324513e-01 5.432019058447508097e-01 3.604402886922615235e-01 1.676876215527512703e-01 1.309501152476401975e+00 5.191423151614941167e-01 5.510696545842727057e-01 4.180167374243982104e-01 -1.023646652867526846e-01 5.083723398914444802e-01 1.536283306101977331e-01 5.266708405897229106e-01 5.230416266951160020e-01 5.219469159639379408e-01 5.244511993127513039e-01 5.286736637799562821e-01 5.217097067042133496e-01 4.502542335745577384e-01 5.364626227540313375e-01 -7.304097645470823963e-01 6.342458190274615770e-01 5.302291497266945486e-01 3.387819961235830069e-01 -3.934270147882065055e-02 1.361913796316957637e+00 9.808835716463740750e-01 4.864650348804162028e-01 -1.010397472770266369e-01 1.075033564301513644e+00 5.216565773814147988e-01 5.102802359956761791e-01 6.787994050199813723e-01 4.032007379257442903e-01 2.129036424778834036e-01 1.523933348109534625e-01 -1.726876712227660426e-01 -4.181409075560874045e-02 5.970744167782360279e-01 5.352523665573397649e-01 -1.281237909397838215e-01 4.648241304709249677e-01 5.217179740749104955e-01 5.492180087284903589e-01 -8.840086694636123399e-02 7.685038571755374859e-01 -2.436769404332062905e+00 6.109701485398699727e-01 -7.119316730823873618e-01 5.028318062892385143e-01 5.138016339513689079e-01 3.511643183342255115e-01 5.140404419769352140e-01 4.933920143748992126e-01 4.925531708648896445e-01 8.017766940075770066e-01 5.809508292292553389e-01 1.708433701009584915e+00 6.852367538539052561e-01 6.658934684705788420e-01 4.498581320913517256e-01 4.469771110225329025e-01 9.353182354866118597e-01 5.357577955802581560e-01 2.786479437689779015e+00 4.396187693752985348e-01 2.124225712111625086e-01 7.881198763597779822e-01 5.234757980183948334e-01 9.359479482782391280e-01 5.196061645282118446e-01 5.652118642625900691e-01 5.208047683015043505e-01 1.184401031498366619e+00 7.591734240565645164e-01 8.522893431623029814e-01 7.905862773147617206e-01 5.905130764415074118e-01 6.890550541651773164e-01 5.102396433859351932e-01 3.659690185142651653e-01 -7.658227083259280255e-01 3.945010428511420697e-01 3.799473521678903287e-01 4.857498116961260215e-01 5.315141430373736542e-01 5.277510610352066367e-01 6.154345843943378469e-01 5.065935680417928966e-01 -9.800091275854468931e-01 7.857074630653405611e-01 4.741470007873325176e-01 -1.823421630296841872e-02 4.532014234883743331e-01 1.866133794807008695e+00 5.099748709495979249e-01 5.208431139512345043e-01 4.133067261884960653e-01 -3.567385855341344225e+00 5.191582720083230962e-01 3.033180014558781945e+00 7.863774734740490713e-01 5.474210337491803857e-01 -5.649883012265406457e-01 5.156165506938860110e-01 5.228473355973196623e-01 4.649043639946061623e-01 4.503436577716242728e-01 3.246281430207612062e-01 6.569360544312489170e-01 3.135434655008068616e-01 5.277345133691182522e-01 5.214037638008279796e-01 3.707268735483155719e-01 5.218742793170204619e-01 7.865147073762420726e-01 5.190459834197550526e-01 1.223455052823319456e+00 5.965911635668527668e-02 2.254942813095182963e+00 2.715899703781341046e+00 4.734178063305204409e-01 -2.508803534355175113e-01 3.840400902838131958e-01 3.998293719596597295e-01 7.485098479534820770e-01 1.411854442555807054e+00 5.284873430143635087e-01 1.142528108222144789e+00 5.192768765419570887e-01 1.171575201593083870e-01 1.266054619398510939e+00 6.140199274426090259e-01 5.760241328264553706e-01 5.418558417409584660e-01 9.098904317876254089e-01 -3.932607143914734316e+00 1.678524749952513107e+00 5.341171923638310393e-01 6.335716143993692651e-01 5.291715609125386965e-01 1.897488991660798430e+00 2.905999215253837753e-01 5.705122317747088889e-01 4.518300921665870939e-01 6.674101097383821068e-01 1.364807340616108089e+00 4.941870982835501191e-01 3.604399401957512072e-01 4.648296171918223085e-01 6.027508963944855358e-01 3.581238350027927675e-01 5.690086862377455867e-01 9.071812373502097238e-01 5.205973583271719107e-01 3.817527494270808730e-01 1.242923684912936588e-01 6.428520599705006555e-01 5.216429469555272647e-01 2.438902016908291448e-01 5.705122553626797988e-01 5.939802337364014084e-01 5.181601983505831344e-01 1.060532491820729950e+00 9.044465614005270382e-01 1.175106710647783048e+00 5.305260747269827659e-01 2.093680487529242518e-01 9.353175595741592963e-01 -1.102638745178321916e-01 9.344639590358694292e-01 6.308330713100868126e-01 5.573226234861898554e-02 3.884191310986354062e-01 8.463853987354853503e-01 3.823102916436975640e-01 4.646322725529358766e-01 3.479664625720134130e-01 -3.450561621886027996e-01 -2.568691424051122940e+00 5.703962074172201913e-01 6.027508809713330029e-01 6.027508432946065975e-01 5.179043557397204900e-01 3.376726526394764893e-01 -2.507715596344039510e-01 2.684335322379337585e-01 5.189979631124455040e-01 7.032376718309365504e-01 5.231481403192658197e-01 1.006553226051655425e+00 3.604402061509500710e-01 5.196066770006124713e-01 5.082030992388015811e-01 3.114479041130221448e-01 6.646161297248230904e-01 5.285969183190798448e-01 5.242536467365470632e-01 4.862766751931928422e-01 3.389014935876954460e-01 2.826472209796647775e-02 6.027508947853924548e-01 6.629598953285045226e-01 5.188276572655199370e-01 3.878532630238315515e-01 8.602562020513419005e-01 7.774678308962551521e-01 5.652282958106383814e-01 1.962421410770996522e+00 4.768433150704233237e-01 -3.281818372421370089e+00 7.876075469425392050e-01 1.562986698191120016e+00 5.695705231540398872e-01 -1.143059758847662977e+00 8.846258749255346832e-01 4.325542030835109464e-01 5.379696578748265345e-01 5.166036739658642629e-01 -5.002616032336760776e-01 5.138143036506881423e-01 1.083632958424250781e+00 4.471812374818192604e-01 -4.387140648322408465e-01 5.126442406035890409e-01 5.180548047122190969e-01 7.971765680664516518e-01 5.379154725539918580e-01 6.263821439221728404e-01 -5.626614045708068224e-01 5.599180491568742646e-01 5.178394909852932493e-01 4.589551927631479455e-01 5.070662201928536339e-01 7.729513785044559437e-01 5.213872269829626926e-01 6.341692240388169255e-01 3.479645955251357003e-01 5.398912520909147084e-01 2.080336501477866307e-01 3.596069142739765634e-01 3.912916827154807042e-01 9.809508344461032037e-01 5.633608019813376444e-01 3.300389275968530711e+00 6.530451121076015220e-01 6.744882705025759817e-01 5.387651799363660787e-01 5.009835853136436201e-01 9.543469684915043688e-03 5.001758949334748072e-01 5.553628142695009595e-01 5.429313718889257068e-01 1.151312431370369982e+00 7.730543552696804710e-01 5.151849414385640813e-01 4.341139265392440216e-01 1.120625666221645167e+00 5.326716871865453395e-01 5.288471101269626162e-01 5.080743232965505563e-01 8.880447025641664549e-01 5.132835927367110918e-01 9.558834858216952446e-01 4.680309909195552454e-01 5.211938897990989750e-01 5.746582702790432873e-02 5.165944151475720947e-01 2.674351273222333111e-02 2.649962858875434257e-01 3.950204330577646861e-01 5.532759611102571196e-01 7.956113849249119019e-01 5.213586657260201873e-01 3.816984597793978140e-01 1.582231697793665404e-01 5.073222147206997157e-01 4.957529610541943632e-01 4.425603169492633437e-01 -8.135962103725679143e-03 5.167718049390443991e-01 2.897308470281223514e-01 5.213525243117660413e-01 4.076199832480396634e-01 1.266096457026302025e+00 7.313469856422702975e-01 5.262268454103777859e-01 2.410571193941384305e-01 8.614247591628502176e-01 4.681058824895646397e-01 1.009712801659598869e+00 5.442999450563891228e-01 6.068041479452125353e-01 7.173795153142774605e-01 2.055019821431790739e+00 5.434949197712188873e-01 6.079713879230479456e-01 5.530060048359420888e-01 7.859824083042621368e-01 6.010355081272527045e-01 8.875081077297607424e-01 -5.939719540920765928e-01 4.609025150417676575e-01 5.235175878786284542e-01 4.519591004996584838e-01 5.279514541511313164e-01 -6.540247410407635797e-01 3.830112737594496553e-01 5.255735299079439260e-01 7.114231861037743077e-01 6.715939845332787872e-01 1.605128534678467833e+00 5.175593175141318669e-01 5.175702456761990256e-01 -7.526650070683265081e-01 5.326696601714838719e-01 1.264331297233352025e+00 7.357279153631742785e-01 3.067451742365812084e-01 2.171339711099541658e-01 -1.952288845921906768e+00 5.485918327965112473e-01 2.076885299317568767e-01 1.116935750823287776e+00 8.365708417699627697e-01 5.552016069688960886e-01 5.803527680483566709e-01 4.900397350379001038e-01 7.874069111669584897e-01 4.087261520669804304e-01 5.485750403194250557e-01 1.160565715209736608e-02 6.352559174589480495e-01 4.536237186506313357e-01 3.427943703790661267e-01 5.239350211210269670e-01 4.193436677687012448e-01 1.252466936652755436e+00 -9.145560292080484599e-02 -2.538639108516412279e-01 4.110100039262803984e-01 4.861442360893808989e-01 5.231308565570175206e-01 5.613780841858927451e-01 -9.104209335518167467e-01 3.263290220011710208e+00 4.261870109828695408e-01 4.347707508513934394e-01 4.757156586640676199e-01 5.220667939431774540e-01 4.998746566456965801e-01 4.401682235591488079e-01 3.324984761254805576e-01 6.270765398297836191e-01 5.221015454085976559e-01 4.454391196339563819e-01 2.957333896104371029e-01 4.168543951828374561e-01 5.367444265762534306e-01 4.047072397696869772e-01 5.815298864168931825e-01 5.019054627129603263e-01 6.960008846175412822e-01 1.035731937745286046e+00 2.370686157767532887e+00 4.686191551041246628e-01 5.039251680199682282e-01 2.926242777639778692e-01 4.802796099298795585e-01 4.098687267170075255e-01 5.215037671681904685e-01 5.299206430996977746e-01 4.773055905538992061e-01 5.911827635236475142e-01 5.898706967482423291e-01 7.869694622563049302e-01 3.651780886515075264e-01 3.812220352891120823e-01 3.808303485126628973e-01 4.574016557637985980e-01 9.748702658157498702e-02 9.353182533218786787e-01 4.328262382435644762e-01 6.734249410077015885e-02 1.916030984743499310e+00 3.526587139885817845e-01 4.013896784527702932e-01 6.020840913383054271e-01 6.834935256110173663e-02 5.517865163955949503e-01 1.550759029000712275e+00 8.179193921117569044e-01 6.481644406835469496e-01 5.240825543546917542e-01 5.072801815478117371e-01 4.052464048159166166e-01 5.835131795448704750e-01 5.410215741813170220e-01 5.236728207084015985e-01 -3.126795687379746447e-01 4.365743397255272273e-01 -1.700410718156516010e+00 5.569120715980636627e-01 5.365921618842830476e-01 5.343916944352428144e-01 4.132922389765103510e-01 9.353182533986769132e-01 2.359142866257690208e-01 4.939196506428707445e-01 1.397632792931301937e+00 -6.037314724754533346e-01 5.244292597577677739e-01 1.173728438633111715e+00 1.597174107941467858e+00 6.036291788663773472e-01 5.253194975429594793e-01 -7.482696587300663449e-02 -1.757286668972065424e+00 2.619468691513428538e-01 8.736019523291497224e-01 5.451353196621319119e-01 5.209158835154594769e-01 6.096077518850573362e-01 4.770262793255408695e-01 -4.432422316321793510e-01 8.502037273132897477e-01 5.277509571178936598e-01 3.229889281516629684e-01 5.191607299668385966e-01 1.175687366868746232e-02 -1.591071714372115919e-01 1.866911543725087164e+00 4.083193788059627516e-01 4.577204057888968336e-01 5.179649278423875680e-01 3.153144597580303521e-01 4.462224744597700354e-01 -1.891568809046811905e-01 -1.467325351681861623e+00 5.190317910002767432e-01 4.928149125816996823e-01 5.641048429674082598e-01 4.733525427849991085e-01 5.349173472389763262e-01 5.473797176002355158e-01 5.333213112984936943e-01 5.466047501013646670e-01 1.046562081173140202e+00 6.997839622547381566e-01 5.344430046308948912e-01 6.561766259629242537e-01 5.572831207749829874e-01 5.938572718454552257e-01 6.848744662240244252e-02 5.705122701783584827e-01 4.339725118385545088e-01 5.815823102691974889e-01 7.323770378276027726e-01 7.744729943005241868e-01 8.875297624774702854e-01 -5.782355368746399105e-01 5.360543733280729306e-01 5.280827565417389735e-01 5.171202204423958060e-01 5.998137164960085643e-01 9.189961340621397579e-01 4.348484924767465620e-01 5.238970411606167499e-01 -3.439849098837913233e-01 -9.277055395080233691e-01 2.385180855711176662e+00 5.329764026039395253e-01 9.130001973341702604e-01 4.376746069188044985e-01 5.861909538118508234e-01 4.172856729811080800e-01 1.544034845171821102e-01 5.198468734767131005e-01 5.078581733810454413e-01 1.332725453888745221e-02 5.156739594499919477e-01 4.800715071234617493e-01 5.201169134311821596e-01 3.977965605911813474e-01 5.306537348505401264e-01 6.570227534695405325e-01 4.446671533316351455e-01 4.868265365760264807e-01 5.569165643798505982e-01 5.273454089619025176e-01 4.236079900732751535e-01 5.092891133673963511e-01 -2.301031170518824664e-01 5.218540474516345506e-01 6.405079550348372619e-01 5.078380908733031163e-01 7.875066220303629239e-01 9.353185495484629408e-01 7.209579374048585843e-01 -6.323178768656774196e-01 9.719055275557295648e-01 1.897488999830299283e+00 5.215900031099184320e-01 4.637027621558685864e-01 1.097148341468101584e+00 5.318057096933621608e-01 7.875185912693019041e-01 5.201725378066209826e-01 1.925995238691140088e+00 5.244748002049134383e-01 4.648248270946874205e-01 1.239328462815385778e+00 -7.119430191112026407e-02 5.251943703289593257e-01 -1.474016042278201710e-01 -1.011560973165056332e+00 -1.591263935371458604e-01 7.819541458562985214e-01 5.236813564039723978e-01 5.399269681706363455e-01 -3.104279646915215629e-01 5.052047521579680067e-01 3.729760415691429215e-02 -4.389711168410205810e-01 5.547488791725444512e-01 5.059614024929116605e-01 5.193416584331836949e-01 5.096031134421913356e-01 4.687400444621572237e-01 9.263336389360060652e-01 -4.709401768403100319e-01 5.217371371790228141e-01 5.105711185772638938e-01 5.102872466273701280e-01 1.184301811153585682e+00 4.714020493049682070e-01 7.197132439858108244e-01 5.217073017500322152e-01 4.513473126509025268e-02 -4.995876014524982534e-01 4.844883877719420862e-01 4.731375277820322744e-01 6.854153173094856832e-01 5.182657180105879613e-01 4.046907526280206779e-01 5.259768217943050495e-01 5.180984546093513332e-01 4.491047093176993577e-01 5.386968559610593177e-01 8.426114684142285149e-01 2.631705420619872893e+00 -2.571589756940844684e-01 6.505680125292482296e-01 3.782717474198443175e-01 1.943932855768666923e-01 6.383487180782012604e-01 -5.156677728736713817e-02 -1.639859166919574340e+00 5.265904711575465358e-01 2.695351849726561611e+00 5.733191200298999313e-01 1.812578495400744838e-01 1.445943350475527855e-01 5.277511312353511119e-01 5.969751134351315436e-01 1.607016358498010167e+00 5.360590258727183643e-01 1.255218913531039315e-01 4.028866199819619576e-01 1.775207759672507324e+00 5.572832458645112785e-01 8.161812478047179020e-01 5.189082536898856901e-01 7.374951476137100448e-01 4.711015208238656937e-01 5.882589575853980346e-01 3.351619693789695265e-02 5.163094459327942642e-01 6.163035657565847369e-01 -5.942018989502106940e-01 -1.311096693096059362e-01 1.188876055124445941e+00 2.429339304933374466e-01 4.760775907052826605e-01 7.338037968613581041e-01 5.076245768527311020e-01 2.039568820837182272e+00 6.354622412307798784e-01 1.003461524248732209e-02 4.320327568148886188e-01 4.071654912360026524e-01 1.162929558919315154e+00 5.062589221217588253e-01 -1.530298710900294956e-02 5.257895750633023724e-01 2.052755803886011543e-04 4.995670041905087566e-01 5.250337791100414542e-01 3.076563773143779421e-02 -1.767373565772496595e-03 6.559118075058943953e-01 4.470098479170953043e-01 5.801511133311919588e-01 1.471106940614882175e-01 3.957504570356389362e-01 5.180683154714289529e-01 4.252729413063158770e-01 5.020346447877023222e-01 4.812057774825616030e-01 5.580016956829928487e-01 1.024583669092726801e+00 3.224300814570513207e+00 9.830096027430377248e-01 5.113171998241332616e-01 4.971171169011392443e-01 2.219425991089836736e-01 5.168700325188565481e-01 8.680626377956641715e-01 5.192980864036240707e-01 1.317341035138213323e+00 5.465831689598076304e-01 -6.059145629093596330e-01 -2.162124951035739387e-02 4.541722469306649357e-01 6.178594879145750118e-01 5.834390559559526901e-01 5.227087807579693379e-01 5.308441952307593747e-02 5.175918704231904366e-01 6.186330821617445075e-01 -3.956324407817434885e+00 4.782053617248075428e-01 5.410052387562470644e-01 1.149196750310457649e+00 5.137470114437251434e-01 3.718207981789050653e-01 6.543093825002123110e-01 -9.352202421532616050e-01 -4.946086776786404737e-01 1.280930793990886843e-02 5.214973214480134178e-01 6.607324535782109765e-01 2.066592018560946264e-01 5.091570357483156117e-01 -3.527499660081118149e-01 5.111435894028756310e-01 5.816278184603101975e-01 6.978919179750973090e-01 5.623696063153896807e-01 4.638282841916010479e-01 1.367163021987784777e-01 -8.076219324049740411e-01 6.522620248287063216e-01 5.427263426009608649e-01 1.504149954814505696e-01 5.184633193668604090e-01 4.835780851921379631e-01 5.304584516498624946e-01 6.570424324423250750e-01 5.866704497444910071e-01 5.552195864983786588e-01 5.067176001988648038e-01 1.897489002109506107e+00 3.421365056961291340e-01 5.179305389086370504e-01 -1.489430371506294259e-01 4.965096736008707823e-01 6.529457561776570440e-01 5.023293070098430180e-01 4.759150678496646414e-01 3.934084654084263888e-01 9.717544546731181621e-01 1.241954608561830486e+00 5.516151419211764440e-01 5.567637540648081584e-01 5.973233588350601586e-01 5.154606564510417765e-01 5.185468382240089324e-01 5.211282717206969783e-01 9.718569368408790377e-01 6.499161145513080440e-01 -4.718217408992897988e-01 4.740419854606271466e-01 8.927536163998583962e-01 5.126144071642659839e-01 -5.147649874959262656e-02 5.196618929047243096e-01 1.618488544712467947e+00 -1.367971655057702851e-01 6.902756816363496695e-01 2.282037203290823990e-01 5.124865192472852771e-01 8.931334902684890942e-01 5.184387896072586432e-01 3.773933570057466103e-01 1.420480397987724519e+00 4.728475474533178069e-01 5.088320770161942619e-01 -7.464719643060376830e-01 4.356399348091306578e-01 1.037415991784764513e+00 6.377209542454841396e-01 5.965782188158767763e-02 1.008163776503650189e+00 3.345490365151027479e-04 7.817240722749783099e-01 1.685519014794548021e+00 -8.743898761322717039e-01 5.374095890967056643e-01 5.214438695171889071e-01 -4.985028636087136533e-01 3.016721652373582363e-01 5.173978815748732085e-01 5.377677561496893022e-01 4.550630401850114803e-01 4.825239379488436287e-01 2.624076536123043923e-01 3.558862288249488581e-01 5.427104389671594253e-01 5.200664286500367162e-01 1.046439602476807729e-02 -1.904397624126666355e-01 5.323877214643316647e-01 1.072894186429051322e+00 5.941324087269482801e-01 -5.944164239063326471e-01 4.146725348780471165e-01 5.232447468314965766e-01 5.725377329929007830e-01 4.891161849436243686e-02 3.222604926315319473e-01 5.261873747289427250e-01 5.242923978459114176e-01 4.567143906251358021e-01 -1.553446961346159269e-02 5.340018915541023814e-01 5.423850977222260950e-01 5.304348141153097940e-01 2.127003780403234678e+00 -2.543433209387461688e-02 3.923813536169773464e-01 5.329084865973031659e-01 1.875652605990180577e+00 4.990714899126391102e-01 5.816088476414128516e-01 3.742703886840133970e-02 5.705122359897288886e-01 5.188474500766655506e-01 4.782016273387921790e-01 4.257226117279709343e-01 5.354241435103004321e-01 4.752473977634736890e-01 5.316035676628307893e-01 -5.832530983502073330e-01 5.238228114331370255e-01 5.260661100262177259e-01 5.319231655636721401e-01 1.365102349358795486e+00 5.170164140654296414e-01 -2.523517536066979816e-01 1.160126774510554792e+00 -1.358298081728346984e+00 -5.609561155607050154e-01 4.905033348844468066e-01 5.205241383245434728e-01 6.732952895576996832e-01 5.420813049123840432e-01 5.622377871663716276e-01 5.069824710644641463e-01 5.705122253508758678e-01 5.185582819975694813e-01 5.700772291190566721e-01 6.128692016148078459e-01 5.207742996188571283e-01 3.370477249251541130e-01 5.291799021025687111e-01 5.329050631906374624e-01 4.258279984448888889e-01 5.218203511978429798e-01 5.219761974755317002e-01 5.020333490267736565e-01 6.478591511102342881e-01 5.205786003532172357e-01 7.384689467213547687e-01 5.315375021733055316e-01 5.241554623460604745e-01 5.338658454905421680e-01 4.541634486310204832e-01 3.293854785531006302e-01 2.523011106818764837e+00 5.609502989597094924e-01 6.475392947053564274e-01 2.986999738124955228e-01 5.727880968294417618e-01 1.128168827366508253e+00 4.285423400253583481e-01 6.805577752488437548e-01 5.225095911291663953e-01
7.147392406788138919e-01 2.891105525754620320e-01 4.650426144512473936e-01 -5.315875934227698441e-02 3.039592590064571498e-01 4.272109228395716829e-01 5.417564573133722972e-01 3.552812612314148466e-01 4.083402203213771231e-01 2.871735270829093856e-01 2.105411643257653065e+00 1.753105165214509986e+00 -1.499332250192446869e+00 5.559025849591733293e-01 3.082150354270246639e-01 4.706123939837528747e-01 1.414322365153821703e-01 4.580441081991278307e-01 3.812705210700720881e-01 3.230079897130959110e-01 3.718105127383833919e-01 2.184074677605345460e+00 3.288149397249214845e-01 3.247320707829632336e-01 7.673287958600776282e-01 -1.360801353138431369e-01 3.722165262069146996e-01 1.710658738726484052e-01 3.742513638252157882e-01 -9.661022924337248075e-01 4.700270914903187935e-01 -1.752307963305761163e-01 2.900017110385948449e-01 2.766103670403751713e-01 -3.995668103954713724e-01 5.104170353108045122e-01 3.298202556012312936e-01 -4.200814457136283209e-01 -3.365636991887326790e+00 2.889163941925182444e-01 1.234642799514743761e+00 1.495698202561287493e-01 -1.711519458753333889e-01 7.909811095667913516e-01 5.045224004363200176e-01 3.018491064324264617e-01 -5.355305627561372100e-02 3.303514101888418431e-01 8.991100701621784763e-02 6.609263872237626236e-01 7.002566964044045772e-01 5.189544039101835482e-01 -9.326360644787085041e-02 2.673017929451684260e-01 5.723444338160493805e-01 6.798474507316385473e-01 2.665125356075997987e-01 3.280883558590647620e-01 3.440286340060241255e-01 2.795499252284463498e-01 4.392862885073449131e-01 4.231588657492257877e-01 3.109956977375541443e-01 3.288149292651391109e-01 -3.357341817525203997e-01 1.049761115523757532e-01 2.892644248740465773e-01 3.001647873517995779e-01 3.200743532017315540e-01 6.816454831914993129e-01 2.164058103723848214e-01 2.691527695474414950e-01 3.101337141916388762e-01 7.021933859476586770e-01 1.970026055779043439e+00 3.445764959763954471e-01 4.828854816893841106e-01 4.836583568448498682e-01 3.038087536089207896e-01 -1.375551872050897684e+00 3.241809913253528297e-01 4.848949471277462231e-01 2.461157057045668672e+00 5.595182479150492827e-02 2.350152541261675276e-01 -3.190905815007872848e-01 1.556201183428373991e-01 3.835809478617542290e-01 -5.901474990930862807e-01 -9.313033276550295447e-01 5.046430375346312447e-01 1.641560572784274141e+00 4.253106057098209741e-02 6.849050527151326895e-01 3.679826602271915048e-01 3.630044316526196968e-01 3.054917340787916546e-01 8.062878698055463422e-01 7.354755529416033832e-01 -1.259423719608963044e-01 -1.882523750197790113e-01 5.885212361769139033e-02 3.502678628968244889e-01 2.399349652547165812e-01 -8.461297365554036609e-02 3.225814093429563822e+00 -3.025407441288801569e-01 4.260855277223459248e-01 5.719902601399073916e-02 8.134736071223552800e-01 3.076210056393131609e-01 5.541587053226378901e-01 1.627401706465685660e-01 2.860074138716996450e-01 -4.642666311003960655e-01 3.485771865504061484e-01 4.072765305360295102e-02 3.452853178297108916e-01 1.263616477315352649e+00 3.131356513797152186e-01 -1.496196249112532017e+00 7.606740276537422851e-02 3.867519943272307997e-02 1.552377875967614562e+00 3.018237595094614423e-01 2.237017262664653394e+00 4.197132760489615255e-01 2.092434708383922870e-01 3.219159990363542057e-01 3.000218282435524464e-01 3.444714890323430923e-01 3.022367401301172540e-01 6.623600163058469548e-01 3.768310539855542762e-01 1.517445719619053834e-01 8.472625993390285881e-01 7.378096331295940224e-01 6.929192839629610967e-01 -3.455028503313609112e-01 2.634335696307026353e-01 3.448852580775850218e-01 3.224226937105362789e-01 3.724144597139430468e-01 3.257318688548971330e-01 3.021082972816363510e-01 7.003868883624065900e-01 -2.037864820558741852e-01 3.196987039148527776e-01 3.972302378442389981e-01 4.071719870026395127e-01 -1.591677071295921342e-01 3.287776184412318642e-02 3.018584829518820012e-01 3.380811118604063470e-01 2.571807555204129736e-01 2.978548239127649100e-01 -2.606255128603029103e+00 4.791794971453433583e-01 -6.189451437807731438e-01 -1.235533593498838179e-01 1.142825586078205086e-01 4.420602239805421219e-01 3.130888614270167514e-01 3.040836873468595325e-01 1.389897781056294024e-01 1.468392293821117189e-01 3.233421334091939325e-01 5.121682972420827928e-01 5.060236556761341653e-01 2.481713207926880271e-01 2.748237667134979523e-01 -5.417163861565130190e-02 3.018351169941206336e-01 3.071647226473154246e-01 -2.571174587462488503e+00 6.624458473628763722e-01 5.454499575731822647e-01 9.123094963732831797e-01 -4.637108965963129825e-01 1.176763463458347925e+00 8.618737948159448103e-02 2.962785093464202490e-01 1.254372984813789227e+00 4.018505991114464382e-01 3.212218292473935644e-01 3.816532109163764952e-01 2.660639190762105755e-01 2.878444406944499767e-01 -5.188624526827815275e-01 3.783052432322682734e-01 3.879518116195048161e-01 8.341056040273133743e-01 3.497302234656093356e-01 3.603209465090185804e-01 2.609734709048989743e-01 3.023753844373173738e-01 -1.731031430509730296e+00 2.879377005451445592e-01 3.965331061347415753e-01 2.243921338246712138e-01 1.602806660825126239e-02 3.722078250356878892e-01 3.922384717390391962e-01 1.622633869866670631e-01 -7.376161405552443817e-01 3.965331330670114340e-01 5.085187066365836062e-01 -5.332787122236090083e-01 2.996751396432559278e-01 2.950933531468045157e-01 2.172247887411395684e-01 -3.361387961129878033e+00 3.826469916856738984e-01 8.996334193068478147e-01 3.131787448191945544e-01 3.065474130322851654e-01 3.006510637774320593e-01 3.211157743186618951e-01 2.979461354071139545e-01 2.980286668418698492e-01 3.929584746596163636e-01 7.674098184326756666e-02 6.782484107925109695e-01 1.185016417058775418e-01 3.822440779849434755e-01 5.539909293715139516e-01 4.222057767320760435e-01 -7.338091793758415582e-01 2.376435091665895172e+00 4.198367046335503838e-01 1.262983238442899836e+00 -1.412612013580995862e+00 3.041865443066212316e-01 3.156049917227108925e-01 3.332552252245510327e-01 1.212094856184453784e+00 5.378273633859242953e-01 8.518965649714721478e-01 2.927972757927879699e-01 6.632337102157995767e-01 2.016348030875417530e-01 3.305446723984761248e-01 -1.212835567515868851e+00 4.113819370659157482e-01 3.030078394366574335e-01 5.091419658837541551e-01 8.592673788528044643e-01 -3.980838995968424276e-01 3.287911756004450847e+00 4.920301828730689331e-01 1.343305458318952095e+00 -3.644992962751393284e-01 3.087488366540447338e-01 3.288116393019667738e-01 3.583454882572389422e-01 3.284190886803816101e-01 2.149816628881920377e-01 -1.765319909185042724e-01 7.111261815014874310e-02 5.633866471316425484e-01 2.182864979036195641e-01 1.138287952907223732e-01 2.474864245084054115e-01 5.241539266102994699e-01 4.392863241320042467e-01 2.727870361548894729e-01 3.359470562866161636e+00 3.203404153650146191e-01 6.488797802228674083e-01 5.064953233004397815e-01 3.550287642783900854e-01 4.387777053825751006e-01 3.002404729857350296e-01 2.977985991710916935e-01 3.030678680195089125e-01 -6.669473585247298608e-01 3.897613388432569770e-01 2.849495489490184719e-01 1.526626980033933823e-01 3.598851276372461161e-01 1.572334723338000062e+00 3.316023379908482061e-01 3.362052823591878403e-01 2.025566564877189446e+00 5.187962766203458864e-01 3.407840042339488340e-01 3.307113217334089472e-01 3.130319197451567614e-01 3.485762885318576809e-01 -2.088557810362053235e+00 3.462328997381832196e-01 1.645621655390053339e+00 -1.168132741512453443e-01 3.505256868687603444e-01 6.482393796270454756e-01 3.420969898404366272e-01 -7.394354925733651607e-01 3.280092059894636480e-01 3.039915886675740864e-01 3.971937229362011990e-01 -4.142966497021078331e-01 3.057031418323771788e-01 -2.449778051601877671e+00 -5.444463874007596238e-02 2.834575053682378831e-01 5.936895049753708742e-01 3.039768911431012799e-01 3.073849905790225212e-01 4.982016366126538198e-01 1.543365336374106223e-01 -5.799309948642895896e-02 -7.856006115333558082e-01 -7.307195913924141931e-03 6.870614417302067789e-01 3.049056569053008592e-01 4.876614898134142839e-01 3.147019806520796603e-01 -5.413190835846198173e-02 2.989372212629538006e-01 2.511780282330310587e+00 6.891646724988780282e-01 2.474395447359956368e-01 -1.203542453027182990e+00 2.544545949704378751e-01 4.869372778800862278e+00 4.319300137751041491e-01 -2.155895894051653161e-01 5.729694068278423646e-01 -5.781967370336621670e+00 5.437733747292483599e-01 1.605670827356193930e+00 2.986488088714616129e-01 5.173751339158706442e-01 -4.624141926830990790e-01 4.086370392608038027e-01 2.220516570596509642e-01 3.573126506282192638e-01 2.024678854847884457e-01 3.043537864185803521e+00 -3.908696311326380624e-01 3.155205323949647478e-01 -1.955851320200909571e+00 2.851608458765900189e-01 -4.200814419161476021e-01 7.656576483623569462e-01 4.718413568275797720e-01 2.613850758353682968e-01 2.898917866809548882e-01 1.255008003463945032e+00 1.679832215100543757e-01 3.965332716504516575e-01 4.113752877226875548e-01 1.622633868634485443e-01 4.128437207733287595e-01 3.799748080048121479e-01 -6.332814327702447343e-01 3.064168518413156739e-01 5.648883812538286753e-01 4.143402686165145177e-01 1.913737283747670437e-01 2.992042716461901231e-01 5.191143108597188194e-01 4.718412664622105845e-01 5.309019481356089809e-01 3.011554560256188839e-01 1.534920909612908779e-01 3.549271265501437456e-01 3.593418804788328647e+00 2.718784802894936292e-01 8.910293377541703141e-02 4.392874125591146317e-01 8.310223168300331364e-01 4.709902448676914211e-01 -1.911159278674666173e-01 6.959433974553747015e-01 3.396025645074956523e-01 1.338673489225275515e-01 4.334868494008254358e-01 6.847365694106523071e-01 4.941550233069887943e-01 8.056256915799123730e-01 8.285328626510968242e-01 1.895731241531529720e-01 1.622633648388098482e-01 1.622634708543723991e-01 3.343770566505498421e-01 2.588572082248160600e-01 1.119341191813924219e+00 3.784621371143556678e-01 2.959385644048503350e-01 2.399133415175561668e-01 3.035354569063055119e-01 7.328628326904134127e-01 3.965337738459856487e-01 3.044183392382088793e-01 3.909238343083381584e-01 1.741762957863375871e-01 -6.470101915031485351e-01 3.119738198414231389e-01 3.048888653592192743e-01 3.371434951843397809e-01 6.515437350240796954e-01 6.412593918876418053e-01 1.622633858507922244e-01 1.683352131814137009e-01 2.958810805530550092e-01 5.192356133002061780e-01 -5.987277603797456216e-01 1.671178869951177870e-01 -3.632899577437161298e+00 2.072099993668781170e+00 6.191910483448370695e-01 -4.996814727099160858e-01 -5.305370267350759117e-02 2.111937648072116147e+00 3.281597652102875573e-01 6.588820362183157586e-01 -8.690127327347639541e-02 4.243177789738459271e-01 3.769596106783657530e-01 3.266351843661230436e-01 -5.975619905890703354e-01 3.129389879713517786e-01 2.118639522325097779e+00 1.901280931979637268e-01 -4.844379553114900872e-01 2.862301798207903536e-01 3.038331139676041515e-01 -1.479224509416495970e+00 3.394975587753573110e-01 3.740197983652057134e-01 4.038015083287153084e-01 1.021924715129719358e-01 3.051270450922960453e-01 2.362133367511455029e-01 2.720799505221815351e-01 -1.618660328557702255e-01 2.911151968143892432e-01 1.185158049230472382e-01 3.009366310443745696e-01 3.086283336056744320e-01 1.333799293457827578e-02 3.535159060292442645e-01 4.556908048513251264e-01 -1.448706876128208698e+00 -7.245127880154720312e-01 -1.243526448334205670e-01 1.737260886940668880e-01 1.165429120612952868e-01 4.389115210490993624e-01 3.512199452997281091e-01 7.010428975801584750e-01 -1.467988601319195063e-01 3.269382221379468767e-01 3.076468899824946757e-01 9.762154784943129215e-02 -1.617204541248129235e-01 3.339166093242157407e-01 4.562786173708032189e-01 4.801993094338920520e-01 3.348775305288546056e-01 3.090699009969545275e-01 2.971422867295272496e-01 2.398248215190254273e-01 3.042736956422077976e-01 4.714145980329744745e-01 2.128602202350552974e-01 3.032636241130725052e-01 6.952879049610942719e-01 2.912323257081410599e-01 6.943984112726390157e-01 -5.378972972721747514e-02 5.992474560341316536e-01 3.209530610049950439e-01 -1.487992008400047306e+00 2.984329617137748136e-01 6.201155569689013047e-01 3.362818220269933045e-01 3.386105775432018961e-01 3.760733723188038335e-01 1.567850287704974366e-01 6.885821597573469344e-01 2.993506446860187964e-01 4.424979476799231759e-01 3.031258720311560406e-01 2.709745110025441051e-01 1.660208323045772871e-01 4.561667567183430028e-01 2.985877070402521705e-01 1.366614969161459581e-01 -9.047573416677676464e-03 1.394937986770311000e-01 1.689388356623021670e+00 1.496996505944591382e-01 3.135887870579351366e-01 3.963416101339092834e-01 -8.827738422281720121e-01 2.765278604933729678e-01 2.188982481758880716e-01 2.230587020340668025e-01 -1.165722921754975411e-01 2.593652586804162108e-01 1.756161120138941323e+00 8.984786069163588351e-01 4.778845910783824924e-01 2.600825309514475658e-01 2.994419126804735432e-01 3.445641058352868491e-01 9.422076164235353435e-01 3.131249060704744291e+00 3.051914023197471182e-01 5.408000423906346270e-03 5.805523981455751326e-01 -2.632249712790174501e-01 3.015572145248807678e-01 3.021790375726465250e-01 1.098870689485281105e+00 2.887370824156567650e-01 -3.582788390221474661e-01 3.973502001446371223e-01 1.469594664217649116e-01 6.014309101673013247e-01 1.917565444680236819e+00 2.816101052466371546e-01 2.976333808006627057e-01 1.683731083255019634e+00 3.833047300912295619e-01 2.737350959107679449e-01 1.445747851804913553e-01 1.562609255838288136e-01 -5.365645386733348954e-02 5.270840753154483194e-01 2.487026003449396838e-01 7.007236777586421939e-01 2.889829637588427480e-01 1.919555952314993819e-01 3.408034524259800913e-01 2.786670330086448710e-01 4.612656712699980677e-01 2.674181191675012448e-01 8.646237415697805018e-01 5.229706957389215205e-01 5.261663557899197707e-01 3.737271259705420290e-01 2.617786825697657194e-01 3.127468738998665509e-01 5.964390696533115044e-01 7.848844344495465863e-01 3.758195158626759791e-01 3.454972279751743480e-01 6.396710568625790794e-01 2.992177263504169904e-01 6.751324794247840488e-01 3.774544027322043194e-01 4.926852260156526775e-01 -2.973264331074161326e-01 3.057061007830604860e-01 3.232176405849631062e-01 4.663980513447067988e-01 1.847927505123972691e-01 3.679057408729168865e-01 1.852846503167208336e+00 -2.671994442948007545e-02 3.849013056065794247e-01 -2.411509082177974994e-01 1.714466176947623266e+00 1.171904756390586222e+00 4.223649308482067127e-02 -4.304195721079746573e-01 4.581877997020045723e-01 2.461420299822269508e-01 4.605663263923323592e-01 3.051189540113754539e-01 3.049660728132045362e-01 2.531630847098863546e-01 3.265591172383226493e-01 2.459377000778599220e-01 -5.305728909774032331e-02 -2.485752827913615959e-01 2.847525641085264514e-01 2.047039101885212986e-01 2.714176990060345740e-01 8.909925139798335891e-01 4.392863064038996512e-01 3.234154690565235191e-01 8.676651767384051528e-01 4.747779024721862640e-01 5.042583169611366545e-01 4.355854842910095726e-01 7.040385682678951262e-01 1.492541754636451667e+00 4.080436548811345876e-01 2.152174198942578887e+00 -1.716778624658995070e-02 1.665874662272666673e-01 3.058693218412140702e-01 3.498962649491981214e-01 3.989560340960214280e-01 2.481467349779659659e-01 2.887162935966590127e-01 3.035188854210641440e-01 3.754434677014887867e-01 2.465343811526219953e-01 -3.794665295124822202e-01 3.361905428933137374e-01 -4.169372615860107711e-02 3.142743065082742593e-01 3.971259831438777588e-01 4.392863064150527852e-01 2.453251139101105260e-01 2.590346719399393982e-01 -1.332327894841331517e+00 2.008223743831264674e+00 3.024784151543555843e-01 -7.786480178003325481e-01 2.965817982895054272e-01 3.422909454236536808e-01 3.061757909060836558e-01 -4.925337002745918902e+00 3.627147984654568891e+00 6.399680850806112042e-01 1.409058256915057513e-03 3.244901292288560612e-01 3.075649350534908621e-01 2.430896890036105540e-01 2.691073221048974062e+00 6.366524618482044540e-01 3.195091295872728998e-01 3.485770607491251449e-01 3.281463284350160658e-01 3.256243833882387362e-01 8.494471371150812411e-01 -3.701681141730373548e-01 -1.259735305597395438e+00 -1.256343180074251498e+00 2.955787129261349122e-01 3.079383907702409884e-01 7.513831122056556788e-01 3.481428590530644684e-01 1.565353308854994241e+00 5.003870863091713916e-01 2.998345825874923487e-01 3.385039093199468385e-01 3.028053568129133732e-01 3.296392300209395887e-01 3.150738283099205339e-01 6.318908879421339941e-01 3.695797860069107155e-01 6.578704012002238866e-01 2.401755416942161769e-01 7.906104196523155991e-02 3.152618863220212342e-01 1.746199557966278404e-01 2.316762599967299441e-01 3.326224049462632171e-01 6.240587025521361353e-01 4.718413203751315455e-01 2.106124934000401794e-01 2.387429047527215020e-01 2.997380543131634711e-01 2.829202859493878952e-01 1.756154541350283260e+00 1.977413071604518624e+00 3.143946943883593192e-01 2.856234649367412337e-01 3.027016837280663286e-01 1.768742275783899143e-01 2.175759878074708942e-01 4.596805682880811261e-01 2.920943691910375395e-01 3.311672853752569701e-01 8.172211848518640132e-01 9.063777164567126121e-01 3.694571643972923147e-01 1.913308123635241831e+00 4.015583160024577269e-01 -3.057530810792232767e-01 -2.677842002108738462e-01 -2.969460084555167190e-01 3.018520356097633139e-01 3.548479722462514196e-01 7.066182055186073230e-01 2.950886608932251631e-01 4.191133415568464304e-01 3.199656555977807293e-01 2.816477356063106785e-01 2.612907160234514969e-01 -9.636469884438003675e-02 1.000987401499500606e+00 2.922719741495832246e-01 2.507030455843141104e-01 2.959650419079879469e-01 3.455326732479187535e-01 2.785721906645776125e-01 4.004779839652352069e-01 -6.698244106708002577e-02 2.218920908982585649e-01 3.027725446867323700e-01 -5.360628693822917790e-02 4.392860057829819920e-01 1.087075239253641135e+00 9.815161799500798923e-01 -7.128454102266016390e-01 -4.200814457825924886e-01 6.620508224978264300e-01 -3.422001708647838036e+00 1.593727436721990909e+00 3.105483085143282418e-01 -5.281067835733936622e-02 3.076201573522376886e-01 9.177420996467738901e-01 3.080728406793949437e-01 4.113817221858180329e-01 -4.399496675015854841e-01 8.085857552533802783e-01 3.031119605840060238e-01 8.467893953379395100e-01 2.133152364741491169e+00 -3.703567889973731209e-01 -1.501117791197750684e+00 3.020045455025457404e-01 2.990992682468986419e-01 7.394500124637622962e-01 3.206781407217437208e-01 6.906905178308706539e-01 4.690480700944154591e-01 3.867720167408157939e-01 2.939790163199963446e-01 3.009169588971477571e-01 3.489852996982678590e-01 3.176400143215808991e-01 1.455738034363780686e+00 1.695085314760206074e+00 3.092301292179862049e-01 3.344543174045802036e-01 3.372287296236691212e-01 -2.545239287887632873e-01 2.399931343633435743e-01 -7.460524407943097680e-02 3.027612119423842008e-01 7.044316456100752077e-01 -5.983152072728696869e-01 3.406597355369820335e-01 3.304438393612535441e-01 1.587875231539097876e-01 2.745139986084595973e-01 1.650821681725300472e-01 3.030619791666878671e-01 3.027005473397222368e-01 8.972134679944569757e-02 3.116163534792568690e-01 4.300693091896038989e-01 1.146411983795370793e+00 1.115563304620397433e+00 9.001240414088045316e-01 2.321294826076215623e-01 7.992567896879166911e-01 1.692263396203060322e-01 5.178015240821159937e-01 -2.226222864553996317e+00 3.037486483213518995e-01 6.671201765739628309e-01 3.051728422719158784e-01 9.387819016665737148e-01 1.390094389349696868e+00 3.485771627023516728e-01 2.312150561005679172e-01 3.770973602389049995e-01 4.455757219453909679e-01 5.461922699749804933e-01 1.002298882795249479e+00 -8.421067378953697169e-01 3.226163958200200521e-01 -2.301271877666357258e-03 3.196464788677240709e-01 3.395565636932278974e-01 7.523965735398727706e-01 -3.066799440486492889e-01 4.184362334192730515e-01 3.130968772802987243e-01 3.559204657541142902e-01 8.980888512140127178e-01 4.375595992989710914e-01 -2.286394728011860999e-01 8.569195821388401191e-01 -2.552432073009321817e-02 5.507160207897974225e-01 3.468689433237319153e-01 1.306215689469836905e+00 6.080761486440106056e-01 7.004171787775632652e-01 4.253609214624410328e-01 4.746339506563204691e-01 -6.134367759714745016e-01 2.182104593700095740e-01 7.379328703453426064e-01 3.023106620327696281e-01 5.963233078161785938e-01 2.930702386018225747e-01 2.988624262566670353e-01 6.989787022457317756e-01 1.792023675080154088e-01 -2.088152510165694142e+00 2.341209919248720961e-01 2.516876505694481403e-01 9.881328237729947173e-01 3.091962252913168507e-01 2.850616560961862223e-01 3.713510611039502751e-01 3.072580865972874276e-01 4.131836539777413164e-01 1.386410682307523123e-01 -1.643554351759797250e+00 7.727875831093902192e-01 2.344736103201055799e-01 2.827125460491403119e-01 3.426762658812335105e-01 8.160702060509484879e-01 2.987542590562367595e-01 -1.647704794457107713e-01 3.583306881465546656e-01 1.130092518681121705e+00 3.463602263568359430e-01 4.172057453314673703e-01 1.029759907720780632e+00 4.394095788088119847e-01 2.897910690152234459e+00 3.107456335278721560e-01 2.936007218431458954e-01 7.166778889152785048e-01 3.128516569419820814e-01 3.193472747821216595e-01 -2.230592816429898040e+00 4.717655992045697855e-01 3.100642455696874800e-01 5.220278909273050605e-01 2.904727449250183446e-01 1.925868804624435715e-01 -1.383895329852301292e-01 2.106806132016111111e+00 -5.164598326478277990e-01 8.207714462876829487e-01 3.046154096317986171e-01 3.315816536207768506e-01 8.773875556374377549e-01 2.763804724577096361e-01 1.357811710387841320e+00 2.592270915606532666e-01 4.247509629511404539e-01 -8.895298274335411426e-01 -1.242422095270029198e-01 -6.999324715570524047e-01 -4.156188153327418533e+00 3.043714197700971180e+00 1.267540250017282211e-02 2.876803968425035163e-01 -1.696009296257679599e+00 3.044280394184334937e-01 4.986972993772710860e-01 3.026454237151707805e-01 2.016445932747480407e-01 6.446721136760753534e-01 6.077534597619044243e-01 1.135370346502274863e+00 -4.200814476200462333e-01 -2.452065153874040393e-01 3.004052141522421393e-01 -1.207009704340276768e+00 4.002173151117172645e-01 -6.678307035730652874e-01 3.211004687696460969e-01 4.289983923031298607e-01 1.508418238132546996e-01 4.672027330139071899e-01 2.585100832386967307e-01 2.537400801647916523e-02 3.051200373683375933e-01 2.758568765341420925e-01 3.678461987917469034e-01 2.716858849487241989e-01 2.987769700839847387e-01 -7.126460460671365515e-01 4.194601256438988957e-01 1.555592250735684079e+00 8.525931196720019922e-02 2.329640079607591674e-01 2.522693429622393513e-01 1.199214075607672569e+00 3.141364086607058570e-01 6.728642805315313002e-02 8.772541740572400437e-01 1.996331386444818723e-01 1.910772219578372288e+00 3.237226209635393204e-01 1.424921809594844380e+00 2.880893865553785238e-01 7.318692475271899589e-01 1.364351981530361968e+00 4.304432940318119738e-01 2.133126997458497376e-01 9.656183464084407975e-01 -1.771641510385473517e-01 -7.405880343903692431e-02 2.796445183810043478e-01 3.100563753888011531e-01 3.704888264026325873e-01 1.478013683561807401e-01 7.719265743807550428e-02 -4.004702377914658440e-01 1.291725216259678843e+00 3.005514226693329349e-01 3.012259778744837968e-01 -3.320620020238037817e+00 5.788941560804717890e-01 2.011411592519923297e-01 2.950429360111264110e-01 3.378972790497604684e-01 3.737368410343031577e-01 -1.153877397269522431e+00 6.411740346098975252e-01 3.037063875464971474e-01 3.144736751677468245e-01 1.010888984127072732e+00 4.761407422256937472e-01 2.939070472471677076e-01 -1.433492285797685728e+00 3.155408007418417093e-01 8.980158700641049929e-01 3.967443359937136704e-01 2.923771502078751916e-01 2.458545452498394901e-01 7.068327984751165971e-01 -2.869983813240165049e-02 3.056285267604664235e-01 2.943014492098588453e-01 1.144202514961147749e-01 6.656243783518023260e-01 2.456951304526891755e-01 6.655669194708817571e-01 2.137471815821194721e-01 6.970995472891688971e-01 -2.615522360413373160e-01 -1.516077914486453793e+00 2.908555649701953238e-01 -2.343351639044320353e-02 2.521840384016927339e-01 3.209330662356186248e-01 5.828329996665625873e-02 4.718416265913095153e-01 3.085901369244246073e-01 8.717486587863243486e-02 3.979270144038472568e-01 3.026107757641618989e-01 2.763304170039111440e-01 3.557545946930128489e-01 -8.856122371934102011e-01 3.022218678231032296e-01 3.467345506593262350e-01 3.009147758591380617e-01 -4.159551946541665823e-01 3.031737215457452894e-01 8.543273780954837582e-01 -6.619108902154252627e-01 1.155749662515544562e+00 6.273506181866690401e-01 3.213391323633344454e-01 2.989376630387696743e-01 -2.091130869850964302e+00 3.097285319182949692e-01 3.540240359242844970e-01 3.346085834911790013e-01 4.718413731846189951e-01 3.059272306559910337e-01 3.419732257145081666e-01 4.412540391700830317e-02 2.995772567424675459e-01 4.301917806072601547e-01 3.037172403814411559e-01 2.556704036691203608e-01 2.758105389853057199e-01 2.955627478548855658e-01 2.996416325105673018e-01 3.795158768146334460e-01 1.901978354543660543e-01 3.027622866204338070e-01 6.343731244306123340e-01 1.362879906162901000e-01 3.058670280204249248e-01 -1.593037542216390323e-01 2.238530767007316513e-01 6.878746991059992988e-01 4.662295896387687044e+00 3.008644147954165904e-01 5.153840086309380286e-02 5.776564367979245551e-01 1.720011888594993599e-01 1.587500946815999070e+00 3.044793557118265492e-01 6.210962990793426064e-01 2.975434620622800508e-01
