# 
#                 ----------------------------------------------------
#                 Data from a 3D direct N-body simulation. 
# 
#                 rows are i-particle; 
#                 coumns are :mass, tag, x ,y, z, vx, vy, vz, ax, ay, az
# 
#                 NTHU, Computational Physics 
# 
#                 ----------------------------------------------------
#                 Time = 0.0
0.000000000000000000e+00 1.000000000000000000e+00 2.000000000000000000e+00 3.000000000000000000e+00 4.000000000000000000e+00 5.000000000000000000e+00 6.000000000000000000e+00 7.000000000000000000e+00 8.000000000000000000e+00 9.000000000000000000e+00 1.000000000000000000e+01 1.100000000000000000e+01 1.200000000000000000e+01 1.300000000000000000e+01 1.400000000000000000e+01 1.500000000000000000e+01 1.600000000000000000e+01 1.700000000000000000e+01 1.800000000000000000e+01 1.900000000000000000e+01 2.000000000000000000e+01 2.100000000000000000e+01 2.200000000000000000e+01 2.300000000000000000e+01 2.400000000000000000e+01 2.500000000000000000e+01 2.600000000000000000e+01 2.700000000000000000e+01 2.800000000000000000e+01 2.900000000000000000e+01 3.000000000000000000e+01 3.100000000000000000e+01 3.200000000000000000e+01 3.300000000000000000e+01 3.400000000000000000e+01 3.500000000000000000e+01 3.600000000000000000e+01 3.700000000000000000e+01 3.800000000000000000e+01 3.900000000000000000e+01 4.000000000000000000e+01 4.100000000000000000e+01 4.200000000000000000e+01 4.300000000000000000e+01 4.400000000000000000e+01 4.500000000000000000e+01 4.600000000000000000e+01 4.700000000000000000e+01 4.800000000000000000e+01 4.900000000000000000e+01 5.000000000000000000e+01 5.100000000000000000e+01 5.200000000000000000e+01 5.300000000000000000e+01 5.400000000000000000e+01 5.500000000000000000e+01 5.600000000000000000e+01 5.700000000000000000e+01 5.800000000000000000e+01 5.900000000000000000e+01 6.000000000000000000e+01 6.100000000000000000e+01 6.200000000000000000e+01 6.300000000000000000e+01 6.400000000000000000e+01 6.500000000000000000e+01 6.600000000000000000e+01 6.700000000000000000e+01 6.800000000000000000e+01 6.900000000000000000e+01 7.000000000000000000e+01 7.100000000000000000e+01 7.200000000000000000e+01 7.300000000000000000e+01 7.400000000000000000e+01 7.500000000000000000e+01 7.600000000000000000e+01 7.700000000000000000e+01 7.800000000000000000e+01 7.900000000000000000e+01 8.000000000000000000e+01 8.100000000000000000e+01 8.200000000000000000e+01 8.300000000000000000e+01 8.400000000000000000e+01 8.500000000000000000e+01 8.600000000000000000e+01 8.700000000000000000e+01 8.800000000000000000e+01 8.900000000000000000e+01 9.000000000000000000e+01 9.100000000000000000e+01 9.200000000000000000e+01 9.300000000000000000e+01 9.400000000000000000e+01 9.500000000000000000e+01 9.600000000000000000e+01 9.700000000000000000e+01 9.800000000000000000e+01 9.900000000000000000e+01 1.000000000000000000e+02 1.010000000000000000e+02 1.020000000000000000e+02 1.030000000000000000e+02 1.040000000000000000e+02 1.050000000000000000e+02 1.060000000000000000e+02 1.070000000000000000e+02 1.080000000000000000e+02 1.090000000000000000e+02 1.100000000000000000e+02 1.110000000000000000e+02 1.120000000000000000e+02 1.130000000000000000e+02 1.140000000000000000e+02 1.150000000000000000e+02 1.160000000000000000e+02 1.170000000000000000e+02 1.180000000000000000e+02 1.190000000000000000e+02 1.200000000000000000e+02 1.210000000000000000e+02 1.220000000000000000e+02 1.230000000000000000e+02 1.240000000000000000e+02 1.250000000000000000e+02 1.260000000000000000e+02 1.270000000000000000e+02 1.280000000000000000e+02 1.290000000000000000e+02 1.300000000000000000e+02 1.310000000000000000e+02 1.320000000000000000e+02 1.330000000000000000e+02 1.340000000000000000e+02 1.350000000000000000e+02 1.360000000000000000e+02 1.370000000000000000e+02 1.380000000000000000e+02 1.390000000000000000e+02 1.400000000000000000e+02 1.410000000000000000e+02 1.420000000000000000e+02 1.430000000000000000e+02 1.440000000000000000e+02 1.450000000000000000e+02 1.460000000000000000e+02 1.470000000000000000e+02 1.480000000000000000e+02 1.490000000000000000e+02 1.500000000000000000e+02 1.510000000000000000e+02 1.520000000000000000e+02 1.530000000000000000e+02 1.540000000000000000e+02 1.550000000000000000e+02 1.560000000000000000e+02 1.570000000000000000e+02 1.580000000000000000e+02 1.590000000000000000e+02 1.600000000000000000e+02 1.610000000000000000e+02 1.620000000000000000e+02 1.630000000000000000e+02 1.640000000000000000e+02 1.650000000000000000e+02 1.660000000000000000e+02 1.670000000000000000e+02 1.680000000000000000e+02 1.690000000000000000e+02 1.700000000000000000e+02 1.710000000000000000e+02 1.720000000000000000e+02 1.730000000000000000e+02 1.740000000000000000e+02 1.750000000000000000e+02 1.760000000000000000e+02 1.770000000000000000e+02 1.780000000000000000e+02 1.790000000000000000e+02 1.800000000000000000e+02 1.810000000000000000e+02 1.820000000000000000e+02 1.830000000000000000e+02 1.840000000000000000e+02 1.850000000000000000e+02 1.860000000000000000e+02 1.870000000000000000e+02 1.880000000000000000e+02 1.890000000000000000e+02 1.900000000000000000e+02 1.910000000000000000e+02 1.920000000000000000e+02 1.930000000000000000e+02 1.940000000000000000e+02 1.950000000000000000e+02 1.960000000000000000e+02 1.970000000000000000e+02 1.980000000000000000e+02 1.990000000000000000e+02 2.000000000000000000e+02 2.010000000000000000e+02 2.020000000000000000e+02 2.030000000000000000e+02 2.040000000000000000e+02 2.050000000000000000e+02 2.060000000000000000e+02 2.070000000000000000e+02 2.080000000000000000e+02 2.090000000000000000e+02 2.100000000000000000e+02 2.110000000000000000e+02 2.120000000000000000e+02 2.130000000000000000e+02 2.140000000000000000e+02 2.150000000000000000e+02 2.160000000000000000e+02 2.170000000000000000e+02 2.180000000000000000e+02 2.190000000000000000e+02 2.200000000000000000e+02 2.210000000000000000e+02 2.220000000000000000e+02 2.230000000000000000e+02 2.240000000000000000e+02 2.250000000000000000e+02 2.260000000000000000e+02 2.270000000000000000e+02 2.280000000000000000e+02 2.290000000000000000e+02 2.300000000000000000e+02 2.310000000000000000e+02 2.320000000000000000e+02 2.330000000000000000e+02 2.340000000000000000e+02 2.350000000000000000e+02 2.360000000000000000e+02 2.370000000000000000e+02 2.380000000000000000e+02 2.390000000000000000e+02 2.400000000000000000e+02 2.410000000000000000e+02 2.420000000000000000e+02 2.430000000000000000e+02 2.440000000000000000e+02 2.450000000000000000e+02 2.460000000000000000e+02 2.470000000000000000e+02 2.480000000000000000e+02 2.490000000000000000e+02 2.500000000000000000e+02 2.510000000000000000e+02 2.520000000000000000e+02 2.530000000000000000e+02 2.540000000000000000e+02 2.550000000000000000e+02 2.560000000000000000e+02 2.570000000000000000e+02 2.580000000000000000e+02 2.590000000000000000e+02 2.600000000000000000e+02 2.610000000000000000e+02 2.620000000000000000e+02 2.630000000000000000e+02 2.640000000000000000e+02 2.650000000000000000e+02 2.660000000000000000e+02 2.670000000000000000e+02 2.680000000000000000e+02 2.690000000000000000e+02 2.700000000000000000e+02 2.710000000000000000e+02 2.720000000000000000e+02 2.730000000000000000e+02 2.740000000000000000e+02 2.750000000000000000e+02 2.760000000000000000e+02 2.770000000000000000e+02 2.780000000000000000e+02 2.790000000000000000e+02 2.800000000000000000e+02 2.810000000000000000e+02 2.820000000000000000e+02 2.830000000000000000e+02 2.840000000000000000e+02 2.850000000000000000e+02 2.860000000000000000e+02 2.870000000000000000e+02 2.880000000000000000e+02 2.890000000000000000e+02 2.900000000000000000e+02 2.910000000000000000e+02 2.920000000000000000e+02 2.930000000000000000e+02 2.940000000000000000e+02 2.950000000000000000e+02 2.960000000000000000e+02 2.970000000000000000e+02 2.980000000000000000e+02 2.990000000000000000e+02 3.000000000000000000e+02 3.010000000000000000e+02 3.020000000000000000e+02 3.030000000000000000e+02 3.040000000000000000e+02 3.050000000000000000e+02 3.060000000000000000e+02 3.070000000000000000e+02 3.080000000000000000e+02 3.090000000000000000e+02 3.100000000000000000e+02 3.110000000000000000e+02 3.120000000000000000e+02 3.130000000000000000e+02 3.140000000000000000e+02 3.150000000000000000e+02 3.160000000000000000e+02 3.170000000000000000e+02 3.180000000000000000e+02 3.190000000000000000e+02 3.200000000000000000e+02 3.210000000000000000e+02 3.220000000000000000e+02 3.230000000000000000e+02 3.240000000000000000e+02 3.250000000000000000e+02 3.260000000000000000e+02 3.270000000000000000e+02 3.280000000000000000e+02 3.290000000000000000e+02 3.300000000000000000e+02 3.310000000000000000e+02 3.320000000000000000e+02 3.330000000000000000e+02 3.340000000000000000e+02 3.350000000000000000e+02 3.360000000000000000e+02 3.370000000000000000e+02 3.380000000000000000e+02 3.390000000000000000e+02 3.400000000000000000e+02 3.410000000000000000e+02 3.420000000000000000e+02 3.430000000000000000e+02 3.440000000000000000e+02 3.450000000000000000e+02 3.460000000000000000e+02 3.470000000000000000e+02 3.480000000000000000e+02 3.490000000000000000e+02 3.500000000000000000e+02 3.510000000000000000e+02 3.520000000000000000e+02 3.530000000000000000e+02 3.540000000000000000e+02 3.550000000000000000e+02 3.560000000000000000e+02 3.570000000000000000e+02 3.580000000000000000e+02 3.590000000000000000e+02 3.600000000000000000e+02 3.610000000000000000e+02 3.620000000000000000e+02 3.630000000000000000e+02 3.640000000000000000e+02 3.650000000000000000e+02 3.660000000000000000e+02 3.670000000000000000e+02 3.680000000000000000e+02 3.690000000000000000e+02 3.700000000000000000e+02 3.710000000000000000e+02 3.720000000000000000e+02 3.730000000000000000e+02 3.740000000000000000e+02 3.750000000000000000e+02 3.760000000000000000e+02 3.770000000000000000e+02 3.780000000000000000e+02 3.790000000000000000e+02 3.800000000000000000e+02 3.810000000000000000e+02 3.820000000000000000e+02 3.830000000000000000e+02 3.840000000000000000e+02 3.850000000000000000e+02 3.860000000000000000e+02 3.870000000000000000e+02 3.880000000000000000e+02 3.890000000000000000e+02 3.900000000000000000e+02 3.910000000000000000e+02 3.920000000000000000e+02 3.930000000000000000e+02 3.940000000000000000e+02 3.950000000000000000e+02 3.960000000000000000e+02 3.970000000000000000e+02 3.980000000000000000e+02 3.990000000000000000e+02 4.000000000000000000e+02 4.010000000000000000e+02 4.020000000000000000e+02 4.030000000000000000e+02 4.040000000000000000e+02 4.050000000000000000e+02 4.060000000000000000e+02 4.070000000000000000e+02 4.080000000000000000e+02 4.090000000000000000e+02 4.100000000000000000e+02 4.110000000000000000e+02 4.120000000000000000e+02 4.130000000000000000e+02 4.140000000000000000e+02 4.150000000000000000e+02 4.160000000000000000e+02 4.170000000000000000e+02 4.180000000000000000e+02 4.190000000000000000e+02 4.200000000000000000e+02 4.210000000000000000e+02 4.220000000000000000e+02 4.230000000000000000e+02 4.240000000000000000e+02 4.250000000000000000e+02 4.260000000000000000e+02 4.270000000000000000e+02 4.280000000000000000e+02 4.290000000000000000e+02 4.300000000000000000e+02 4.310000000000000000e+02 4.320000000000000000e+02 4.330000000000000000e+02 4.340000000000000000e+02 4.350000000000000000e+02 4.360000000000000000e+02 4.370000000000000000e+02 4.380000000000000000e+02 4.390000000000000000e+02 4.400000000000000000e+02 4.410000000000000000e+02 4.420000000000000000e+02 4.430000000000000000e+02 4.440000000000000000e+02 4.450000000000000000e+02 4.460000000000000000e+02 4.470000000000000000e+02 4.480000000000000000e+02 4.490000000000000000e+02 4.500000000000000000e+02 4.510000000000000000e+02 4.520000000000000000e+02 4.530000000000000000e+02 4.540000000000000000e+02 4.550000000000000000e+02 4.560000000000000000e+02 4.570000000000000000e+02 4.580000000000000000e+02 4.590000000000000000e+02 4.600000000000000000e+02 4.610000000000000000e+02 4.620000000000000000e+02 4.630000000000000000e+02 4.640000000000000000e+02 4.650000000000000000e+02 4.660000000000000000e+02 4.670000000000000000e+02 4.680000000000000000e+02 4.690000000000000000e+02 4.700000000000000000e+02 4.710000000000000000e+02 4.720000000000000000e+02 4.730000000000000000e+02 4.740000000000000000e+02 4.750000000000000000e+02 4.760000000000000000e+02 4.770000000000000000e+02 4.780000000000000000e+02 4.790000000000000000e+02 4.800000000000000000e+02 4.810000000000000000e+02 4.820000000000000000e+02 4.830000000000000000e+02 4.840000000000000000e+02 4.850000000000000000e+02 4.860000000000000000e+02 4.870000000000000000e+02 4.880000000000000000e+02 4.890000000000000000e+02 4.900000000000000000e+02 4.910000000000000000e+02 4.920000000000000000e+02 4.930000000000000000e+02 4.940000000000000000e+02 4.950000000000000000e+02 4.960000000000000000e+02 4.970000000000000000e+02 4.980000000000000000e+02 4.990000000000000000e+02 5.000000000000000000e+02 5.010000000000000000e+02 5.020000000000000000e+02 5.030000000000000000e+02 5.040000000000000000e+02 5.050000000000000000e+02 5.060000000000000000e+02 5.070000000000000000e+02 5.080000000000000000e+02 5.090000000000000000e+02 5.100000000000000000e+02 5.110000000000000000e+02 5.120000000000000000e+02 5.130000000000000000e+02 5.140000000000000000e+02 5.150000000000000000e+02 5.160000000000000000e+02 5.170000000000000000e+02 5.180000000000000000e+02 5.190000000000000000e+02 5.200000000000000000e+02 5.210000000000000000e+02 5.220000000000000000e+02 5.230000000000000000e+02 5.240000000000000000e+02 5.250000000000000000e+02 5.260000000000000000e+02 5.270000000000000000e+02 5.280000000000000000e+02 5.290000000000000000e+02 5.300000000000000000e+02 5.310000000000000000e+02 5.320000000000000000e+02 5.330000000000000000e+02 5.340000000000000000e+02 5.350000000000000000e+02 5.360000000000000000e+02 5.370000000000000000e+02 5.380000000000000000e+02 5.390000000000000000e+02 5.400000000000000000e+02 5.410000000000000000e+02 5.420000000000000000e+02 5.430000000000000000e+02 5.440000000000000000e+02 5.450000000000000000e+02 5.460000000000000000e+02 5.470000000000000000e+02 5.480000000000000000e+02 5.490000000000000000e+02 5.500000000000000000e+02 5.510000000000000000e+02 5.520000000000000000e+02 5.530000000000000000e+02 5.540000000000000000e+02 5.550000000000000000e+02 5.560000000000000000e+02 5.570000000000000000e+02 5.580000000000000000e+02 5.590000000000000000e+02 5.600000000000000000e+02 5.610000000000000000e+02 5.620000000000000000e+02 5.630000000000000000e+02 5.640000000000000000e+02 5.650000000000000000e+02 5.660000000000000000e+02 5.670000000000000000e+02 5.680000000000000000e+02 5.690000000000000000e+02 5.700000000000000000e+02 5.710000000000000000e+02 5.720000000000000000e+02 5.730000000000000000e+02 5.740000000000000000e+02 5.750000000000000000e+02 5.760000000000000000e+02 5.770000000000000000e+02 5.780000000000000000e+02 5.790000000000000000e+02 5.800000000000000000e+02 5.810000000000000000e+02 5.820000000000000000e+02 5.830000000000000000e+02 5.840000000000000000e+02 5.850000000000000000e+02 5.860000000000000000e+02 5.870000000000000000e+02 5.880000000000000000e+02 5.890000000000000000e+02 5.900000000000000000e+02 5.910000000000000000e+02 5.920000000000000000e+02 5.930000000000000000e+02 5.940000000000000000e+02 5.950000000000000000e+02 5.960000000000000000e+02 5.970000000000000000e+02 5.980000000000000000e+02 5.990000000000000000e+02 6.000000000000000000e+02 6.010000000000000000e+02 6.020000000000000000e+02 6.030000000000000000e+02 6.040000000000000000e+02 6.050000000000000000e+02 6.060000000000000000e+02 6.070000000000000000e+02 6.080000000000000000e+02 6.090000000000000000e+02 6.100000000000000000e+02 6.110000000000000000e+02 6.120000000000000000e+02 6.130000000000000000e+02 6.140000000000000000e+02 6.150000000000000000e+02 6.160000000000000000e+02 6.170000000000000000e+02 6.180000000000000000e+02 6.190000000000000000e+02 6.200000000000000000e+02 6.210000000000000000e+02 6.220000000000000000e+02 6.230000000000000000e+02 6.240000000000000000e+02 6.250000000000000000e+02 6.260000000000000000e+02 6.270000000000000000e+02 6.280000000000000000e+02 6.290000000000000000e+02 6.300000000000000000e+02 6.310000000000000000e+02 6.320000000000000000e+02 6.330000000000000000e+02 6.340000000000000000e+02 6.350000000000000000e+02 6.360000000000000000e+02 6.370000000000000000e+02 6.380000000000000000e+02 6.390000000000000000e+02 6.400000000000000000e+02 6.410000000000000000e+02 6.420000000000000000e+02 6.430000000000000000e+02 6.440000000000000000e+02 6.450000000000000000e+02 6.460000000000000000e+02 6.470000000000000000e+02 6.480000000000000000e+02 6.490000000000000000e+02 6.500000000000000000e+02 6.510000000000000000e+02 6.520000000000000000e+02 6.530000000000000000e+02 6.540000000000000000e+02 6.550000000000000000e+02 6.560000000000000000e+02 6.570000000000000000e+02 6.580000000000000000e+02 6.590000000000000000e+02 6.600000000000000000e+02 6.610000000000000000e+02 6.620000000000000000e+02 6.630000000000000000e+02 6.640000000000000000e+02 6.650000000000000000e+02 6.660000000000000000e+02 6.670000000000000000e+02 6.680000000000000000e+02 6.690000000000000000e+02 6.700000000000000000e+02 6.710000000000000000e+02 6.720000000000000000e+02 6.730000000000000000e+02 6.740000000000000000e+02 6.750000000000000000e+02 6.760000000000000000e+02 6.770000000000000000e+02 6.780000000000000000e+02 6.790000000000000000e+02 6.800000000000000000e+02 6.810000000000000000e+02 6.820000000000000000e+02 6.830000000000000000e+02 6.840000000000000000e+02 6.850000000000000000e+02 6.860000000000000000e+02 6.870000000000000000e+02 6.880000000000000000e+02 6.890000000000000000e+02 6.900000000000000000e+02 6.910000000000000000e+02 6.920000000000000000e+02 6.930000000000000000e+02 6.940000000000000000e+02 6.950000000000000000e+02 6.960000000000000000e+02 6.970000000000000000e+02 6.980000000000000000e+02 6.990000000000000000e+02 7.000000000000000000e+02 7.010000000000000000e+02 7.020000000000000000e+02 7.030000000000000000e+02 7.040000000000000000e+02 7.050000000000000000e+02 7.060000000000000000e+02 7.070000000000000000e+02 7.080000000000000000e+02 7.090000000000000000e+02 7.100000000000000000e+02 7.110000000000000000e+02 7.120000000000000000e+02 7.130000000000000000e+02 7.140000000000000000e+02 7.150000000000000000e+02 7.160000000000000000e+02 7.170000000000000000e+02 7.180000000000000000e+02 7.190000000000000000e+02 7.200000000000000000e+02 7.210000000000000000e+02 7.220000000000000000e+02 7.230000000000000000e+02 7.240000000000000000e+02 7.250000000000000000e+02 7.260000000000000000e+02 7.270000000000000000e+02 7.280000000000000000e+02 7.290000000000000000e+02 7.300000000000000000e+02 7.310000000000000000e+02 7.320000000000000000e+02 7.330000000000000000e+02 7.340000000000000000e+02 7.350000000000000000e+02 7.360000000000000000e+02 7.370000000000000000e+02 7.380000000000000000e+02 7.390000000000000000e+02 7.400000000000000000e+02 7.410000000000000000e+02 7.420000000000000000e+02 7.430000000000000000e+02 7.440000000000000000e+02 7.450000000000000000e+02 7.460000000000000000e+02 7.470000000000000000e+02 7.480000000000000000e+02 7.490000000000000000e+02 7.500000000000000000e+02 7.510000000000000000e+02 7.520000000000000000e+02 7.530000000000000000e+02 7.540000000000000000e+02 7.550000000000000000e+02 7.560000000000000000e+02 7.570000000000000000e+02 7.580000000000000000e+02 7.590000000000000000e+02 7.600000000000000000e+02 7.610000000000000000e+02 7.620000000000000000e+02 7.630000000000000000e+02 7.640000000000000000e+02 7.650000000000000000e+02 7.660000000000000000e+02 7.670000000000000000e+02 7.680000000000000000e+02 7.690000000000000000e+02 7.700000000000000000e+02 7.710000000000000000e+02 7.720000000000000000e+02 7.730000000000000000e+02 7.740000000000000000e+02 7.750000000000000000e+02 7.760000000000000000e+02 7.770000000000000000e+02 7.780000000000000000e+02 7.790000000000000000e+02 7.800000000000000000e+02 7.810000000000000000e+02 7.820000000000000000e+02 7.830000000000000000e+02 7.840000000000000000e+02 7.850000000000000000e+02 7.860000000000000000e+02 7.870000000000000000e+02 7.880000000000000000e+02 7.890000000000000000e+02 7.900000000000000000e+02 7.910000000000000000e+02 7.920000000000000000e+02 7.930000000000000000e+02 7.940000000000000000e+02 7.950000000000000000e+02 7.960000000000000000e+02 7.970000000000000000e+02 7.980000000000000000e+02 7.990000000000000000e+02 8.000000000000000000e+02 8.010000000000000000e+02 8.020000000000000000e+02 8.030000000000000000e+02 8.040000000000000000e+02 8.050000000000000000e+02 8.060000000000000000e+02 8.070000000000000000e+02 8.080000000000000000e+02 8.090000000000000000e+02 8.100000000000000000e+02 8.110000000000000000e+02 8.120000000000000000e+02 8.130000000000000000e+02 8.140000000000000000e+02 8.150000000000000000e+02 8.160000000000000000e+02 8.170000000000000000e+02 8.180000000000000000e+02 8.190000000000000000e+02 8.200000000000000000e+02 8.210000000000000000e+02 8.220000000000000000e+02 8.230000000000000000e+02 8.240000000000000000e+02 8.250000000000000000e+02 8.260000000000000000e+02 8.270000000000000000e+02 8.280000000000000000e+02 8.290000000000000000e+02 8.300000000000000000e+02 8.310000000000000000e+02 8.320000000000000000e+02 8.330000000000000000e+02 8.340000000000000000e+02 8.350000000000000000e+02 8.360000000000000000e+02 8.370000000000000000e+02 8.380000000000000000e+02 8.390000000000000000e+02 8.400000000000000000e+02 8.410000000000000000e+02 8.420000000000000000e+02 8.430000000000000000e+02 8.440000000000000000e+02 8.450000000000000000e+02 8.460000000000000000e+02 8.470000000000000000e+02 8.480000000000000000e+02 8.490000000000000000e+02 8.500000000000000000e+02 8.510000000000000000e+02 8.520000000000000000e+02 8.530000000000000000e+02 8.540000000000000000e+02 8.550000000000000000e+02 8.560000000000000000e+02 8.570000000000000000e+02 8.580000000000000000e+02 8.590000000000000000e+02 8.600000000000000000e+02 8.610000000000000000e+02 8.620000000000000000e+02 8.630000000000000000e+02 8.640000000000000000e+02 8.650000000000000000e+02 8.660000000000000000e+02 8.670000000000000000e+02 8.680000000000000000e+02 8.690000000000000000e+02 8.700000000000000000e+02 8.710000000000000000e+02 8.720000000000000000e+02 8.730000000000000000e+02 8.740000000000000000e+02 8.750000000000000000e+02 8.760000000000000000e+02 8.770000000000000000e+02 8.780000000000000000e+02 8.790000000000000000e+02 8.800000000000000000e+02 8.810000000000000000e+02 8.820000000000000000e+02 8.830000000000000000e+02 8.840000000000000000e+02 8.850000000000000000e+02 8.860000000000000000e+02 8.870000000000000000e+02 8.880000000000000000e+02 8.890000000000000000e+02 8.900000000000000000e+02 8.910000000000000000e+02 8.920000000000000000e+02 8.930000000000000000e+02 8.940000000000000000e+02 8.950000000000000000e+02 8.960000000000000000e+02 8.970000000000000000e+02 8.980000000000000000e+02 8.990000000000000000e+02 9.000000000000000000e+02 9.010000000000000000e+02 9.020000000000000000e+02 9.030000000000000000e+02 9.040000000000000000e+02 9.050000000000000000e+02 9.060000000000000000e+02 9.070000000000000000e+02 9.080000000000000000e+02 9.090000000000000000e+02 9.100000000000000000e+02 9.110000000000000000e+02 9.120000000000000000e+02 9.130000000000000000e+02 9.140000000000000000e+02 9.150000000000000000e+02 9.160000000000000000e+02 9.170000000000000000e+02 9.180000000000000000e+02 9.190000000000000000e+02 9.200000000000000000e+02 9.210000000000000000e+02 9.220000000000000000e+02 9.230000000000000000e+02 9.240000000000000000e+02 9.250000000000000000e+02 9.260000000000000000e+02 9.270000000000000000e+02 9.280000000000000000e+02 9.290000000000000000e+02 9.300000000000000000e+02 9.310000000000000000e+02 9.320000000000000000e+02 9.330000000000000000e+02 9.340000000000000000e+02 9.350000000000000000e+02 9.360000000000000000e+02 9.370000000000000000e+02 9.380000000000000000e+02 9.390000000000000000e+02 9.400000000000000000e+02 9.410000000000000000e+02 9.420000000000000000e+02 9.430000000000000000e+02 9.440000000000000000e+02 9.450000000000000000e+02 9.460000000000000000e+02 9.470000000000000000e+02 9.480000000000000000e+02 9.490000000000000000e+02 9.500000000000000000e+02 9.510000000000000000e+02 9.520000000000000000e+02 9.530000000000000000e+02 9.540000000000000000e+02 9.550000000000000000e+02 9.560000000000000000e+02 9.570000000000000000e+02 9.580000000000000000e+02 9.590000000000000000e+02 9.600000000000000000e+02 9.610000000000000000e+02 9.620000000000000000e+02 9.630000000000000000e+02 9.640000000000000000e+02 9.650000000000000000e+02 9.660000000000000000e+02 9.670000000000000000e+02 9.680000000000000000e+02 9.690000000000000000e+02 9.700000000000000000e+02 9.710000000000000000e+02 9.720000000000000000e+02 9.730000000000000000e+02 9.740000000000000000e+02 9.750000000000000000e+02 9.760000000000000000e+02 9.770000000000000000e+02 9.780000000000000000e+02 9.790000000000000000e+02 9.800000000000000000e+02 9.810000000000000000e+02 9.820000000000000000e+02 9.830000000000000000e+02 9.840000000000000000e+02 9.850000000000000000e+02 9.860000000000000000e+02 9.870000000000000000e+02 9.880000000000000000e+02 9.890000000000000000e+02 9.900000000000000000e+02 9.910000000000000000e+02 9.920000000000000000e+02 9.930000000000000000e+02 9.940000000000000000e+02 9.950000000000000000e+02 9.960000000000000000e+02 9.970000000000000000e+02 9.980000000000000000e+02 9.990000000000000000e+02
1.000000000000000000e+00 1.000000000000000000e+00 1.000000000000000000e+00 1.000000000000000000e+00 1.000000000000000000e+00 1.000000000000000000e+00 1.000000000000000000e+00 1.000000000000000000e+00 1.000000000000000000e+00 1.000000000000000000e+00 1.000000000000000000e+00 1.000000000000000000e+00 1.000000000000000000e+00 1.000000000000000000e+00 1.000000000000000000e+00 1.000000000000000000e+00 1.000000000000000000e+00 1.000000000000000000e+00 1.000000000000000000e+00 1.000000000000000000e+00 1.000000000000000000e+00 1.000000000000000000e+00 1.000000000000000000e+00 1.000000000000000000e+00 1.000000000000000000e+00 1.000000000000000000e+00 1.000000000000000000e+00 1.000000000000000000e+00 1.000000000000000000e+00 1.000000000000000000e+00 1.000000000000000000e+00 1.000000000000000000e+00 1.000000000000000000e+00 1.000000000000000000e+00 1.000000000000000000e+00 1.000000000000000000e+00 1.000000000000000000e+00 1.000000000000000000e+00 1.000000000000000000e+00 1.000000000000000000e+00 1.000000000000000000e+00 1.000000000000000000e+00 1.000000000000000000e+00 1.000000000000000000e+00 1.000000000000000000e+00 1.000000000000000000e+00 1.000000000000000000e+00 1.000000000000000000e+00 1.000000000000000000e+00 1.000000000000000000e+00 1.000000000000000000e+00 1.000000000000000000e+00 1.000000000000000000e+00 1.000000000000000000e+00 1.000000000000000000e+00 1.000000000000000000e+00 1.000000000000000000e+00 1.000000000000000000e+00 1.000000000000000000e+00 1.000000000000000000e+00 1.000000000000000000e+00 1.000000000000000000e+00 1.000000000000000000e+00 1.000000000000000000e+00 1.000000000000000000e+00 1.000000000000000000e+00 1.000000000000000000e+00 1.000000000000000000e+00 1.000000000000000000e+00 1.000000000000000000e+00 1.000000000000000000e+00 1.000000000000000000e+00 1.000000000000000000e+00 1.000000000000000000e+00 1.000000000000000000e+00 1.000000000000000000e+00 1.000000000000000000e+00 1.000000000000000000e+00 1.000000000000000000e+00 1.000000000000000000e+00 1.000000000000000000e+00 1.000000000000000000e+00 1.000000000000000000e+00 1.000000000000000000e+00 1.000000000000000000e+00 1.000000000000000000e+00 1.000000000000000000e+00 1.000000000000000000e+00 1.000000000000000000e+00 1.000000000000000000e+00 1.000000000000000000e+00 1.000000000000000000e+00 1.000000000000000000e+00 1.000000000000000000e+00 1.000000000000000000e+00 1.000000000000000000e+00 1.000000000000000000e+00 1.000000000000000000e+00 1.000000000000000000e+00 1.000000000000000000e+00 1.000000000000000000e+00 1.000000000000000000e+00 1.000000000000000000e+00 1.000000000000000000e+00 1.000000000000000000e+00 1.000000000000000000e+00 1.000000000000000000e+00 1.000000000000000000e+00 1.000000000000000000e+00 1.000000000000000000e+00 1.000000000000000000e+00 1.000000000000000000e+00 1.000000000000000000e+00 1.000000000000000000e+00 1.000000000000000000e+00 1.000000000000000000e+00 1.000000000000000000e+00 1.000000000000000000e+00 1.000000000000000000e+00 1.000000000000000000e+00 1.000000000000000000e+00 1.000000000000000000e+00 1.000000000000000000e+00 1.000000000000000000e+00 1.000000000000000000e+00 1.000000000000000000e+00 1.000000000000000000e+00 1.000000000000000000e+00 1.000000000000000000e+00 1.000000000000000000e+00 1.000000000000000000e+00 1.000000000000000000e+00 1.000000000000000000e+00 1.000000000000000000e+00 1.000000000000000000e+00 1.000000000000000000e+00 1.000000000000000000e+00 1.000000000000000000e+00 1.000000000000000000e+00 1.000000000000000000e+00 1.000000000000000000e+00 1.000000000000000000e+00 1.000000000000000000e+00 1.000000000000000000e+00 1.000000000000000000e+00 1.000000000000000000e+00 1.000000000000000000e+00 1.000000000000000000e+00 1.000000000000000000e+00 1.000000000000000000e+00 1.000000000000000000e+00 1.000000000000000000e+00 1.000000000000000000e+00 1.000000000000000000e+00 1.000000000000000000e+00 1.000000000000000000e+00 1.000000000000000000e+00 1.000000000000000000e+00 1.000000000000000000e+00 1.000000000000000000e+00 1.000000000000000000e+00 1.000000000000000000e+00 1.000000000000000000e+00 1.000000000000000000e+00 1.000000000000000000e+00 1.000000000000000000e+00 1.000000000000000000e+00 1.000000000000000000e+00 1.000000000000000000e+00 1.000000000000000000e+00 1.000000000000000000e+00 1.000000000000000000e+00 1.000000000000000000e+00 1.000000000000000000e+00 1.000000000000000000e+00 1.000000000000000000e+00 1.000000000000000000e+00 1.000000000000000000e+00 1.000000000000000000e+00 1.000000000000000000e+00 1.000000000000000000e+00 1.000000000000000000e+00 1.000000000000000000e+00 1.000000000000000000e+00 1.000000000000000000e+00 1.000000000000000000e+00 1.000000000000000000e+00 1.000000000000000000e+00 1.000000000000000000e+00 1.000000000000000000e+00 1.000000000000000000e+00 1.000000000000000000e+00 1.000000000000000000e+00 1.000000000000000000e+00 1.000000000000000000e+00 1.000000000000000000e+00 1.000000000000000000e+00 1.000000000000000000e+00 1.000000000000000000e+00 1.000000000000000000e+00 1.000000000000000000e+00 1.000000000000000000e+00 1.000000000000000000e+00 1.000000000000000000e+00 1.000000000000000000e+00 1.000000000000000000e+00 1.000000000000000000e+00 1.000000000000000000e+00 1.000000000000000000e+00 1.000000000000000000e+00 1.000000000000000000e+00 1.000000000000000000e+00 1.000000000000000000e+00 1.000000000000000000e+00 1.000000000000000000e+00 1.000000000000000000e+00 1.000000000000000000e+00 1.000000000000000000e+00 1.000000000000000000e+00 1.000000000000000000e+00 1.000000000000000000e+00 1.000000000000000000e+00 1.000000000000000000e+00 1.000000000000000000e+00 1.000000000000000000e+00 1.000000000000000000e+00 1.000000000000000000e+00 1.000000000000000000e+00 1.000000000000000000e+00 1.000000000000000000e+00 1.000000000000000000e+00 1.000000000000000000e+00 1.000000000000000000e+00 1.000000000000000000e+00 1.000000000000000000e+00 1.000000000000000000e+00 1.000000000000000000e+00 1.000000000000000000e+00 1.000000000000000000e+00 1.000000000000000000e+00 1.000000000000000000e+00 1.000000000000000000e+00 1.000000000000000000e+00 1.000000000000000000e+00 1.000000000000000000e+00 1.000000000000000000e+00 1.000000000000000000e+00 1.000000000000000000e+00 1.000000000000000000e+00 1.000000000000000000e+00 1.000000000000000000e+00 1.000000000000000000e+00 1.000000000000000000e+00 1.000000000000000000e+00 1.000000000000000000e+00 1.000000000000000000e+00 1.000000000000000000e+00 1.000000000000000000e+00 1.000000000000000000e+00 1.000000000000000000e+00 1.000000000000000000e+00 1.000000000000000000e+00 1.000000000000000000e+00 1.000000000000000000e+00 1.000000000000000000e+00 1.000000000000000000e+00 1.000000000000000000e+00 1.000000000000000000e+00 1.000000000000000000e+00 1.000000000000000000e+00 1.000000000000000000e+00 1.000000000000000000e+00 1.000000000000000000e+00 1.000000000000000000e+00 1.000000000000000000e+00 1.000000000000000000e+00 1.000000000000000000e+00 1.000000000000000000e+00 1.000000000000000000e+00 1.000000000000000000e+00 1.000000000000000000e+00 1.000000000000000000e+00 1.000000000000000000e+00 1.000000000000000000e+00 1.000000000000000000e+00 1.000000000000000000e+00 1.000000000000000000e+00 1.000000000000000000e+00 1.000000000000000000e+00 1.000000000000000000e+00 1.000000000000000000e+00 1.000000000000000000e+00 1.000000000000000000e+00 1.000000000000000000e+00 1.000000000000000000e+00 1.000000000000000000e+00 1.000000000000000000e+00 1.000000000000000000e+00 1.000000000000000000e+00 1.000000000000000000e+00 1.000000000000000000e+00 1.000000000000000000e+00 1.000000000000000000e+00 1.000000000000000000e+00 1.000000000000000000e+00 1.000000000000000000e+00 1.000000000000000000e+00 1.000000000000000000e+00 1.000000000000000000e+00 1.000000000000000000e+00 1.000000000000000000e+00 1.000000000000000000e+00 1.000000000000000000e+00 1.000000000000000000e+00 1.000000000000000000e+00 1.000000000000000000e+00 1.000000000000000000e+00 1.000000000000000000e+00 1.000000000000000000e+00 1.000000000000000000e+00 1.000000000000000000e+00 1.000000000000000000e+00 1.000000000000000000e+00 1.000000000000000000e+00 1.000000000000000000e+00 1.000000000000000000e+00 1.000000000000000000e+00 1.000000000000000000e+00 1.000000000000000000e+00 1.000000000000000000e+00 1.000000000000000000e+00 1.000000000000000000e+00 1.000000000000000000e+00 1.000000000000000000e+00 1.000000000000000000e+00 1.000000000000000000e+00 1.000000000000000000e+00 1.000000000000000000e+00 1.000000000000000000e+00 1.000000000000000000e+00 1.000000000000000000e+00 1.000000000000000000e+00 1.000000000000000000e+00 1.000000000000000000e+00 1.000000000000000000e+00 1.000000000000000000e+00 1.000000000000000000e+00 1.000000000000000000e+00 1.000000000000000000e+00 1.000000000000000000e+00 1.000000000000000000e+00 1.000000000000000000e+00 1.000000000000000000e+00 1.000000000000000000e+00 1.000000000000000000e+00 1.000000000000000000e+00 1.000000000000000000e+00 1.000000000000000000e+00 1.000000000000000000e+00 1.000000000000000000e+00 1.000000000000000000e+00 1.000000000000000000e+00 1.000000000000000000e+00 1.000000000000000000e+00 1.000000000000000000e+00 1.000000000000000000e+00 1.000000000000000000e+00 1.000000000000000000e+00 1.000000000000000000e+00 1.000000000000000000e+00 1.000000000000000000e+00 1.000000000000000000e+00 1.000000000000000000e+00 1.000000000000000000e+00 1.000000000000000000e+00 1.000000000000000000e+00 1.000000000000000000e+00 1.000000000000000000e+00 1.000000000000000000e+00 1.000000000000000000e+00 1.000000000000000000e+00 1.000000000000000000e+00 1.000000000000000000e+00 1.000000000000000000e+00 1.000000000000000000e+00 1.000000000000000000e+00 1.000000000000000000e+00 1.000000000000000000e+00 1.000000000000000000e+00 1.000000000000000000e+00 1.000000000000000000e+00 1.000000000000000000e+00 1.000000000000000000e+00 1.000000000000000000e+00 1.000000000000000000e+00 1.000000000000000000e+00 1.000000000000000000e+00 1.000000000000000000e+00 1.000000000000000000e+00 1.000000000000000000e+00 1.000000000000000000e+00 1.000000000000000000e+00 1.000000000000000000e+00 1.000000000000000000e+00 1.000000000000000000e+00 1.000000000000000000e+00 1.000000000000000000e+00 1.000000000000000000e+00 1.000000000000000000e+00 1.000000000000000000e+00 1.000000000000000000e+00 1.000000000000000000e+00 1.000000000000000000e+00 1.000000000000000000e+00 1.000000000000000000e+00 1.000000000000000000e+00 1.000000000000000000e+00 1.000000000000000000e+00 1.000000000000000000e+00 1.000000000000000000e+00 1.000000000000000000e+00 1.000000000000000000e+00 1.000000000000000000e+00 1.000000000000000000e+00 1.000000000000000000e+00 1.000000000000000000e+00 1.000000000000000000e+00 1.000000000000000000e+00 1.000000000000000000e+00 1.000000000000000000e+00 1.000000000000000000e+00 1.000000000000000000e+00 1.000000000000000000e+00 1.000000000000000000e+00 1.000000000000000000e+00 1.000000000000000000e+00 1.000000000000000000e+00 1.000000000000000000e+00 1.000000000000000000e+00 1.000000000000000000e+00 1.000000000000000000e+00 1.000000000000000000e+00 1.000000000000000000e+00 1.000000000000000000e+00 1.000000000000000000e+00 1.000000000000000000e+00 1.000000000000000000e+00 1.000000000000000000e+00 1.000000000000000000e+00 1.000000000000000000e+00 1.000000000000000000e+00 1.000000000000000000e+00 1.000000000000000000e+00 1.000000000000000000e+00 1.000000000000000000e+00 1.000000000000000000e+00 1.000000000000000000e+00 1.000000000000000000e+00 1.000000000000000000e+00 1.000000000000000000e+00 1.000000000000000000e+00 1.000000000000000000e+00 1.000000000000000000e+00 1.000000000000000000e+00 1.000000000000000000e+00 1.000000000000000000e+00 1.000000000000000000e+00 1.000000000000000000e+00 1.000000000000000000e+00 1.000000000000000000e+00 1.000000000000000000e+00 1.000000000000000000e+00 1.000000000000000000e+00 1.000000000000000000e+00 1.000000000000000000e+00 1.000000000000000000e+00 1.000000000000000000e+00 1.000000000000000000e+00 1.000000000000000000e+00 1.000000000000000000e+00 1.000000000000000000e+00 1.000000000000000000e+00 1.000000000000000000e+00 1.000000000000000000e+00 1.000000000000000000e+00 1.000000000000000000e+00 1.000000000000000000e+00 1.000000000000000000e+00 1.000000000000000000e+00 1.000000000000000000e+00 1.000000000000000000e+00 1.000000000000000000e+00 1.000000000000000000e+00 1.000000000000000000e+00 1.000000000000000000e+00 1.000000000000000000e+00 1.000000000000000000e+00 1.000000000000000000e+00 1.000000000000000000e+00 1.000000000000000000e+00 1.000000000000000000e+00 1.000000000000000000e+00 1.000000000000000000e+00 1.000000000000000000e+00 1.000000000000000000e+00 1.000000000000000000e+00 1.000000000000000000e+00 1.000000000000000000e+00 1.000000000000000000e+00 1.000000000000000000e+00 1.000000000000000000e+00 1.000000000000000000e+00 1.000000000000000000e+00 1.000000000000000000e+00 1.000000000000000000e+00 1.000000000000000000e+00 1.000000000000000000e+00 1.000000000000000000e+00 1.000000000000000000e+00 1.000000000000000000e+00 1.000000000000000000e+00 1.000000000000000000e+00 1.000000000000000000e+00 1.000000000000000000e+00 1.000000000000000000e+00 1.000000000000000000e+00 1.000000000000000000e+00 1.000000000000000000e+00 1.000000000000000000e+00 1.000000000000000000e+00 1.000000000000000000e+00 1.000000000000000000e+00 1.000000000000000000e+00 1.000000000000000000e+00 1.000000000000000000e+00 1.000000000000000000e+00 1.000000000000000000e+00 1.000000000000000000e+00 1.000000000000000000e+00 1.000000000000000000e+00 1.000000000000000000e+00 1.000000000000000000e+00 1.000000000000000000e+00 1.000000000000000000e+00 1.000000000000000000e+00 1.000000000000000000e+00 1.000000000000000000e+00 1.000000000000000000e+00 1.000000000000000000e+00 1.000000000000000000e+00 1.000000000000000000e+00 1.000000000000000000e+00 1.000000000000000000e+00 1.000000000000000000e+00 1.000000000000000000e+00 1.000000000000000000e+00 1.000000000000000000e+00 1.000000000000000000e+00 1.000000000000000000e+00 1.000000000000000000e+00 1.000000000000000000e+00 1.000000000000000000e+00 1.000000000000000000e+00 1.000000000000000000e+00 1.000000000000000000e+00 1.000000000000000000e+00 1.000000000000000000e+00 1.000000000000000000e+00 1.000000000000000000e+00 1.000000000000000000e+00 1.000000000000000000e+00 1.000000000000000000e+00 1.000000000000000000e+00 1.000000000000000000e+00 1.000000000000000000e+00 1.000000000000000000e+00 1.000000000000000000e+00 1.000000000000000000e+00 1.000000000000000000e+00 1.000000000000000000e+00 1.000000000000000000e+00 1.000000000000000000e+00 1.000000000000000000e+00 1.000000000000000000e+00 1.000000000000000000e+00 1.000000000000000000e+00 1.000000000000000000e+00 1.000000000000000000e+00 1.000000000000000000e+00 1.000000000000000000e+00 1.000000000000000000e+00 1.000000000000000000e+00 1.000000000000000000e+00 1.000000000000000000e+00 1.000000000000000000e+00 1.000000000000000000e+00 1.000000000000000000e+00 1.000000000000000000e+00 1.000000000000000000e+00 1.000000000000000000e+00 1.000000000000000000e+00 1.000000000000000000e+00 1.000000000000000000e+00 1.000000000000000000e+00 1.000000000000000000e+00 1.000000000000000000e+00 1.000000000000000000e+00 1.000000000000000000e+00 1.000000000000000000e+00 1.000000000000000000e+00 1.000000000000000000e+00 1.000000000000000000e+00 1.000000000000000000e+00 1.000000000000000000e+00 1.000000000000000000e+00 1.000000000000000000e+00 1.000000000000000000e+00 1.000000000000000000e+00 1.000000000000000000e+00 1.000000000000000000e+00 1.000000000000000000e+00 1.000000000000000000e+00 1.000000000000000000e+00 1.000000000000000000e+00 1.000000000000000000e+00 1.000000000000000000e+00 1.000000000000000000e+00 1.000000000000000000e+00 1.000000000000000000e+00 1.000000000000000000e+00 1.000000000000000000e+00 1.000000000000000000e+00 1.000000000000000000e+00 1.000000000000000000e+00 1.000000000000000000e+00 1.000000000000000000e+00 1.000000000000000000e+00 1.000000000000000000e+00 1.000000000000000000e+00 1.000000000000000000e+00 1.000000000000000000e+00 1.000000000000000000e+00 1.000000000000000000e+00 1.000000000000000000e+00 1.000000000000000000e+00 1.000000000000000000e+00 1.000000000000000000e+00 1.000000000000000000e+00 1.000000000000000000e+00 1.000000000000000000e+00 1.000000000000000000e+00 1.000000000000000000e+00 1.000000000000000000e+00 1.000000000000000000e+00 1.000000000000000000e+00 1.000000000000000000e+00 1.000000000000000000e+00 1.000000000000000000e+00 1.000000000000000000e+00 1.000000000000000000e+00 1.000000000000000000e+00 1.000000000000000000e+00 1.000000000000000000e+00 1.000000000000000000e+00 1.000000000000000000e+00 1.000000000000000000e+00 1.000000000000000000e+00 1.000000000000000000e+00 1.000000000000000000e+00 1.000000000000000000e+00 1.000000000000000000e+00 1.000000000000000000e+00 1.000000000000000000e+00 1.000000000000000000e+00 1.000000000000000000e+00 1.000000000000000000e+00 1.000000000000000000e+00 1.000000000000000000e+00 1.000000000000000000e+00 1.000000000000000000e+00 1.000000000000000000e+00 1.000000000000000000e+00 1.000000000000000000e+00 1.000000000000000000e+00 1.000000000000000000e+00 1.000000000000000000e+00 1.000000000000000000e+00 1.000000000000000000e+00 1.000000000000000000e+00 1.000000000000000000e+00 1.000000000000000000e+00 1.000000000000000000e+00 1.000000000000000000e+00 1.000000000000000000e+00 1.000000000000000000e+00 1.000000000000000000e+00 1.000000000000000000e+00 1.000000000000000000e+00 1.000000000000000000e+00 1.000000000000000000e+00 1.000000000000000000e+00 1.000000000000000000e+00 1.000000000000000000e+00 1.000000000000000000e+00 1.000000000000000000e+00 1.000000000000000000e+00 1.000000000000000000e+00 1.000000000000000000e+00 1.000000000000000000e+00 1.000000000000000000e+00 1.000000000000000000e+00 1.000000000000000000e+00 1.000000000000000000e+00 1.000000000000000000e+00 1.000000000000000000e+00 1.000000000000000000e+00 1.000000000000000000e+00 1.000000000000000000e+00 1.000000000000000000e+00 1.000000000000000000e+00 1.000000000000000000e+00 1.000000000000000000e+00 1.000000000000000000e+00 1.000000000000000000e+00 1.000000000000000000e+00 1.000000000000000000e+00 1.000000000000000000e+00 1.000000000000000000e+00 1.000000000000000000e+00 1.000000000000000000e+00 1.000000000000000000e+00 1.000000000000000000e+00 1.000000000000000000e+00 1.000000000000000000e+00 1.000000000000000000e+00 1.000000000000000000e+00 1.000000000000000000e+00 1.000000000000000000e+00 1.000000000000000000e+00 1.000000000000000000e+00 1.000000000000000000e+00 1.000000000000000000e+00 1.000000000000000000e+00 1.000000000000000000e+00 1.000000000000000000e+00 1.000000000000000000e+00 1.000000000000000000e+00 1.000000000000000000e+00 1.000000000000000000e+00 1.000000000000000000e+00 1.000000000000000000e+00 1.000000000000000000e+00 1.000000000000000000e+00 1.000000000000000000e+00 1.000000000000000000e+00 1.000000000000000000e+00 1.000000000000000000e+00 1.000000000000000000e+00 1.000000000000000000e+00 1.000000000000000000e+00 1.000000000000000000e+00 1.000000000000000000e+00 1.000000000000000000e+00 1.000000000000000000e+00 1.000000000000000000e+00 1.000000000000000000e+00 1.000000000000000000e+00 1.000000000000000000e+00 1.000000000000000000e+00 1.000000000000000000e+00 1.000000000000000000e+00 1.000000000000000000e+00 1.000000000000000000e+00 1.000000000000000000e+00 1.000000000000000000e+00 1.000000000000000000e+00 1.000000000000000000e+00 1.000000000000000000e+00 1.000000000000000000e+00 1.000000000000000000e+00 1.000000000000000000e+00 1.000000000000000000e+00 1.000000000000000000e+00 1.000000000000000000e+00 1.000000000000000000e+00 1.000000000000000000e+00 1.000000000000000000e+00 1.000000000000000000e+00 1.000000000000000000e+00 1.000000000000000000e+00 1.000000000000000000e+00 1.000000000000000000e+00 1.000000000000000000e+00 1.000000000000000000e+00 1.000000000000000000e+00 1.000000000000000000e+00 1.000000000000000000e+00 1.000000000000000000e+00 1.000000000000000000e+00 1.000000000000000000e+00 1.000000000000000000e+00 1.000000000000000000e+00 1.000000000000000000e+00 1.000000000000000000e+00 1.000000000000000000e+00 1.000000000000000000e+00 1.000000000000000000e+00 1.000000000000000000e+00 1.000000000000000000e+00 1.000000000000000000e+00 1.000000000000000000e+00 1.000000000000000000e+00 1.000000000000000000e+00 1.000000000000000000e+00 1.000000000000000000e+00 1.000000000000000000e+00 1.000000000000000000e+00 1.000000000000000000e+00 1.000000000000000000e+00 1.000000000000000000e+00 1.000000000000000000e+00 1.000000000000000000e+00 1.000000000000000000e+00 1.000000000000000000e+00 1.000000000000000000e+00 1.000000000000000000e+00 1.000000000000000000e+00 1.000000000000000000e+00 1.000000000000000000e+00 1.000000000000000000e+00 1.000000000000000000e+00 1.000000000000000000e+00 1.000000000000000000e+00 1.000000000000000000e+00 1.000000000000000000e+00 1.000000000000000000e+00 1.000000000000000000e+00 1.000000000000000000e+00 1.000000000000000000e+00 1.000000000000000000e+00 1.000000000000000000e+00 1.000000000000000000e+00 1.000000000000000000e+00 1.000000000000000000e+00 1.000000000000000000e+00 1.000000000000000000e+00 1.000000000000000000e+00 1.000000000000000000e+00 1.000000000000000000e+00 1.000000000000000000e+00 1.000000000000000000e+00 1.000000000000000000e+00 1.000000000000000000e+00 1.000000000000000000e+00 1.000000000000000000e+00 1.000000000000000000e+00 1.000000000000000000e+00 1.000000000000000000e+00 1.000000000000000000e+00 1.000000000000000000e+00 1.000000000000000000e+00 1.000000000000000000e+00 1.000000000000000000e+00 1.000000000000000000e+00 1.000000000000000000e+00 1.000000000000000000e+00 1.000000000000000000e+00 1.000000000000000000e+00 1.000000000000000000e+00 1.000000000000000000e+00 1.000000000000000000e+00 1.000000000000000000e+00 1.000000000000000000e+00 1.000000000000000000e+00 1.000000000000000000e+00 1.000000000000000000e+00 1.000000000000000000e+00 1.000000000000000000e+00 1.000000000000000000e+00 1.000000000000000000e+00 1.000000000000000000e+00 1.000000000000000000e+00 1.000000000000000000e+00 1.000000000000000000e+00 1.000000000000000000e+00 1.000000000000000000e+00 1.000000000000000000e+00 1.000000000000000000e+00 1.000000000000000000e+00 1.000000000000000000e+00 1.000000000000000000e+00 1.000000000000000000e+00 1.000000000000000000e+00 1.000000000000000000e+00 1.000000000000000000e+00 1.000000000000000000e+00 1.000000000000000000e+00 1.000000000000000000e+00 1.000000000000000000e+00 1.000000000000000000e+00 1.000000000000000000e+00 1.000000000000000000e+00 1.000000000000000000e+00 1.000000000000000000e+00 1.000000000000000000e+00 1.000000000000000000e+00 1.000000000000000000e+00 1.000000000000000000e+00 1.000000000000000000e+00 1.000000000000000000e+00 1.000000000000000000e+00 1.000000000000000000e+00 1.000000000000000000e+00 1.000000000000000000e+00 1.000000000000000000e+00 1.000000000000000000e+00 1.000000000000000000e+00 1.000000000000000000e+00 1.000000000000000000e+00 1.000000000000000000e+00 1.000000000000000000e+00 1.000000000000000000e+00 1.000000000000000000e+00 1.000000000000000000e+00 1.000000000000000000e+00 1.000000000000000000e+00 1.000000000000000000e+00 1.000000000000000000e+00 1.000000000000000000e+00 1.000000000000000000e+00 1.000000000000000000e+00 1.000000000000000000e+00 1.000000000000000000e+00 1.000000000000000000e+00 1.000000000000000000e+00 1.000000000000000000e+00 1.000000000000000000e+00 1.000000000000000000e+00 1.000000000000000000e+00 1.000000000000000000e+00 1.000000000000000000e+00 1.000000000000000000e+00 1.000000000000000000e+00 1.000000000000000000e+00 1.000000000000000000e+00 1.000000000000000000e+00 1.000000000000000000e+00 1.000000000000000000e+00 1.000000000000000000e+00 1.000000000000000000e+00 1.000000000000000000e+00 1.000000000000000000e+00 1.000000000000000000e+00 1.000000000000000000e+00 1.000000000000000000e+00 1.000000000000000000e+00 1.000000000000000000e+00 1.000000000000000000e+00 1.000000000000000000e+00 1.000000000000000000e+00 1.000000000000000000e+00 1.000000000000000000e+00 1.000000000000000000e+00 1.000000000000000000e+00 1.000000000000000000e+00 1.000000000000000000e+00 1.000000000000000000e+00 1.000000000000000000e+00 1.000000000000000000e+00 1.000000000000000000e+00 1.000000000000000000e+00 1.000000000000000000e+00 1.000000000000000000e+00 1.000000000000000000e+00 1.000000000000000000e+00 1.000000000000000000e+00 1.000000000000000000e+00 1.000000000000000000e+00 1.000000000000000000e+00 1.000000000000000000e+00 1.000000000000000000e+00 1.000000000000000000e+00 1.000000000000000000e+00 1.000000000000000000e+00 1.000000000000000000e+00 1.000000000000000000e+00 1.000000000000000000e+00 1.000000000000000000e+00 1.000000000000000000e+00 1.000000000000000000e+00 1.000000000000000000e+00 1.000000000000000000e+00 1.000000000000000000e+00 1.000000000000000000e+00 1.000000000000000000e+00 1.000000000000000000e+00 1.000000000000000000e+00 1.000000000000000000e+00 1.000000000000000000e+00 1.000000000000000000e+00
2.022405076709898192e-02 5.451218913596259652e-01 -2.330194730451992102e-01 7.478361638585886428e-01 5.156667417919653662e-01 5.160439399448848441e-01 6.165916851731793047e-01 2.933047767035673048e-01 5.267100617724899125e-01 5.045646197056107285e-01 1.080072183552100107e+00 -6.927100044947662738e-01 1.402737291205870873e+00 4.528222428165375457e-01 5.179956546421947694e-01 3.950466508066063365e-01 8.875440294611044445e-01 9.764361758485428089e-01 7.045989692155538719e-01 5.136069311948723293e-01 3.961887051094223344e-01 9.827520160489313650e-01 4.220747330287368260e-01 4.853731421489712039e-01 9.480055589192395993e-02 6.734565033791553024e-01 3.747556508657320373e-01 6.559961599382956310e-01 5.519171847549528831e-01 1.572835136024657965e+00 5.170352077945858937e-01 6.111581616153309859e-01 7.195543562878524702e-01 5.023388974539269025e-01 7.060281594981538955e-01 4.508759261650696626e-01 5.191056399862600257e-01 1.783502603108152451e+00 -6.954403575553623484e-02 5.266732712224555524e-01 -1.680406432095704061e-01 -5.609263752223400123e-01 7.493786251429215284e-01 2.261247394398339106e-01 2.805317579444816523e-01 5.252406912111272641e-01 7.482181632737955335e-01 5.224363280117565456e-01 6.187061049738796781e-01 1.946666887617361230e-02 7.943006718846590611e-03 8.205215831534190540e-01 6.752023124809448662e-01 4.466287056140737510e-01 4.566408754467000120e-01 1.790667436132731272e-02 4.867121705377274732e-01 5.311172452642605180e-01 1.905674891277858718e-01 4.667688253456269698e-01 9.143283559260868554e-01 5.257731285122392295e-01 5.417275986361147488e-01 4.220748058378102630e-01 6.808190513758363149e-01 5.766057103121829952e-01 5.175408508329829571e-01 3.148650886117984049e-01 5.588972534549699889e-01 3.883864566120008403e-03 4.202132152836617895e-01 5.379430427609969145e-01 5.126368709696728088e-01 1.901640529848534072e-02 1.505216750356573430e+00 5.540898946225415456e-01 6.344587738418588918e-01 7.337487007198454370e-01 5.187227242476083466e-01 1.382833157476205832e+00 5.092604616679600182e-01 3.133498998403160263e-01 1.398833081399715184e+00 7.145257129324847911e-01 4.935074835086546985e-01 7.560017011796892339e-01 8.076949032822127172e-01 5.478635973405392434e-01 4.118334109652829755e-01 5.758951240181642284e-01 2.802150860364795437e-01 2.172695959264848486e+00 7.452336452084127316e-01 -2.253340791725300454e-02 5.364187093095132974e-01 4.831688700076868237e-01 5.597681957825393351e-01 4.764817481915328834e-01 1.895135665538420500e-01 6.684148635011212258e-01 1.602568220237876817e+00 6.890169211478822664e-01 5.512207548129656187e-01 7.138392172692455961e-01 8.600803159073681092e-01 -2.059570829969285199e+00 -1.214358569009291511e+00 5.418017849088749838e-01 5.876098803313667407e-01 9.715560548038675304e-01 5.547185816050812512e-01 4.420820638554170956e-01 1.671997033658009779e-01 4.875471777326172984e-01 5.213970914559199477e-01 5.010731779661963259e-01 4.909683520029706760e-01 5.419401730314716836e-01 9.187427955873616048e-01 5.166197035357300571e-01 1.301569447946210767e+00 5.535115223641294824e-01 5.832267519249941801e-01 -4.279266952140507452e-01 5.096948805360913548e-01 1.943286034009459762e+00 5.583553623896585494e-01 5.470377890156480349e-01 6.856987083996269883e-01 5.139261033733951711e-01 5.002610820737085628e-01 5.191983901917485156e-01 4.200640316209324210e-01 3.334388745242741758e-01 -2.800299243004715222e-01 -1.636908295638689614e-01 6.404137900822426399e-01 4.955712091849249351e-02 9.987823689660666471e-01 6.389460129287415358e-01 5.174843851867407807e-01 8.636568467229565060e-01 6.096692865627009184e-01 5.856622097141750416e-01 5.171912709313262191e-01 5.161987827508466437e-02 9.118546075809563778e-01 4.589280991382452962e-04 4.518233595643318390e-01 -8.852742685081471663e-01 7.709626143569741075e-01 -2.951168338411234715e-01 5.252378567441021717e-01 5.574815447806569235e-01 4.547383891459770289e-01 5.168974387827836026e-01 1.936941251269473918e+00 -9.945998881322781759e-02 8.138076670791782874e-01 6.914699136539455004e-01 5.264974131567313753e-01 4.128751314930328986e-01 4.969535680340339545e-01 5.181394470542804997e-01 1.081812260394521275e+00 1.846874322452176642e-01 8.491580966346498061e-01 3.767993586776219872e-01 5.050567036161518475e-01 6.521577808046269409e-01 4.953994762585635647e-01 7.462250069528448826e-01 5.252436408894722852e-01 5.161908441946125858e-01 4.049709440538131755e-01 4.288697718159280997e-02 1.912165518406855613e-01 8.821888991073563446e-02 7.458368724413495521e-01 1.141881053133621426e+00 7.015572950276528497e-01 5.264434979598112685e-01 -1.788523871514986485e-01 4.440328194516551807e-01 6.381644533954824450e-01 5.316083050703347412e-01 5.115891766492071113e-01 5.133273947096131939e-01 2.782828084708183436e+00 5.557605541463281895e-01 5.349542719970034055e-01 -8.867754208690631357e-01 4.940461296857515117e-01 5.578005741504709070e-01 1.868427042080915701e-01 5.156782923797418317e-01 9.336161199097555707e-01 5.085032107813085567e-01 6.215819091885441683e-01 4.307112391763321391e-01 6.266080433637947200e-01 5.135067459326626560e-01 9.262610047449173489e-01 6.007699080035521222e-01 5.432315155319186184e-01 6.215818466968140443e-01 2.498767600138547540e-01 1.286815987493823865e+00 5.431934753249504366e-01 3.902465831835569277e-01 4.339452710988833117e-01 -8.100063188030680317e-02 4.808552813039886908e-01 1.591816329560676868e-01 5.265145972165807819e-01 5.201811833211679170e-01 5.127779502339263606e-01 5.121873062039616897e-01 5.136328756121139039e-01 5.151351410171473022e-01 4.382786530990076534e-01 5.980000742761178989e-01 -7.052679981314767810e-01 5.943449043669994936e-01 3.693434724456247653e-01 3.799187587365729368e-01 1.002619350080545951e-01 1.300583062497619125e+00 9.576106964650418218e-01 4.977712900320530043e-01 -1.036537521640105569e-01 1.054156042259348336e+00 5.189657741463375995e-01 4.445371853075724133e-01 5.639012327311264672e-01 4.133623050267415389e-01 3.430729634584342436e-01 1.867270718223820458e-01 -1.528957188804744294e-01 -1.018980201324811707e-01 3.714149707165292358e-01 5.172170038257654090e-01 -1.057152292021906193e-01 4.375490683161976091e-01 5.141264926724270490e-01 4.776374682373128455e-01 -1.006244134995632478e-01 7.513035808146089067e-01 -2.267216631598330867e+00 6.079962052542932094e-01 -5.924371611272565286e-01 4.970356686087293308e-01 5.194186937912090851e-01 4.220729883241587377e-01 4.736519523688331179e-01 5.615432620273738129e-01 5.386466763019157611e-01 7.559136908971935132e-01 5.516176195490140044e-01 1.689662994871322876e+00 6.775820210856327019e-01 6.928721068642189618e-01 4.832951464159138677e-01 3.517363207881175624e-01 9.143283472783425569e-01 4.052665413767082003e-01 2.668727970305766917e+00 5.153566449388831128e-01 2.342819870430820350e-01 7.198592624489281722e-01 5.090057419461893051e-01 9.141228788110075110e-01 5.160717783055289720e-01 5.532804268126692016e-01 5.177386871373139687e-01 1.093155802665255916e+00 7.687864104397436060e-01 8.633894945584266178e-01 8.083105411217667013e-01 4.344289314283428793e-01 6.783193415320126762e-01 5.281521526054673288e-01 3.871680298040355850e-01 -7.172266183951698792e-01 3.850546457378073439e-01 6.230562784830141476e-01 5.608431215101070677e-01 5.033341309937154895e-01 5.010731373811373457e-01 6.074884219371650129e-01 5.474586343888082629e-01 -8.258730668543114994e-01 7.170363090716863619e-01 5.402562979745154648e-01 2.697597051746401103e-02 5.579324787051223034e-01 1.848290617999299723e+00 5.014164222310248942e-01 5.182100023856338611e-01 4.518137522088153113e-01 -3.399937447711182781e+00 5.179365054546484215e-01 2.792931085187856155e+00 7.465805752746730306e-01 5.403894710363190690e-01 -5.779799764897043390e-01 5.220650040098074873e-01 5.164792605764443323e-01 4.370993628888000804e-01 4.537213002523949879e-01 3.653404818197477089e-01 6.412584022562014541e-01 3.144546939421335452e-01 5.197593839178505926e-01 5.179958960162397430e-01 3.546394513636272339e-01 5.227523943711763765e-01 7.469080883649024116e-01 5.155487047171730675e-01 1.197134059731509881e+00 6.178438968017794033e-03 2.215550561908645744e+00 2.630778546504962456e+00 5.195928245494615405e-01 -2.102892643680177032e-01 4.210424851928820100e-01 4.023110898320135798e-01 7.295226377839966192e-01 1.373490625605063409e+00 5.360608634210862755e-01 1.124350374598674707e+00 5.178250767295045076e-01 1.246668725991953858e-01 1.251398035388886276e+00 4.383647266428318812e-01 5.329397569510154753e-01 5.020941521077696423e-01 8.915442145417151742e-01 -3.696369853532286864e+00 1.628468765356906989e+00 5.376369651645281911e-01 6.380829942717639591e-01 5.157261804491092283e-01 1.783502604599156438e+00 3.051575156203414352e-01 5.479152619018508030e-01 5.392292340258266758e-01 4.492262677359690204e-01 1.378773441087753904e+00 5.877128578690572480e-01 6.215820643413753066e-01 4.375530820263749954e-01 6.007699111016517879e-01 5.771494837775278386e-01 5.658574317366473760e-01 8.951940786380350179e-01 5.163812400975992256e-01 3.877803560304418640e-01 1.942950601591661441e-01 6.582053300373211790e-01 5.141719697902785713e-01 3.875260626889212023e-01 5.479152577779174971e-01 6.595538668537008764e-01 5.120082915975029403e-01 1.014743077199582677e+00 9.809131708908729319e-01 1.133337168388449001e+00 5.121185486906477680e-01 2.306214607738786559e-01 9.143285145737550801e-01 -1.090904611053016698e-01 9.334090819805533901e-01 6.287425782948988795e-01 5.472240295879473443e-03 5.820554104082495961e-01 9.653437045562994756e-01 3.888539177591977536e-01 5.133001272499155831e-01 2.827638295759607456e-01 -3.335227140047229977e-01 -2.454505063936764930e+00 4.824223200174420634e-01 6.007699120988304609e-01 6.007699487561170004e-01 5.011860580670360887e-01 4.177768908265379055e-01 -2.169367825504745773e-01 3.150592755210861462e-01 5.183984413048177142e-01 6.824814924071581634e-01 5.156892932474295144e-01 1.049203273344025522e+00 6.215820762071357919e-01 5.171901242644560970e-01 4.835379989230635944e-01 2.703554115264089619e-01 6.537587589581843606e-01 5.251663622316098401e-01 5.152471068546992106e-01 5.430040396364095301e-01 2.841303363712880392e-01 1.949063090532826559e-02 6.007699120237455226e-01 6.592576145462439863e-01 5.195306954267722155e-01 4.153349546055986607e-01 8.584304630830029703e-01 7.080335489489926193e-01 5.635573461144023355e-01 1.846873267866309121e+00 5.121119286572778373e-01 -3.049887927181085256e+00 7.481447584824102437e-01 1.517134813903718182e+00 5.386787292939611005e-01 -1.063416202061148841e+00 7.587981504707893565e-01 4.537400422282053536e-01 5.218431384236079662e-01 5.178714838935016829e-01 -3.285394053208104403e-01 5.120877364196966264e-01 1.068681104270876370e+00 5.720314606535741309e-01 -3.501784393719122312e-01 5.181605317998739801e-01 5.137462322556811678e-01 7.777993304919140760e-01 5.407942736706983222e-01 5.449188883954880769e-01 -5.190501898615799137e-01 5.615613136184719467e-01 5.226689635253338739e-01 6.675018046486741463e-01 5.390954737357998017e-01 7.664708945029607978e-01 5.194057215104557201e-01 5.942621243802984621e-01 6.471892432786497951e-01 5.340129337714039082e-01 2.997088141731544253e-01 2.877895128939363945e-01 3.282318279315248888e-01 9.602273606138834738e-01 5.497223728079698724e-01 3.188322246693892748e+00 6.597162281516868454e-01 6.285569271538480329e-01 5.549827259014586955e-01 6.060446622998029165e-01 2.720344075597238079e-02 4.861351878219102307e-01 5.401007744289787471e-01 5.124949752075512732e-01 1.163180707182413620e+00 7.663682469271584363e-01 5.067818282748307590e-01 4.455372378006590139e-01 1.116704668029097292e+00 5.049857747495694049e-01 5.577332860708884565e-01 5.335196943369742151e-01 7.707817268144115941e-01 5.166043399357176380e-01 9.284485269836197929e-01 5.051808138187050545e-01 5.178300005108766868e-01 7.147905113664245955e-03 5.104283526600696952e-01 1.135692014791115680e-02 3.358090321646240994e-01 4.101645789593317271e-01 5.702418022446105184e-01 7.772603945479824583e-01 5.169939143265107617e-01 3.927680011828762474e-01 6.884861439230692548e-02 5.252726353340193555e-01 5.513321887847784097e-01 4.712160976349262231e-01 4.410767448672005264e-02 5.186639240265141781e-01 2.461680523708775215e-01 5.194524538549264436e-01 4.187045488850144048e-01 1.255967370555775231e+00 7.819975659462987672e-01 5.485068254398220988e-01 2.638796743012224999e-01 6.964968449944221041e-01 4.262932084243905018e-01 9.918770129012740577e-01 6.015329750628589656e-01 5.777610469548887240e-01 6.919351597278368127e-01 1.986939168613050644e+00 4.593716218677150187e-01 4.532110269508789480e-01 5.133799217144064952e-01 7.173616090911086873e-01 4.745246488972902354e-01 8.386992505074418736e-01 -5.701599101841861028e-01 3.397728987617580909e-01 5.148449981205597270e-01 4.274175863584075419e-01 3.718815639012426622e-01 -6.124089211568550795e-01 3.886152007623936422e-01 5.147455291424435364e-01 7.370673230335595960e-01 6.662060806923986167e-01 1.465775126030113507e+00 5.131473816581891834e-01 5.122704339078096858e-01 -6.983489536738670678e-01 5.169620490814694769e-01 1.213704863996980299e+00 7.052401813538661246e-01 2.651401153059531057e-01 2.648135325538403251e-01 -1.660537128970730247e+00 5.003658716160709341e-01 1.859867033674515724e-01 1.097936831227291687e+00 8.161338587786248766e-01 5.128471862356713817e-01 5.157602316499175776e-01 6.286848649289955571e-01 7.479036903519437063e-01 4.488481127451318109e-01 5.610081867798447641e-01 2.928785180197318247e-02 5.041029752286138033e-01 6.183860924739433829e-01 5.903148055893635560e-01 5.048516314977409269e-01 5.366667906070644589e-01 1.204601743315174112e+00 -1.052505898517131777e-01 -2.332627480944278187e-01 4.266352568035100545e-01 5.450264077249140637e-01 5.484468930416641630e-01 4.953835792889969558e-01 -8.496154167148656233e-01 3.153392287558118845e+00 5.599879337069668672e-01 4.497031230830423332e-01 4.191565772401500967e-01 5.212733146318853095e-01 5.128850525700472396e-01 5.942186752673376260e-01 3.257774038184785281e-01 5.898590639803623636e-01 5.191971209376697871e-01 6.108960673590446699e-01 3.542422253739670457e-01 4.353941173194113001e-01 5.428187093528131779e-01 4.058785789006646438e-01 4.959040619640881498e-01 5.470851767580618974e-01 6.565452578923427485e-01 1.008331788153261188e+00 2.309691174321512719e+00 5.470853117687065614e-01 4.961529306160537556e-01 4.579754672893396883e-01 5.093954856388153152e-01 3.657450136934762841e-01 5.171034996046223187e-01 5.185004422517099920e-01 5.240840695745280220e-01 5.116878193034333222e-01 4.764293013002335875e-01 7.474595741144423044e-01 3.665665873292485166e-01 4.912642530322302581e-01 4.729936090046947261e-01 5.475924749672287373e-01 1.189788592668701017e-01 9.143283466847409446e-01 5.597266816781215626e-01 1.250617464624739494e-01 1.910153420604988828e+00 2.802972825727129691e-01 4.331963387771816110e-01 5.888845410938482461e-01 6.231721710345728554e-02 5.126955368142374070e-01 1.509201662788392850e+00 7.721824869653981516e-01 7.580701782939850419e-01 5.146759038693258237e-01 5.482321307623225781e-01 4.749570508043410300e-01 6.521576780948810104e-01 5.035963627316611957e-01 5.135821920456929979e-01 -1.991250750367410671e-01 5.499982427303571342e-01 -1.450957591604002950e+00 4.968987252596849258e-01 5.013925946189093930e-01 5.389146143422335333e-01 4.517996385791602787e-01 9.143283466333349541e-01 2.213697125131592613e-01 5.498184415144913295e-01 1.331917251741556063e+00 -5.498869380509786575e-01 5.152354266361247603e-01 1.130803175160382423e+00 1.505613576026015199e+00 4.443881764013506430e-01 5.180867840152387771e-01 -5.202101689269311713e-02 -1.667700028695660919e+00 2.782336587542891260e-01 7.781573466660969274e-01 5.190139300578251458e-01 5.205441121288768569e-01 5.629515478112182558e-01 4.855394642171350639e-01 -4.019949735454664275e-01 8.166401898476880472e-01 5.010738177980030850e-01 3.343474766694801148e-01 5.517227731949955194e-01 -1.460708262354205693e-02 -1.725096799310403550e-01 1.780513044664536526e+00 4.147670621236304589e-01 4.868179863001250718e-01 5.136111064334656362e-01 3.281183070072749564e-01 5.974993794882892395e-01 -5.989594171193656641e-02 -1.113007230794787805e+00 5.205980592097002591e-01 5.214407862589848230e-01 5.405303439838076152e-01 6.165167505755098087e-01 5.374453171604599566e-01 5.443334992148857188e-01 5.610282609739406512e-01 5.753130730419533378e-01 1.029815647069596718e+00 7.251748252108430881e-01 5.377241416415677877e-01 5.808716808940109777e-01 4.542876385604345812e-01 4.284126285282121582e-01 2.512059735585540909e-02 5.479152563107193563e-01 5.017666987784490384e-01 4.725288042826358281e-01 7.553188484816353299e-01 9.296390879512451688e-01 8.387157434805539991e-01 -4.938917081641250872e-01 5.375333195237577133e-01 4.656990939652631001e-01 5.158399873677154135e-01 5.852036324026512748e-01 9.044731027991591565e-01 5.629600755691669400e-01 5.245607041341491250e-01 -2.404017033353398336e-01 -8.601686399993559995e-01 2.282632376793747309e+00 5.123037071844394053e-01 8.935331657334170119e-01 4.450808872601013100e-01 5.722250442747303101e-01 3.741158367302208076e-01 1.499463876713708621e-01 5.141894538812481485e-01 5.493284773486212247e-01 -2.985702551530907550e-03 5.244281666126126007e-01 4.276628068704853569e-01 5.226629197616107225e-01 6.750036005293991170e-01 5.161336155566468298e-01 6.044776849669398766e-01 4.012890125727537893e-01 4.866359237582117969e-01 4.008148814885568179e-01 5.159052359638977014e-01 4.222237901750410805e-01 5.083928224656342199e-01 -2.784353360640356434e-01 5.102211314133573428e-01 6.427609884090380588e-01 4.800494077642325497e-01 7.480538783119102808e-01 9.143281643496574684e-01 7.320275183939803920e-01 -5.925191207863635956e-01 9.886868245818289935e-01 1.783502603089543559e+00 4.874995639165628503e-01 4.638335955544996003e-01 1.075201571264800871e+00 5.580202113031115241e-01 7.481645657043108910e-01 5.130793990441389063e-01 1.817288400780470603e+00 5.180120804308603333e-01 4.375492557192589560e-01 1.234050439950653555e+00 -5.870275592474585163e-02 5.614295869117277293e-01 -1.642264695690708320e-01 -9.527911921909307802e-01 -1.723611452951605560e-01 7.761406500411822673e-01 5.606504824127834796e-01 5.298589628138148377e-01 -3.299379622227396336e-01 5.045869425508782147e-01 4.383621892044959473e-02 -3.708164097739493625e-01 4.870226355853983780e-01 5.131543391639408203e-01 5.136082137513211521e-01 5.591381983707570669e-01 5.526905644156777653e-01 9.073490223242741681e-01 -4.020146470619727075e-01 5.151535438541842149e-01 5.632761736108776729e-01 6.169319431794458852e-01 1.164206459710821040e+00 5.036540682573980021e-01 6.378818407923696476e-01 5.151604327119005955e-01 3.790680546762417030e-02 -3.282344504143944186e-01 5.272542117081777668e-01 4.996159940032102176e-01 6.752890954169432636e-01 5.059930705336508350e-01 3.427951444808965964e-01 5.168855371001482846e-01 5.132869216536709578e-01 3.588762933201083971e-01 5.175785214812401724e-01 8.386123893539967344e-01 2.544464623251861290e+00 -2.408504314046804595e-01 6.647879683408978169e-01 3.307511985729784110e-01 2.131987685318131598e-01 6.751211272255500662e-01 -5.738402753061446621e-02 -1.519867032477972391e+00 5.181803713788089016e-01 2.605752963449325499e+00 5.116593506459702345e-01 1.533125743093359250e-01 1.720966184282378408e-01 5.010731780806719771e-01 5.743093224257042051e-01 1.552998844540980361e+00 4.920444719407860434e-01 1.259857803751466554e-01 4.343320676309374018e-01 1.689972765366356544e+00 5.907428094481558256e-01 7.445847521180772866e-01 5.327162251754337108e-01 7.401031147332267635e-01 4.570774483664129528e-01 5.662030713627985712e-01 1.547542108809186849e-02 5.107269493632193846e-01 4.876720787827551473e-01 -5.704984406557445098e-01 -5.640385288516897022e-02 1.173374361847947522e+00 2.364850293003208370e-01 4.871753218122356066e-01 6.922145292995441901e-01 5.485006541045466255e-01 1.998650068830538418e+00 6.951164818806631063e-01 2.785686456126180641e-02 2.890994416946511270e-01 3.982738525786831962e-01 1.111566425252319856e+00 5.126650338462824807e-01 -2.598343837053123870e-02 5.153389359631155298e-01 -1.835118022355556461e-02 5.131568910209741707e-01 5.134698693185330010e-01 3.300216102648909685e-03 -5.690340091570324915e-02 6.674684705824817099e-01 6.046886138147772316e-01 5.561121825033431554e-01 2.661684977738972835e-01 4.699538707442678653e-01 4.936376557690464462e-01 5.536371608275162393e-01 5.584144292845597546e-01 4.798213236149349026e-01 6.211221513472089395e-01 1.015774900983415607e+00 3.114842198087441449e+00 9.209483447024421343e-01 5.150143394179526046e-01 6.389759685558403790e-01 2.132931378330341077e-01 5.141494288539416591e-01 8.440285129934953501e-01 4.931087902706429715e-01 1.316457789681059865e+00 4.522801936581359317e-01 -5.733516488944420120e-01 -1.583437673474668086e-02 4.079934090074980868e-01 6.125029384611661021e-01 4.948435776331671088e-01 5.224220294699921663e-01 2.928778912998875744e-02 5.446826374123748815e-01 4.018484907286313246e-01 -3.643939211724277261e+00 4.836452870058551845e-01 5.177937057796200282e-01 1.124905234901474538e+00 5.146858998044459010e-01 5.448825425304393288e-01 6.820350489335639255e-01 -8.778340729222270378e-01 -5.046956469111860688e-01 4.548504815455079592e-02 5.156187758275918576e-01 4.291882848866196420e-01 2.195887625160403145e-01 4.990423930582988388e-01 -3.357652175209215883e-01 6.221170065644779923e-01 4.982887886636589991e-01 6.945237357284759216e-01 5.411563491325105391e-01 4.733794938027772181e-01 1.588486038180745297e-01 -7.477425831663505607e-01 6.539774716344602945e-01 4.992422442584400488e-01 1.625695003869394029e-01 5.151280133238511638e-01 5.775713088913076998e-01 5.306244015133497749e-01 6.712988201804183097e-01 5.710589518647737339e-01 5.412581043159947480e-01 4.999680362563556635e-01 1.783502607850966593e+00 3.645763784402047958e-01 5.486353579376305190e-01 -1.158374332114480154e-01 5.520374543835663284e-01 6.252655818585409753e-01 5.222814400921582667e-01 4.961447954706231789e-01 3.509866652344182381e-01 9.274002835976561387e-01 1.195745236701803771e+00 5.569869507260361008e-01 5.729159457262802402e-01 5.960257637584722712e-01 4.661147864811496788e-01 4.851841887486572080e-01 5.166115789940702863e-01 9.886301041367943077e-01 7.211705008144746465e-01 -4.537351946992017604e-01 4.503724021054423821e-01 9.154341794662840259e-01 5.025746611778588724e-01 -1.318129859953636428e-02 5.107897375810012131e-01 1.291466971988261880e+00 -1.387065339988955981e-01 5.794406087084330581e-01 2.468414986394746324e-01 5.405785749111596816e-01 8.291457674036336600e-01 5.110764494060693330e-01 3.686886133175223401e-01 1.396836286040945785e+00 4.809777901133798772e-01 5.286232868705158516e-01 -6.448226617556389595e-01 4.538048321031690202e-01 1.042607837199438059e+00 5.979187956635624301e-01 8.886819758313839468e-02 9.619068339479258656e-01 -4.921520012000613759e-02 6.216029251193695426e-01 1.608630263095468971e+00 -8.554377333897207336e-01 5.573901136321077754e-01 5.155500554523960721e-01 -4.497152759914316289e-01 3.183569192146459836e-01 5.944716925727503432e-01 4.766390500903685545e-01 5.178011779851550145e-01 3.660102174070882786e-01 2.635567284371841401e-01 3.447537116114339772e-01 5.594849807283575061e-01 5.154054007002436544e-01 6.048580433970508416e-03 -9.231963335855601638e-02 5.317240321749423515e-01 1.061801901023386563e+00 4.401685302550477630e-01 -5.704078877416858262e-01 5.642387838191603722e-01 5.165815356467813313e-01 5.166360632868676195e-01 3.819442101262132683e-02 3.345086187035631875e-01 5.141678282510881992e-01 5.297669801727455940e-01 4.526923209175257035e-01 2.654879002370578306e-02 4.766315584841024910e-01 5.137913447124726751e-01 6.398959753145211371e-01 2.078853556422300297e+00 1.218217870601371461e-02 3.839457507186087026e-01 5.003623441408675543e-01 1.824480839138253208e+00 5.819554616002265979e-01 4.825585961993289486e-01 1.569741073996113942e-02 5.479152651554900499e-01 5.219475866557825583e-01 4.741091077477060933e-01 3.810174428630808130e-01 5.063022929133681460e-01 5.098531947404917331e-01 5.664397013206488030e-01 -5.237240848291674356e-01 5.155172817029795018e-01 5.412712302378936968e-01 5.288411397675574221e-01 1.059571405044380521e+00 5.068508122869639365e-01 -2.427547961003095334e-01 1.071137063027846503e+00 -1.251447752470959074e+00 -5.163282830319593231e-01 5.205724993659818223e-01 5.160532078113876375e-01 6.507985752164529014e-01 5.131405363848959844e-01 3.967427638086505337e-01 6.013513074343298515e-01 5.479152652115786282e-01 5.150879475743925795e-01 5.420302127922204116e-01 5.835334330493801014e-01 5.151441019206867145e-01 2.921760260950235777e-01 4.992188299923498995e-01 4.899166710233101574e-01 3.766058016401255260e-01 5.042058105897145870e-01 5.224198050002940574e-01 5.486245917762874180e-01 6.443600533832659627e-01 5.199724570561107262e-01 6.785345804395668257e-01 4.869456281832927891e-01 5.178969805614520583e-01 5.436555430603875472e-01 3.593438923229458348e-01 4.180915378390873127e-01 2.399093023483731102e+00 5.053570634420301300e-01 5.855029141130179138e-01 3.090599284399245250e-01 5.832802741273027669e-01 1.109923720740469300e+00 4.841695436505655259e-01 7.068975519700992916e-01 5.181837506457922515e-01
6.943879742480079109e-01 2.899553985241434817e-01 4.221887928227410214e-01 1.635875417304191379e-02 3.181350299802498949e-01 2.964827213406375783e-01 5.313738918388405397e-01 4.374701443251270971e-01 2.531725606940599116e-01 2.927564054258458559e-01 2.043207606251816522e+00 1.709017035681892782e+00 -1.433477106981562388e+00 6.210940262908821730e-01 3.104480007373326411e-01 4.193558439901979851e-01 1.297393864199390401e-01 4.306367257350738331e-01 4.410027677787537459e-01 3.086258560621175095e-01 4.643791205300367153e-01 2.103644953868834655e+00 3.915620044353759766e-01 3.715448897975737741e-01 7.226008908246790430e-01 -2.297315097419562469e-01 4.517885142751369987e-01 2.285733502304755083e-01 2.790059342832448275e-01 -8.666134448977229621e-01 3.058680671815811047e-01 -1.235776421672024478e-01 2.890392026817020232e-01 2.748940067881096017e-01 -4.247330768231202258e-01 4.632057173501401004e-01 3.035629480544155823e-01 -3.479538841016409645e-01 -3.214077566896882399e+00 3.390424828779827759e-01 1.138827364675751186e+00 1.411505316369963681e-01 -1.653642378584865846e-01 7.917516222044412855e-01 6.252976466083265406e-01 2.974954276595069835e-01 1.592596677162936430e-02 3.340373399989312042e-01 2.255694813674047339e-01 6.763175850525139365e-01 6.788913310775901433e-01 4.724390923970641643e-01 -2.393618466378834575e-01 2.079819337739873264e-01 6.039680078138385255e-01 6.582651990443894041e-01 3.620488788210781128e-01 2.567486783495296909e-01 3.469773269886273770e-01 3.566767582003135262e-01 4.251083358526054345e-01 3.967249395171318915e-01 3.000455738024209174e-01 3.915619987840740501e-01 -3.464923297707699912e-01 1.744750744926100994e-01 2.914074580596826003e-01 3.296415172749726508e-01 2.119653369303153290e-01 7.276464377628272251e-01 1.197914798971072697e-01 2.805455658543551944e-01 3.207577507072547629e-01 7.238000667944903821e-01 1.908968733837980603e+00 4.905531897987732148e-01 4.703977504278122890e-01 4.803079206401303369e-01 3.147285594600720549e-01 -1.330078189447818637e+00 3.145451386374646940e-01 6.115062164602408368e-01 2.300018462541017605e+00 1.032803991120828241e-01 2.731225777998751991e-01 -4.058048906192544547e-01 1.258501089036367371e-01 2.695116044210342787e-01 -5.744036218494433799e-01 -8.794477307557081458e-01 6.257840112532091492e-01 1.566696633696710528e+00 8.224256925854463163e-02 6.948357338376353054e-01 2.815675616885831012e-01 3.116021948606899072e-01 2.740047019979246490e-01 7.451064157950616496e-01 7.381799743628304489e-01 -2.352224553539675744e-01 -1.710288241399076647e-01 5.508302893885189122e-02 2.675799967655853040e-01 2.151795856848740252e-01 -1.028470808505039212e-02 3.082528646938212713e+00 -2.831941431151772104e-01 1.411745819090667597e-01 1.479015962578154320e-01 8.087822645964743984e-01 2.391658821828996084e-01 4.555131658778970860e-01 1.660057080976804211e-01 4.532702473514318986e-01 -4.873630557224080118e-01 2.064957870350734581e-01 2.237198668042449101e-01 4.247459477621633450e-01 1.034677786237996999e+00 3.138594402107093284e-01 -1.443347495085014698e+00 2.215105717824381315e-01 1.620319488998099855e-01 1.353841330109671004e+00 3.228651311524801670e-01 2.155361718628223677e+00 2.230208892385049657e-01 3.233456107234637389e-01 2.986756956042120881e-01 3.068650764545398646e-01 3.083946565408763330e-01 3.196459231701877512e-01 6.752173780250882995e-01 4.135539314004905709e-01 1.762906572854318343e-01 8.714367375190996690e-01 7.071295347780035545e-01 7.222447986166383727e-01 -3.321165694407268165e-01 2.012187429451051113e-01 3.629880547604397156e-01 3.215833889814657121e-01 2.802570015912470014e-01 2.861657944413468213e-01 3.174715807875961859e-01 6.933773099467724910e-01 -1.376510453615121532e-01 3.187838889152994626e-01 4.487358037439078684e-01 3.975949186989789497e-01 -2.593357232816749791e-01 2.237931439047968415e-02 2.974987922500492710e-01 2.649160984043548717e-01 3.395699605891518424e-01 3.199006737158716085e-01 -2.316822291306558590e+00 4.522094203606292218e-01 -5.916462339826519257e-01 -2.373849551357001542e-01 2.628972603004027242e-01 2.466740052020219010e-01 3.319571591584337122e-01 3.137060217448143229e-01 1.149018416432222717e-01 7.580118176733643964e-02 3.152704615531505272e-01 4.343882005645390287e-01 3.220016900586616382e-01 3.452459896532441563e-01 1.786895492326764368e-01 1.429746704487672680e-02 2.974551949259245376e-01 3.105630287167409076e-01 -2.485021491889780609e+00 7.020452063612983018e-01 6.175404345947504980e-01 9.683716527787756823e-01 -4.550204998273460477e-01 1.170480806468086943e+00 -5.359288929360541028e-03 3.056872219796648582e-01 1.232756800827967680e+00 2.856255341145949589e-01 3.063945644849587202e-01 2.578054776004944926e-01 3.493814254111222706e-01 3.256481595552055408e-01 -4.701474335986586262e-01 3.200820264427856610e-01 2.403889681691792068e-01 8.090036819633594778e-01 3.210486104892407710e-01 2.698523438965561017e-01 2.300903944776274135e-01 3.219884581577820426e-01 -1.636452514654866297e+00 3.135165965235946484e-01 2.306653425059732310e-01 3.528978416113659478e-01 8.733552959355948830e-02 2.754106690689990256e-01 3.814765785764799855e-01 1.345374162646889304e-01 -7.901953164864846668e-01 2.306653729914464324e-01 4.625810346660104155e-01 -5.092242221873958252e-01 3.612306255386514287e-01 1.636418072737511331e-01 2.548828355759159559e-01 -3.221457572212162557e+00 4.483009990477646589e-01 9.314639915911624435e-01 3.059399412356463843e-01 3.107566747614005642e-01 3.147439736289035506e-01 3.398014357930401186e-01 3.215155163960510820e-01 3.149605622848097308e-01 3.372663944515158496e-01 1.441221289657763915e-01 6.618208719964249198e-01 1.198833804746924775e-01 5.117108206401730364e-01 4.702166070870656966e-01 3.893289231944206952e-01 -6.554281481395645148e-01 2.264294587118963253e+00 3.883788332763558060e-01 1.234715571644974919e+00 -1.384417717566901462e+00 3.186323835740461075e-01 2.143519142402020017e-01 3.515662737423717599e-01 1.159414050121432727e+00 4.971612680837514398e-01 8.037602926726152841e-01 2.811500493928781319e-01 6.699890823496489345e-01 3.016640068895044546e-01 2.870839803721573213e-01 -1.158177312658452918e+00 3.849986898263925705e-01 3.175816183829681116e-01 4.828622866435507421e-01 9.049741182202849510e-01 -3.514770554803421376e-01 3.117221810758943779e+00 4.835811907786088937e-01 1.241197838464397574e+00 -1.566207770554104983e-01 3.136081714508029972e-01 3.915582500596868076e-01 3.174690451684655801e-01 2.484196452416779777e-01 3.685163496920105253e-01 -1.112118180036187481e-01 1.358313544463402023e-01 5.613305354512266865e-01 2.732383334324869351e-01 9.274770569445241197e-02 2.565379985350302317e-01 3.797085779841588016e-01 4.251083283484695663e-01 2.641519664052178196e-01 3.200412834507346371e+00 3.755790644084449625e-01 6.545397006836194409e-01 5.408509424400279597e-01 2.456374683023929140e-01 4.253242672480447850e-01 3.217745229190953626e-01 2.769885033813410669e-01 3.138300555648841361e-01 -5.383302735269364092e-01 4.604634698819735639e-01 2.854272685066295279e-01 1.252123017544969075e-01 2.660034450327480871e-01 1.523993985739075185e+00 2.771138431956747250e-01 2.909638081806076859e-01 1.987463968333190500e+00 4.965952599093478304e-01 3.064040505960496374e-01 2.665115042533039991e-01 2.979541894438852423e-01 2.064954194925532061e-01 -2.051934017307040392e+00 2.678970700405837180e-01 1.505298625304589466e+00 -2.065810251159586400e-02 3.131146233256061340e-01 7.030580833903636861e-01 2.755912800533940610e-01 -7.173253708203595203e-01 4.233374424643722156e-01 3.257844817021564587e-01 4.487097084834169025e-01 -3.847742671654589830e-01 3.169917013661558425e-01 -2.184715498020920244e+00 1.466298934788176460e-02 2.861313308616529327e-01 6.041994110118458217e-01 3.114566116305725885e-01 3.165861969334269332e-01 4.684562923530724565e-01 2.037567566582722534e-01 -1.146830578732658812e-01 -7.584015535441996914e-01 3.095171740833461277e-03 6.846805173915300191e-01 3.299652229491723543e-01 4.949458415139944556e-01 3.106930297008916875e-01 1.522385708596252045e-02 3.167088717783370089e-01 2.421202885464039056e+00 6.955291994530041766e-01 2.467215419534014020e-01 -1.145509269622742465e+00 2.204159207653087482e-01 4.632474836470312773e+00 3.451242459675774032e-01 -1.330488545323628979e-01 5.694422267698072693e-01 -5.526695124161423500e+00 5.094271341904681449e-01 1.532309074259271986e+00 3.142845350410286009e-01 5.375336558199647063e-01 -4.385925257470314476e-01 4.021937773884274869e-01 3.308471016010220422e-01 2.815758652879054580e-01 2.423777439584705318e-01 2.897917576981720256e+00 -3.677058647879413722e-01 2.998715385951941093e-01 -1.903822780262539149e+00 3.366778889350972026e-01 -3.479538823177456552e-01 7.449836171779250504e-01 5.407149214072841659e-01 2.984493605596271193e-01 3.108908429663649331e-01 1.280699677256643687e+00 1.397585991185299192e-01 2.306652031268800196e-01 3.849931317567219513e-01 1.345374183515070099e-01 2.803838381090918430e-01 3.952377444533470841e-01 -6.050459449632296094e-01 3.158828842663183867e-01 5.449185679929081649e-01 3.792433068772185223e-01 1.665759458759479839e-01 3.162729386657485153e-01 4.703020650625693300e-01 5.407149434499518570e-01 4.063134815813064793e-01 3.166611186766863373e-01 1.941512237340919655e-01 4.344241884157053479e-01 3.367373466525038328e+00 3.078389025692556125e-01 1.498225742701908836e-01 4.251078931300210639e-01 8.498842659446842474e-01 4.654663971851975002e-01 -1.927889582287833636e-01 6.854085867460660841e-01 2.794706353413125011e-01 1.153123042074870874e-01 3.982789783518720372e-01 6.619563843697150451e-01 6.302731670877073089e-01 7.788123387847931678e-01 8.108772419337345605e-01 3.765674596241606054e-01 1.345374163178043592e-01 1.345373553498524777e-01 2.586220054727649265e-01 1.355207389320961242e-01 1.120040488318390537e+00 4.078675972899996061e-01 3.177614520270166665e-01 3.500968800258971725e-01 3.131948386360723369e-01 7.756471800109483450e-01 2.306649812855787463e-01 3.171972523475308225e-01 4.423507932716476132e-01 2.750512130671251554e-01 -6.325275422147474957e-01 3.164067373262218208e-01 3.199579036728112946e-01 3.732001218710971902e-01 6.971864896146644508e-01 7.294769407307155618e-01 1.345374175965743935e-01 6.532053475536500620e-02 3.103774941188074954e-01 4.618899535345521445e-01 -5.905892941876684787e-01 1.989248057968674710e-01 -3.477723938387765390e+00 1.935246192493252471e+00 6.316400864249518410e-01 -4.504178036438575283e-01 1.648617719632461398e-02 2.038525223653183893e+00 3.095828158316215051e-01 6.360618094030510150e-01 1.747053273186833719e-02 3.194240814167506048e-01 4.436715773823785569e-01 2.917562616324104185e-01 -4.508037697532210064e-01 2.579954773296003756e-01 2.041242647575292057e+00 3.513713760213708071e-01 -4.129389593289234384e-01 3.290417990135038884e-01 3.181010330824597387e-01 -1.449264887639700516e+00 3.214361383822785800e-01 3.543820057786908895e-01 4.029397909812499901e-01 1.823021420201954845e-01 3.111075290435680318e-01 2.204923936216865721e-01 3.234386584434270073e-01 -1.607045728769214976e-01 3.063414532982883243e-01 1.199329209242433331e-01 3.287517468545246291e-01 2.981365967997966493e-01 1.907760343633908492e-02 4.265804184087363948e-01 5.961736296524215994e-01 -1.369587398491551200e+00 -5.367040769644689790e-01 -1.083603188556387514e-01 7.371182109584353825e-02 2.693930068778023212e-01 4.275350299467886028e-01 3.625072136965387659e-01 7.292897087660552558e-01 -1.146431834964976998e-01 3.162176930403819974e-01 3.208972509707106457e-01 9.266940544493873499e-02 -1.604064565387455787e-01 3.039754176648137851e-01 4.481683849825349175e-01 4.791496863187672539e-01 3.219703407109227866e-01 2.610270406537688048e-01 3.147330685025881425e-01 2.566103651083225246e-01 3.144191956339958960e-01 5.088048271610378093e-01 4.226053572585702911e-01 3.139052401704077733e-01 6.840194638570368246e-01 3.269852325722076292e-01 7.314598838342668552e-01 6.903927258806487333e-02 5.105025362424392421e-01 2.314385542059869683e-01 -1.440769738298572911e+00 2.978959987037644308e-01 6.449396958864993534e-01 3.791975648178385616e-01 2.779419267092762547e-01 2.749331540272296204e-01 2.336882676421815908e-01 6.905234828623643129e-01 3.101443308013888678e-01 3.819365327913240016e-01 3.137814137104116274e-01 2.862196066841300457e-01 2.093607636582497378e-01 5.158572181560207026e-01 2.865858685085368451e-01 2.439564971810020966e-01 1.499630192139050910e-01 5.290160025806629751e-02 1.622980528832856040e+00 2.709243853435998606e-01 3.700932521535847397e-01 3.777662162402817825e-01 -8.327801383974005045e-01 4.087899577520596184e-01 3.084990677120812985e-01 4.824945478925388720e-01 -2.077650278148325189e-02 3.225958831130811832e-01 1.550513287864056400e+00 8.885256906334161320e-01 4.154438366537703264e-01 2.925236687511841294e-01 3.703625052160919862e-01 3.318013562300587971e-01 9.149195949048474219e-01 3.010116686136117714e+00 3.150651687974614923e-01 4.510238232875272979e-02 5.931386510233780385e-01 -1.845649204509671182e-01 3.130074586395130143e-01 3.081385458309983116e-01 1.061997891377786551e+00 3.074491887304267035e-01 -3.166362748574221286e-01 3.750031323151630791e-01 1.204235380077563478e-01 6.522026095274833235e-01 1.728574904409979407e+00 3.285271690332495775e-01 2.476609858829959265e-01 1.651280473133118543e+00 4.078732637320892085e-01 3.277814409440004684e-01 2.255323340410610167e-01 3.046444267389752936e-01 1.585605926558794274e-02 4.728021849959960221e-01 2.374717250822733772e-01 7.294755072575724864e-01 2.690200005367761049e-01 2.944042591576476742e-01 3.024674691709017260e-01 4.530689811731185568e-01 2.918614867349541009e-01 2.553257002975742318e-01 9.124083039816823781e-01 5.055700930023998563e-01 4.317320962094590153e-01 2.777180000617595068e-01 2.920978594460872935e-01 2.983309612552262347e-01 5.856348006884178892e-01 7.688731764699123783e-01 3.446678519005269559e-01 2.883043336017495628e-01 4.677816159821732711e-01 3.149890792309895104e-01 7.343295579077732116e-01 2.235876208871049597e-01 4.496957593114501717e-01 -3.161106963594062513e-01 3.136695664497307079e-01 2.772274823699333868e-01 4.190221860578970392e-01 3.114648593978777691e-01 2.459494634922986811e-01 1.765109172824498973e+00 9.623528036617474968e-02 2.677479769381671537e-01 -1.667907431160685072e-01 1.620677277935947513e+00 1.143921299939360647e+00 5.640000557826655575e-02 -4.591402014478579430e-01 3.930336488575470466e-01 3.661396844205366818e-01 5.150068895323537399e-01 3.166751629852254113e-01 3.135075815007828948e-01 1.952995390646206919e-01 3.432095044849665655e-01 3.744886493434111951e-01 1.649839679831166875e-02 -1.905127044246876511e-01 3.774197972428809944e-01 3.228705856665523566e-01 2.074672793144751171e-01 8.628649935236594182e-01 4.251083336479044017e-01 2.326629666549789588e-01 8.338704316368564795e-01 4.760786304430215665e-01 6.253471721836222352e-01 4.526971440677572400e-01 6.888704107151918388e-01 1.464563211775281593e+00 3.135665644928072870e-01 2.058978402751197034e+00 -2.054908567275340325e-02 1.387797609554591860e-01 3.172207027921107314e-01 2.658968541309557065e-01 3.348358479229262552e-01 3.452152582890393728e-01 3.120412458613117668e-01 3.174482161253977530e-01 3.575240793373547499e-01 1.859688314921768559e-01 -2.992371013650576006e-01 2.524196856148810952e-01 -7.667087587326210096e-02 3.015905972872177099e-01 4.486653739134188745e-01 4.251083336967982906e-01 2.057106462989952977e-01 2.061840964410486532e-01 -1.214979323809141754e+00 1.939755350353858043e+00 3.134924544356965104e-01 -7.088182764900855526e-01 2.976854315739415058e-01 3.100719299034280785e-01 3.101840559587385471e-01 -4.716153626633953877e+00 3.495412888969063214e+00 6.226559006653403783e-01 8.303651580726395531e-02 3.090797404670626580e-01 3.100327035755082172e-01 2.997171076423493230e-01 2.589308144903032627e+00 6.185070670953412009e-01 3.199609707331951824e-01 2.064956271934976773e-01 2.586701158313248761e-01 2.590858387222468306e-01 8.700186769962954259e-01 -3.778595584367770988e-01 -1.160748529617479541e+00 -1.197617894597069910e+00 3.116002675938379096e-01 3.092312845655408315e-01 7.133361063513454781e-01 3.540085913304129583e-01 1.327895895054963749e+00 4.692867928565029878e-01 3.119726239065944151e-01 3.040052667588122315e-01 3.291249819295360424e-01 2.888901857737005141e-01 3.004923330572333851e-01 6.500799899710495433e-01 2.758391478213814696e-01 6.494594719407966732e-01 2.200560507019080903e-01 2.870741979689293497e-02 3.003654506002195190e-01 1.951715241399465117e-01 3.520924244312684803e-01 3.085973642735254652e-01 6.754954142686426799e-01 5.407149146246479354e-01 4.404346380175875875e-01 3.714445131574269365e-01 3.153230994695533362e-01 2.593636121707257880e-01 1.550494157357954705e+00 1.851849269950232024e+00 3.015942869443032359e-01 3.651381346805304129e-01 3.224968497818270774e-01 1.656317418583519996e-01 2.340892006443823503e-01 2.408727274745960101e-01 2.926330229372750558e-01 3.221881240153360304e-01 7.935072846978989958e-01 8.720141038752935447e-01 2.367930725423241789e-01 1.847351615603970210e+00 2.245629835590713108e-01 -1.824534881406882358e-01 -2.724959951547708537e-01 -3.189794275082634134e-01 3.150518270273383603e-01 2.683982454179598132e-01 7.070517002536075291e-01 3.049113714720833590e-01 4.578878812790667663e-01 3.136763052165498777e-01 3.741517850765695430e-01 3.984557992460302511e-01 1.680093098610922070e-02 1.021036228727614903e+00 3.191038160394520373e-01 4.614059554017240217e-01 3.128006824593867474e-01 3.620387512825994358e-01 3.228301516688885098e-01 3.890426904633171867e-01 -1.099826793257152047e-01 2.231471107032027279e-01 3.251054185332759583e-01 1.586123043747261763e-02 4.251085849232560943e-01 1.114372730495957642e+00 9.494662630228387634e-01 -7.344578177156652066e-01 -3.479538841385212966e-01 6.482523308429036790e-01 -3.281353867642546884e+00 1.560279044391504222e+00 2.625497530981690808e-01 1.681450496654973703e-02 3.124041961648087451e-01 8.778524709119386316e-01 3.093081691584188553e-01 3.849982830400607847e-01 -4.360862283385570359e-01 8.272539435745237535e-01 2.681450184801202341e-01 8.840039753755750684e-01 2.070159016881804703e+00 -3.779815804853843275e-01 -1.440554624667813144e+00 2.543203401073698133e-01 2.947033161344870256e-01 7.718025977074995936e-01 3.348174100792203345e-01 7.026536555410815010e-01 4.690769564159411043e-01 1.763785716339152931e-01 3.140431741917372177e-01 3.094019606318757498e-01 2.220766440405410047e-01 3.367886482223099165e-01 1.389679294614474481e+00 1.604103499394505583e+00 3.180918886546880708e-01 2.569945966310334118e-01 7.233826044509671094e-02 -2.386801958558361636e-01 2.050039829188461116e-01 -4.559685554715523469e-03 3.092550673494809388e-01 7.075629346929935837e-01 -4.507255655817495876e-01 2.838577527758978092e-01 3.263542868042292322e-01 1.546529485046539421e-01 3.191778316154241790e-01 2.507780054182562890e-01 3.140611425040125693e-01 3.112508623562975085e-01 -1.152494497993446741e-02 2.597643053584496875e-01 4.396938207687860478e-01 1.109717153259615730e+00 1.100069635438498894e+00 9.343760901521105389e-01 1.945696999844942765e-01 7.748666150803112940e-01 1.317404209659600034e-01 4.669980345753074191e-01 -2.084835694390732908e+00 2.918450842442280035e-01 6.532236813126214292e-01 2.723711371757006061e-01 9.565530006071072400e-01 1.360459643198210333e+00 2.064957878285899329e-01 2.799883662927642458e-01 3.730177663453352332e-01 2.743893750279179367e-01 5.540654931356089330e-01 8.438960113206048774e-01 -7.636593913645131071e-01 1.606186101653978293e-01 1.007684257585519522e-01 3.008092101950921582e-01 3.429114954545599003e-01 7.708500407224825324e-01 -1.847962488558638761e-01 3.931505838509586348e-01 3.209051008033740326e-01 3.101483526310931382e-01 8.882847734478023227e-01 4.248173443992874776e-01 -2.078070980458791017e-01 8.593984328809255446e-01 -4.598005269681641749e-02 5.729538349283520571e-01 2.681825528057319996e-01 1.278484602480218557e+00 5.604600419271665857e-01 7.289195772020131692e-01 4.382712170509698302e-01 4.840038621301924193e-01 -5.322893212366845983e-01 2.684080700071111436e-01 7.636229384255599495e-01 3.306818094036875766e-01 6.359841032012776285e-01 2.676515595579683771e-01 3.165486611543416595e-01 7.305813495732683682e-01 1.327386179484789930e-01 -2.029574866744042083e+00 2.510465997550394568e-01 2.789673296133562963e-01 7.881182259465764339e-01 3.983852371839448070e-01 4.038786551171283379e-01 3.043059928201901632e-01 2.673319448215274452e-01 3.743137719531413055e-01 4.402996728387673087e-02 -1.613257746780943469e+00 7.482119844715089396e-01 2.589574693528679528e-01 3.327504697341608919e-01 1.946859209359870779e-01 8.234627710236863685e-01 3.153891851416155134e-01 -1.361083093669972488e-01 3.221669657186165825e-01 1.117083695016664935e+00 2.779280840746301551e-01 4.150033653891595509e-01 1.060008086102758762e+00 3.493607526030589883e-01 2.740820510059757797e+00 3.223948263576689177e-01 2.984364143693329918e-01 6.902120309381822860e-01 2.909800767937794630e-01 3.027949008608731840e-01 -2.055084146664876599e+00 4.028554036333593658e-01 3.228914938064220141e-01 5.137996946470082538e-01 3.242976673766602702e-01 2.597153352226266310e-01 -2.277973024404032210e-01 2.032910646146068423e+00 -5.202189803328237661e-01 8.286894695557928125e-01 3.133212965295045227e-01 3.518247089127310989e-01 7.818995871291307687e-01 3.638256713991396274e-01 1.322638206198233135e+00 1.759720518966683134e-01 3.028391460561740134e-01 -8.804278684526823939e-01 -1.318914778672409527e-01 -3.530873042733370104e-01 -3.875997255829637389e+00 2.919272718854907467e+00 5.528562672266360695e-02 3.362755001353968098e-01 -1.602675626780436735e+00 3.138623705594109081e-01 2.660278794934400337e-01 2.892104895751144156e-01 1.473634310536534597e-01 6.389868753689266212e-01 5.951308661045986437e-01 1.012225345263935816e+00 -3.479538863489496370e-01 -2.193674724064407222e-01 2.122553362971224267e-01 -1.178980925702712179e+00 2.768207398559148213e-01 -6.367280700704832652e-01 2.811842089275263246e-01 4.717299655195945629e-01 5.706464640739567634e-02 4.348338207762689200e-01 2.705896405066492982e-01 -8.697126777860567093e-02 2.061238461785544485e-01 2.985945764954969217e-01 3.562457695069465857e-01 3.056224902509868113e-01 3.115054117370439912e-01 -7.343764117759984389e-01 5.523227668854219230e-01 1.531378471746729808e+00 6.013368384902484376e-02 2.404306466772589690e-01 3.961893900999695073e-01 1.211946001922750371e+00 3.183702706264393001e-01 1.425721178297001956e-01 8.949787480869856315e-01 3.036804417197765393e-01 1.843700450989031125e+00 3.409569728060192761e-01 1.229895582081792504e+00 3.240683429315873165e-01 7.367825894911197437e-01 1.345360869792761482e+00 3.160508200858092032e-01 4.023404308400048146e-01 9.168687122547962698e-01 -1.875848529325465641e-01 -5.337086061590724101e-02 1.785400036442350291e-01 2.980999252674925715e-01 3.497810954395595417e-01 1.421919366234720428e-01 2.024758470485854278e-01 -3.575426221594011356e-01 1.292569775064920545e+00 2.704155426124244532e-01 3.164835208977283543e-01 -3.131758902723360105e+00 5.076118374913466402e-01 3.442479409085956732e-01 4.422496982477291949e-01 4.264133724731749009e-01 4.922021483404911413e-01 -1.058892034307117092e+00 6.063371165274542562e-01 2.732773506242616723e-01 3.131791237637931991e-01 1.037995099786868325e+00 4.508157751098851307e-01 3.031683016179054224e-01 -1.390484513592002092e+00 4.324513006032437712e-01 8.883015892842032191e-01 2.960403362985869480e-01 3.085317124943148248e-01 3.566122126532272341e-01 7.052897205414344617e-01 -7.665533178515925028e-02 3.187354661339692474e-01 2.877885619677973961e-01 7.461565048591588256e-02 6.880495919991638232e-01 3.497800602253178792e-01 7.282562471992949371e-01 1.718205220249972021e-01 6.868951531105254027e-01 -2.181998279821418252e-01 -1.503601423708886831e+00 3.348129598127593809e-01 -1.631659429842575657e-02 3.286748211389984853e-01 3.648407613287058537e-01 5.497299448952776973e-02 5.407149388711102178e-01 3.129107136263684641e-01 8.537905931589423458e-02 4.557939370647099975e-01 2.507988738668519013e-01 3.343346118867815964e-01 2.713459348294788298e-01 -8.193497324182288377e-01 3.246277676929785194e-01 3.554632783799103746e-01 2.920899276615610551e-01 -1.545103168146780281e-01 3.165156854803133912e-01 8.047845421107363562e-01 -5.216896843054864563e-01 1.100613814047477712e+00 6.060477146261746828e-01 2.526390527918182527e-01 3.150251753542571698e-01 -2.029027903672481425e+00 3.213920057156118837e-01 1.867276251220763572e-01 2.437432894868461486e-01 5.407149022443324959e-01 3.161503054548087110e-01 2.672406933480377389e-01 9.886704623430493666e-02 3.112591259459185911e-01 4.361435101805244963e-01 4.059924869163227812e-01 3.569200400230547743e-01 2.977761551089250780e-01 3.182890187696889028e-01 3.040661526987200047e-01 2.685842994309555753e-01 3.889133954477976690e-02 3.086269334705701306e-01 6.008512104829548672e-01 2.077721071983813506e-01 3.300658532091521047e-01 -1.278392809588612122e-01 1.435273944749833330e-01 5.376004854243839892e-01 4.393862788632072913e+00 3.091268107688869837e-01 1.151078955439528706e-01 5.359953939110142507e-01 2.046914548141090529e-01 1.539951657782355765e+00 3.542334209384672694e-01 6.544565788256150318e-01 3.194292159399675368e-01
