# 
#                 ----------------------------------------------------
#                 Data from a 3D direct N-body simulation. 
# 
#                 rows are i-particle; 
#                 coumns are :mass, tag, x ,y, z, vx, vy, vz, ax, ay, az
# 
#                 NTHU, Computational Physics 
# 
#                 ----------------------------------------------------
#                 Time = 0.0
0.000000000000000000e+00 1.000000000000000000e+00 2.000000000000000000e+00 3.000000000000000000e+00 4.000000000000000000e+00 5.000000000000000000e+00 6.000000000000000000e+00 7.000000000000000000e+00 8.000000000000000000e+00 9.000000000000000000e+00 1.000000000000000000e+01 1.100000000000000000e+01 1.200000000000000000e+01 1.300000000000000000e+01 1.400000000000000000e+01 1.500000000000000000e+01 1.600000000000000000e+01 1.700000000000000000e+01 1.800000000000000000e+01 1.900000000000000000e+01 2.000000000000000000e+01 2.100000000000000000e+01 2.200000000000000000e+01 2.300000000000000000e+01 2.400000000000000000e+01 2.500000000000000000e+01 2.600000000000000000e+01 2.700000000000000000e+01 2.800000000000000000e+01 2.900000000000000000e+01 3.000000000000000000e+01 3.100000000000000000e+01 3.200000000000000000e+01 3.300000000000000000e+01 3.400000000000000000e+01 3.500000000000000000e+01 3.600000000000000000e+01 3.700000000000000000e+01 3.800000000000000000e+01 3.900000000000000000e+01 4.000000000000000000e+01 4.100000000000000000e+01 4.200000000000000000e+01 4.300000000000000000e+01 4.400000000000000000e+01 4.500000000000000000e+01 4.600000000000000000e+01 4.700000000000000000e+01 4.800000000000000000e+01 4.900000000000000000e+01 5.000000000000000000e+01 5.100000000000000000e+01 5.200000000000000000e+01 5.300000000000000000e+01 5.400000000000000000e+01 5.500000000000000000e+01 5.600000000000000000e+01 5.700000000000000000e+01 5.800000000000000000e+01 5.900000000000000000e+01 6.000000000000000000e+01 6.100000000000000000e+01 6.200000000000000000e+01 6.300000000000000000e+01 6.400000000000000000e+01 6.500000000000000000e+01 6.600000000000000000e+01 6.700000000000000000e+01 6.800000000000000000e+01 6.900000000000000000e+01 7.000000000000000000e+01 7.100000000000000000e+01 7.200000000000000000e+01 7.300000000000000000e+01 7.400000000000000000e+01 7.500000000000000000e+01 7.600000000000000000e+01 7.700000000000000000e+01 7.800000000000000000e+01 7.900000000000000000e+01 8.000000000000000000e+01 8.100000000000000000e+01 8.200000000000000000e+01 8.300000000000000000e+01 8.400000000000000000e+01 8.500000000000000000e+01 8.600000000000000000e+01 8.700000000000000000e+01 8.800000000000000000e+01 8.900000000000000000e+01 9.000000000000000000e+01 9.100000000000000000e+01 9.200000000000000000e+01 9.300000000000000000e+01 9.400000000000000000e+01 9.500000000000000000e+01 9.600000000000000000e+01 9.700000000000000000e+01 9.800000000000000000e+01 9.900000000000000000e+01 1.000000000000000000e+02 1.010000000000000000e+02 1.020000000000000000e+02 1.030000000000000000e+02 1.040000000000000000e+02 1.050000000000000000e+02 1.060000000000000000e+02 1.070000000000000000e+02 1.080000000000000000e+02 1.090000000000000000e+02 1.100000000000000000e+02 1.110000000000000000e+02 1.120000000000000000e+02 1.130000000000000000e+02 1.140000000000000000e+02 1.150000000000000000e+02 1.160000000000000000e+02 1.170000000000000000e+02 1.180000000000000000e+02 1.190000000000000000e+02 1.200000000000000000e+02 1.210000000000000000e+02 1.220000000000000000e+02 1.230000000000000000e+02 1.240000000000000000e+02 1.250000000000000000e+02 1.260000000000000000e+02 1.270000000000000000e+02 1.280000000000000000e+02 1.290000000000000000e+02 1.300000000000000000e+02 1.310000000000000000e+02 1.320000000000000000e+02 1.330000000000000000e+02 1.340000000000000000e+02 1.350000000000000000e+02 1.360000000000000000e+02 1.370000000000000000e+02 1.380000000000000000e+02 1.390000000000000000e+02 1.400000000000000000e+02 1.410000000000000000e+02 1.420000000000000000e+02 1.430000000000000000e+02 1.440000000000000000e+02 1.450000000000000000e+02 1.460000000000000000e+02 1.470000000000000000e+02 1.480000000000000000e+02 1.490000000000000000e+02 1.500000000000000000e+02 1.510000000000000000e+02 1.520000000000000000e+02 1.530000000000000000e+02 1.540000000000000000e+02 1.550000000000000000e+02 1.560000000000000000e+02 1.570000000000000000e+02 1.580000000000000000e+02 1.590000000000000000e+02 1.600000000000000000e+02 1.610000000000000000e+02 1.620000000000000000e+02 1.630000000000000000e+02 1.640000000000000000e+02 1.650000000000000000e+02 1.660000000000000000e+02 1.670000000000000000e+02 1.680000000000000000e+02 1.690000000000000000e+02 1.700000000000000000e+02 1.710000000000000000e+02 1.720000000000000000e+02 1.730000000000000000e+02 1.740000000000000000e+02 1.750000000000000000e+02 1.760000000000000000e+02 1.770000000000000000e+02 1.780000000000000000e+02 1.790000000000000000e+02 1.800000000000000000e+02 1.810000000000000000e+02 1.820000000000000000e+02 1.830000000000000000e+02 1.840000000000000000e+02 1.850000000000000000e+02 1.860000000000000000e+02 1.870000000000000000e+02 1.880000000000000000e+02 1.890000000000000000e+02 1.900000000000000000e+02 1.910000000000000000e+02 1.920000000000000000e+02 1.930000000000000000e+02 1.940000000000000000e+02 1.950000000000000000e+02 1.960000000000000000e+02 1.970000000000000000e+02 1.980000000000000000e+02 1.990000000000000000e+02 2.000000000000000000e+02 2.010000000000000000e+02 2.020000000000000000e+02 2.030000000000000000e+02 2.040000000000000000e+02 2.050000000000000000e+02 2.060000000000000000e+02 2.070000000000000000e+02 2.080000000000000000e+02 2.090000000000000000e+02 2.100000000000000000e+02 2.110000000000000000e+02 2.120000000000000000e+02 2.130000000000000000e+02 2.140000000000000000e+02 2.150000000000000000e+02 2.160000000000000000e+02 2.170000000000000000e+02 2.180000000000000000e+02 2.190000000000000000e+02 2.200000000000000000e+02 2.210000000000000000e+02 2.220000000000000000e+02 2.230000000000000000e+02 2.240000000000000000e+02 2.250000000000000000e+02 2.260000000000000000e+02 2.270000000000000000e+02 2.280000000000000000e+02 2.290000000000000000e+02 2.300000000000000000e+02 2.310000000000000000e+02 2.320000000000000000e+02 2.330000000000000000e+02 2.340000000000000000e+02 2.350000000000000000e+02 2.360000000000000000e+02 2.370000000000000000e+02 2.380000000000000000e+02 2.390000000000000000e+02 2.400000000000000000e+02 2.410000000000000000e+02 2.420000000000000000e+02 2.430000000000000000e+02 2.440000000000000000e+02 2.450000000000000000e+02 2.460000000000000000e+02 2.470000000000000000e+02 2.480000000000000000e+02 2.490000000000000000e+02 2.500000000000000000e+02 2.510000000000000000e+02 2.520000000000000000e+02 2.530000000000000000e+02 2.540000000000000000e+02 2.550000000000000000e+02 2.560000000000000000e+02 2.570000000000000000e+02 2.580000000000000000e+02 2.590000000000000000e+02 2.600000000000000000e+02 2.610000000000000000e+02 2.620000000000000000e+02 2.630000000000000000e+02 2.640000000000000000e+02 2.650000000000000000e+02 2.660000000000000000e+02 2.670000000000000000e+02 2.680000000000000000e+02 2.690000000000000000e+02 2.700000000000000000e+02 2.710000000000000000e+02 2.720000000000000000e+02 2.730000000000000000e+02 2.740000000000000000e+02 2.750000000000000000e+02 2.760000000000000000e+02 2.770000000000000000e+02 2.780000000000000000e+02 2.790000000000000000e+02 2.800000000000000000e+02 2.810000000000000000e+02 2.820000000000000000e+02 2.830000000000000000e+02 2.840000000000000000e+02 2.850000000000000000e+02 2.860000000000000000e+02 2.870000000000000000e+02 2.880000000000000000e+02 2.890000000000000000e+02 2.900000000000000000e+02 2.910000000000000000e+02 2.920000000000000000e+02 2.930000000000000000e+02 2.940000000000000000e+02 2.950000000000000000e+02 2.960000000000000000e+02 2.970000000000000000e+02 2.980000000000000000e+02 2.990000000000000000e+02 3.000000000000000000e+02 3.010000000000000000e+02 3.020000000000000000e+02 3.030000000000000000e+02 3.040000000000000000e+02 3.050000000000000000e+02 3.060000000000000000e+02 3.070000000000000000e+02 3.080000000000000000e+02 3.090000000000000000e+02 3.100000000000000000e+02 3.110000000000000000e+02 3.120000000000000000e+02 3.130000000000000000e+02 3.140000000000000000e+02 3.150000000000000000e+02 3.160000000000000000e+02 3.170000000000000000e+02 3.180000000000000000e+02 3.190000000000000000e+02 3.200000000000000000e+02 3.210000000000000000e+02 3.220000000000000000e+02 3.230000000000000000e+02 3.240000000000000000e+02 3.250000000000000000e+02 3.260000000000000000e+02 3.270000000000000000e+02 3.280000000000000000e+02 3.290000000000000000e+02 3.300000000000000000e+02 3.310000000000000000e+02 3.320000000000000000e+02 3.330000000000000000e+02 3.340000000000000000e+02 3.350000000000000000e+02 3.360000000000000000e+02 3.370000000000000000e+02 3.380000000000000000e+02 3.390000000000000000e+02 3.400000000000000000e+02 3.410000000000000000e+02 3.420000000000000000e+02 3.430000000000000000e+02 3.440000000000000000e+02 3.450000000000000000e+02 3.460000000000000000e+02 3.470000000000000000e+02 3.480000000000000000e+02 3.490000000000000000e+02 3.500000000000000000e+02 3.510000000000000000e+02 3.520000000000000000e+02 3.530000000000000000e+02 3.540000000000000000e+02 3.550000000000000000e+02 3.560000000000000000e+02 3.570000000000000000e+02 3.580000000000000000e+02 3.590000000000000000e+02 3.600000000000000000e+02 3.610000000000000000e+02 3.620000000000000000e+02 3.630000000000000000e+02 3.640000000000000000e+02 3.650000000000000000e+02 3.660000000000000000e+02 3.670000000000000000e+02 3.680000000000000000e+02 3.690000000000000000e+02 3.700000000000000000e+02 3.710000000000000000e+02 3.720000000000000000e+02 3.730000000000000000e+02 3.740000000000000000e+02 3.750000000000000000e+02 3.760000000000000000e+02 3.770000000000000000e+02 3.780000000000000000e+02 3.790000000000000000e+02 3.800000000000000000e+02 3.810000000000000000e+02 3.820000000000000000e+02 3.830000000000000000e+02 3.840000000000000000e+02 3.850000000000000000e+02 3.860000000000000000e+02 3.870000000000000000e+02 3.880000000000000000e+02 3.890000000000000000e+02 3.900000000000000000e+02 3.910000000000000000e+02 3.920000000000000000e+02 3.930000000000000000e+02 3.940000000000000000e+02 3.950000000000000000e+02 3.960000000000000000e+02 3.970000000000000000e+02 3.980000000000000000e+02 3.990000000000000000e+02 4.000000000000000000e+02 4.010000000000000000e+02 4.020000000000000000e+02 4.030000000000000000e+02 4.040000000000000000e+02 4.050000000000000000e+02 4.060000000000000000e+02 4.070000000000000000e+02 4.080000000000000000e+02 4.090000000000000000e+02 4.100000000000000000e+02 4.110000000000000000e+02 4.120000000000000000e+02 4.130000000000000000e+02 4.140000000000000000e+02 4.150000000000000000e+02 4.160000000000000000e+02 4.170000000000000000e+02 4.180000000000000000e+02 4.190000000000000000e+02 4.200000000000000000e+02 4.210000000000000000e+02 4.220000000000000000e+02 4.230000000000000000e+02 4.240000000000000000e+02 4.250000000000000000e+02 4.260000000000000000e+02 4.270000000000000000e+02 4.280000000000000000e+02 4.290000000000000000e+02 4.300000000000000000e+02 4.310000000000000000e+02 4.320000000000000000e+02 4.330000000000000000e+02 4.340000000000000000e+02 4.350000000000000000e+02 4.360000000000000000e+02 4.370000000000000000e+02 4.380000000000000000e+02 4.390000000000000000e+02 4.400000000000000000e+02 4.410000000000000000e+02 4.420000000000000000e+02 4.430000000000000000e+02 4.440000000000000000e+02 4.450000000000000000e+02 4.460000000000000000e+02 4.470000000000000000e+02 4.480000000000000000e+02 4.490000000000000000e+02 4.500000000000000000e+02 4.510000000000000000e+02 4.520000000000000000e+02 4.530000000000000000e+02 4.540000000000000000e+02 4.550000000000000000e+02 4.560000000000000000e+02 4.570000000000000000e+02 4.580000000000000000e+02 4.590000000000000000e+02 4.600000000000000000e+02 4.610000000000000000e+02 4.620000000000000000e+02 4.630000000000000000e+02 4.640000000000000000e+02 4.650000000000000000e+02 4.660000000000000000e+02 4.670000000000000000e+02 4.680000000000000000e+02 4.690000000000000000e+02 4.700000000000000000e+02 4.710000000000000000e+02 4.720000000000000000e+02 4.730000000000000000e+02 4.740000000000000000e+02 4.750000000000000000e+02 4.760000000000000000e+02 4.770000000000000000e+02 4.780000000000000000e+02 4.790000000000000000e+02 4.800000000000000000e+02 4.810000000000000000e+02 4.820000000000000000e+02 4.830000000000000000e+02 4.840000000000000000e+02 4.850000000000000000e+02 4.860000000000000000e+02 4.870000000000000000e+02 4.880000000000000000e+02 4.890000000000000000e+02 4.900000000000000000e+02 4.910000000000000000e+02 4.920000000000000000e+02 4.930000000000000000e+02 4.940000000000000000e+02 4.950000000000000000e+02 4.960000000000000000e+02 4.970000000000000000e+02 4.980000000000000000e+02 4.990000000000000000e+02 5.000000000000000000e+02 5.010000000000000000e+02 5.020000000000000000e+02 5.030000000000000000e+02 5.040000000000000000e+02 5.050000000000000000e+02 5.060000000000000000e+02 5.070000000000000000e+02 5.080000000000000000e+02 5.090000000000000000e+02 5.100000000000000000e+02 5.110000000000000000e+02 5.120000000000000000e+02 5.130000000000000000e+02 5.140000000000000000e+02 5.150000000000000000e+02 5.160000000000000000e+02 5.170000000000000000e+02 5.180000000000000000e+02 5.190000000000000000e+02 5.200000000000000000e+02 5.210000000000000000e+02 5.220000000000000000e+02 5.230000000000000000e+02 5.240000000000000000e+02 5.250000000000000000e+02 5.260000000000000000e+02 5.270000000000000000e+02 5.280000000000000000e+02 5.290000000000000000e+02 5.300000000000000000e+02 5.310000000000000000e+02 5.320000000000000000e+02 5.330000000000000000e+02 5.340000000000000000e+02 5.350000000000000000e+02 5.360000000000000000e+02 5.370000000000000000e+02 5.380000000000000000e+02 5.390000000000000000e+02 5.400000000000000000e+02 5.410000000000000000e+02 5.420000000000000000e+02 5.430000000000000000e+02 5.440000000000000000e+02 5.450000000000000000e+02 5.460000000000000000e+02 5.470000000000000000e+02 5.480000000000000000e+02 5.490000000000000000e+02 5.500000000000000000e+02 5.510000000000000000e+02 5.520000000000000000e+02 5.530000000000000000e+02 5.540000000000000000e+02 5.550000000000000000e+02 5.560000000000000000e+02 5.570000000000000000e+02 5.580000000000000000e+02 5.590000000000000000e+02 5.600000000000000000e+02 5.610000000000000000e+02 5.620000000000000000e+02 5.630000000000000000e+02 5.640000000000000000e+02 5.650000000000000000e+02 5.660000000000000000e+02 5.670000000000000000e+02 5.680000000000000000e+02 5.690000000000000000e+02 5.700000000000000000e+02 5.710000000000000000e+02 5.720000000000000000e+02 5.730000000000000000e+02 5.740000000000000000e+02 5.750000000000000000e+02 5.760000000000000000e+02 5.770000000000000000e+02 5.780000000000000000e+02 5.790000000000000000e+02 5.800000000000000000e+02 5.810000000000000000e+02 5.820000000000000000e+02 5.830000000000000000e+02 5.840000000000000000e+02 5.850000000000000000e+02 5.860000000000000000e+02 5.870000000000000000e+02 5.880000000000000000e+02 5.890000000000000000e+02 5.900000000000000000e+02 5.910000000000000000e+02 5.920000000000000000e+02 5.930000000000000000e+02 5.940000000000000000e+02 5.950000000000000000e+02 5.960000000000000000e+02 5.970000000000000000e+02 5.980000000000000000e+02 5.990000000000000000e+02 6.000000000000000000e+02 6.010000000000000000e+02 6.020000000000000000e+02 6.030000000000000000e+02 6.040000000000000000e+02 6.050000000000000000e+02 6.060000000000000000e+02 6.070000000000000000e+02 6.080000000000000000e+02 6.090000000000000000e+02 6.100000000000000000e+02 6.110000000000000000e+02 6.120000000000000000e+02 6.130000000000000000e+02 6.140000000000000000e+02 6.150000000000000000e+02 6.160000000000000000e+02 6.170000000000000000e+02 6.180000000000000000e+02 6.190000000000000000e+02 6.200000000000000000e+02 6.210000000000000000e+02 6.220000000000000000e+02 6.230000000000000000e+02 6.240000000000000000e+02 6.250000000000000000e+02 6.260000000000000000e+02 6.270000000000000000e+02 6.280000000000000000e+02 6.290000000000000000e+02 6.300000000000000000e+02 6.310000000000000000e+02 6.320000000000000000e+02 6.330000000000000000e+02 6.340000000000000000e+02 6.350000000000000000e+02 6.360000000000000000e+02 6.370000000000000000e+02 6.380000000000000000e+02 6.390000000000000000e+02 6.400000000000000000e+02 6.410000000000000000e+02 6.420000000000000000e+02 6.430000000000000000e+02 6.440000000000000000e+02 6.450000000000000000e+02 6.460000000000000000e+02 6.470000000000000000e+02 6.480000000000000000e+02 6.490000000000000000e+02 6.500000000000000000e+02 6.510000000000000000e+02 6.520000000000000000e+02 6.530000000000000000e+02 6.540000000000000000e+02 6.550000000000000000e+02 6.560000000000000000e+02 6.570000000000000000e+02 6.580000000000000000e+02 6.590000000000000000e+02 6.600000000000000000e+02 6.610000000000000000e+02 6.620000000000000000e+02 6.630000000000000000e+02 6.640000000000000000e+02 6.650000000000000000e+02 6.660000000000000000e+02 6.670000000000000000e+02 6.680000000000000000e+02 6.690000000000000000e+02 6.700000000000000000e+02 6.710000000000000000e+02 6.720000000000000000e+02 6.730000000000000000e+02 6.740000000000000000e+02 6.750000000000000000e+02 6.760000000000000000e+02 6.770000000000000000e+02 6.780000000000000000e+02 6.790000000000000000e+02 6.800000000000000000e+02 6.810000000000000000e+02 6.820000000000000000e+02 6.830000000000000000e+02 6.840000000000000000e+02 6.850000000000000000e+02 6.860000000000000000e+02 6.870000000000000000e+02 6.880000000000000000e+02 6.890000000000000000e+02 6.900000000000000000e+02 6.910000000000000000e+02 6.920000000000000000e+02 6.930000000000000000e+02 6.940000000000000000e+02 6.950000000000000000e+02 6.960000000000000000e+02 6.970000000000000000e+02 6.980000000000000000e+02 6.990000000000000000e+02 7.000000000000000000e+02 7.010000000000000000e+02 7.020000000000000000e+02 7.030000000000000000e+02 7.040000000000000000e+02 7.050000000000000000e+02 7.060000000000000000e+02 7.070000000000000000e+02 7.080000000000000000e+02 7.090000000000000000e+02 7.100000000000000000e+02 7.110000000000000000e+02 7.120000000000000000e+02 7.130000000000000000e+02 7.140000000000000000e+02 7.150000000000000000e+02 7.160000000000000000e+02 7.170000000000000000e+02 7.180000000000000000e+02 7.190000000000000000e+02 7.200000000000000000e+02 7.210000000000000000e+02 7.220000000000000000e+02 7.230000000000000000e+02 7.240000000000000000e+02 7.250000000000000000e+02 7.260000000000000000e+02 7.270000000000000000e+02 7.280000000000000000e+02 7.290000000000000000e+02 7.300000000000000000e+02 7.310000000000000000e+02 7.320000000000000000e+02 7.330000000000000000e+02 7.340000000000000000e+02 7.350000000000000000e+02 7.360000000000000000e+02 7.370000000000000000e+02 7.380000000000000000e+02 7.390000000000000000e+02 7.400000000000000000e+02 7.410000000000000000e+02 7.420000000000000000e+02 7.430000000000000000e+02 7.440000000000000000e+02 7.450000000000000000e+02 7.460000000000000000e+02 7.470000000000000000e+02 7.480000000000000000e+02 7.490000000000000000e+02 7.500000000000000000e+02 7.510000000000000000e+02 7.520000000000000000e+02 7.530000000000000000e+02 7.540000000000000000e+02 7.550000000000000000e+02 7.560000000000000000e+02 7.570000000000000000e+02 7.580000000000000000e+02 7.590000000000000000e+02 7.600000000000000000e+02 7.610000000000000000e+02 7.620000000000000000e+02 7.630000000000000000e+02 7.640000000000000000e+02 7.650000000000000000e+02 7.660000000000000000e+02 7.670000000000000000e+02 7.680000000000000000e+02 7.690000000000000000e+02 7.700000000000000000e+02 7.710000000000000000e+02 7.720000000000000000e+02 7.730000000000000000e+02 7.740000000000000000e+02 7.750000000000000000e+02 7.760000000000000000e+02 7.770000000000000000e+02 7.780000000000000000e+02 7.790000000000000000e+02 7.800000000000000000e+02 7.810000000000000000e+02 7.820000000000000000e+02 7.830000000000000000e+02 7.840000000000000000e+02 7.850000000000000000e+02 7.860000000000000000e+02 7.870000000000000000e+02 7.880000000000000000e+02 7.890000000000000000e+02 7.900000000000000000e+02 7.910000000000000000e+02 7.920000000000000000e+02 7.930000000000000000e+02 7.940000000000000000e+02 7.950000000000000000e+02 7.960000000000000000e+02 7.970000000000000000e+02 7.980000000000000000e+02 7.990000000000000000e+02 8.000000000000000000e+02 8.010000000000000000e+02 8.020000000000000000e+02 8.030000000000000000e+02 8.040000000000000000e+02 8.050000000000000000e+02 8.060000000000000000e+02 8.070000000000000000e+02 8.080000000000000000e+02 8.090000000000000000e+02 8.100000000000000000e+02 8.110000000000000000e+02 8.120000000000000000e+02 8.130000000000000000e+02 8.140000000000000000e+02 8.150000000000000000e+02 8.160000000000000000e+02 8.170000000000000000e+02 8.180000000000000000e+02 8.190000000000000000e+02 8.200000000000000000e+02 8.210000000000000000e+02 8.220000000000000000e+02 8.230000000000000000e+02 8.240000000000000000e+02 8.250000000000000000e+02 8.260000000000000000e+02 8.270000000000000000e+02 8.280000000000000000e+02 8.290000000000000000e+02 8.300000000000000000e+02 8.310000000000000000e+02 8.320000000000000000e+02 8.330000000000000000e+02 8.340000000000000000e+02 8.350000000000000000e+02 8.360000000000000000e+02 8.370000000000000000e+02 8.380000000000000000e+02 8.390000000000000000e+02 8.400000000000000000e+02 8.410000000000000000e+02 8.420000000000000000e+02 8.430000000000000000e+02 8.440000000000000000e+02 8.450000000000000000e+02 8.460000000000000000e+02 8.470000000000000000e+02 8.480000000000000000e+02 8.490000000000000000e+02 8.500000000000000000e+02 8.510000000000000000e+02 8.520000000000000000e+02 8.530000000000000000e+02 8.540000000000000000e+02 8.550000000000000000e+02 8.560000000000000000e+02 8.570000000000000000e+02 8.580000000000000000e+02 8.590000000000000000e+02 8.600000000000000000e+02 8.610000000000000000e+02 8.620000000000000000e+02 8.630000000000000000e+02 8.640000000000000000e+02 8.650000000000000000e+02 8.660000000000000000e+02 8.670000000000000000e+02 8.680000000000000000e+02 8.690000000000000000e+02 8.700000000000000000e+02 8.710000000000000000e+02 8.720000000000000000e+02 8.730000000000000000e+02 8.740000000000000000e+02 8.750000000000000000e+02 8.760000000000000000e+02 8.770000000000000000e+02 8.780000000000000000e+02 8.790000000000000000e+02 8.800000000000000000e+02 8.810000000000000000e+02 8.820000000000000000e+02 8.830000000000000000e+02 8.840000000000000000e+02 8.850000000000000000e+02 8.860000000000000000e+02 8.870000000000000000e+02 8.880000000000000000e+02 8.890000000000000000e+02 8.900000000000000000e+02 8.910000000000000000e+02 8.920000000000000000e+02 8.930000000000000000e+02 8.940000000000000000e+02 8.950000000000000000e+02 8.960000000000000000e+02 8.970000000000000000e+02 8.980000000000000000e+02 8.990000000000000000e+02 9.000000000000000000e+02 9.010000000000000000e+02 9.020000000000000000e+02 9.030000000000000000e+02 9.040000000000000000e+02 9.050000000000000000e+02 9.060000000000000000e+02 9.070000000000000000e+02 9.080000000000000000e+02 9.090000000000000000e+02 9.100000000000000000e+02 9.110000000000000000e+02 9.120000000000000000e+02 9.130000000000000000e+02 9.140000000000000000e+02 9.150000000000000000e+02 9.160000000000000000e+02 9.170000000000000000e+02 9.180000000000000000e+02 9.190000000000000000e+02 9.200000000000000000e+02 9.210000000000000000e+02 9.220000000000000000e+02 9.230000000000000000e+02 9.240000000000000000e+02 9.250000000000000000e+02 9.260000000000000000e+02 9.270000000000000000e+02 9.280000000000000000e+02 9.290000000000000000e+02 9.300000000000000000e+02 9.310000000000000000e+02 9.320000000000000000e+02 9.330000000000000000e+02 9.340000000000000000e+02 9.350000000000000000e+02 9.360000000000000000e+02 9.370000000000000000e+02 9.380000000000000000e+02 9.390000000000000000e+02 9.400000000000000000e+02 9.410000000000000000e+02 9.420000000000000000e+02 9.430000000000000000e+02 9.440000000000000000e+02 9.450000000000000000e+02 9.460000000000000000e+02 9.470000000000000000e+02 9.480000000000000000e+02 9.490000000000000000e+02 9.500000000000000000e+02 9.510000000000000000e+02 9.520000000000000000e+02 9.530000000000000000e+02 9.540000000000000000e+02 9.550000000000000000e+02 9.560000000000000000e+02 9.570000000000000000e+02 9.580000000000000000e+02 9.590000000000000000e+02 9.600000000000000000e+02 9.610000000000000000e+02 9.620000000000000000e+02 9.630000000000000000e+02 9.640000000000000000e+02 9.650000000000000000e+02 9.660000000000000000e+02 9.670000000000000000e+02 9.680000000000000000e+02 9.690000000000000000e+02 9.700000000000000000e+02 9.710000000000000000e+02 9.720000000000000000e+02 9.730000000000000000e+02 9.740000000000000000e+02 9.750000000000000000e+02 9.760000000000000000e+02 9.770000000000000000e+02 9.780000000000000000e+02 9.790000000000000000e+02 9.800000000000000000e+02 9.810000000000000000e+02 9.820000000000000000e+02 9.830000000000000000e+02 9.840000000000000000e+02 9.850000000000000000e+02 9.860000000000000000e+02 9.870000000000000000e+02 9.880000000000000000e+02 9.890000000000000000e+02 9.900000000000000000e+02 9.910000000000000000e+02 9.920000000000000000e+02 9.930000000000000000e+02 9.940000000000000000e+02 9.950000000000000000e+02 9.960000000000000000e+02 9.970000000000000000e+02 9.980000000000000000e+02 9.990000000000000000e+02
1.000000000000000000e+00 1.000000000000000000e+00 1.000000000000000000e+00 1.000000000000000000e+00 1.000000000000000000e+00 1.000000000000000000e+00 1.000000000000000000e+00 1.000000000000000000e+00 1.000000000000000000e+00 1.000000000000000000e+00 1.000000000000000000e+00 1.000000000000000000e+00 1.000000000000000000e+00 1.000000000000000000e+00 1.000000000000000000e+00 1.000000000000000000e+00 1.000000000000000000e+00 1.000000000000000000e+00 1.000000000000000000e+00 1.000000000000000000e+00 1.000000000000000000e+00 1.000000000000000000e+00 1.000000000000000000e+00 1.000000000000000000e+00 1.000000000000000000e+00 1.000000000000000000e+00 1.000000000000000000e+00 1.000000000000000000e+00 1.000000000000000000e+00 1.000000000000000000e+00 1.000000000000000000e+00 1.000000000000000000e+00 1.000000000000000000e+00 1.000000000000000000e+00 1.000000000000000000e+00 1.000000000000000000e+00 1.000000000000000000e+00 1.000000000000000000e+00 1.000000000000000000e+00 1.000000000000000000e+00 1.000000000000000000e+00 1.000000000000000000e+00 1.000000000000000000e+00 1.000000000000000000e+00 1.000000000000000000e+00 1.000000000000000000e+00 1.000000000000000000e+00 1.000000000000000000e+00 1.000000000000000000e+00 1.000000000000000000e+00 1.000000000000000000e+00 1.000000000000000000e+00 1.000000000000000000e+00 1.000000000000000000e+00 1.000000000000000000e+00 1.000000000000000000e+00 1.000000000000000000e+00 1.000000000000000000e+00 1.000000000000000000e+00 1.000000000000000000e+00 1.000000000000000000e+00 1.000000000000000000e+00 1.000000000000000000e+00 1.000000000000000000e+00 1.000000000000000000e+00 1.000000000000000000e+00 1.000000000000000000e+00 1.000000000000000000e+00 1.000000000000000000e+00 1.000000000000000000e+00 1.000000000000000000e+00 1.000000000000000000e+00 1.000000000000000000e+00 1.000000000000000000e+00 1.000000000000000000e+00 1.000000000000000000e+00 1.000000000000000000e+00 1.000000000000000000e+00 1.000000000000000000e+00 1.000000000000000000e+00 1.000000000000000000e+00 1.000000000000000000e+00 1.000000000000000000e+00 1.000000000000000000e+00 1.000000000000000000e+00 1.000000000000000000e+00 1.000000000000000000e+00 1.000000000000000000e+00 1.000000000000000000e+00 1.000000000000000000e+00 1.000000000000000000e+00 1.000000000000000000e+00 1.000000000000000000e+00 1.000000000000000000e+00 1.000000000000000000e+00 1.000000000000000000e+00 1.000000000000000000e+00 1.000000000000000000e+00 1.000000000000000000e+00 1.000000000000000000e+00 1.000000000000000000e+00 1.000000000000000000e+00 1.000000000000000000e+00 1.000000000000000000e+00 1.000000000000000000e+00 1.000000000000000000e+00 1.000000000000000000e+00 1.000000000000000000e+00 1.000000000000000000e+00 1.000000000000000000e+00 1.000000000000000000e+00 1.000000000000000000e+00 1.000000000000000000e+00 1.000000000000000000e+00 1.000000000000000000e+00 1.000000000000000000e+00 1.000000000000000000e+00 1.000000000000000000e+00 1.000000000000000000e+00 1.000000000000000000e+00 1.000000000000000000e+00 1.000000000000000000e+00 1.000000000000000000e+00 1.000000000000000000e+00 1.000000000000000000e+00 1.000000000000000000e+00 1.000000000000000000e+00 1.000000000000000000e+00 1.000000000000000000e+00 1.000000000000000000e+00 1.000000000000000000e+00 1.000000000000000000e+00 1.000000000000000000e+00 1.000000000000000000e+00 1.000000000000000000e+00 1.000000000000000000e+00 1.000000000000000000e+00 1.000000000000000000e+00 1.000000000000000000e+00 1.000000000000000000e+00 1.000000000000000000e+00 1.000000000000000000e+00 1.000000000000000000e+00 1.000000000000000000e+00 1.000000000000000000e+00 1.000000000000000000e+00 1.000000000000000000e+00 1.000000000000000000e+00 1.000000000000000000e+00 1.000000000000000000e+00 1.000000000000000000e+00 1.000000000000000000e+00 1.000000000000000000e+00 1.000000000000000000e+00 1.000000000000000000e+00 1.000000000000000000e+00 1.000000000000000000e+00 1.000000000000000000e+00 1.000000000000000000e+00 1.000000000000000000e+00 1.000000000000000000e+00 1.000000000000000000e+00 1.000000000000000000e+00 1.000000000000000000e+00 1.000000000000000000e+00 1.000000000000000000e+00 1.000000000000000000e+00 1.000000000000000000e+00 1.000000000000000000e+00 1.000000000000000000e+00 1.000000000000000000e+00 1.000000000000000000e+00 1.000000000000000000e+00 1.000000000000000000e+00 1.000000000000000000e+00 1.000000000000000000e+00 1.000000000000000000e+00 1.000000000000000000e+00 1.000000000000000000e+00 1.000000000000000000e+00 1.000000000000000000e+00 1.000000000000000000e+00 1.000000000000000000e+00 1.000000000000000000e+00 1.000000000000000000e+00 1.000000000000000000e+00 1.000000000000000000e+00 1.000000000000000000e+00 1.000000000000000000e+00 1.000000000000000000e+00 1.000000000000000000e+00 1.000000000000000000e+00 1.000000000000000000e+00 1.000000000000000000e+00 1.000000000000000000e+00 1.000000000000000000e+00 1.000000000000000000e+00 1.000000000000000000e+00 1.000000000000000000e+00 1.000000000000000000e+00 1.000000000000000000e+00 1.000000000000000000e+00 1.000000000000000000e+00 1.000000000000000000e+00 1.000000000000000000e+00 1.000000000000000000e+00 1.000000000000000000e+00 1.000000000000000000e+00 1.000000000000000000e+00 1.000000000000000000e+00 1.000000000000000000e+00 1.000000000000000000e+00 1.000000000000000000e+00 1.000000000000000000e+00 1.000000000000000000e+00 1.000000000000000000e+00 1.000000000000000000e+00 1.000000000000000000e+00 1.000000000000000000e+00 1.000000000000000000e+00 1.000000000000000000e+00 1.000000000000000000e+00 1.000000000000000000e+00 1.000000000000000000e+00 1.000000000000000000e+00 1.000000000000000000e+00 1.000000000000000000e+00 1.000000000000000000e+00 1.000000000000000000e+00 1.000000000000000000e+00 1.000000000000000000e+00 1.000000000000000000e+00 1.000000000000000000e+00 1.000000000000000000e+00 1.000000000000000000e+00 1.000000000000000000e+00 1.000000000000000000e+00 1.000000000000000000e+00 1.000000000000000000e+00 1.000000000000000000e+00 1.000000000000000000e+00 1.000000000000000000e+00 1.000000000000000000e+00 1.000000000000000000e+00 1.000000000000000000e+00 1.000000000000000000e+00 1.000000000000000000e+00 1.000000000000000000e+00 1.000000000000000000e+00 1.000000000000000000e+00 1.000000000000000000e+00 1.000000000000000000e+00 1.000000000000000000e+00 1.000000000000000000e+00 1.000000000000000000e+00 1.000000000000000000e+00 1.000000000000000000e+00 1.000000000000000000e+00 1.000000000000000000e+00 1.000000000000000000e+00 1.000000000000000000e+00 1.000000000000000000e+00 1.000000000000000000e+00 1.000000000000000000e+00 1.000000000000000000e+00 1.000000000000000000e+00 1.000000000000000000e+00 1.000000000000000000e+00 1.000000000000000000e+00 1.000000000000000000e+00 1.000000000000000000e+00 1.000000000000000000e+00 1.000000000000000000e+00 1.000000000000000000e+00 1.000000000000000000e+00 1.000000000000000000e+00 1.000000000000000000e+00 1.000000000000000000e+00 1.000000000000000000e+00 1.000000000000000000e+00 1.000000000000000000e+00 1.000000000000000000e+00 1.000000000000000000e+00 1.000000000000000000e+00 1.000000000000000000e+00 1.000000000000000000e+00 1.000000000000000000e+00 1.000000000000000000e+00 1.000000000000000000e+00 1.000000000000000000e+00 1.000000000000000000e+00 1.000000000000000000e+00 1.000000000000000000e+00 1.000000000000000000e+00 1.000000000000000000e+00 1.000000000000000000e+00 1.000000000000000000e+00 1.000000000000000000e+00 1.000000000000000000e+00 1.000000000000000000e+00 1.000000000000000000e+00 1.000000000000000000e+00 1.000000000000000000e+00 1.000000000000000000e+00 1.000000000000000000e+00 1.000000000000000000e+00 1.000000000000000000e+00 1.000000000000000000e+00 1.000000000000000000e+00 1.000000000000000000e+00 1.000000000000000000e+00 1.000000000000000000e+00 1.000000000000000000e+00 1.000000000000000000e+00 1.000000000000000000e+00 1.000000000000000000e+00 1.000000000000000000e+00 1.000000000000000000e+00 1.000000000000000000e+00 1.000000000000000000e+00 1.000000000000000000e+00 1.000000000000000000e+00 1.000000000000000000e+00 1.000000000000000000e+00 1.000000000000000000e+00 1.000000000000000000e+00 1.000000000000000000e+00 1.000000000000000000e+00 1.000000000000000000e+00 1.000000000000000000e+00 1.000000000000000000e+00 1.000000000000000000e+00 1.000000000000000000e+00 1.000000000000000000e+00 1.000000000000000000e+00 1.000000000000000000e+00 1.000000000000000000e+00 1.000000000000000000e+00 1.000000000000000000e+00 1.000000000000000000e+00 1.000000000000000000e+00 1.000000000000000000e+00 1.000000000000000000e+00 1.000000000000000000e+00 1.000000000000000000e+00 1.000000000000000000e+00 1.000000000000000000e+00 1.000000000000000000e+00 1.000000000000000000e+00 1.000000000000000000e+00 1.000000000000000000e+00 1.000000000000000000e+00 1.000000000000000000e+00 1.000000000000000000e+00 1.000000000000000000e+00 1.000000000000000000e+00 1.000000000000000000e+00 1.000000000000000000e+00 1.000000000000000000e+00 1.000000000000000000e+00 1.000000000000000000e+00 1.000000000000000000e+00 1.000000000000000000e+00 1.000000000000000000e+00 1.000000000000000000e+00 1.000000000000000000e+00 1.000000000000000000e+00 1.000000000000000000e+00 1.000000000000000000e+00 1.000000000000000000e+00 1.000000000000000000e+00 1.000000000000000000e+00 1.000000000000000000e+00 1.000000000000000000e+00 1.000000000000000000e+00 1.000000000000000000e+00 1.000000000000000000e+00 1.000000000000000000e+00 1.000000000000000000e+00 1.000000000000000000e+00 1.000000000000000000e+00 1.000000000000000000e+00 1.000000000000000000e+00 1.000000000000000000e+00 1.000000000000000000e+00 1.000000000000000000e+00 1.000000000000000000e+00 1.000000000000000000e+00 1.000000000000000000e+00 1.000000000000000000e+00 1.000000000000000000e+00 1.000000000000000000e+00 1.000000000000000000e+00 1.000000000000000000e+00 1.000000000000000000e+00 1.000000000000000000e+00 1.000000000000000000e+00 1.000000000000000000e+00 1.000000000000000000e+00 1.000000000000000000e+00 1.000000000000000000e+00 1.000000000000000000e+00 1.000000000000000000e+00 1.000000000000000000e+00 1.000000000000000000e+00 1.000000000000000000e+00 1.000000000000000000e+00 1.000000000000000000e+00 1.000000000000000000e+00 1.000000000000000000e+00 1.000000000000000000e+00 1.000000000000000000e+00 1.000000000000000000e+00 1.000000000000000000e+00 1.000000000000000000e+00 1.000000000000000000e+00 1.000000000000000000e+00 1.000000000000000000e+00 1.000000000000000000e+00 1.000000000000000000e+00 1.000000000000000000e+00 1.000000000000000000e+00 1.000000000000000000e+00 1.000000000000000000e+00 1.000000000000000000e+00 1.000000000000000000e+00 1.000000000000000000e+00 1.000000000000000000e+00 1.000000000000000000e+00 1.000000000000000000e+00 1.000000000000000000e+00 1.000000000000000000e+00 1.000000000000000000e+00 1.000000000000000000e+00 1.000000000000000000e+00 1.000000000000000000e+00 1.000000000000000000e+00 1.000000000000000000e+00 1.000000000000000000e+00 1.000000000000000000e+00 1.000000000000000000e+00 1.000000000000000000e+00 1.000000000000000000e+00 1.000000000000000000e+00 1.000000000000000000e+00 1.000000000000000000e+00 1.000000000000000000e+00 1.000000000000000000e+00 1.000000000000000000e+00 1.000000000000000000e+00 1.000000000000000000e+00 1.000000000000000000e+00 1.000000000000000000e+00 1.000000000000000000e+00 1.000000000000000000e+00 1.000000000000000000e+00 1.000000000000000000e+00 1.000000000000000000e+00 1.000000000000000000e+00 1.000000000000000000e+00 1.000000000000000000e+00 1.000000000000000000e+00 1.000000000000000000e+00 1.000000000000000000e+00 1.000000000000000000e+00 1.000000000000000000e+00 1.000000000000000000e+00 1.000000000000000000e+00 1.000000000000000000e+00 1.000000000000000000e+00 1.000000000000000000e+00 1.000000000000000000e+00 1.000000000000000000e+00 1.000000000000000000e+00 1.000000000000000000e+00 1.000000000000000000e+00 1.000000000000000000e+00 1.000000000000000000e+00 1.000000000000000000e+00 1.000000000000000000e+00 1.000000000000000000e+00 1.000000000000000000e+00 1.000000000000000000e+00 1.000000000000000000e+00 1.000000000000000000e+00 1.000000000000000000e+00 1.000000000000000000e+00 1.000000000000000000e+00 1.000000000000000000e+00 1.000000000000000000e+00 1.000000000000000000e+00 1.000000000000000000e+00 1.000000000000000000e+00 1.000000000000000000e+00 1.000000000000000000e+00 1.000000000000000000e+00 1.000000000000000000e+00 1.000000000000000000e+00 1.000000000000000000e+00 1.000000000000000000e+00 1.000000000000000000e+00 1.000000000000000000e+00 1.000000000000000000e+00 1.000000000000000000e+00 1.000000000000000000e+00 1.000000000000000000e+00 1.000000000000000000e+00 1.000000000000000000e+00 1.000000000000000000e+00 1.000000000000000000e+00 1.000000000000000000e+00 1.000000000000000000e+00 1.000000000000000000e+00 1.000000000000000000e+00 1.000000000000000000e+00 1.000000000000000000e+00 1.000000000000000000e+00 1.000000000000000000e+00 1.000000000000000000e+00 1.000000000000000000e+00 1.000000000000000000e+00 1.000000000000000000e+00 1.000000000000000000e+00 1.000000000000000000e+00 1.000000000000000000e+00 1.000000000000000000e+00 1.000000000000000000e+00 1.000000000000000000e+00 1.000000000000000000e+00 1.000000000000000000e+00 1.000000000000000000e+00 1.000000000000000000e+00 1.000000000000000000e+00 1.000000000000000000e+00 1.000000000000000000e+00 1.000000000000000000e+00 1.000000000000000000e+00 1.000000000000000000e+00 1.000000000000000000e+00 1.000000000000000000e+00 1.000000000000000000e+00 1.000000000000000000e+00 1.000000000000000000e+00 1.000000000000000000e+00 1.000000000000000000e+00 1.000000000000000000e+00 1.000000000000000000e+00 1.000000000000000000e+00 1.000000000000000000e+00 1.000000000000000000e+00 1.000000000000000000e+00 1.000000000000000000e+00 1.000000000000000000e+00 1.000000000000000000e+00 1.000000000000000000e+00 1.000000000000000000e+00 1.000000000000000000e+00 1.000000000000000000e+00 1.000000000000000000e+00 1.000000000000000000e+00 1.000000000000000000e+00 1.000000000000000000e+00 1.000000000000000000e+00 1.000000000000000000e+00 1.000000000000000000e+00 1.000000000000000000e+00 1.000000000000000000e+00 1.000000000000000000e+00 1.000000000000000000e+00 1.000000000000000000e+00 1.000000000000000000e+00 1.000000000000000000e+00 1.000000000000000000e+00 1.000000000000000000e+00 1.000000000000000000e+00 1.000000000000000000e+00 1.000000000000000000e+00 1.000000000000000000e+00 1.000000000000000000e+00 1.000000000000000000e+00 1.000000000000000000e+00 1.000000000000000000e+00 1.000000000000000000e+00 1.000000000000000000e+00 1.000000000000000000e+00 1.000000000000000000e+00 1.000000000000000000e+00 1.000000000000000000e+00 1.000000000000000000e+00 1.000000000000000000e+00 1.000000000000000000e+00 1.000000000000000000e+00 1.000000000000000000e+00 1.000000000000000000e+00 1.000000000000000000e+00 1.000000000000000000e+00 1.000000000000000000e+00 1.000000000000000000e+00 1.000000000000000000e+00 1.000000000000000000e+00 1.000000000000000000e+00 1.000000000000000000e+00 1.000000000000000000e+00 1.000000000000000000e+00 1.000000000000000000e+00 1.000000000000000000e+00 1.000000000000000000e+00 1.000000000000000000e+00 1.000000000000000000e+00 1.000000000000000000e+00 1.000000000000000000e+00 1.000000000000000000e+00 1.000000000000000000e+00 1.000000000000000000e+00 1.000000000000000000e+00 1.000000000000000000e+00 1.000000000000000000e+00 1.000000000000000000e+00 1.000000000000000000e+00 1.000000000000000000e+00 1.000000000000000000e+00 1.000000000000000000e+00 1.000000000000000000e+00 1.000000000000000000e+00 1.000000000000000000e+00 1.000000000000000000e+00 1.000000000000000000e+00 1.000000000000000000e+00 1.000000000000000000e+00 1.000000000000000000e+00 1.000000000000000000e+00 1.000000000000000000e+00 1.000000000000000000e+00 1.000000000000000000e+00 1.000000000000000000e+00 1.000000000000000000e+00 1.000000000000000000e+00 1.000000000000000000e+00 1.000000000000000000e+00 1.000000000000000000e+00 1.000000000000000000e+00 1.000000000000000000e+00 1.000000000000000000e+00 1.000000000000000000e+00 1.000000000000000000e+00 1.000000000000000000e+00 1.000000000000000000e+00 1.000000000000000000e+00 1.000000000000000000e+00 1.000000000000000000e+00 1.000000000000000000e+00 1.000000000000000000e+00 1.000000000000000000e+00 1.000000000000000000e+00 1.000000000000000000e+00 1.000000000000000000e+00 1.000000000000000000e+00 1.000000000000000000e+00 1.000000000000000000e+00 1.000000000000000000e+00 1.000000000000000000e+00 1.000000000000000000e+00 1.000000000000000000e+00 1.000000000000000000e+00 1.000000000000000000e+00 1.000000000000000000e+00 1.000000000000000000e+00 1.000000000000000000e+00 1.000000000000000000e+00 1.000000000000000000e+00 1.000000000000000000e+00 1.000000000000000000e+00 1.000000000000000000e+00 1.000000000000000000e+00 1.000000000000000000e+00 1.000000000000000000e+00 1.000000000000000000e+00 1.000000000000000000e+00 1.000000000000000000e+00 1.000000000000000000e+00 1.000000000000000000e+00 1.000000000000000000e+00 1.000000000000000000e+00 1.000000000000000000e+00 1.000000000000000000e+00 1.000000000000000000e+00 1.000000000000000000e+00 1.000000000000000000e+00 1.000000000000000000e+00 1.000000000000000000e+00 1.000000000000000000e+00 1.000000000000000000e+00 1.000000000000000000e+00 1.000000000000000000e+00 1.000000000000000000e+00 1.000000000000000000e+00 1.000000000000000000e+00 1.000000000000000000e+00 1.000000000000000000e+00 1.000000000000000000e+00 1.000000000000000000e+00 1.000000000000000000e+00 1.000000000000000000e+00 1.000000000000000000e+00 1.000000000000000000e+00 1.000000000000000000e+00 1.000000000000000000e+00 1.000000000000000000e+00 1.000000000000000000e+00 1.000000000000000000e+00 1.000000000000000000e+00 1.000000000000000000e+00 1.000000000000000000e+00 1.000000000000000000e+00 1.000000000000000000e+00 1.000000000000000000e+00 1.000000000000000000e+00 1.000000000000000000e+00 1.000000000000000000e+00 1.000000000000000000e+00 1.000000000000000000e+00 1.000000000000000000e+00 1.000000000000000000e+00 1.000000000000000000e+00 1.000000000000000000e+00 1.000000000000000000e+00 1.000000000000000000e+00 1.000000000000000000e+00 1.000000000000000000e+00 1.000000000000000000e+00 1.000000000000000000e+00 1.000000000000000000e+00 1.000000000000000000e+00 1.000000000000000000e+00 1.000000000000000000e+00 1.000000000000000000e+00 1.000000000000000000e+00 1.000000000000000000e+00 1.000000000000000000e+00 1.000000000000000000e+00 1.000000000000000000e+00 1.000000000000000000e+00 1.000000000000000000e+00 1.000000000000000000e+00 1.000000000000000000e+00 1.000000000000000000e+00 1.000000000000000000e+00 1.000000000000000000e+00 1.000000000000000000e+00 1.000000000000000000e+00 1.000000000000000000e+00 1.000000000000000000e+00 1.000000000000000000e+00 1.000000000000000000e+00 1.000000000000000000e+00 1.000000000000000000e+00 1.000000000000000000e+00 1.000000000000000000e+00 1.000000000000000000e+00 1.000000000000000000e+00 1.000000000000000000e+00 1.000000000000000000e+00 1.000000000000000000e+00 1.000000000000000000e+00 1.000000000000000000e+00 1.000000000000000000e+00 1.000000000000000000e+00 1.000000000000000000e+00 1.000000000000000000e+00 1.000000000000000000e+00 1.000000000000000000e+00 1.000000000000000000e+00 1.000000000000000000e+00 1.000000000000000000e+00 1.000000000000000000e+00 1.000000000000000000e+00 1.000000000000000000e+00 1.000000000000000000e+00 1.000000000000000000e+00 1.000000000000000000e+00 1.000000000000000000e+00 1.000000000000000000e+00 1.000000000000000000e+00 1.000000000000000000e+00 1.000000000000000000e+00 1.000000000000000000e+00 1.000000000000000000e+00 1.000000000000000000e+00 1.000000000000000000e+00 1.000000000000000000e+00 1.000000000000000000e+00 1.000000000000000000e+00 1.000000000000000000e+00 1.000000000000000000e+00 1.000000000000000000e+00 1.000000000000000000e+00 1.000000000000000000e+00 1.000000000000000000e+00 1.000000000000000000e+00 1.000000000000000000e+00 1.000000000000000000e+00 1.000000000000000000e+00 1.000000000000000000e+00 1.000000000000000000e+00 1.000000000000000000e+00 1.000000000000000000e+00 1.000000000000000000e+00 1.000000000000000000e+00 1.000000000000000000e+00 1.000000000000000000e+00 1.000000000000000000e+00 1.000000000000000000e+00 1.000000000000000000e+00 1.000000000000000000e+00 1.000000000000000000e+00 1.000000000000000000e+00 1.000000000000000000e+00 1.000000000000000000e+00 1.000000000000000000e+00 1.000000000000000000e+00 1.000000000000000000e+00 1.000000000000000000e+00 1.000000000000000000e+00 1.000000000000000000e+00 1.000000000000000000e+00 1.000000000000000000e+00 1.000000000000000000e+00 1.000000000000000000e+00 1.000000000000000000e+00 1.000000000000000000e+00 1.000000000000000000e+00 1.000000000000000000e+00 1.000000000000000000e+00 1.000000000000000000e+00 1.000000000000000000e+00 1.000000000000000000e+00 1.000000000000000000e+00 1.000000000000000000e+00 1.000000000000000000e+00 1.000000000000000000e+00 1.000000000000000000e+00 1.000000000000000000e+00 1.000000000000000000e+00 1.000000000000000000e+00 1.000000000000000000e+00 1.000000000000000000e+00 1.000000000000000000e+00 1.000000000000000000e+00 1.000000000000000000e+00 1.000000000000000000e+00 1.000000000000000000e+00 1.000000000000000000e+00 1.000000000000000000e+00 1.000000000000000000e+00 1.000000000000000000e+00 1.000000000000000000e+00 1.000000000000000000e+00 1.000000000000000000e+00 1.000000000000000000e+00 1.000000000000000000e+00 1.000000000000000000e+00 1.000000000000000000e+00 1.000000000000000000e+00 1.000000000000000000e+00 1.000000000000000000e+00 1.000000000000000000e+00 1.000000000000000000e+00 1.000000000000000000e+00 1.000000000000000000e+00 1.000000000000000000e+00 1.000000000000000000e+00 1.000000000000000000e+00 1.000000000000000000e+00 1.000000000000000000e+00 1.000000000000000000e+00 1.000000000000000000e+00 1.000000000000000000e+00 1.000000000000000000e+00 1.000000000000000000e+00 1.000000000000000000e+00 1.000000000000000000e+00 1.000000000000000000e+00 1.000000000000000000e+00 1.000000000000000000e+00 1.000000000000000000e+00 1.000000000000000000e+00 1.000000000000000000e+00 1.000000000000000000e+00 1.000000000000000000e+00 1.000000000000000000e+00 1.000000000000000000e+00 1.000000000000000000e+00 1.000000000000000000e+00 1.000000000000000000e+00 1.000000000000000000e+00 1.000000000000000000e+00 1.000000000000000000e+00 1.000000000000000000e+00 1.000000000000000000e+00 1.000000000000000000e+00 1.000000000000000000e+00 1.000000000000000000e+00 1.000000000000000000e+00 1.000000000000000000e+00 1.000000000000000000e+00 1.000000000000000000e+00 1.000000000000000000e+00 1.000000000000000000e+00 1.000000000000000000e+00 1.000000000000000000e+00 1.000000000000000000e+00 1.000000000000000000e+00 1.000000000000000000e+00 1.000000000000000000e+00 1.000000000000000000e+00 1.000000000000000000e+00 1.000000000000000000e+00 1.000000000000000000e+00 1.000000000000000000e+00 1.000000000000000000e+00 1.000000000000000000e+00 1.000000000000000000e+00 1.000000000000000000e+00 1.000000000000000000e+00 1.000000000000000000e+00 1.000000000000000000e+00 1.000000000000000000e+00 1.000000000000000000e+00 1.000000000000000000e+00 1.000000000000000000e+00 1.000000000000000000e+00 1.000000000000000000e+00 1.000000000000000000e+00 1.000000000000000000e+00 1.000000000000000000e+00 1.000000000000000000e+00 1.000000000000000000e+00 1.000000000000000000e+00 1.000000000000000000e+00 1.000000000000000000e+00 1.000000000000000000e+00 1.000000000000000000e+00 1.000000000000000000e+00 1.000000000000000000e+00 1.000000000000000000e+00 1.000000000000000000e+00 1.000000000000000000e+00 1.000000000000000000e+00 1.000000000000000000e+00 1.000000000000000000e+00 1.000000000000000000e+00 1.000000000000000000e+00 1.000000000000000000e+00 1.000000000000000000e+00 1.000000000000000000e+00 1.000000000000000000e+00 1.000000000000000000e+00 1.000000000000000000e+00 1.000000000000000000e+00 1.000000000000000000e+00 1.000000000000000000e+00 1.000000000000000000e+00 1.000000000000000000e+00 1.000000000000000000e+00 1.000000000000000000e+00 1.000000000000000000e+00 1.000000000000000000e+00 1.000000000000000000e+00 1.000000000000000000e+00 1.000000000000000000e+00 1.000000000000000000e+00 1.000000000000000000e+00 1.000000000000000000e+00 1.000000000000000000e+00 1.000000000000000000e+00 1.000000000000000000e+00 1.000000000000000000e+00 1.000000000000000000e+00 1.000000000000000000e+00 1.000000000000000000e+00 1.000000000000000000e+00 1.000000000000000000e+00 1.000000000000000000e+00 1.000000000000000000e+00 1.000000000000000000e+00 1.000000000000000000e+00 1.000000000000000000e+00 1.000000000000000000e+00 1.000000000000000000e+00 1.000000000000000000e+00 1.000000000000000000e+00 1.000000000000000000e+00 1.000000000000000000e+00 1.000000000000000000e+00 1.000000000000000000e+00 1.000000000000000000e+00 1.000000000000000000e+00 1.000000000000000000e+00 1.000000000000000000e+00 1.000000000000000000e+00
1.227094052475446832e-02 5.243562467911188074e-01 7.750703925945664485e-01 4.774296993448027271e-01 5.030206705785769117e-01 5.135299315948460563e-01 6.577836416240634421e-01 2.450794925421818093e-01 4.790254950570527193e-01 5.188911600315814221e-01 1.021979372039276024e+00 -3.476439814979223608e-01 1.193103727201535014e+00 5.060370495564878723e-01 5.026890664139789244e-01 5.236022368831375617e-01 9.873198994622717217e-01 6.833211685077551500e-01 2.218026197446174019e-01 5.087529699111434933e-01 3.459369030188162997e-01 8.813451161477341422e-01 3.161515236605150769e-01 4.917953439892469025e-01 7.210425068143692107e-01 7.906436666539461422e-01 4.959660940952790864e-01 6.178727355977585711e-01 5.140049539796026634e-01 1.024951543184349889e+00 5.654979905807717699e-01 3.346990113287048318e-01 8.304884458555089610e-01 4.959764147550681512e-01 7.517893375049174987e-01 5.637946482044384755e-01 4.599804842843809305e-01 1.061629347353526098e+00 1.009984213950613219e-01 5.169956270102754603e-01 4.029359065275573415e-01 -4.224696139686033858e-01 7.524297090112651576e-01 1.960672691832019143e-01 2.348978627612189618e-01 4.741725073126445977e-01 4.729076473047074680e-01 4.821949761134914914e-01 5.981374799858951707e-01 2.341824685839132697e-02 2.758960783542747236e-02 2.914328568423499299e-01 5.414899418843703849e-01 5.022998148407888941e-01 5.107250831196875618e-01 2.557680145696532639e-03 5.001809291600913809e-01 6.059144146039667778e-01 1.581829441577611850e-01 5.002331969061787342e-01 7.700139905573053500e-01 5.260826196295499413e-01 5.558845048907251618e-01 3.161497512811119459e-01 6.170333721377676550e-01 6.518718243326685480e-01 5.029602017847907280e-01 6.691294967162451091e-01 4.522157070366948362e-01 -1.679951651015534203e-02 5.141053906610371094e-01 4.830015972937546920e-01 5.124311620387418387e-01 2.655026178727592362e-02 1.305535594342257300e+00 6.471330415282802173e-01 5.982880795342226943e-01 7.840664119578633073e-01 5.070030838725886335e-01 1.292928263751462747e+00 5.268273198455897255e-01 1.639104008971552784e-01 9.395706833560971694e-01 5.870090515518702201e-01 5.043363112576046969e-01 7.399879109808056299e-01 8.543524756469045300e-01 5.181057080604819509e-01 3.140091871329292461e-01 5.664471861287586618e-01 2.328407430030489944e-01 1.596717432673525616e+00 5.245910846144170581e-01 6.020398748774579561e-02 3.137748002280345005e-01 4.977982261973104561e-01 4.956538886051236603e-01 6.256687268381565525e-01 2.137706956205258635e-01 7.782570339211477561e-01 1.053817889712675093e+00 5.393901009690660331e-01 5.001522317498559023e-01 1.083193952643308089e+00 1.468851108250311399e-01 -1.287418633913913313e+00 -8.805781498426727971e-01 5.577869972951826627e-01 5.420282633836371877e-01 9.306961013796675175e-01 4.122094758513230595e-01 5.595245911523795135e-01 8.165923017644067805e-01 5.143546698717076371e-01 4.590634285084828070e-01 5.567528217368956645e-01 3.774099737028626667e-01 4.933827095517953620e-01 5.308060522318306385e-01 5.854443156772033419e-01 1.138734360996368933e+00 3.246964751191285803e-01 4.752079686398761327e-01 5.800098920657800194e-01 5.493375993125136914e-01 1.628311974383942928e+00 5.355534646397512866e-01 5.530014742399600447e-01 4.867327617282599106e-01 5.064455255903616004e-01 5.055795670236599149e-01 5.126518365568396574e-01 4.385107493209169927e-01 1.886502833071473650e-01 5.057623723203373833e-01 -3.207951342737455636e-02 7.999415297896458332e-01 5.956980423204357583e-05 8.891846654555976004e-01 5.084633175208469469e-01 5.049468587677656828e-01 7.126313483287960437e-01 6.110412409366350328e-01 6.465916800899838002e-01 4.808747897325413856e-01 -2.503557312191582659e-02 5.110165791717099504e-01 4.771966115583916035e-01 5.351647213067383113e-01 -5.171067904574648821e-01 7.343460674977709823e-01 -1.500796155210309957e-01 4.741561186050683441e-01 5.185690998260477080e-01 8.211483983010413601e-01 4.868162006065121505e-01 9.918201103483004211e-01 5.520985039231205427e-01 8.100636038660034011e-01 7.799543204955244891e-01 5.489702926578037268e-01 3.995000622868843942e-01 5.093539820300621024e-01 4.866855497935537733e-01 1.140012045446602063e+00 -1.225781052802188131e-01 7.708137136970754089e-01 4.946202696528420040e-01 4.472666423377361089e-01 3.986276713926822923e-01 5.179188339382735373e-01 4.773364860433711998e-01 4.740611040995479364e-01 4.977405493034957051e-01 4.266656270113709515e-01 8.015378749165856520e-02 1.425364840108916953e-01 4.774334561521519082e-02 6.227161521831150459e-01 1.065694455607380409e+00 4.710937140913104559e-01 5.750954259181834116e-01 -2.380298545835903834e-01 6.621610606789043452e-01 6.366128443690223238e-01 4.158224908983855772e-01 4.922992625127071142e-01 5.011483277372316136e-01 1.953958239169531819e+00 8.382074667322019224e-01 5.727279154220981106e-01 -4.206331142474272755e-01 5.269382681090091225e-01 4.815945843604833021e-01 1.117786874330279484e-01 5.762345176664033231e-01 8.067957877641905862e-01 5.078324279432073762e-01 4.853152892095880522e-01 5.630921787625142727e-01 5.602098038020871806e-01 5.649234901464931236e-01 1.037791832693864880e+00 5.704215024549609270e-01 5.408757106267206849e-01 4.853152844206622407e-01 4.815259300903806383e-01 1.136748991241969042e+00 5.152024234735236297e-01 5.298587231143768728e-01 3.655290000208898382e-01 8.694274976230950691e-02 5.085806133417840602e-01 3.201152859215021240e-01 5.029457422382623832e-01 5.093601168846423333e-01 5.084383731075677870e-01 5.249877729165978169e-01 4.510037092544046944e-01 5.281391457926566391e-01 5.240611325951424204e-01 6.135274962407244459e-01 -4.488743903994708018e-01 5.483688661303257605e-01 6.461944167778882475e-01 5.555095929501153718e-01 4.859329905298763741e-01 8.013599473960233421e-01 8.174705752414135329e-01 8.089623877197714696e-01 -1.121522193220073627e-01 9.214140281932472476e-01 4.991962881400733298e-01 6.394872558004466301e-01 -6.381239230603440171e-02 4.941553350921493726e-01 4.206918100041527331e-01 3.908607297220242915e-01 -3.080001594384519648e-02 -1.657847505430938284e-01 4.524796748654127398e-01 4.959135672136286144e-01 3.190079299476638458e-02 5.343584682602994240e-01 5.368430479640219355e-01 1.044469493080490974e+00 -1.158505671311660656e-01 4.660331719796516059e-01 -1.267389478393609714e+00 4.830221151137746860e-01 2.280298551070690516e-01 4.917199440246600162e-01 5.538191337640734346e-01 3.161463298692080981e-01 5.155084302649566297e-01 5.250510767714845484e-01 4.804685827161038758e-01 4.930023755162855070e-01 6.335961959138726174e-01 1.496374936601949646e+00 5.594717883795665703e-01 4.819823632922230483e-01 3.366370806485221023e-01 7.193244416289255039e-01 7.737098956754253631e-01 5.206095193945931010e-01 1.973201752251958485e+00 4.667718685410106594e-01 3.624763172897521035e-01 8.347029523580492549e-01 5.007942766451595196e-01 7.743483958710426496e-01 5.104454475334612162e-01 5.240654439767670203e-01 5.047261809609390193e-01 4.775301710304600267e-01 1.726240296256225382e-01 8.861043171578939504e-01 8.478013354543021407e-01 -8.720151094370014178e-02 6.153873800088019985e-01 5.338470182415593346e-01 5.576925999912457632e-01 -4.147082713214788052e-01 3.479757249256591467e-01 8.435069269229937827e-01 4.558925880680177456e-01 5.051050303667663499e-01 5.567525264645896144e-01 6.291221006657419235e-01 5.168260729962772526e-01 1.613543402884199118e-01 4.563289521702533214e-01 5.328788872704299795e-01 3.268712370026827241e-02 4.936926060221888402e-01 1.665670414658167786e+00 7.105007646485665962e-01 5.046221146386566936e-01 5.353496678100173600e-01 -2.408137362472068332e+00 5.545692033203127869e-01 1.375524431914719070e+00 4.797548325543860570e-01 4.753354179865885154e-01 -5.670109110321676082e-01 5.133416621545482394e-01 5.158100493735554570e-01 6.209814689942643184e-01 5.086317924763963383e-01 7.078838472238604407e-01 5.600387780564721751e-01 3.291210530872658580e-01 4.922616412185122914e-01 4.550595842177899697e-01 5.090753863471541019e-01 5.038426756992189226e-01 4.773697290892860434e-01 4.991976856816389141e-01 1.041263475897298063e+00 1.963491034329171991e-02 1.949016500820438980e+00 2.098320484134205355e+00 5.498687053821931237e-01 2.777299355561755473e-02 5.240239955964979268e-01 4.533784016568709885e-01 5.631457840637641432e-01 1.150354027007239210e+00 5.551202019098706586e-01 1.005426408426334461e+00 5.098641933806299376e-01 3.066565660567178719e-01 1.164805452102503303e+00 3.944537811036854524e-01 4.219734728784129696e-01 4.930705532858296603e-01 5.434866516072190956e-01 -2.313210433752779682e+00 1.334836153254691293e+00 5.197791961580231490e-01 6.524197959882001019e-01 5.210342162541929945e-01 1.061629430195259793e+00 4.119420743013739727e-01 5.163497302880073470e-01 2.672437216180149622e-01 4.037594541151307559e-01 1.379714477687737251e+00 3.192815440458739440e-01 4.853152669814012610e-01 5.343681650983476139e-01 5.704215044570165594e-01 4.889707880888912728e-01 4.577143889580787550e-01 7.742102071265695162e-01 5.195268939876561687e-01 4.860286005409623633e-01 5.604186945376964379e-01 5.066974850772983929e-01 5.029689745833267889e-01 3.831215933868801216e-01 5.163498910022650268e-01 5.499625059381069159e-01 4.983363732755123898e-01 4.936153275970783239e-01 1.069434568882078329e+00 8.831086331594015792e-01 4.973187336778496781e-01 6.708437433009454276e-01 7.668005288563460864e-01 -4.892192355821532029e-02 8.373498631189244534e-01 4.708497309097420813e-01 1.709018213121331342e-02 5.584589115994149644e-01 1.102636937207000178e+00 5.411694540733372749e-01 3.813677056580693780e-01 2.238643236515366897e-01 -2.406071914104373211e-01 -1.775763769872692244e+00 4.285218463179824022e-01 5.704215024463046291e-01 5.704215024549436075e-01 5.101151026219424844e-01 3.152943850117014835e-01 -4.849256845023654922e-03 4.868335256198785821e-01 5.045267009518192847e-01 1.723344930185834456e-01 4.879287760914134964e-01 1.159833474336625869e+00 4.853152636492100713e-01 5.062584492475351583e-01 5.052948137430647302e-01 5.280485865802032608e-01 5.422878213941025871e-01 4.869772059613257098e-01 5.569448072080960266e-01 7.481676747739004485e-01 5.670126309941433407e-01 4.775255707239862979e-02 5.704215038380749947e-01 5.885464776870644732e-01 5.052903472013154929e-01 7.878737100709669594e-01 7.521675701595152974e-01 5.855331708947160152e-01 5.523637754985115667e-01 1.160357764912831602e+00 4.120722939477322044e-01 -1.684388305577323885e+00 4.774370700020899583e-01 1.260369665542298900e+00 5.047253786842277323e-01 -5.737584336918845063e-01 4.777887224677297429e-01 2.867759157533251169e-01 7.630705538355125883e-01 5.019640362568753567e-01 6.857671760024959262e-01 5.031949518360410156e-01 9.806950499615375572e-01 5.337780047420976892e-01 2.532926183731880609e-01 4.933661386284463046e-01 5.121560243470067997e-01 6.938811096465682393e-01 5.068827554586239348e-01 8.237604406786377398e-01 -8.460709010865478941e-02 5.555521014591504603e-01 5.002685643689185335e-01 5.156250811347947716e-01 5.202830498759772881e-01 7.253242044490467721e-01 5.040003133705507343e-01 5.482443850846585587e-01 8.473125329354985746e-01 5.099194091142964513e-01 2.785225214176818564e-01 8.498008207913457235e-02 1.247359714231097705e-01 8.378162164816079782e-01 4.977992504886844527e-01 2.530647846282032543e+00 5.968378755713005246e-01 5.124653175394451310e-01 5.897642508400200434e-01 7.819579980517756823e-01 1.245711686612724009e-02 4.921949243018040598e-01 4.853289992628900262e-01 5.087499133655970507e-01 1.088908108783888551e+00 7.256996338477005315e-01 5.030668006108695023e-01 3.580029243578715659e-01 9.469677757749651592e-01 5.563988935547037329e-01 5.076980774154360443e-01 5.324433743920933271e-01 5.822228097229779076e-01 5.134449558157085924e-01 7.421363541568590794e-01 5.193096950357454222e-01 5.016518964437088890e-01 1.476309732630178874e-02 5.249628241245684057e-01 2.248710976846531040e-02 5.277611399335165876e-01 5.053898571335977419e-01 5.175634490451797021e-01 6.928580047615988668e-01 4.904015388998015923e-01 5.529403243083091946e-01 1.001168471801089921e-01 5.482866173621402384e-01 5.185362735125711442e-01 3.764461966077944366e-01 1.706510893522825145e-02 5.144033986997601504e-01 7.065743442164762467e-01 5.061230310989416337e-01 5.688681263623764917e-01 8.480789480794247437e-01 3.365880369171784237e-01 4.763418592900375836e-01 5.174155422761231859e-01 4.955001536617939517e-01 5.232019289184184352e-01 8.792118441485619051e-01 5.555169995591283660e-01 6.411491779494385979e-01 5.851847038730427775e-01 1.590271333667222509e+00 5.483655149829821385e-01 5.256332384872883789e-01 5.994947458074502133e-01 4.557648560937637705e-01 3.484336056733314813e-01 4.474632323294818192e-01 -3.914349083537598251e-01 6.112979509864713279e-01 5.214435923744030754e-01 4.736411284626806384e-01 4.046696197885230606e-01 -2.533561535185050451e-01 4.215777392963552250e-01 5.060998196029807827e-01 4.394790214756295610e-01 5.962851401092759129e-01 4.624697359600645208e-01 5.073117938823490380e-01 4.918540438961334638e-01 -2.631343720280561183e-01 5.372534277673544079e-01 9.071620857838200713e-01 5.942992224093007758e-01 8.961593887732811903e-02 5.572260846835188630e-01 9.848510925607729949e-02 4.515667801371212597e-01 6.174985141423191548e-01 9.717471100455814526e-01 8.414618982990559326e-01 4.755677788883455603e-01 5.239541996568789495e-01 1.501254428925040407e-01 4.781935570869512153e-01 5.116318648352842224e-01 6.646930397394615886e-01 1.503499204930246885e-02 6.282356693605353204e-01 6.263689466545508955e-01 4.746106432232344852e-01 5.467203208247758406e-01 6.902571362640306241e-01 3.088071124992357586e-01 -1.046364651652830768e-01 -1.061435062145382330e-01 4.974873200619359670e-01 4.892271215925748096e-01 5.100865819747975038e-01 4.816375984968442880e-01 -4.949739586841389039e-01 2.489953242817176449e+00 2.586612246080699506e-01 5.191663518697225976e-01 9.931712066930497018e-01 5.042145267388802310e-01 4.839334286151426023e-01 5.058233275332163492e-01 4.926933570123118722e-01 4.286352153886590632e-01 5.025347948427030254e-01 5.549478452676617213e-01 3.926725201695076550e-01 5.449066882056021743e-01 5.389731029230537818e-01 4.143271291234407738e-01 5.938565094438139624e-01 5.100006687508994441e-01 5.166343901199311750e-01 7.955163542298613333e-01 1.913441421697464007e+00 4.047241344214931869e-01 4.854283398874744138e-01 5.608444457629845337e-01 3.549941640736920534e-01 4.545473092843764773e-01 5.041171328505397176e-01 5.185008765862821889e-01 4.367184497582182745e-01 5.162484316029571918e-01 5.214331430666492295e-01 4.787479430629386634e-01 5.966151879451263573e-01 4.468515913485991420e-01 9.872573577594954131e-01 9.304951670115051421e-01 2.499184331452004304e-01 7.714550615116553267e-01 5.146032638165105588e-01 4.556706077691940471e-01 1.762426853808566118e+00 2.338264105187379260e-01 5.167520165036237900e-01 5.125830166424341083e-01 3.479073362879037817e-02 4.910191232615132573e-01 1.256396965983035852e+00 4.993976539931095915e-01 9.261642998095513946e-01 4.994201305980535688e-01 5.156552519264631096e-01 4.878916312388382748e-01 3.985548030546902099e-01 4.836352423682387935e-01 5.018959198658137222e-01 4.800131919140803172e-01 4.811394265568780249e-01 2.820218155781281655e-02 4.868496037196668458e-01 4.678604723452351455e-01 5.209387892538618337e-01 5.355536418715768354e-01 7.714236654819587313e-01 6.736201879128400627e-01 6.255274287202029493e-01 8.932470773513500051e-01 -2.325851784153275537e-01 5.018613416089364732e-01 7.862404761551931021e-01 9.077391976532716011e-01 5.098911338559903861e-01 5.000931375787424082e-01 8.146692010531374206e-02 -1.136604498745259484e+00 3.745316494492548220e-01 5.887156689109317442e-01 6.630575310297374125e-01 5.074323335458816864e-01 5.735449765014677403e-01 5.349086240390988900e-01 -1.542973803617577189e-01 7.760375267715036163e-01 5.567527845604200998e-01 6.880736184090389118e-01 5.022794039464043570e-01 -1.305240048047445200e-01 -1.773140599635949222e-01 1.233254377317904993e+00 4.650849984202259924e-01 4.349401213719416015e-01 5.000841882646993586e-01 4.060110166946866439e-01 5.094858041441017171e-01 6.175747389400014775e-01 7.804851849624340199e-01 5.036394243038280205e-01 4.682587558666312932e-01 4.731668539232416482e-01 5.237402408303101220e-01 5.238264516802233484e-01 4.475931581820934979e-01 4.892500303500372238e-01 5.502043986292716182e-01 8.893730236425154700e-01 4.259488619470961357e-01 5.169273317652068878e-01 4.956906344851312873e-01 5.090430242663108729e-01 6.242617120932257846e-01 3.194117038342280529e-02 5.163497471866238531e-01 4.372467344296208092e-01 4.796614996707494472e-01 6.528803063971682086e-01 1.197561645092002136e+00 4.474765556826509894e-01 7.528352930526071435e-03 5.495840059252051768e-01 4.725881632976578484e-01 5.328191829939562529e-01 4.716974668217441824e-01 4.624929042743290419e-01 4.567106653887201273e-01 4.827437926653614375e-01 8.280383095123731163e-01 -4.667734299906144413e-01 1.626014787514148185e+00 6.052669391417145883e-01 7.796295027581512382e-01 3.216447406982040347e-01 4.213943428351474285e-01 3.325855807664165331e-01 1.592429663951415997e-01 4.924069291258599823e-01 5.633743788698668542e-01 6.039151085449993156e-02 4.943047302530203524e-01 5.407329629286825590e-01 5.148576164752147744e-01 1.034702266032439200e+00 5.233123338087408705e-01 3.430639640954566971e-01 2.374205144999497752e-01 5.225033628297721666e-01 2.281543153737908558e-01 5.039293842265959444e-01 5.879938931220369813e-01 5.332317427214477989e-01 -4.540235527938305538e-01 4.493740556235018002e-01 5.845534577297571976e-01 4.884324670730009754e-01 4.784194324910568397e-01 7.688567299044373193e-01 7.571827686808926261e-01 -3.547064938057597483e-01 1.019274966725341125e+00 1.061629361287335316e+00 5.777653676625574830e-01 4.647429553123067492e-01 9.433875406933621699e-01 5.254824998251114154e-01 4.773805253161783613e-01 5.052311741858088734e-01 1.134670346886443415e+00 5.016253221302942045e-01 5.343637730875669956e-01 1.158724359313206609e+00 -5.334095889228589876e-02 7.267342711358337759e-01 -7.604296009604707973e-02 -6.015025669017788346e-01 -1.775589738008500618e-01 6.924466527884668432e-01 5.057459769006557027e-01 4.220828545285434941e-01 -3.229876441998705272e-01 5.484869217654887441e-01 -9.177111214035679754e-03 2.555514782713847466e-01 4.095414811834593438e-01 5.024910179586316028e-01 5.284306903597303373e-01 4.950242733820824359e-01 5.548162697868327387e-01 7.916902157401816131e-01 2.334965495502530283e-02 5.047440439547501434e-01 3.887289087451529790e-01 6.076913546798385912e-01 1.038286872553745299e+00 2.951578683191461994e-01 6.723870625704297943e-01 5.725532301875455587e-01 9.076199360166749275e-02 6.876758615614959602e-01 5.213347085514635770e-01 4.811594857933136349e-01 4.971508463751267426e-01 5.227158447560669163e-01 5.654913277333650790e-01 5.007106623391694988e-01 5.294798569286882639e-01 3.143089717731153976e-01 4.073006724006919543e-01 7.886520057919810256e-01 2.015060041665642565e+00 -1.266931871483245875e-01 6.211025271590627783e-01 4.773013435548866812e-01 4.630967697609904010e-01 7.288390661106223245e-01 1.934086896284358259e-01 -8.053269326413500240e-01 5.129349737865775971e-01 2.079995514127705558e+00 5.012167287875438637e-01 1.883958315278733420e-01 3.442285498631715845e-01 5.567528021948654482e-01 6.919387236384342277e-01 1.190438853793292617e+00 3.639848387288255882e-01 8.174048246486859126e-02 5.692314772797320011e-01 1.101705114254401874e+00 4.160593572687715236e-01 5.197218125068499006e-01 5.325978379715773370e-01 8.176399493762557258e-01 5.922282725817760163e-01 4.112893438002618307e-01 -1.903421671652319805e-02 5.115125708900756241e-01 5.040690414857494916e-01 -3.971044847627074881e-01 4.922324195659990020e-01 1.037033124251499183e+00 2.423771414113395084e-01 2.828677455184874789e-01 8.767560432113337132e-01 5.210049313665457982e-01 1.737946284394035645e+00 4.503467447595145279e-01 1.150805962174617642e-02 6.230435848705999646e-01 4.680530670982712693e-01 5.976218088576161769e-01 4.758470836817876859e-01 6.674463656571340275e-02 5.087077020266850269e-01 -8.046027117255509509e-02 5.097362650861543276e-01 5.624564381761508747e-01 1.700951012389539940e-02 -7.812935001219219189e-02 6.020338264045043131e-01 4.436329942080339261e-01 5.162895686301139930e-01 4.766807209911820831e-01 6.713678455875077278e-01 5.140079606749947683e-01 5.653363016630199578e-01 5.865761768631897466e-01 5.312997109307646681e-01 6.837962493029527966e-01 9.552664860930087931e-01 2.492365763734055495e+00 3.728372321543075296e-01 5.142481922271208150e-01 5.110559602157096482e-01 1.439473249911459030e-01 4.941086046463296078e-01 5.020155302528014341e-01 5.351786674460048410e-01 1.276027464277603940e+00 4.251312152355107288e-01 -3.721973494708674668e-01 6.763290200176121092e-02 6.616464072925832829e-01 5.811480204113711467e-01 5.064815943499948458e-01 5.337079522913478202e-01 6.266104762689964081e-02 4.993053832879467135e-01 5.152561349551050274e-01 -1.817562601679042267e+00 5.295603480416373188e-01 5.146262076457293055e-01 9.752686744165397492e-01 5.413022614235732943e-01 6.739192852045118309e-01 7.877596293086381873e-01 -5.401861725213206178e-01 -4.569207519522632266e-01 7.178808906433181182e-03 5.021647701709280875e-01 5.124733691421342607e-01 9.946188136968421301e-01 5.043076720718695505e-01 -1.684630888152949257e-01 9.069464514471724526e-01 5.116614008330149233e-01 6.596289523846304848e-01 4.947941439244182837e-01 4.609694934509808717e-01 2.888197307290131799e-01 -3.895270888737564219e-01 4.397560234131553392e-01 5.059320941754070766e-01 2.550142286564482941e-01 4.605080140964118440e-01 4.070843708820472973e-01 5.073236869945865202e-01 4.566730638823656152e-01 4.953412034062119051e-01 4.494440020117707602e-01 5.116931775462282284e-01 1.061629346801222118e+00 5.280169416874173072e-01 4.786539136886180934e-01 8.361818241673778240e-02 5.225389083893645648e-01 5.284196701077362723e-01 4.983450461296151657e-01 3.866349184667315919e-01 3.499102711922068010e-01 6.814547504248813503e-01 2.953172155539242061e-01 5.426719712783342198e-01 5.167725109322564014e-01 5.093049390017597711e-01 5.386836397194884052e-01 4.823218282238699306e-01 4.940699867304711446e-01 1.019190562529468602e+00 4.746317081316325792e-01 -3.037890665261699930e-01 3.470982985990921366e-01 8.191235312806049995e-01 4.758606718799839874e-01 2.183138429335770847e-01 5.237663463239301542e-01 1.738280390600916714e-01 -2.150898934711462790e-02 8.100566080894352483e-01 3.656958576748975953e-01 4.706424209691847937e-01 4.739255226762694173e-01 5.106612467374773701e-01 3.873386971160444614e-01 1.242227469369636683e+00 5.253350636198992341e-01 4.138681750607265397e-01 7.299708971416905834e-02 2.805280593975920667e-01 1.052140446857371181e+00 3.754273083709905867e-01 5.416337291922606045e-01 3.726130005989037874e-01 -2.228676059072226268e-01 5.605896766450607638e-01 1.090891523451495537e+00 -6.904214819487930477e-01 5.795406892510656105e-01 5.234140475226882749e-01 -1.582901367243543522e-01 5.208770853699746795e-01 4.833731125378918358e-01 5.579471745712500930e-01 5.124563612066760365e-01 4.603955903903308444e-01 3.077580287126573944e-01 5.261747092962411054e-01 5.159798216432261997e-01 5.077010469489144917e-01 7.183642780462523580e-02 1.000595075149895763e+00 5.069296608959311667e-01 9.851168104588204910e-01 5.859495588217417117e-01 -3.955766212124494641e-01 7.097991063049896576e-01 4.974374613057113703e-01 3.180278235179447299e-01 -4.115312679758198824e-03 6.372791612713354370e-01 4.917474130588696535e-01 5.054488713081930484e-01 3.967253862804133169e-01 2.811884473807137186e-02 5.221382128309196569e-01 3.715998594108383957e-01 5.547100847050759898e-01 1.776211840798964658e+00 6.470949171093876018e-01 3.418778117668967997e-01 5.022217596431023390e-01 1.500626243047122443e+00 2.085075531480788946e-01 5.171588000760706239e-01 6.565564598327432444e-01 5.163497315544750554e-01 5.003087628217393057e-01 5.407580994929762630e-01 4.731057868214658679e-01 5.284043933301183493e-01 5.456790872180561358e-01 5.074127778444593728e-01 -1.088795194099092534e-01 5.153442389100506560e-01 6.352253749698243412e-01 4.743253730112658717e-01 5.475826140866512093e-01 5.034317615911680921e-01 -7.945117057543338301e-02 3.741550014280506931e-01 -6.163195535098031641e-01 -2.537220790906982715e-01 5.129931010896791044e-01 4.895641929506705514e-01 5.875027291156545983e-01 5.255529598393343660e-01 4.399228254206475341e-01 4.219986261219347834e-01 5.163497245638386524e-01 5.101054075359714446e-01 5.990703076601033850e-01 5.609155523291285972e-01 5.000818778677463827e-01 9.025943315512122700e-01 5.838600977086141341e-01 4.732770865182971409e-01 1.638361467865851184e-01 4.978213283825824176e-01 4.965881099332228321e-01 5.133466213304923587e-01 4.187271955927739930e-01 5.117235708109049153e-01 7.372318174682555014e-01 7.181240610903485422e-01 5.120166673100079446e-01 5.537369636743173507e-01 1.451008975179136906e-01 6.900841000214743559e-01 1.675926010105205810e+00 5.130091820327263852e-01 2.608687393575442326e-01 6.230524935963706046e-01 4.851560615219364658e-01 1.014269089716585359e+00 4.659866411598845293e-01 7.962000872192830370e-01 5.064032579725672445e-01
7.131178908880924094e-01 3.006957341095209402e-01 4.789346337082679983e-01 4.618601389048277439e-01 3.228744501112630894e-01 2.877751120186156641e-01 2.946916482371086388e-01 5.304272531073430663e-01 4.106764244124748719e-01 3.007766605995190190e-01 1.670451860347359263e+00 1.443372664628347568e+00 -9.914790914965209145e-01 3.165460195423651091e-01 3.825718007537561860e-01 2.609744529786832690e-01 2.088925224069568265e-01 3.686597968243693901e-01 1.719946652375291540e-01 3.119734285083656244e-01 4.827579208307264946e-01 1.631694143133753272e+00 2.976596245468682844e-01 3.443977196858869494e-01 1.900344751145968403e-01 -5.650393855893854900e-01 3.032847746000822409e-01 2.321364139916358704e-01 3.033488035038591768e-01 -2.602889966413879930e-01 2.511379756452572498e-01 3.979206522334915452e-01 3.559630152561895633e-01 3.295956032140559544e-01 -2.647295644334022313e-01 2.569518160971314136e-01 3.447606203429601779e-01 9.447274775652199363e-02 -2.361286841170274542e+00 3.125972337855225103e-01 4.643027988737871148e-01 1.218816144092261244e-01 -8.377012000148893744e-02 7.053353021212760421e-01 8.959318476180196944e-01 3.707796239891859025e-01 4.603686957368214872e-01 3.255869627899660723e-01 2.147358769576697690e-01 8.047714775153983480e-01 7.760080229425532217e-01 2.815416230293628086e-01 -6.797560251894356753e-01 3.280841339293585901e-01 3.162803155590879767e-01 7.365407634556654370e-01 3.279751754197672842e-01 1.731009578204646127e-01 3.727810346164805444e-01 3.296872486139389435e-01 3.520166122157634137e-01 3.843212589270645907e-01 2.814563934936407108e-01 2.976597821699811797e-01 6.642417794695203159e-03 2.167292235453832372e-01 3.251913558810732297e-01 1.911353548437052241e-01 4.044763682705931895e-01 8.374079478710598767e-01 1.812699156596093431e-01 3.023479618818037395e-01 2.915791213334582577e-01 7.775542815369372862e-01 1.545453885974613861e+00 1.963652068921125649e-01 3.973761790326083010e-01 3.936887504249004244e-01 3.374619757153297095e-01 -1.000243559823577266e+00 2.857304536950117657e-01 9.295299463247103100e-01 1.321680275740962252e+00 1.893675588930461007e-01 3.654817998866711215e-01 -6.758392459374231720e-01 -1.391057318354962588e-02 2.960648147871360325e-01 -4.260726723543705741e-01 -5.153726692444132729e-01 9.011960533579174148e-01 1.116271476323407397e+00 2.726426590371893721e-01 7.683259895285293739e-01 5.573586584674721234e-01 3.595261811622726955e-01 2.144969922341238011e-01 2.925476800587296644e-01 7.782467481574996127e-01 -5.749918081532870984e-01 5.554201685999279881e-03 1.991832376268717897e-01 3.275927553656910463e-01 2.849232604632118693e-01 3.248578346835390152e-01 2.242949779889821915e+00 -1.665781019038599930e-01 -5.564380207428731850e-01 2.568265424607856229e-01 7.061088416822509650e-01 4.338895714845926177e-01 2.639011692730837133e-01 4.224441041563044563e-01 3.058127509464688143e-01 -5.595236931691017768e-01 2.468962269462737780e-01 5.560400132204511570e-01 1.442961696127923465e-01 -2.091518887731577958e-01 3.230244210217237955e-01 -1.115157832657148518e+00 2.894107712934859133e-01 3.560342751263106953e-01 1.019466259706984512e-01 2.395352825294423671e-01 1.678566168821391313e+00 2.400104592868458064e-01 2.890217653412029408e-01 4.016913959929825917e-01 3.129263440916311700e-01 3.018609040717050718e-01 2.987045596102156919e-01 3.416965719795758694e-01 1.502730501353947423e-01 3.381796428842127611e-01 9.269978293761059751e-01 8.650805225153372635e-02 7.983454112378191025e-01 -2.384432911950214451e-01 3.013871216051057789e-01 3.246632936257424773e-01 3.188282296318906139e-01 2.547366840810435518e-01 3.330141025079942918e-01 2.871351062805638787e-01 7.400071757305577425e-01 6.683455278264383015e-01 3.181845493767265221e-01 4.112334784428216539e-01 3.427312324704941959e-01 -5.228825368612359803e-01 5.727699694603988201e-02 3.707298859331447649e-01 2.988925376775336540e-01 4.907135292282462924e-01 3.821380207433441312e-01 -5.936877908851676544e-01 2.961254287522906981e-01 -4.892672321203477837e-01 -5.819483685016381136e-01 3.037643078259565366e-01 2.062456327124417010e-01 2.936851412570858910e-01 3.389171208669836677e-01 1.329769742801656732e-02 -1.179686018196431652e-01 3.866828104145632050e-01 2.586386888017500607e-01 4.325679127839592297e-01 2.334237730072777905e-01 7.324412875249298738e-01 4.616871296358860954e-01 3.712029586416285554e-01 3.343757554005254984e-01 -1.944529302761746958e+00 7.262980381739471136e-01 8.251441385578736076e-01 1.033394913597512454e+00 -3.448064895170721011e-01 1.059932454331555141e+00 3.612628274928280647e-01 2.596527422735073198e-01 1.025540266073948770e+00 2.701553959082824696e-01 2.721358523592327661e-01 4.756610906980212605e-01 3.377546586953380503e-01 3.332269288658813999e-01 -1.721659892967557226e-01 1.327170224361711448e-01 4.821231180596901589e-01 6.251820551920865832e-01 3.096071650304479395e-01 3.973151727585955140e-01 8.562834875709873783e-02 3.328444930974805427e-01 -1.013195570013138980e+00 3.060702952839262081e-01 3.995869318473874721e-01 2.327760622622594977e-01 2.790624632934845528e-01 2.472194252183974872e-01 2.192880031675464858e-01 4.854487421865175817e-02 -9.369122595073031690e-01 3.995861589830012606e-01 3.418135671123312957e-01 -3.593035803272385253e-01 3.332605219104894934e-01 2.868786279577735243e-01 4.775737576146472652e-01 -2.370910519874199096e+00 3.037346199993354867e-01 8.499236056095206271e-01 3.229896268885554256e-01 2.895979349445297890e-01 3.140026727072207091e-01 2.933647131073089387e-01 2.970599168008661306e-01 3.213564394039861161e-01 2.872265004261307930e-01 4.136197667482139906e-01 5.442413458179113928e-01 2.881923819408746534e-01 2.763725292322666838e-01 2.280039778562095720e-01 3.486760470054786620e-01 -3.996979041004902061e-02 1.594419941795998108e+00 -6.838841607888321295e-02 1.060566694018612255e+00 -1.185940524960445774e+00 3.293669857862584482e-01 1.952388343493300371e-01 2.660702259320104623e-01 4.422315662196536490e-01 -2.123527114295568619e-01 5.173910638188526923e-01 2.193991383821749241e-01 5.762532550222452254e-01 5.699730476983410066e-01 3.433684292499001312e-01 -8.885668333766564286e-01 2.641130987737002611e-01 2.775378664054017896e-01 3.935271444623458098e-02 1.052840168377889629e+00 4.475722301393076918e-01 2.110785623561361124e+00 4.427948658978084762e-01 5.400467907178286842e-01 4.237581231821255789e-01 3.189886508017560351e-01 2.976625825583943952e-01 2.712844956284857223e-01 3.018176227443131743e-01 2.933177801012323838e-01 2.962696085604945573e-01 3.545881190605666422e-01 5.299613377449013951e-01 2.368930924527255788e-01 4.135723966091980341e-01 3.904200440687545237e-01 4.750743196297190218e-01 3.453769575774414125e-01 1.765786391841829284e-01 2.261657507689354141e+00 2.689196211609949372e-01 6.710680874981186372e-01 1.108389040992609903e-02 3.211920787947494249e-01 3.641542750165897013e-01 3.102851632455251307e-01 3.012082113999655086e-01 3.223403788081468657e-01 3.911105879879429037e-01 2.116930309926622900e-01 2.828456962069708092e-01 -2.067235328727630092e-02 8.539476361557028772e-02 1.233334709202553281e+00 3.099836533331559729e-01 4.178117153097778841e-02 1.736853498588340816e+00 3.669308857701716886e-01 7.220347588885750456e-01 4.253645930861575941e-01 3.276124174116266108e-01 2.468972928549460488e-01 -1.666689469824788050e+00 2.986561726041046527e-01 6.087887803070134440e-01 4.821031224907516566e-01 -4.257691029913805991e-01 7.304188297442337774e-01 3.271287620608065438e-01 -5.346906889244972261e-01 1.740143243527052797e-01 3.206613012917944872e-01 4.117780349517055072e-01 -2.097860448200325467e-01 2.820804137614731921e-01 -6.225996017800611293e-01 4.626045852278132808e-01 3.292207566931739660e-01 6.489694134088841437e-01 3.196471499414195727e-01 2.746357244014194232e-01 2.878913885593449296e-01 3.222736375852276458e-01 6.964944664852208700e-04 -5.778715105896838899e-01 7.407819131350440456e-02 3.401154843557739893e-01 3.322565909010369301e-01 3.143589938045941445e-01 3.214899500747979144e-01 4.619027951247478003e-01 3.145881987502737731e-01 1.887259130391423678e+00 8.004538457259037232e-01 2.425211609910566946e-01 -7.842052309391775999e-01 2.369169098322170264e-01 3.241362038100374487e+00 2.891977253040302065e-01 1.880940654945164603e-01 5.252050209236377443e-01 -4.041899825193215889e+00 2.983173217001189315e-01 1.122855689779609811e+00 3.235366173809998136e-01 5.783539051527086805e-01 -3.365758160987526448e-01 3.657846052379859492e-01 4.054250281824277047e-01 3.240775316034148479e-01 3.252465774791478692e-01 2.045579866375252021e+00 -2.308193936035312643e-01 2.874251147847909360e-01 -1.606393290550967690e+00 3.010588857847746325e-01 9.447270619511158318e-02 5.582230378958857875e-01 2.957467371027213687e-01 4.230845400078325769e-01 4.666279812918430192e-01 1.343466638857675921e+00 4.250140147895009601e-01 3.995874832622066108e-01 2.641037659558982398e-01 4.854487297151185293e-02 1.482524532821760943e-01 4.198530724734990671e-01 -4.513093881062841817e-01 2.884406913552799989e-01 5.492098924141093352e-01 2.682261803497236752e-01 3.052449055618680629e-01 3.172830104522246231e-01 1.412273244345389200e-01 2.957469079914387677e-01 4.990249615667854410e-01 3.234129736256609600e-01 2.954084881154156461e-01 7.295561466964546327e-01 2.021004619794629864e+00 3.182848442775948472e-01 4.536966377907465375e-01 3.474158693487521266e-01 9.320287126341409989e-01 3.647316171598037338e-01 3.927214951542508103e-01 7.927617617024524943e-01 1.215870552315372055e-01 1.635261720219993997e-01 2.763099262378386212e-01 3.341590621133322392e-01 8.879195158806139077e-01 6.148234089787733003e-01 7.060774990395175532e-01 3.508525743105656014e-01 4.854487424812985175e-02 4.854487421768056976e-02 2.911216047048363342e-01 4.571491236877175957e-01 1.100581192810883957e+00 -1.407300910742491917e-01 3.380224433119822791e-01 4.070588951562034152e-01 3.328798158624557413e-01 9.041615423935579487e-01 3.995858744011211439e-01 3.079688775610647800e-01 3.268835439866760728e-01 1.132941841033049402e-01 -4.969788673826693870e-01 4.907978547314215678e-01 3.259110209401730462e-01 2.425761865431338427e-01 2.784822102491948947e-01 7.516737164982157937e-01 4.854487051265986286e-02 -3.268299906479668615e-01 3.237538789230721692e-01 -1.037399352635551969e-02 -4.468998254540162418e-01 2.530267735802119167e-01 -2.570339768045608597e+00 1.123038028525619847e+00 3.335031385217303579e-01 -1.600837482681064516e-01 4.620401078037895681e-01 1.556820910366488508e+00 3.152883126369837030e-01 5.017754573493752313e-01 8.166970784530079852e-01 4.873552703268285713e-01 1.544296563166227543e-01 2.959719552181539481e-01 6.232388110724002006e-01 3.318705154765221321e-01 1.589241930238075806e+00 3.226806429115641750e-01 8.194560944398301960e-02 3.497402999017630854e-01 3.096104167647375505e-01 -1.160009671083522598e+00 3.058281946122186623e-01 3.773760173430013021e-02 3.896195869437906745e-01 2.429054655947217589e-01 3.137742195812503465e-01 2.511358564195236842e-01 2.896209743556139027e-01 -1.361096656609874223e-01 3.157888161750568856e-01 2.882393464792579185e-01 3.233853472481638680e-01 3.137544086063143167e-01 6.887338645045896213e-01 7.120444739061343453e-01 8.513121694205034728e-01 -9.025431910893580989e-01 5.125889761580397774e-01 -1.366384918233996132e-02 -3.334834900072837782e-01 2.370668331870939283e-01 3.488875581158947803e-01 3.274444275752524391e-01 7.791080825602378912e-01 2.886431722691145119e-01 2.800296234118894723e-01 3.242167100721049522e-01 1.089718205248233485e-01 -1.359059736386329653e-01 3.282420596197742069e-01 5.092474961484273477e-01 4.304531910805803330e-01 2.907924294553874134e-01 2.958031486150124456e-01 3.307606660286210309e-01 4.737830640041058583e-01 3.090817278714929617e-01 4.581676807438285759e-01 2.893191017959619304e-01 3.154153842786602269e-01 7.871062524088430212e-01 3.210215792852010308e-01 7.658546964844216154e-01 8.534098241863270762e-02 3.336706136261978761e-01 3.115251127916744411e-01 -1.148953070896651552e+00 3.150514131782797267e-01 2.038011886567477338e-01 5.295876911396186770e-01 2.656277884238348319e-01 2.893063250764447703e-01 5.302722791802206848e-01 7.808821884021853732e-01 3.097977234060356744e-01 2.835010627310485254e-01 3.155794344929751527e-01 1.482159052368074714e-02 4.351973307774784638e-01 1.738973381007391517e-01 3.095181105920387088e-01 7.348414442462208873e-02 3.121391463481947848e-01 1.395515498308259605e-01 1.215037402844769687e+00 2.495804679279263749e-01 2.464040778781388941e-01 2.824764791534909447e-01 -5.413144420853410743e-01 3.634310282914082757e-01 2.446098437099955836e-01 2.826290006651615005e-01 4.825326505641302499e-01 4.686064549238121435e-01 7.371526407909090306e-02 8.173640054424600176e-01 4.912051728375432802e-01 1.994573288835787828e-01 3.833146532825643105e-01 4.151276248408917735e-01 7.026358969394622678e-01 2.304757731437650392e+00 3.420592593707117990e-01 4.333046624471806330e-01 5.912244302812218466e-01 3.874341936521650820e-01 3.343597141964237962e-01 3.438966913886418730e-01 7.768715845417003552e-01 2.558084599140006410e-01 -6.201075809147237744e-02 2.527900745076744893e-01 3.766793566550175054e-02 1.067302028601385677e-01 5.869735230173487306e-01 3.277737091191539887e-01 4.526144967834849764e-01 1.420908201019066341e+00 4.725511550230893643e-01 3.565064451028664427e-01 4.262624566570183404e-01 3.425769547245450797e-01 4.615635659618678721e-01 3.474372742365942623e-01 2.063331438757977365e-01 7.831096439350160310e-01 2.399988679429418681e-01 3.874023263354091640e-01 3.277314448293087157e-01 3.161168317884955892e-01 1.560417482631431263e-01 3.430665729812768516e-01 9.590617491325598154e-01 4.006854198008178436e-01 3.060024477497210182e-01 2.671692186362804589e-01 1.981648812231971146e-01 3.689596084842512447e-01 5.282098025450499001e-01 6.174354678816427189e-01 3.827464000527140975e-01 3.029331991007516156e-01 4.088132352460396302e-01 3.177230432288836171e-01 2.435823170920178304e-01 4.221411405273559070e-01 3.811720252950273613e-01 1.349557341837961388e-01 3.156172185413098630e-01 2.845523635159442621e-01 5.380591473499425348e-01 3.331417983706861929e-01 2.698702316429770764e-01 1.241513005392799629e+00 3.231125515852495411e-01 2.896103271447361682e-01 2.897016132465244365e-01 9.511778236268976228e-01 9.621761547772222922e-01 1.306721379961915674e-01 -2.551143464234075231e-01 -1.702443589118441125e-01 5.306245704457852597e-01 4.496473813728539271e-01 3.142452312422473470e-01 2.988819350803643138e-01 3.157295293197005526e-01 3.029500333512438193e-01 2.960211092240445652e-01 4.618822432415104484e-01 2.157600215663237342e-01 4.674556194241861751e-01 7.849968907491863268e-01 -1.197301627423321552e-02 6.901736692200647338e-01 3.489811287276499696e-01 2.987660916140192913e-01 4.228355190741472924e-02 4.668784248379094226e-01 9.024533606428218890e-01 2.511968208403656533e-01 6.010128258056305350e-01 1.274776279480367647e+00 3.330161154428874504e-01 1.570399885018451291e+00 5.838107395374104724e-01 1.190610006831676754e-01 3.269375257897332854e-01 2.937905729045672265e-01 3.919500174928264302e-01 2.334125082712563137e-01 2.766130646975114571e-01 3.267455708450714980e-01 3.789189805580007731e-01 3.438726841449055716e-01 1.783758742087157290e-01 3.310269850182370743e-01 4.540557292996661998e-01 2.884176796840474677e-01 4.127261181963283176e-01 3.490345147537268211e-01 2.538578853691044190e-01 3.521315740260754223e-01 -4.314719644182916092e-01 1.534111192029159465e+00 3.029891503156330601e-01 -1.387161801643214121e-01 3.056489227838355416e-01 3.487140427203528903e-01 3.148714827491249091e-01 -3.493112576391748547e+00 2.713768325470844456e+00 5.195472245284864510e-01 2.446139564161968205e-01 1.423423357436214010e-01 3.192334537336281586e-01 2.452246318575879713e-01 1.997052983226561995e+00 5.113572660415722781e-01 3.938295084470378460e-01 2.468965029679132950e-01 7.679052931660362846e-01 3.318697132201483546e-01 9.332915446835734485e-01 -3.502715211464875744e-01 -5.381482941002729836e-01 -7.445750293691163479e-01 5.148946566623086724e-02 3.187134722056083058e-01 4.748138515260054704e-01 1.831633535996144424e-01 1.951584895806016406e-01 1.886728206336319713e-01 3.409814751736019445e-01 4.053220650199015895e-01 2.727649927294108489e-01 2.369497729271161646e-01 2.973627430448529396e-01 4.404535528175796411e-01 3.377880390457992932e-01 2.361863281851904750e-01 1.194325745875630951e-01 4.535395321209751973e-01 2.931411459961611454e-01 2.997688502709181524e-01 3.371389698065058727e-01 3.049115243359576954e-01 8.171957385727569578e-01 2.957467547224357785e-01 2.682857679958652874e-01 3.053236396070148628e-01 1.923735237931002984e-01 1.931991797096107577e-01 7.373314025357349810e-02 1.106974198033982670e+00 2.886261678691892651e-01 3.485723303207290957e-01 2.847120594672389315e-01 3.352994454099854083e-01 1.237316213761475991e-01 9.733890231902149470e-02 3.497725057005572902e-01 2.404758243824406394e-01 6.495392759508108460e-01 6.519982762426894674e-01 1.995394048969763856e-01 1.460501952015199612e+00 3.161172059300332293e-01 2.393428246648389157e-01 1.520669989685661250e-01 -3.948028677627427041e-01 3.319959943700813154e-01 2.908173423627811172e-01 8.087963352265988837e-01 3.369373326092161558e-01 2.394115569837645119e-01 3.258560042632987486e-01 2.752327364607090043e-01 2.973362653479048046e-01 6.681316009400991573e-01 7.354481445431602094e-01 2.703533346293803818e-01 4.897410690826903834e-01 3.149581132740066902e-01 9.100315502927686095e-02 2.124582946694757724e-01 3.466658344099135536e-01 -2.972483541171061505e-01 2.152605298395225408e-01 3.092846663950213904e-01 4.626338557023326192e-01 3.457149326195746997e-01 1.168025360779680000e+00 7.592369899358082375e-01 -7.312541563251760968e-01 9.447275000586896621e-02 2.343850199537173551e-01 -2.454876027119876625e+00 1.363873060455135677e+00 2.947843375664205845e-01 4.617204830725469278e-01 3.187284718249822069e-01 6.226219926444991337e-01 3.195867858254020089e-01 2.641124246928338581e-01 -3.408219041831645479e-01 7.000163512101901242e-01 -2.217339247568501925e-02 9.262405735489531722e-01 1.691812887286658906e+00 -3.507585962505619936e-01 -1.144240949846193622e+00 3.050235014814779433e-01 5.824498041894617950e-01 9.295723618080535822e-01 2.749993046029048926e-01 7.308954787158251643e-01 4.307489053546720292e-01 3.156392722293219766e-01 3.169985451467963178e-01 2.959201064621755917e-01 3.253179413348910587e-01 6.417975181951035557e-02 9.958773976436254838e-01 1.036752056235678898e+00 3.302669721868148889e-01 4.597181109997822701e-01 -1.515130903086315817e-01 -7.322620808757572541e-02 5.280476371810726155e-01 2.634074756650563454e-01 2.233724525238727221e-01 7.058918802611893195e-01 6.214643502167422895e-01 2.918458974735735900e-01 3.031805798926155426e-01 3.254985067541723565e-01 3.295261220464608676e-01 2.772142867259724253e-01 3.353524661046873301e-01 2.974859413656115725e-01 7.484991320304451579e-02 3.493455860964493342e-01 4.774741389392300750e-01 8.879006819077411850e-01 9.871904234068974437e-01 7.036540077846713537e-01 3.091392526700129095e-01 3.899932278879019720e-01 -3.752079123093970264e-02 1.732812383196604133e-01 -1.243219879518164595e+00 3.062203243690854171e-01 5.722137941945476536e-01 3.315122179789898316e-01 7.305457487323674393e-01 1.120688797150250826e+00 2.468961784733673670e-01 4.038293136948929024e-02 3.441640636195292813e-01 3.790769021222017976e-01 6.882264384023911719e-01 2.699509190750747356e-01 -2.283250245565366376e-01 5.349161056965004990e-01 4.061232071489325746e-01 3.144423046092262308e-01 3.418435428758542227e-01 2.484662095802921689e-01 2.389998934975168521e-01 2.527345742761159531e-01 3.029170413068110745e-01 3.246112219497154228e-01 8.157671730151704326e-01 3.175814130207394448e-01 -1.340832606966003704e-01 7.775974685395530273e-01 3.973907157891247155e-01 2.252930257202999109e-01 3.119163906200083103e-01 1.104906635363339440e+00 -1.268986470507844563e-02 7.764753162292971078e-01 3.507740726382784224e-01 3.296379873660254534e-01 2.164267214469983158e-01 3.296021401152310903e-01 6.781628752401019922e-01 3.339544519033354475e-01 8.729135560324738918e-01 3.063908099526531092e-01 2.595372673374634065e-01 7.978675622477255924e-01 -1.883072065441950688e-02 -1.664016138493920272e+00 4.023401631531308142e-01 3.068586458272685169e-01 3.323570777211192762e-01 6.294364042342579513e-01 3.037202957310085050e-01 2.530206456591972408e-01 2.209511160447372446e-01 2.388046381395391993e-01 1.148968781983057130e-01 -1.394066192397002357e+00 6.611942431253435837e-01 3.445429675581524465e-01 2.992174481354088478e-01 3.108317949673978786e-01 7.266482205770952163e-01 3.111266455377341700e-01 3.156847948585499442e-01 2.690462489860342976e-01 1.007586951491194815e+00 4.112410198450650034e-01 4.030220659843990472e-01 1.084165405066599419e+00 3.531807591744076658e-01 1.814384036260819899e+00 3.092445750707207286e-01 2.768822977834196619e-01 7.367956223647315062e-01 3.136868849210735499e-01 3.456871859931268665e-01 -1.028728226342769725e+00 2.606657189096881488e-01 2.978566984074231816e-01 4.619069047417853069e-01 2.567243639482718609e-01 3.099657842296166810e-01 -5.880597474153478332e-01 1.598437320604732870e+00 -4.569897050692105500e-01 5.534542586126387498e-01 2.642309271406131921e-01 2.321644637588436977e-01 3.502062586581294878e-01 3.058161788327237174e-01 1.033550006902703489e+00 -7.469939722931587256e-02 3.013777046387148828e-01 -6.713381880977444816e-01 5.868718807753571243e-01 3.496176168124356387e-01 -2.234684860542889950e+00 2.173796013038669095e+00 2.806761702224752075e-01 3.322193559142656016e-01 -9.837110450406836293e-01 3.555141714436297895e-01 -2.227254568302078699e-02 3.157046491485898110e-01 4.038405144267548930e-01 5.839325395068678537e-01 4.266493001029659227e-01 3.158477951869520517e-01 9.447273436032671556e-02 1.124674957532352526e-01 3.441052801038531062e-01 -9.319835657125157269e-01 2.933837456567030544e-01 -4.847187243965609404e-01 3.341262797988007183e-01 9.033674012886888649e-02 3.682780488502380711e-01 2.760284358802065352e-01 3.681318991167337185e-01 1.197825915485834225e-01 2.854575224298877001e-01 3.106861022028285513e-01 2.022955472919248376e-01 3.029822498196962366e-01 3.134380523808205643e-01 -7.306741565674605976e-01 2.452720471569055649e-01 1.326598116646503067e+00 -3.660050186437971594e-03 2.754892060133428133e-01 3.861795532126077179e-01 1.219320108131505265e+00 3.023989414210041526e-01 2.586158690566113250e-01 9.243015430719705439e-01 1.540346089336401825e-01 1.354060222356683774e+00 2.958986497315164721e-01 3.410515554389268456e-01 3.087185320251293330e-01 5.797999802108034784e-01 1.218087074229492250e+00 2.551020449021408343e-01 4.514215869642287382e-01 5.709193930568652320e-01 4.813493896631190760e-01 6.008753178624680336e-02 -2.514765258736867959e-01 3.514220961443967339e-01 5.264801887570738081e-01 1.615836535848169664e-01 4.824021239431238728e-01 -6.382240967236740836e-02 1.257867065996029599e+00 2.578868511635583061e-01 2.901026745972660748e-01 -2.009700778322704995e+00 3.677359795197555070e-01 3.113225030303956586e-01 2.852921023132110045e-01 -1.194361906224994663e-01 2.579840683770922571e-01 -3.757630823701570977e-01 1.594172570914612896e-01 2.927746190538049742e-01 3.300853288104693140e-01 1.113934161982096160e+00 1.894070294492268269e-01 3.183183659127128418e-01 -1.112248905967688550e+00 2.294446981694585053e-01 8.149115030889824141e-01 7.246986520962040990e-01 3.180365311740879775e-01 -1.957909181950328037e-01 7.392497306924756817e-01 2.010037272705261779e-01 3.210205422277471188e-01 3.257264976958076375e-01 5.689686190044390690e-01 8.054601472757750846e-01 3.061455924864882050e-01 6.132141017027302743e-01 3.024006444264937810e-01 6.218080762416949847e-01 4.092833088890635018e-01 -1.351602215127994944e+00 3.215964457725914438e-01 3.250900261572600702e-02 4.492821787665891575e-01 2.954268474280126733e-01 3.304229343853054002e-01 2.957467337326635803e-01 3.287014965871782879e-01 2.582040543875575023e-01 3.706914932938187857e-01 3.471665466701927549e-01 2.401303657878308129e-01 3.656843376928273770e-01 -3.594435306055008272e-01 2.940137220517029526e-01 3.146964674213749147e-01 2.838745579664920249e-01 2.647126739561726505e-01 3.163698118731254616e-01 4.700749777077986025e-01 3.755786451360417222e-01 7.754191306866823341e-01 4.819217609933608704e-01 2.863032974859171520e-01 3.223621844910241063e-01 -1.655886401205492797e+00 2.991076411803201829e-01 4.127707605443373118e-01 3.285035957829630093e-01 2.957467388730795621e-01 3.096317822042035650e-01 2.724243119025394622e-01 3.382940543386294130e-01 3.238354424293307110e-01 2.209968286069826371e-01 2.646973224233299393e-01 3.315209965933231251e-01 4.431643759724137044e-01 3.134582127616128977e-01 3.331714346244282754e-01 2.922074709941378523e-01 2.442235950587673954e-01 2.982644264665464950e-01 2.187418636822685281e-01 1.161111138631950312e-01 2.879666220525730624e-01 2.542328495271292121e-01 -5.987424404584494250e-03 -3.507029672567870682e-01 2.827675778242292992e+00 3.127009387994305056e-01 6.740792937517792183e-01 1.805810425170394917e-01 3.320880659846383032e-01 1.244562502413917970e+00 4.347831192786399401e-01 7.544887571148686245e-01 3.224658548469613306e-01
