# 
#                 ----------------------------------------------------
#                 Data from a 3D direct N-body simulation. 
# 
#                 rows are i-particle; 
#                 coumns are :mass, tag, x ,y, z, vx, vy, vz, ax, ay, az
# 
#                 NTHU, Computational Physics 
# 
#                 ----------------------------------------------------
#                 Time = 0.0
0.000000000000000000e+00 1.000000000000000000e+00 2.000000000000000000e+00 3.000000000000000000e+00 4.000000000000000000e+00 5.000000000000000000e+00 6.000000000000000000e+00 7.000000000000000000e+00 8.000000000000000000e+00 9.000000000000000000e+00 1.000000000000000000e+01 1.100000000000000000e+01 1.200000000000000000e+01 1.300000000000000000e+01 1.400000000000000000e+01 1.500000000000000000e+01 1.600000000000000000e+01 1.700000000000000000e+01 1.800000000000000000e+01 1.900000000000000000e+01 2.000000000000000000e+01 2.100000000000000000e+01 2.200000000000000000e+01 2.300000000000000000e+01 2.400000000000000000e+01 2.500000000000000000e+01 2.600000000000000000e+01 2.700000000000000000e+01 2.800000000000000000e+01 2.900000000000000000e+01 3.000000000000000000e+01 3.100000000000000000e+01 3.200000000000000000e+01 3.300000000000000000e+01 3.400000000000000000e+01 3.500000000000000000e+01 3.600000000000000000e+01 3.700000000000000000e+01 3.800000000000000000e+01 3.900000000000000000e+01 4.000000000000000000e+01 4.100000000000000000e+01 4.200000000000000000e+01 4.300000000000000000e+01 4.400000000000000000e+01 4.500000000000000000e+01 4.600000000000000000e+01 4.700000000000000000e+01 4.800000000000000000e+01 4.900000000000000000e+01 5.000000000000000000e+01 5.100000000000000000e+01 5.200000000000000000e+01 5.300000000000000000e+01 5.400000000000000000e+01 5.500000000000000000e+01 5.600000000000000000e+01 5.700000000000000000e+01 5.800000000000000000e+01 5.900000000000000000e+01 6.000000000000000000e+01 6.100000000000000000e+01 6.200000000000000000e+01 6.300000000000000000e+01 6.400000000000000000e+01 6.500000000000000000e+01 6.600000000000000000e+01 6.700000000000000000e+01 6.800000000000000000e+01 6.900000000000000000e+01 7.000000000000000000e+01 7.100000000000000000e+01 7.200000000000000000e+01 7.300000000000000000e+01 7.400000000000000000e+01 7.500000000000000000e+01 7.600000000000000000e+01 7.700000000000000000e+01 7.800000000000000000e+01 7.900000000000000000e+01 8.000000000000000000e+01 8.100000000000000000e+01 8.200000000000000000e+01 8.300000000000000000e+01 8.400000000000000000e+01 8.500000000000000000e+01 8.600000000000000000e+01 8.700000000000000000e+01 8.800000000000000000e+01 8.900000000000000000e+01 9.000000000000000000e+01 9.100000000000000000e+01 9.200000000000000000e+01 9.300000000000000000e+01 9.400000000000000000e+01 9.500000000000000000e+01 9.600000000000000000e+01 9.700000000000000000e+01 9.800000000000000000e+01 9.900000000000000000e+01 1.000000000000000000e+02 1.010000000000000000e+02 1.020000000000000000e+02 1.030000000000000000e+02 1.040000000000000000e+02 1.050000000000000000e+02 1.060000000000000000e+02 1.070000000000000000e+02 1.080000000000000000e+02 1.090000000000000000e+02 1.100000000000000000e+02 1.110000000000000000e+02 1.120000000000000000e+02 1.130000000000000000e+02 1.140000000000000000e+02 1.150000000000000000e+02 1.160000000000000000e+02 1.170000000000000000e+02 1.180000000000000000e+02 1.190000000000000000e+02 1.200000000000000000e+02 1.210000000000000000e+02 1.220000000000000000e+02 1.230000000000000000e+02 1.240000000000000000e+02 1.250000000000000000e+02 1.260000000000000000e+02 1.270000000000000000e+02 1.280000000000000000e+02 1.290000000000000000e+02 1.300000000000000000e+02 1.310000000000000000e+02 1.320000000000000000e+02 1.330000000000000000e+02 1.340000000000000000e+02 1.350000000000000000e+02 1.360000000000000000e+02 1.370000000000000000e+02 1.380000000000000000e+02 1.390000000000000000e+02 1.400000000000000000e+02 1.410000000000000000e+02 1.420000000000000000e+02 1.430000000000000000e+02 1.440000000000000000e+02 1.450000000000000000e+02 1.460000000000000000e+02 1.470000000000000000e+02 1.480000000000000000e+02 1.490000000000000000e+02 1.500000000000000000e+02 1.510000000000000000e+02 1.520000000000000000e+02 1.530000000000000000e+02 1.540000000000000000e+02 1.550000000000000000e+02 1.560000000000000000e+02 1.570000000000000000e+02 1.580000000000000000e+02 1.590000000000000000e+02 1.600000000000000000e+02 1.610000000000000000e+02 1.620000000000000000e+02 1.630000000000000000e+02 1.640000000000000000e+02 1.650000000000000000e+02 1.660000000000000000e+02 1.670000000000000000e+02 1.680000000000000000e+02 1.690000000000000000e+02 1.700000000000000000e+02 1.710000000000000000e+02 1.720000000000000000e+02 1.730000000000000000e+02 1.740000000000000000e+02 1.750000000000000000e+02 1.760000000000000000e+02 1.770000000000000000e+02 1.780000000000000000e+02 1.790000000000000000e+02 1.800000000000000000e+02 1.810000000000000000e+02 1.820000000000000000e+02 1.830000000000000000e+02 1.840000000000000000e+02 1.850000000000000000e+02 1.860000000000000000e+02 1.870000000000000000e+02 1.880000000000000000e+02 1.890000000000000000e+02 1.900000000000000000e+02 1.910000000000000000e+02 1.920000000000000000e+02 1.930000000000000000e+02 1.940000000000000000e+02 1.950000000000000000e+02 1.960000000000000000e+02 1.970000000000000000e+02 1.980000000000000000e+02 1.990000000000000000e+02 2.000000000000000000e+02 2.010000000000000000e+02 2.020000000000000000e+02 2.030000000000000000e+02 2.040000000000000000e+02 2.050000000000000000e+02 2.060000000000000000e+02 2.070000000000000000e+02 2.080000000000000000e+02 2.090000000000000000e+02 2.100000000000000000e+02 2.110000000000000000e+02 2.120000000000000000e+02 2.130000000000000000e+02 2.140000000000000000e+02 2.150000000000000000e+02 2.160000000000000000e+02 2.170000000000000000e+02 2.180000000000000000e+02 2.190000000000000000e+02 2.200000000000000000e+02 2.210000000000000000e+02 2.220000000000000000e+02 2.230000000000000000e+02 2.240000000000000000e+02 2.250000000000000000e+02 2.260000000000000000e+02 2.270000000000000000e+02 2.280000000000000000e+02 2.290000000000000000e+02 2.300000000000000000e+02 2.310000000000000000e+02 2.320000000000000000e+02 2.330000000000000000e+02 2.340000000000000000e+02 2.350000000000000000e+02 2.360000000000000000e+02 2.370000000000000000e+02 2.380000000000000000e+02 2.390000000000000000e+02 2.400000000000000000e+02 2.410000000000000000e+02 2.420000000000000000e+02 2.430000000000000000e+02 2.440000000000000000e+02 2.450000000000000000e+02 2.460000000000000000e+02 2.470000000000000000e+02 2.480000000000000000e+02 2.490000000000000000e+02 2.500000000000000000e+02 2.510000000000000000e+02 2.520000000000000000e+02 2.530000000000000000e+02 2.540000000000000000e+02 2.550000000000000000e+02 2.560000000000000000e+02 2.570000000000000000e+02 2.580000000000000000e+02 2.590000000000000000e+02 2.600000000000000000e+02 2.610000000000000000e+02 2.620000000000000000e+02 2.630000000000000000e+02 2.640000000000000000e+02 2.650000000000000000e+02 2.660000000000000000e+02 2.670000000000000000e+02 2.680000000000000000e+02 2.690000000000000000e+02 2.700000000000000000e+02 2.710000000000000000e+02 2.720000000000000000e+02 2.730000000000000000e+02 2.740000000000000000e+02 2.750000000000000000e+02 2.760000000000000000e+02 2.770000000000000000e+02 2.780000000000000000e+02 2.790000000000000000e+02 2.800000000000000000e+02 2.810000000000000000e+02 2.820000000000000000e+02 2.830000000000000000e+02 2.840000000000000000e+02 2.850000000000000000e+02 2.860000000000000000e+02 2.870000000000000000e+02 2.880000000000000000e+02 2.890000000000000000e+02 2.900000000000000000e+02 2.910000000000000000e+02 2.920000000000000000e+02 2.930000000000000000e+02 2.940000000000000000e+02 2.950000000000000000e+02 2.960000000000000000e+02 2.970000000000000000e+02 2.980000000000000000e+02 2.990000000000000000e+02 3.000000000000000000e+02 3.010000000000000000e+02 3.020000000000000000e+02 3.030000000000000000e+02 3.040000000000000000e+02 3.050000000000000000e+02 3.060000000000000000e+02 3.070000000000000000e+02 3.080000000000000000e+02 3.090000000000000000e+02 3.100000000000000000e+02 3.110000000000000000e+02 3.120000000000000000e+02 3.130000000000000000e+02 3.140000000000000000e+02 3.150000000000000000e+02 3.160000000000000000e+02 3.170000000000000000e+02 3.180000000000000000e+02 3.190000000000000000e+02 3.200000000000000000e+02 3.210000000000000000e+02 3.220000000000000000e+02 3.230000000000000000e+02 3.240000000000000000e+02 3.250000000000000000e+02 3.260000000000000000e+02 3.270000000000000000e+02 3.280000000000000000e+02 3.290000000000000000e+02 3.300000000000000000e+02 3.310000000000000000e+02 3.320000000000000000e+02 3.330000000000000000e+02 3.340000000000000000e+02 3.350000000000000000e+02 3.360000000000000000e+02 3.370000000000000000e+02 3.380000000000000000e+02 3.390000000000000000e+02 3.400000000000000000e+02 3.410000000000000000e+02 3.420000000000000000e+02 3.430000000000000000e+02 3.440000000000000000e+02 3.450000000000000000e+02 3.460000000000000000e+02 3.470000000000000000e+02 3.480000000000000000e+02 3.490000000000000000e+02 3.500000000000000000e+02 3.510000000000000000e+02 3.520000000000000000e+02 3.530000000000000000e+02 3.540000000000000000e+02 3.550000000000000000e+02 3.560000000000000000e+02 3.570000000000000000e+02 3.580000000000000000e+02 3.590000000000000000e+02 3.600000000000000000e+02 3.610000000000000000e+02 3.620000000000000000e+02 3.630000000000000000e+02 3.640000000000000000e+02 3.650000000000000000e+02 3.660000000000000000e+02 3.670000000000000000e+02 3.680000000000000000e+02 3.690000000000000000e+02 3.700000000000000000e+02 3.710000000000000000e+02 3.720000000000000000e+02 3.730000000000000000e+02 3.740000000000000000e+02 3.750000000000000000e+02 3.760000000000000000e+02 3.770000000000000000e+02 3.780000000000000000e+02 3.790000000000000000e+02 3.800000000000000000e+02 3.810000000000000000e+02 3.820000000000000000e+02 3.830000000000000000e+02 3.840000000000000000e+02 3.850000000000000000e+02 3.860000000000000000e+02 3.870000000000000000e+02 3.880000000000000000e+02 3.890000000000000000e+02 3.900000000000000000e+02 3.910000000000000000e+02 3.920000000000000000e+02 3.930000000000000000e+02 3.940000000000000000e+02 3.950000000000000000e+02 3.960000000000000000e+02 3.970000000000000000e+02 3.980000000000000000e+02 3.990000000000000000e+02 4.000000000000000000e+02 4.010000000000000000e+02 4.020000000000000000e+02 4.030000000000000000e+02 4.040000000000000000e+02 4.050000000000000000e+02 4.060000000000000000e+02 4.070000000000000000e+02 4.080000000000000000e+02 4.090000000000000000e+02 4.100000000000000000e+02 4.110000000000000000e+02 4.120000000000000000e+02 4.130000000000000000e+02 4.140000000000000000e+02 4.150000000000000000e+02 4.160000000000000000e+02 4.170000000000000000e+02 4.180000000000000000e+02 4.190000000000000000e+02 4.200000000000000000e+02 4.210000000000000000e+02 4.220000000000000000e+02 4.230000000000000000e+02 4.240000000000000000e+02 4.250000000000000000e+02 4.260000000000000000e+02 4.270000000000000000e+02 4.280000000000000000e+02 4.290000000000000000e+02 4.300000000000000000e+02 4.310000000000000000e+02 4.320000000000000000e+02 4.330000000000000000e+02 4.340000000000000000e+02 4.350000000000000000e+02 4.360000000000000000e+02 4.370000000000000000e+02 4.380000000000000000e+02 4.390000000000000000e+02 4.400000000000000000e+02 4.410000000000000000e+02 4.420000000000000000e+02 4.430000000000000000e+02 4.440000000000000000e+02 4.450000000000000000e+02 4.460000000000000000e+02 4.470000000000000000e+02 4.480000000000000000e+02 4.490000000000000000e+02 4.500000000000000000e+02 4.510000000000000000e+02 4.520000000000000000e+02 4.530000000000000000e+02 4.540000000000000000e+02 4.550000000000000000e+02 4.560000000000000000e+02 4.570000000000000000e+02 4.580000000000000000e+02 4.590000000000000000e+02 4.600000000000000000e+02 4.610000000000000000e+02 4.620000000000000000e+02 4.630000000000000000e+02 4.640000000000000000e+02 4.650000000000000000e+02 4.660000000000000000e+02 4.670000000000000000e+02 4.680000000000000000e+02 4.690000000000000000e+02 4.700000000000000000e+02 4.710000000000000000e+02 4.720000000000000000e+02 4.730000000000000000e+02 4.740000000000000000e+02 4.750000000000000000e+02 4.760000000000000000e+02 4.770000000000000000e+02 4.780000000000000000e+02 4.790000000000000000e+02 4.800000000000000000e+02 4.810000000000000000e+02 4.820000000000000000e+02 4.830000000000000000e+02 4.840000000000000000e+02 4.850000000000000000e+02 4.860000000000000000e+02 4.870000000000000000e+02 4.880000000000000000e+02 4.890000000000000000e+02 4.900000000000000000e+02 4.910000000000000000e+02 4.920000000000000000e+02 4.930000000000000000e+02 4.940000000000000000e+02 4.950000000000000000e+02 4.960000000000000000e+02 4.970000000000000000e+02 4.980000000000000000e+02 4.990000000000000000e+02 5.000000000000000000e+02 5.010000000000000000e+02 5.020000000000000000e+02 5.030000000000000000e+02 5.040000000000000000e+02 5.050000000000000000e+02 5.060000000000000000e+02 5.070000000000000000e+02 5.080000000000000000e+02 5.090000000000000000e+02 5.100000000000000000e+02 5.110000000000000000e+02 5.120000000000000000e+02 5.130000000000000000e+02 5.140000000000000000e+02 5.150000000000000000e+02 5.160000000000000000e+02 5.170000000000000000e+02 5.180000000000000000e+02 5.190000000000000000e+02 5.200000000000000000e+02 5.210000000000000000e+02 5.220000000000000000e+02 5.230000000000000000e+02 5.240000000000000000e+02 5.250000000000000000e+02 5.260000000000000000e+02 5.270000000000000000e+02 5.280000000000000000e+02 5.290000000000000000e+02 5.300000000000000000e+02 5.310000000000000000e+02 5.320000000000000000e+02 5.330000000000000000e+02 5.340000000000000000e+02 5.350000000000000000e+02 5.360000000000000000e+02 5.370000000000000000e+02 5.380000000000000000e+02 5.390000000000000000e+02 5.400000000000000000e+02 5.410000000000000000e+02 5.420000000000000000e+02 5.430000000000000000e+02 5.440000000000000000e+02 5.450000000000000000e+02 5.460000000000000000e+02 5.470000000000000000e+02 5.480000000000000000e+02 5.490000000000000000e+02 5.500000000000000000e+02 5.510000000000000000e+02 5.520000000000000000e+02 5.530000000000000000e+02 5.540000000000000000e+02 5.550000000000000000e+02 5.560000000000000000e+02 5.570000000000000000e+02 5.580000000000000000e+02 5.590000000000000000e+02 5.600000000000000000e+02 5.610000000000000000e+02 5.620000000000000000e+02 5.630000000000000000e+02 5.640000000000000000e+02 5.650000000000000000e+02 5.660000000000000000e+02 5.670000000000000000e+02 5.680000000000000000e+02 5.690000000000000000e+02 5.700000000000000000e+02 5.710000000000000000e+02 5.720000000000000000e+02 5.730000000000000000e+02 5.740000000000000000e+02 5.750000000000000000e+02 5.760000000000000000e+02 5.770000000000000000e+02 5.780000000000000000e+02 5.790000000000000000e+02 5.800000000000000000e+02 5.810000000000000000e+02 5.820000000000000000e+02 5.830000000000000000e+02 5.840000000000000000e+02 5.850000000000000000e+02 5.860000000000000000e+02 5.870000000000000000e+02 5.880000000000000000e+02 5.890000000000000000e+02 5.900000000000000000e+02 5.910000000000000000e+02 5.920000000000000000e+02 5.930000000000000000e+02 5.940000000000000000e+02 5.950000000000000000e+02 5.960000000000000000e+02 5.970000000000000000e+02 5.980000000000000000e+02 5.990000000000000000e+02 6.000000000000000000e+02 6.010000000000000000e+02 6.020000000000000000e+02 6.030000000000000000e+02 6.040000000000000000e+02 6.050000000000000000e+02 6.060000000000000000e+02 6.070000000000000000e+02 6.080000000000000000e+02 6.090000000000000000e+02 6.100000000000000000e+02 6.110000000000000000e+02 6.120000000000000000e+02 6.130000000000000000e+02 6.140000000000000000e+02 6.150000000000000000e+02 6.160000000000000000e+02 6.170000000000000000e+02 6.180000000000000000e+02 6.190000000000000000e+02 6.200000000000000000e+02 6.210000000000000000e+02 6.220000000000000000e+02 6.230000000000000000e+02 6.240000000000000000e+02 6.250000000000000000e+02 6.260000000000000000e+02 6.270000000000000000e+02 6.280000000000000000e+02 6.290000000000000000e+02 6.300000000000000000e+02 6.310000000000000000e+02 6.320000000000000000e+02 6.330000000000000000e+02 6.340000000000000000e+02 6.350000000000000000e+02 6.360000000000000000e+02 6.370000000000000000e+02 6.380000000000000000e+02 6.390000000000000000e+02 6.400000000000000000e+02 6.410000000000000000e+02 6.420000000000000000e+02 6.430000000000000000e+02 6.440000000000000000e+02 6.450000000000000000e+02 6.460000000000000000e+02 6.470000000000000000e+02 6.480000000000000000e+02 6.490000000000000000e+02 6.500000000000000000e+02 6.510000000000000000e+02 6.520000000000000000e+02 6.530000000000000000e+02 6.540000000000000000e+02 6.550000000000000000e+02 6.560000000000000000e+02 6.570000000000000000e+02 6.580000000000000000e+02 6.590000000000000000e+02 6.600000000000000000e+02 6.610000000000000000e+02 6.620000000000000000e+02 6.630000000000000000e+02 6.640000000000000000e+02 6.650000000000000000e+02 6.660000000000000000e+02 6.670000000000000000e+02 6.680000000000000000e+02 6.690000000000000000e+02 6.700000000000000000e+02 6.710000000000000000e+02 6.720000000000000000e+02 6.730000000000000000e+02 6.740000000000000000e+02 6.750000000000000000e+02 6.760000000000000000e+02 6.770000000000000000e+02 6.780000000000000000e+02 6.790000000000000000e+02 6.800000000000000000e+02 6.810000000000000000e+02 6.820000000000000000e+02 6.830000000000000000e+02 6.840000000000000000e+02 6.850000000000000000e+02 6.860000000000000000e+02 6.870000000000000000e+02 6.880000000000000000e+02 6.890000000000000000e+02 6.900000000000000000e+02 6.910000000000000000e+02 6.920000000000000000e+02 6.930000000000000000e+02 6.940000000000000000e+02 6.950000000000000000e+02 6.960000000000000000e+02 6.970000000000000000e+02 6.980000000000000000e+02 6.990000000000000000e+02 7.000000000000000000e+02 7.010000000000000000e+02 7.020000000000000000e+02 7.030000000000000000e+02 7.040000000000000000e+02 7.050000000000000000e+02 7.060000000000000000e+02 7.070000000000000000e+02 7.080000000000000000e+02 7.090000000000000000e+02 7.100000000000000000e+02 7.110000000000000000e+02 7.120000000000000000e+02 7.130000000000000000e+02 7.140000000000000000e+02 7.150000000000000000e+02 7.160000000000000000e+02 7.170000000000000000e+02 7.180000000000000000e+02 7.190000000000000000e+02 7.200000000000000000e+02 7.210000000000000000e+02 7.220000000000000000e+02 7.230000000000000000e+02 7.240000000000000000e+02 7.250000000000000000e+02 7.260000000000000000e+02 7.270000000000000000e+02 7.280000000000000000e+02 7.290000000000000000e+02 7.300000000000000000e+02 7.310000000000000000e+02 7.320000000000000000e+02 7.330000000000000000e+02 7.340000000000000000e+02 7.350000000000000000e+02 7.360000000000000000e+02 7.370000000000000000e+02 7.380000000000000000e+02 7.390000000000000000e+02 7.400000000000000000e+02 7.410000000000000000e+02 7.420000000000000000e+02 7.430000000000000000e+02 7.440000000000000000e+02 7.450000000000000000e+02 7.460000000000000000e+02 7.470000000000000000e+02 7.480000000000000000e+02 7.490000000000000000e+02 7.500000000000000000e+02 7.510000000000000000e+02 7.520000000000000000e+02 7.530000000000000000e+02 7.540000000000000000e+02 7.550000000000000000e+02 7.560000000000000000e+02 7.570000000000000000e+02 7.580000000000000000e+02 7.590000000000000000e+02 7.600000000000000000e+02 7.610000000000000000e+02 7.620000000000000000e+02 7.630000000000000000e+02 7.640000000000000000e+02 7.650000000000000000e+02 7.660000000000000000e+02 7.670000000000000000e+02 7.680000000000000000e+02 7.690000000000000000e+02 7.700000000000000000e+02 7.710000000000000000e+02 7.720000000000000000e+02 7.730000000000000000e+02 7.740000000000000000e+02 7.750000000000000000e+02 7.760000000000000000e+02 7.770000000000000000e+02 7.780000000000000000e+02 7.790000000000000000e+02 7.800000000000000000e+02 7.810000000000000000e+02 7.820000000000000000e+02 7.830000000000000000e+02 7.840000000000000000e+02 7.850000000000000000e+02 7.860000000000000000e+02 7.870000000000000000e+02 7.880000000000000000e+02 7.890000000000000000e+02 7.900000000000000000e+02 7.910000000000000000e+02 7.920000000000000000e+02 7.930000000000000000e+02 7.940000000000000000e+02 7.950000000000000000e+02 7.960000000000000000e+02 7.970000000000000000e+02 7.980000000000000000e+02 7.990000000000000000e+02 8.000000000000000000e+02 8.010000000000000000e+02 8.020000000000000000e+02 8.030000000000000000e+02 8.040000000000000000e+02 8.050000000000000000e+02 8.060000000000000000e+02 8.070000000000000000e+02 8.080000000000000000e+02 8.090000000000000000e+02 8.100000000000000000e+02 8.110000000000000000e+02 8.120000000000000000e+02 8.130000000000000000e+02 8.140000000000000000e+02 8.150000000000000000e+02 8.160000000000000000e+02 8.170000000000000000e+02 8.180000000000000000e+02 8.190000000000000000e+02 8.200000000000000000e+02 8.210000000000000000e+02 8.220000000000000000e+02 8.230000000000000000e+02 8.240000000000000000e+02 8.250000000000000000e+02 8.260000000000000000e+02 8.270000000000000000e+02 8.280000000000000000e+02 8.290000000000000000e+02 8.300000000000000000e+02 8.310000000000000000e+02 8.320000000000000000e+02 8.330000000000000000e+02 8.340000000000000000e+02 8.350000000000000000e+02 8.360000000000000000e+02 8.370000000000000000e+02 8.380000000000000000e+02 8.390000000000000000e+02 8.400000000000000000e+02 8.410000000000000000e+02 8.420000000000000000e+02 8.430000000000000000e+02 8.440000000000000000e+02 8.450000000000000000e+02 8.460000000000000000e+02 8.470000000000000000e+02 8.480000000000000000e+02 8.490000000000000000e+02 8.500000000000000000e+02 8.510000000000000000e+02 8.520000000000000000e+02 8.530000000000000000e+02 8.540000000000000000e+02 8.550000000000000000e+02 8.560000000000000000e+02 8.570000000000000000e+02 8.580000000000000000e+02 8.590000000000000000e+02 8.600000000000000000e+02 8.610000000000000000e+02 8.620000000000000000e+02 8.630000000000000000e+02 8.640000000000000000e+02 8.650000000000000000e+02 8.660000000000000000e+02 8.670000000000000000e+02 8.680000000000000000e+02 8.690000000000000000e+02 8.700000000000000000e+02 8.710000000000000000e+02 8.720000000000000000e+02 8.730000000000000000e+02 8.740000000000000000e+02 8.750000000000000000e+02 8.760000000000000000e+02 8.770000000000000000e+02 8.780000000000000000e+02 8.790000000000000000e+02 8.800000000000000000e+02 8.810000000000000000e+02 8.820000000000000000e+02 8.830000000000000000e+02 8.840000000000000000e+02 8.850000000000000000e+02 8.860000000000000000e+02 8.870000000000000000e+02 8.880000000000000000e+02 8.890000000000000000e+02 8.900000000000000000e+02 8.910000000000000000e+02 8.920000000000000000e+02 8.930000000000000000e+02 8.940000000000000000e+02 8.950000000000000000e+02 8.960000000000000000e+02 8.970000000000000000e+02 8.980000000000000000e+02 8.990000000000000000e+02 9.000000000000000000e+02 9.010000000000000000e+02 9.020000000000000000e+02 9.030000000000000000e+02 9.040000000000000000e+02 9.050000000000000000e+02 9.060000000000000000e+02 9.070000000000000000e+02 9.080000000000000000e+02 9.090000000000000000e+02 9.100000000000000000e+02 9.110000000000000000e+02 9.120000000000000000e+02 9.130000000000000000e+02 9.140000000000000000e+02 9.150000000000000000e+02 9.160000000000000000e+02 9.170000000000000000e+02 9.180000000000000000e+02 9.190000000000000000e+02 9.200000000000000000e+02 9.210000000000000000e+02 9.220000000000000000e+02 9.230000000000000000e+02 9.240000000000000000e+02 9.250000000000000000e+02 9.260000000000000000e+02 9.270000000000000000e+02 9.280000000000000000e+02 9.290000000000000000e+02 9.300000000000000000e+02 9.310000000000000000e+02 9.320000000000000000e+02 9.330000000000000000e+02 9.340000000000000000e+02 9.350000000000000000e+02 9.360000000000000000e+02 9.370000000000000000e+02 9.380000000000000000e+02 9.390000000000000000e+02 9.400000000000000000e+02 9.410000000000000000e+02 9.420000000000000000e+02 9.430000000000000000e+02 9.440000000000000000e+02 9.450000000000000000e+02 9.460000000000000000e+02 9.470000000000000000e+02 9.480000000000000000e+02 9.490000000000000000e+02 9.500000000000000000e+02 9.510000000000000000e+02 9.520000000000000000e+02 9.530000000000000000e+02 9.540000000000000000e+02 9.550000000000000000e+02 9.560000000000000000e+02 9.570000000000000000e+02 9.580000000000000000e+02 9.590000000000000000e+02 9.600000000000000000e+02 9.610000000000000000e+02 9.620000000000000000e+02 9.630000000000000000e+02 9.640000000000000000e+02 9.650000000000000000e+02 9.660000000000000000e+02 9.670000000000000000e+02 9.680000000000000000e+02 9.690000000000000000e+02 9.700000000000000000e+02 9.710000000000000000e+02 9.720000000000000000e+02 9.730000000000000000e+02 9.740000000000000000e+02 9.750000000000000000e+02 9.760000000000000000e+02 9.770000000000000000e+02 9.780000000000000000e+02 9.790000000000000000e+02 9.800000000000000000e+02 9.810000000000000000e+02 9.820000000000000000e+02 9.830000000000000000e+02 9.840000000000000000e+02 9.850000000000000000e+02 9.860000000000000000e+02 9.870000000000000000e+02 9.880000000000000000e+02 9.890000000000000000e+02 9.900000000000000000e+02 9.910000000000000000e+02 9.920000000000000000e+02 9.930000000000000000e+02 9.940000000000000000e+02 9.950000000000000000e+02 9.960000000000000000e+02 9.970000000000000000e+02 9.980000000000000000e+02 9.990000000000000000e+02
1.000000000000000000e+00 1.000000000000000000e+00 1.000000000000000000e+00 1.000000000000000000e+00 1.000000000000000000e+00 1.000000000000000000e+00 1.000000000000000000e+00 1.000000000000000000e+00 1.000000000000000000e+00 1.000000000000000000e+00 1.000000000000000000e+00 1.000000000000000000e+00 1.000000000000000000e+00 1.000000000000000000e+00 1.000000000000000000e+00 1.000000000000000000e+00 1.000000000000000000e+00 1.000000000000000000e+00 1.000000000000000000e+00 1.000000000000000000e+00 1.000000000000000000e+00 1.000000000000000000e+00 1.000000000000000000e+00 1.000000000000000000e+00 1.000000000000000000e+00 1.000000000000000000e+00 1.000000000000000000e+00 1.000000000000000000e+00 1.000000000000000000e+00 1.000000000000000000e+00 1.000000000000000000e+00 1.000000000000000000e+00 1.000000000000000000e+00 1.000000000000000000e+00 1.000000000000000000e+00 1.000000000000000000e+00 1.000000000000000000e+00 1.000000000000000000e+00 1.000000000000000000e+00 1.000000000000000000e+00 1.000000000000000000e+00 1.000000000000000000e+00 1.000000000000000000e+00 1.000000000000000000e+00 1.000000000000000000e+00 1.000000000000000000e+00 1.000000000000000000e+00 1.000000000000000000e+00 1.000000000000000000e+00 1.000000000000000000e+00 1.000000000000000000e+00 1.000000000000000000e+00 1.000000000000000000e+00 1.000000000000000000e+00 1.000000000000000000e+00 1.000000000000000000e+00 1.000000000000000000e+00 1.000000000000000000e+00 1.000000000000000000e+00 1.000000000000000000e+00 1.000000000000000000e+00 1.000000000000000000e+00 1.000000000000000000e+00 1.000000000000000000e+00 1.000000000000000000e+00 1.000000000000000000e+00 1.000000000000000000e+00 1.000000000000000000e+00 1.000000000000000000e+00 1.000000000000000000e+00 1.000000000000000000e+00 1.000000000000000000e+00 1.000000000000000000e+00 1.000000000000000000e+00 1.000000000000000000e+00 1.000000000000000000e+00 1.000000000000000000e+00 1.000000000000000000e+00 1.000000000000000000e+00 1.000000000000000000e+00 1.000000000000000000e+00 1.000000000000000000e+00 1.000000000000000000e+00 1.000000000000000000e+00 1.000000000000000000e+00 1.000000000000000000e+00 1.000000000000000000e+00 1.000000000000000000e+00 1.000000000000000000e+00 1.000000000000000000e+00 1.000000000000000000e+00 1.000000000000000000e+00 1.000000000000000000e+00 1.000000000000000000e+00 1.000000000000000000e+00 1.000000000000000000e+00 1.000000000000000000e+00 1.000000000000000000e+00 1.000000000000000000e+00 1.000000000000000000e+00 1.000000000000000000e+00 1.000000000000000000e+00 1.000000000000000000e+00 1.000000000000000000e+00 1.000000000000000000e+00 1.000000000000000000e+00 1.000000000000000000e+00 1.000000000000000000e+00 1.000000000000000000e+00 1.000000000000000000e+00 1.000000000000000000e+00 1.000000000000000000e+00 1.000000000000000000e+00 1.000000000000000000e+00 1.000000000000000000e+00 1.000000000000000000e+00 1.000000000000000000e+00 1.000000000000000000e+00 1.000000000000000000e+00 1.000000000000000000e+00 1.000000000000000000e+00 1.000000000000000000e+00 1.000000000000000000e+00 1.000000000000000000e+00 1.000000000000000000e+00 1.000000000000000000e+00 1.000000000000000000e+00 1.000000000000000000e+00 1.000000000000000000e+00 1.000000000000000000e+00 1.000000000000000000e+00 1.000000000000000000e+00 1.000000000000000000e+00 1.000000000000000000e+00 1.000000000000000000e+00 1.000000000000000000e+00 1.000000000000000000e+00 1.000000000000000000e+00 1.000000000000000000e+00 1.000000000000000000e+00 1.000000000000000000e+00 1.000000000000000000e+00 1.000000000000000000e+00 1.000000000000000000e+00 1.000000000000000000e+00 1.000000000000000000e+00 1.000000000000000000e+00 1.000000000000000000e+00 1.000000000000000000e+00 1.000000000000000000e+00 1.000000000000000000e+00 1.000000000000000000e+00 1.000000000000000000e+00 1.000000000000000000e+00 1.000000000000000000e+00 1.000000000000000000e+00 1.000000000000000000e+00 1.000000000000000000e+00 1.000000000000000000e+00 1.000000000000000000e+00 1.000000000000000000e+00 1.000000000000000000e+00 1.000000000000000000e+00 1.000000000000000000e+00 1.000000000000000000e+00 1.000000000000000000e+00 1.000000000000000000e+00 1.000000000000000000e+00 1.000000000000000000e+00 1.000000000000000000e+00 1.000000000000000000e+00 1.000000000000000000e+00 1.000000000000000000e+00 1.000000000000000000e+00 1.000000000000000000e+00 1.000000000000000000e+00 1.000000000000000000e+00 1.000000000000000000e+00 1.000000000000000000e+00 1.000000000000000000e+00 1.000000000000000000e+00 1.000000000000000000e+00 1.000000000000000000e+00 1.000000000000000000e+00 1.000000000000000000e+00 1.000000000000000000e+00 1.000000000000000000e+00 1.000000000000000000e+00 1.000000000000000000e+00 1.000000000000000000e+00 1.000000000000000000e+00 1.000000000000000000e+00 1.000000000000000000e+00 1.000000000000000000e+00 1.000000000000000000e+00 1.000000000000000000e+00 1.000000000000000000e+00 1.000000000000000000e+00 1.000000000000000000e+00 1.000000000000000000e+00 1.000000000000000000e+00 1.000000000000000000e+00 1.000000000000000000e+00 1.000000000000000000e+00 1.000000000000000000e+00 1.000000000000000000e+00 1.000000000000000000e+00 1.000000000000000000e+00 1.000000000000000000e+00 1.000000000000000000e+00 1.000000000000000000e+00 1.000000000000000000e+00 1.000000000000000000e+00 1.000000000000000000e+00 1.000000000000000000e+00 1.000000000000000000e+00 1.000000000000000000e+00 1.000000000000000000e+00 1.000000000000000000e+00 1.000000000000000000e+00 1.000000000000000000e+00 1.000000000000000000e+00 1.000000000000000000e+00 1.000000000000000000e+00 1.000000000000000000e+00 1.000000000000000000e+00 1.000000000000000000e+00 1.000000000000000000e+00 1.000000000000000000e+00 1.000000000000000000e+00 1.000000000000000000e+00 1.000000000000000000e+00 1.000000000000000000e+00 1.000000000000000000e+00 1.000000000000000000e+00 1.000000000000000000e+00 1.000000000000000000e+00 1.000000000000000000e+00 1.000000000000000000e+00 1.000000000000000000e+00 1.000000000000000000e+00 1.000000000000000000e+00 1.000000000000000000e+00 1.000000000000000000e+00 1.000000000000000000e+00 1.000000000000000000e+00 1.000000000000000000e+00 1.000000000000000000e+00 1.000000000000000000e+00 1.000000000000000000e+00 1.000000000000000000e+00 1.000000000000000000e+00 1.000000000000000000e+00 1.000000000000000000e+00 1.000000000000000000e+00 1.000000000000000000e+00 1.000000000000000000e+00 1.000000000000000000e+00 1.000000000000000000e+00 1.000000000000000000e+00 1.000000000000000000e+00 1.000000000000000000e+00 1.000000000000000000e+00 1.000000000000000000e+00 1.000000000000000000e+00 1.000000000000000000e+00 1.000000000000000000e+00 1.000000000000000000e+00 1.000000000000000000e+00 1.000000000000000000e+00 1.000000000000000000e+00 1.000000000000000000e+00 1.000000000000000000e+00 1.000000000000000000e+00 1.000000000000000000e+00 1.000000000000000000e+00 1.000000000000000000e+00 1.000000000000000000e+00 1.000000000000000000e+00 1.000000000000000000e+00 1.000000000000000000e+00 1.000000000000000000e+00 1.000000000000000000e+00 1.000000000000000000e+00 1.000000000000000000e+00 1.000000000000000000e+00 1.000000000000000000e+00 1.000000000000000000e+00 1.000000000000000000e+00 1.000000000000000000e+00 1.000000000000000000e+00 1.000000000000000000e+00 1.000000000000000000e+00 1.000000000000000000e+00 1.000000000000000000e+00 1.000000000000000000e+00 1.000000000000000000e+00 1.000000000000000000e+00 1.000000000000000000e+00 1.000000000000000000e+00 1.000000000000000000e+00 1.000000000000000000e+00 1.000000000000000000e+00 1.000000000000000000e+00 1.000000000000000000e+00 1.000000000000000000e+00 1.000000000000000000e+00 1.000000000000000000e+00 1.000000000000000000e+00 1.000000000000000000e+00 1.000000000000000000e+00 1.000000000000000000e+00 1.000000000000000000e+00 1.000000000000000000e+00 1.000000000000000000e+00 1.000000000000000000e+00 1.000000000000000000e+00 1.000000000000000000e+00 1.000000000000000000e+00 1.000000000000000000e+00 1.000000000000000000e+00 1.000000000000000000e+00 1.000000000000000000e+00 1.000000000000000000e+00 1.000000000000000000e+00 1.000000000000000000e+00 1.000000000000000000e+00 1.000000000000000000e+00 1.000000000000000000e+00 1.000000000000000000e+00 1.000000000000000000e+00 1.000000000000000000e+00 1.000000000000000000e+00 1.000000000000000000e+00 1.000000000000000000e+00 1.000000000000000000e+00 1.000000000000000000e+00 1.000000000000000000e+00 1.000000000000000000e+00 1.000000000000000000e+00 1.000000000000000000e+00 1.000000000000000000e+00 1.000000000000000000e+00 1.000000000000000000e+00 1.000000000000000000e+00 1.000000000000000000e+00 1.000000000000000000e+00 1.000000000000000000e+00 1.000000000000000000e+00 1.000000000000000000e+00 1.000000000000000000e+00 1.000000000000000000e+00 1.000000000000000000e+00 1.000000000000000000e+00 1.000000000000000000e+00 1.000000000000000000e+00 1.000000000000000000e+00 1.000000000000000000e+00 1.000000000000000000e+00 1.000000000000000000e+00 1.000000000000000000e+00 1.000000000000000000e+00 1.000000000000000000e+00 1.000000000000000000e+00 1.000000000000000000e+00 1.000000000000000000e+00 1.000000000000000000e+00 1.000000000000000000e+00 1.000000000000000000e+00 1.000000000000000000e+00 1.000000000000000000e+00 1.000000000000000000e+00 1.000000000000000000e+00 1.000000000000000000e+00 1.000000000000000000e+00 1.000000000000000000e+00 1.000000000000000000e+00 1.000000000000000000e+00 1.000000000000000000e+00 1.000000000000000000e+00 1.000000000000000000e+00 1.000000000000000000e+00 1.000000000000000000e+00 1.000000000000000000e+00 1.000000000000000000e+00 1.000000000000000000e+00 1.000000000000000000e+00 1.000000000000000000e+00 1.000000000000000000e+00 1.000000000000000000e+00 1.000000000000000000e+00 1.000000000000000000e+00 1.000000000000000000e+00 1.000000000000000000e+00 1.000000000000000000e+00 1.000000000000000000e+00 1.000000000000000000e+00 1.000000000000000000e+00 1.000000000000000000e+00 1.000000000000000000e+00 1.000000000000000000e+00 1.000000000000000000e+00 1.000000000000000000e+00 1.000000000000000000e+00 1.000000000000000000e+00 1.000000000000000000e+00 1.000000000000000000e+00 1.000000000000000000e+00 1.000000000000000000e+00 1.000000000000000000e+00 1.000000000000000000e+00 1.000000000000000000e+00 1.000000000000000000e+00 1.000000000000000000e+00 1.000000000000000000e+00 1.000000000000000000e+00 1.000000000000000000e+00 1.000000000000000000e+00 1.000000000000000000e+00 1.000000000000000000e+00 1.000000000000000000e+00 1.000000000000000000e+00 1.000000000000000000e+00 1.000000000000000000e+00 1.000000000000000000e+00 1.000000000000000000e+00 1.000000000000000000e+00 1.000000000000000000e+00 1.000000000000000000e+00 1.000000000000000000e+00 1.000000000000000000e+00 1.000000000000000000e+00 1.000000000000000000e+00 1.000000000000000000e+00 1.000000000000000000e+00 1.000000000000000000e+00 1.000000000000000000e+00 1.000000000000000000e+00 1.000000000000000000e+00 1.000000000000000000e+00 1.000000000000000000e+00 1.000000000000000000e+00 1.000000000000000000e+00 1.000000000000000000e+00 1.000000000000000000e+00 1.000000000000000000e+00 1.000000000000000000e+00 1.000000000000000000e+00 1.000000000000000000e+00 1.000000000000000000e+00 1.000000000000000000e+00 1.000000000000000000e+00 1.000000000000000000e+00 1.000000000000000000e+00 1.000000000000000000e+00 1.000000000000000000e+00 1.000000000000000000e+00 1.000000000000000000e+00 1.000000000000000000e+00 1.000000000000000000e+00 1.000000000000000000e+00 1.000000000000000000e+00 1.000000000000000000e+00 1.000000000000000000e+00 1.000000000000000000e+00 1.000000000000000000e+00 1.000000000000000000e+00 1.000000000000000000e+00 1.000000000000000000e+00 1.000000000000000000e+00 1.000000000000000000e+00 1.000000000000000000e+00 1.000000000000000000e+00 1.000000000000000000e+00 1.000000000000000000e+00 1.000000000000000000e+00 1.000000000000000000e+00 1.000000000000000000e+00 1.000000000000000000e+00 1.000000000000000000e+00 1.000000000000000000e+00 1.000000000000000000e+00 1.000000000000000000e+00 1.000000000000000000e+00 1.000000000000000000e+00 1.000000000000000000e+00 1.000000000000000000e+00 1.000000000000000000e+00 1.000000000000000000e+00 1.000000000000000000e+00 1.000000000000000000e+00 1.000000000000000000e+00 1.000000000000000000e+00 1.000000000000000000e+00 1.000000000000000000e+00 1.000000000000000000e+00 1.000000000000000000e+00 1.000000000000000000e+00 1.000000000000000000e+00 1.000000000000000000e+00 1.000000000000000000e+00 1.000000000000000000e+00 1.000000000000000000e+00 1.000000000000000000e+00 1.000000000000000000e+00 1.000000000000000000e+00 1.000000000000000000e+00 1.000000000000000000e+00 1.000000000000000000e+00 1.000000000000000000e+00 1.000000000000000000e+00 1.000000000000000000e+00 1.000000000000000000e+00 1.000000000000000000e+00 1.000000000000000000e+00 1.000000000000000000e+00 1.000000000000000000e+00 1.000000000000000000e+00 1.000000000000000000e+00 1.000000000000000000e+00 1.000000000000000000e+00 1.000000000000000000e+00 1.000000000000000000e+00 1.000000000000000000e+00 1.000000000000000000e+00 1.000000000000000000e+00 1.000000000000000000e+00 1.000000000000000000e+00 1.000000000000000000e+00 1.000000000000000000e+00 1.000000000000000000e+00 1.000000000000000000e+00 1.000000000000000000e+00 1.000000000000000000e+00 1.000000000000000000e+00 1.000000000000000000e+00 1.000000000000000000e+00 1.000000000000000000e+00 1.000000000000000000e+00 1.000000000000000000e+00 1.000000000000000000e+00 1.000000000000000000e+00 1.000000000000000000e+00 1.000000000000000000e+00 1.000000000000000000e+00 1.000000000000000000e+00 1.000000000000000000e+00 1.000000000000000000e+00 1.000000000000000000e+00 1.000000000000000000e+00 1.000000000000000000e+00 1.000000000000000000e+00 1.000000000000000000e+00 1.000000000000000000e+00 1.000000000000000000e+00 1.000000000000000000e+00 1.000000000000000000e+00 1.000000000000000000e+00 1.000000000000000000e+00 1.000000000000000000e+00 1.000000000000000000e+00 1.000000000000000000e+00 1.000000000000000000e+00 1.000000000000000000e+00 1.000000000000000000e+00 1.000000000000000000e+00 1.000000000000000000e+00 1.000000000000000000e+00 1.000000000000000000e+00 1.000000000000000000e+00 1.000000000000000000e+00 1.000000000000000000e+00 1.000000000000000000e+00 1.000000000000000000e+00 1.000000000000000000e+00 1.000000000000000000e+00 1.000000000000000000e+00 1.000000000000000000e+00 1.000000000000000000e+00 1.000000000000000000e+00 1.000000000000000000e+00 1.000000000000000000e+00 1.000000000000000000e+00 1.000000000000000000e+00 1.000000000000000000e+00 1.000000000000000000e+00 1.000000000000000000e+00 1.000000000000000000e+00 1.000000000000000000e+00 1.000000000000000000e+00 1.000000000000000000e+00 1.000000000000000000e+00 1.000000000000000000e+00 1.000000000000000000e+00 1.000000000000000000e+00 1.000000000000000000e+00 1.000000000000000000e+00 1.000000000000000000e+00 1.000000000000000000e+00 1.000000000000000000e+00 1.000000000000000000e+00 1.000000000000000000e+00 1.000000000000000000e+00 1.000000000000000000e+00 1.000000000000000000e+00 1.000000000000000000e+00 1.000000000000000000e+00 1.000000000000000000e+00 1.000000000000000000e+00 1.000000000000000000e+00 1.000000000000000000e+00 1.000000000000000000e+00 1.000000000000000000e+00 1.000000000000000000e+00 1.000000000000000000e+00 1.000000000000000000e+00 1.000000000000000000e+00 1.000000000000000000e+00 1.000000000000000000e+00 1.000000000000000000e+00 1.000000000000000000e+00 1.000000000000000000e+00 1.000000000000000000e+00 1.000000000000000000e+00 1.000000000000000000e+00 1.000000000000000000e+00 1.000000000000000000e+00 1.000000000000000000e+00 1.000000000000000000e+00 1.000000000000000000e+00 1.000000000000000000e+00 1.000000000000000000e+00 1.000000000000000000e+00 1.000000000000000000e+00 1.000000000000000000e+00 1.000000000000000000e+00 1.000000000000000000e+00 1.000000000000000000e+00 1.000000000000000000e+00 1.000000000000000000e+00 1.000000000000000000e+00 1.000000000000000000e+00 1.000000000000000000e+00 1.000000000000000000e+00 1.000000000000000000e+00 1.000000000000000000e+00 1.000000000000000000e+00 1.000000000000000000e+00 1.000000000000000000e+00 1.000000000000000000e+00 1.000000000000000000e+00 1.000000000000000000e+00 1.000000000000000000e+00 1.000000000000000000e+00 1.000000000000000000e+00 1.000000000000000000e+00 1.000000000000000000e+00 1.000000000000000000e+00 1.000000000000000000e+00 1.000000000000000000e+00 1.000000000000000000e+00 1.000000000000000000e+00 1.000000000000000000e+00 1.000000000000000000e+00 1.000000000000000000e+00 1.000000000000000000e+00 1.000000000000000000e+00 1.000000000000000000e+00 1.000000000000000000e+00 1.000000000000000000e+00 1.000000000000000000e+00 1.000000000000000000e+00 1.000000000000000000e+00 1.000000000000000000e+00 1.000000000000000000e+00 1.000000000000000000e+00 1.000000000000000000e+00 1.000000000000000000e+00 1.000000000000000000e+00 1.000000000000000000e+00 1.000000000000000000e+00 1.000000000000000000e+00 1.000000000000000000e+00 1.000000000000000000e+00 1.000000000000000000e+00 1.000000000000000000e+00 1.000000000000000000e+00 1.000000000000000000e+00 1.000000000000000000e+00 1.000000000000000000e+00 1.000000000000000000e+00 1.000000000000000000e+00 1.000000000000000000e+00 1.000000000000000000e+00 1.000000000000000000e+00 1.000000000000000000e+00 1.000000000000000000e+00 1.000000000000000000e+00 1.000000000000000000e+00 1.000000000000000000e+00 1.000000000000000000e+00 1.000000000000000000e+00 1.000000000000000000e+00 1.000000000000000000e+00 1.000000000000000000e+00 1.000000000000000000e+00 1.000000000000000000e+00 1.000000000000000000e+00 1.000000000000000000e+00 1.000000000000000000e+00 1.000000000000000000e+00 1.000000000000000000e+00 1.000000000000000000e+00 1.000000000000000000e+00 1.000000000000000000e+00 1.000000000000000000e+00 1.000000000000000000e+00 1.000000000000000000e+00 1.000000000000000000e+00 1.000000000000000000e+00 1.000000000000000000e+00 1.000000000000000000e+00 1.000000000000000000e+00 1.000000000000000000e+00 1.000000000000000000e+00 1.000000000000000000e+00 1.000000000000000000e+00 1.000000000000000000e+00 1.000000000000000000e+00 1.000000000000000000e+00 1.000000000000000000e+00 1.000000000000000000e+00 1.000000000000000000e+00 1.000000000000000000e+00 1.000000000000000000e+00 1.000000000000000000e+00 1.000000000000000000e+00 1.000000000000000000e+00 1.000000000000000000e+00 1.000000000000000000e+00 1.000000000000000000e+00 1.000000000000000000e+00 1.000000000000000000e+00 1.000000000000000000e+00 1.000000000000000000e+00 1.000000000000000000e+00 1.000000000000000000e+00 1.000000000000000000e+00 1.000000000000000000e+00 1.000000000000000000e+00 1.000000000000000000e+00 1.000000000000000000e+00 1.000000000000000000e+00 1.000000000000000000e+00 1.000000000000000000e+00 1.000000000000000000e+00 1.000000000000000000e+00 1.000000000000000000e+00 1.000000000000000000e+00 1.000000000000000000e+00 1.000000000000000000e+00 1.000000000000000000e+00 1.000000000000000000e+00 1.000000000000000000e+00 1.000000000000000000e+00 1.000000000000000000e+00 1.000000000000000000e+00 1.000000000000000000e+00 1.000000000000000000e+00 1.000000000000000000e+00 1.000000000000000000e+00 1.000000000000000000e+00 1.000000000000000000e+00 1.000000000000000000e+00 1.000000000000000000e+00 1.000000000000000000e+00 1.000000000000000000e+00 1.000000000000000000e+00 1.000000000000000000e+00 1.000000000000000000e+00 1.000000000000000000e+00 1.000000000000000000e+00 1.000000000000000000e+00 1.000000000000000000e+00 1.000000000000000000e+00 1.000000000000000000e+00 1.000000000000000000e+00 1.000000000000000000e+00 1.000000000000000000e+00 1.000000000000000000e+00 1.000000000000000000e+00 1.000000000000000000e+00 1.000000000000000000e+00 1.000000000000000000e+00 1.000000000000000000e+00 1.000000000000000000e+00 1.000000000000000000e+00 1.000000000000000000e+00 1.000000000000000000e+00 1.000000000000000000e+00 1.000000000000000000e+00 1.000000000000000000e+00 1.000000000000000000e+00 1.000000000000000000e+00 1.000000000000000000e+00 1.000000000000000000e+00 1.000000000000000000e+00 1.000000000000000000e+00 1.000000000000000000e+00 1.000000000000000000e+00 1.000000000000000000e+00 1.000000000000000000e+00 1.000000000000000000e+00 1.000000000000000000e+00 1.000000000000000000e+00 1.000000000000000000e+00 1.000000000000000000e+00 1.000000000000000000e+00 1.000000000000000000e+00 1.000000000000000000e+00 1.000000000000000000e+00 1.000000000000000000e+00 1.000000000000000000e+00 1.000000000000000000e+00 1.000000000000000000e+00 1.000000000000000000e+00 1.000000000000000000e+00 1.000000000000000000e+00 1.000000000000000000e+00 1.000000000000000000e+00 1.000000000000000000e+00 1.000000000000000000e+00 1.000000000000000000e+00 1.000000000000000000e+00 1.000000000000000000e+00 1.000000000000000000e+00 1.000000000000000000e+00 1.000000000000000000e+00 1.000000000000000000e+00 1.000000000000000000e+00 1.000000000000000000e+00 1.000000000000000000e+00 1.000000000000000000e+00 1.000000000000000000e+00 1.000000000000000000e+00 1.000000000000000000e+00 1.000000000000000000e+00 1.000000000000000000e+00 1.000000000000000000e+00 1.000000000000000000e+00 1.000000000000000000e+00 1.000000000000000000e+00 1.000000000000000000e+00 1.000000000000000000e+00 1.000000000000000000e+00 1.000000000000000000e+00 1.000000000000000000e+00 1.000000000000000000e+00 1.000000000000000000e+00 1.000000000000000000e+00 1.000000000000000000e+00 1.000000000000000000e+00 1.000000000000000000e+00 1.000000000000000000e+00 1.000000000000000000e+00 1.000000000000000000e+00 1.000000000000000000e+00 1.000000000000000000e+00 1.000000000000000000e+00 1.000000000000000000e+00 1.000000000000000000e+00 1.000000000000000000e+00 1.000000000000000000e+00 1.000000000000000000e+00 1.000000000000000000e+00 1.000000000000000000e+00 1.000000000000000000e+00 1.000000000000000000e+00 1.000000000000000000e+00 1.000000000000000000e+00 1.000000000000000000e+00 1.000000000000000000e+00 1.000000000000000000e+00 1.000000000000000000e+00 1.000000000000000000e+00 1.000000000000000000e+00 1.000000000000000000e+00 1.000000000000000000e+00 1.000000000000000000e+00 1.000000000000000000e+00 1.000000000000000000e+00 1.000000000000000000e+00 1.000000000000000000e+00 1.000000000000000000e+00 1.000000000000000000e+00 1.000000000000000000e+00 1.000000000000000000e+00 1.000000000000000000e+00 1.000000000000000000e+00 1.000000000000000000e+00 1.000000000000000000e+00 1.000000000000000000e+00 1.000000000000000000e+00 1.000000000000000000e+00 1.000000000000000000e+00 1.000000000000000000e+00 1.000000000000000000e+00 1.000000000000000000e+00 1.000000000000000000e+00 1.000000000000000000e+00 1.000000000000000000e+00 1.000000000000000000e+00 1.000000000000000000e+00 1.000000000000000000e+00 1.000000000000000000e+00 1.000000000000000000e+00 1.000000000000000000e+00 1.000000000000000000e+00 1.000000000000000000e+00 1.000000000000000000e+00 1.000000000000000000e+00 1.000000000000000000e+00 1.000000000000000000e+00 1.000000000000000000e+00 1.000000000000000000e+00 1.000000000000000000e+00 1.000000000000000000e+00 1.000000000000000000e+00 1.000000000000000000e+00 1.000000000000000000e+00 1.000000000000000000e+00 1.000000000000000000e+00 1.000000000000000000e+00 1.000000000000000000e+00 1.000000000000000000e+00 1.000000000000000000e+00 1.000000000000000000e+00 1.000000000000000000e+00 1.000000000000000000e+00 1.000000000000000000e+00 1.000000000000000000e+00 1.000000000000000000e+00 1.000000000000000000e+00 1.000000000000000000e+00 1.000000000000000000e+00 1.000000000000000000e+00 1.000000000000000000e+00 1.000000000000000000e+00 1.000000000000000000e+00 1.000000000000000000e+00 1.000000000000000000e+00 1.000000000000000000e+00 1.000000000000000000e+00 1.000000000000000000e+00 1.000000000000000000e+00 1.000000000000000000e+00 1.000000000000000000e+00 1.000000000000000000e+00 1.000000000000000000e+00 1.000000000000000000e+00 1.000000000000000000e+00 1.000000000000000000e+00 1.000000000000000000e+00 1.000000000000000000e+00 1.000000000000000000e+00 1.000000000000000000e+00 1.000000000000000000e+00 1.000000000000000000e+00 1.000000000000000000e+00 1.000000000000000000e+00 1.000000000000000000e+00 1.000000000000000000e+00 1.000000000000000000e+00 1.000000000000000000e+00 1.000000000000000000e+00 1.000000000000000000e+00 1.000000000000000000e+00 1.000000000000000000e+00 1.000000000000000000e+00 1.000000000000000000e+00 1.000000000000000000e+00 1.000000000000000000e+00 1.000000000000000000e+00 1.000000000000000000e+00 1.000000000000000000e+00 1.000000000000000000e+00 1.000000000000000000e+00 1.000000000000000000e+00 1.000000000000000000e+00 1.000000000000000000e+00 1.000000000000000000e+00 1.000000000000000000e+00 1.000000000000000000e+00 1.000000000000000000e+00 1.000000000000000000e+00 1.000000000000000000e+00 1.000000000000000000e+00 1.000000000000000000e+00 1.000000000000000000e+00 1.000000000000000000e+00
-1.130753137356942106e-02 5.197717535323547189e-01 -1.053584671053749283e-01 6.364293306800303807e-01 5.256753820665531762e-01 6.249792329223771148e-01 6.929732536644434004e-01 2.069009188904328556e-01 5.224988444301270629e-01 4.984068048214743141e-01 1.067432219803972737e+00 -6.166315584498426317e-01 1.360788514188291387e+00 4.422002849303643957e-01 5.296756942395887124e-01 5.929651608887164249e-01 9.556900823955829516e-01 9.410734656992546521e-01 5.135079951443282109e-01 4.948830205060007481e-01 5.444393996779302025e-01 9.600538261543862806e-01 6.346537385944478471e-01 6.118745150675874989e-01 1.721706943084247987e-01 7.161175131653054748e-01 3.444916304754451208e-01 5.032153215086331288e-01 5.159336861822517717e-01 1.454898738816972292e+00 5.388506683626871352e-01 6.105306067512766832e-01 7.263458965417857183e-01 5.086224347585099892e-01 7.302713408600867151e-01 5.734127805226616470e-01 5.988445149656506095e-01 1.632221065059536125e+00 -4.550677817578371864e-02 5.027430467743766451e-01 -5.926886186784699473e-02 -5.501493163103694517e-01 7.541609011652895544e-01 2.164582575392915431e-01 2.449686267861324318e-01 5.011638780885340205e-01 6.361826079062857797e-01 5.218795145214808473e-01 4.517837053218654586e-01 2.868530549321213902e-02 3.476953387526325601e-02 8.670724765167361348e-01 6.516193023264458262e-01 5.844078091691368160e-01 4.396099131803893334e-01 1.897526613843257982e-03 6.008780360838776868e-01 5.605367325829908598e-01 1.747193514857798002e-01 5.091437561719860394e-01 8.918863054740927554e-01 5.214474332392742273e-01 5.562908621134853293e-01 6.346535519010919613e-01 6.849855707014319561e-01 4.228338643217857129e-01 5.234429744888809966e-01 2.785438664168318756e-01 4.973379452990003280e-01 -1.144512665858293289e-03 4.235431848481477912e-01 4.437448946670360383e-01 5.136616929698148981e-01 3.306557530243140614e-02 1.461747348877574737e+00 5.582068807402470467e-01 6.262951058493573253e-01 7.606014639224106810e-01 5.212623087126944110e-01 1.368746648764039175e+00 4.982242320046990636e-01 2.317510205693455727e-01 1.299368231132295826e+00 5.193683802389461590e-01 5.100402018682412830e-01 7.595778868559089902e-01 8.211641119567942848e-01 4.937125232421569754e-01 3.862143493243961889e-01 5.742247935598334685e-01 2.491810109902418691e-01 2.046841944244839784e+00 5.851727358684841729e-01 -9.207929241655581076e-02 4.701179219334793991e-01 6.230639328097099527e-01 4.786129635614041478e-01 4.617555186766221786e-01 1.908551978772065061e-01 7.087789882624244697e-01 1.509511301517020065e+00 6.757102115790576402e-01 4.887769148397536623e-01 8.816840868510317231e-01 8.378583374111326920e-01 -1.887809926495251922e+00 -1.141379858526071711e+00 5.611598865958835614e-01 4.747749334273633215e-01 9.741413104948357660e-01 5.065771853150261572e-01 6.176022229954390985e-01 1.945465131336463760e-01 4.415265508738029365e-01 5.080343359981808193e-01 4.990511571364459331e-01 4.932183535778364436e-01 4.098874573690050038e-01 7.471665780535013957e-01 4.893713519322686056e-01 1.267129547962743352e+00 5.755725135853162477e-01 4.717424846303189256e-01 -1.883206741274651153e-01 5.119435505567490052e-01 1.873241219257744783e+00 5.263500533036428175e-01 4.553913523752984860e-01 6.624738112464725326e-01 5.386108999083438764e-01 6.473395317377438341e-01 5.202288235655422310e-01 3.956998577784970883e-01 1.598864709605987700e-01 -5.852343350606711847e-02 -1.295046467915399457e-01 5.637726341863324997e-01 2.291221209392451698e-03 9.745951154442155095e-01 7.110722215978795280e-01 5.579124018821947084e-01 8.389916277782549781e-01 6.638534411290456516e-01 4.938082697833784396e-01 5.048685657839333540e-01 -4.209019896290207285e-02 7.551310665030610547e-01 3.732616354479486587e-01 5.238841120170019128e-01 -8.032135799796132902e-01 7.879652360705438063e-01 -3.004775341647857867e-01 5.011650701115408779e-01 5.001890359639269423e-01 5.989589511821250545e-01 5.136928605877454368e-01 1.729600855233675460e+00 3.704819171033940650e-02 7.987970208194824506e-01 6.979082880260750743e-01 4.858833124354088873e-01 5.032337195297538202e-01 5.072779211622898687e-01 5.171929477331422831e-01 1.108122485427351034e+00 7.674928821969724535e-02 8.289810027381615543e-01 5.517266970641943047e-01 6.345990801816154825e-01 4.252847611828821095e-01 3.632907207715257436e-01 6.419830564834977382e-01 5.011729144348427978e-01 5.175756367004560321e-01 4.094621285468179606e-01 -3.005058604442094588e-03 1.538115284223033341e-01 5.611830845966992581e-02 7.213720317423167883e-01 1.133822773877258605e+00 7.344033724424691156e-01 5.545768323777180431e-01 -2.009640058413184882e-01 5.404117534893823072e-01 6.657109379133715477e-01 5.110541437187533509e-01 5.046135873629260526e-01 5.168967508175176251e-01 2.605161932646650857e+00 4.515954731768124786e-01 4.660528619517370075e-01 -8.026575211964062095e-01 5.456876801815165878e-01 5.220656024978603815e-01 1.608340414488394210e-01 5.259109748635790726e-01 9.076710426304187562e-01 5.144418495934384161e-01 7.512368017137381893e-01 5.729308815936090538e-01 5.151815278427965827e-01 5.069679315169534073e-01 1.026324437636964237e+00 5.963203807475628837e-01 5.432924106594778646e-01 7.512368001755562741e-01 3.847412070230246117e-01 1.256080537549105758e+00 5.783685335058892374e-01 3.312394167325533045e-01 4.836090310498138423e-01 -2.979190292864137071e-02 4.820672338213424224e-01 1.780604891528453637e-01 5.469991055911322952e-01 5.088917967076992399e-01 5.272019693980161126e-01 4.952534465739591441e-01 5.075749710890330446e-01 5.104563237669642595e-01 5.257527389679815810e-01 4.907697546244828013e-01 -6.648408210440480692e-01 4.906713715443380419e-01 2.369727303915265537e-01 4.598504408639653152e-01 2.902744114790545282e-01 1.213422296234707209e+00 9.270518234526199386e-01 5.096864262336971985e-01 -1.066361106903386258e-01 1.026174837116704097e+00 5.214046629325186366e-01 5.422185945153616959e-01 3.005951751092869606e-01 4.277749783093472979e-01 5.888147089519769617e-01 2.316957583787320751e-01 -1.266925663834759797e-01 -1.576012999049685448e-01 2.392434985948860282e-01 5.171175581794800191e-01 -7.972851160236636703e-02 6.116949941850257089e-01 5.212805143899226223e-01 4.764999558075018737e-01 -1.123158313587875184e-01 7.158918236208601238e-01 -2.045795743647809140e+00 5.061648029215122246e-01 -4.315471345186418506e-01 5.030147801578757072e-01 5.143350062459070005e-01 6.346532664003294855e-01 4.976513165611117229e-01 5.042942377684800359e-01 4.728118460328065709e-01 6.638615309962716537e-01 5.026932964714970753e-01 1.659433338708282024e+00 6.528282054379120902e-01 6.951133748415176949e-01 5.634769048192904695e-01 4.369009746239925218e-01 8.918864269738656647e-01 3.350993869836474404e-01 2.514869132228366500e+00 6.049613900051813431e-01 2.629634532124752178e-01 5.595349960593387628e-01 4.799001323648512396e-01 8.940179840229003361e-01 5.188610056532900749e-01 5.051751385144306328e-01 5.196036636165973777e-01 9.708406129229459891e-01 7.136075562515508119e-01 8.748580833677965796e-01 8.275105434649114855e-01 2.015156296036646200e-01 6.643188345755577373e-01 5.308967931396931794e-01 4.206285084633858973e-01 -6.525871457028741274e-01 3.740913008647426263e-01 7.900339234918232201e-01 4.902897130789657387e-01 4.890060013686933771e-01 4.990511607375850422e-01 6.066029529011053301e-01 4.868889250104290189e-01 -6.213015190485390304e-01 6.060698751280662044e-01 5.060803913149461986e-01 4.246551331391264228e-02 5.325587765396762041e-01 1.819509889202783004e+00 4.768225754215446588e-01 5.029380640420360038e-01 5.238906415875125289e-01 -3.180906498029147045e+00 5.430114552954131701e-01 2.479469743117158842e+00 6.413264506557346811e-01 4.983756641556388867e-01 -5.886184194196426578e-01 4.905747377847227142e-01 5.133037384975305262e-01 4.929156296027940032e-01 5.400290262614882986e-01 4.349785110542477851e-01 6.215742402480395334e-01 3.162672469427779132e-01 5.101371851676205216e-01 5.118597358424902266e-01 4.664276028739253732e-01 5.256546713910469348e-01 6.409428335789122411e-01 5.290673517465895870e-01 1.162698050516928427e+00 2.655827522364235388e-02 2.161661384483872794e+00 2.517580035430314833e+00 4.928104906804748331e-01 -1.573548911239482095e-01 5.152720351518189634e-01 4.178933028758284873e-01 6.991219331905145218e-01 1.323577117100199763e+00 5.451136845313542256e-01 1.098577293292763324e+00 5.060554989563387229e-01 1.450149131350223219e-01 1.221902820800131684e+00 3.990229910275791547e-01 4.876622069112908076e-01 5.209194063782192075e-01 7.833207520098348642e-01 -3.388455556244768019e+00 1.563180178444089297e+00 5.115051121163067815e-01 6.439412955284925522e-01 5.017006517058003601e-01 1.632221046336251646e+00 3.255529921666627247e-01 5.009507928912610986e-01 3.955091295114933625e-01 4.853449556457793412e-01 1.390592619375138117e+00 7.023367661308623777e-01 7.512368015230690421e-01 6.116942173494086532e-01 5.963203764306550525e-01 7.308623840379142589e-01 5.427998044233770525e-01 8.675488343481781994e-01 5.083651155921943277e-01 4.395753303591825034e-01 3.796967555523457771e-01 5.555556377003589841e-01 5.234790302645029314e-01 6.070586209364846608e-01 5.009508264047656256e-01 6.011591794575256165e-01 5.203527609632121465e-01 9.115117384762954078e-01 1.047262222603173365e+00 1.078587395398369120e+00 5.521907426108241257e-01 2.974355276710592966e-01 8.918884627880133698e-01 -1.092666457390594065e-01 9.300760675835089142e-01 6.195950345528276060e-01 2.974648267827102732e-02 4.651342240578518750e-01 1.068181597056359511e+00 4.056266292507522131e-01 5.736828812674908962e-01 2.421058891075683062e-01 -3.166908593459109578e-01 -2.304963048096233980e+00 4.496584135901732782e-01 5.963203804356511650e-01 5.963203807234649378e-01 4.778998253442314770e-01 5.869507315197322050e-01 -1.718102220496443011e-01 4.306680816506214815e-01 5.257350349901215303e-01 4.896903702457077734e-01 5.210312995699460936e-01 1.092385661766464899e+00 7.512368001343064927e-01 5.114934514216272765e-01 4.800496277536995815e-01 2.818057090110803187e-01 6.210201605974787764e-01 5.437168389416876524e-01 5.109387770945226226e-01 5.379577954035735798e-01 2.416189605816938812e-01 3.418323945277225440e-02 5.963203761905676581e-01 6.542550318525630626e-01 5.387537979548073785e-01 6.280147024798811151e-01 8.533879513536628547e-01 4.522025033348738843e-01 5.612877105544090695e-01 1.695786967311513571e+00 5.494873513874181103e-01 -2.747163896227723612e+00 6.340379661999987482e-01 1.452616232305071087e+00 5.823624014117252390e-01 -9.582151853900437999e-01 5.215604078274704847e-01 5.594096577924209113e-01 4.947505462274254251e-01 5.159611691630821007e-01 -9.823517541911037931e-02 4.874025340277164942e-01 1.049164587389046055e+00 6.062288455463460402e-01 -2.312460301665135443e-01 5.762871040435267878e-01 5.541770001120052136e-01 7.519179712878464317e-01 4.988027549589166831e-01 5.674562088693773099e-01 -4.509344284208846587e-01 5.459580590118225940e-01 5.221165333982487056e-01 7.411605096591868946e-01 5.095478923367857682e-01 7.575150910828305495e-01 5.307565612553623025e-01 4.906097430560663608e-01 8.531391212894616771e-01 5.124379340778488778e-01 4.756878879862480591e-01 2.104366035844402183e-01 2.496205603857077349e-01 9.331489117397328004e-01 5.318162443402407735e-01 3.042128105280612171e+00 6.489660721235777086e-01 5.044753052938403259e-01 5.733419064762859119e-01 6.924487709161524229e-01 2.326167768657030552e-02 4.799648378804634019e-01 5.160985404580445968e-01 5.149771144600857609e-01 1.167611210571466440e+00 7.577485087765283289e-01 5.284615184394565457e-01 5.019489762433840818e-01 1.102904132527048775e+00 5.479982977246647957e-01 5.015793376285931915e-01 5.430921016593935891e-01 5.022798757754848298e-01 5.278968778302565168e-01 8.867744286446787028e-01 5.033867364759440077e-01 5.012276304405145488e-01 2.668384914970329744e-02 5.257596510545730073e-01 4.426221908331721966e-02 4.619312493672059206e-01 4.664165805262626141e-01 5.107102635516972411e-01 7.531487380077898086e-01 5.411910694295815061e-01 4.376067545778565826e-01 1.622922313669394011e-03 6.029435079872328407e-01 4.910020451917601614e-01 4.928741465207116534e-01 -2.780485159394533237e-03 5.225779664417894432e-01 2.837173957406377012e-01 4.978105255913818361e-01 5.479916038744552242e-01 1.222850250804717653e+00 7.954111433739523562e-01 4.830005485951394117e-01 3.343929064767021120e-01 4.154042025611113798e-01 4.086533755085959840e-01 9.680980737455547880e-01 4.936524585091865980e-01 4.050159595761718134e-01 6.613234988337987064e-01 1.898317479328072155e+00 4.731946274777850681e-01 3.631439203955595940e-01 5.138790726558540856e-01 6.062895599107740452e-01 4.891747149070921896e-01 7.723356882230594245e-01 -5.370310958597654949e-01 2.990956268252345507e-01 4.169061135748726166e-01 5.443196312331682885e-01 4.617176678582126659e-01 -5.504722072462128191e-01 3.959302977656403155e-01 5.206057062859482665e-01 7.222479420880182355e-01 6.558639208101861851e-01 1.271269033141865679e+00 5.159067879710593774e-01 5.181193090579832017e-01 -6.203878824084746446e-01 5.537366563581046508e-01 1.147152018111706306e+00 6.514067287285365548e-01 2.157297794357375675e-01 3.412442406372688808e-01 -1.278724785238217754e+00 5.374908923993428900e-01 2.504199158635698197e-01 1.072144036818964086e+00 8.071308110659577428e-01 5.016160628816511702e-01 5.160726379453742796e-01 4.941022946031841112e-01 6.364165650216639936e-01 5.694485509545517132e-01 5.780467880551849458e-01 1.907810177929602016e-02 5.736293479419763974e-01 4.936436717087840931e-01 7.255683536848962500e-01 4.988010474990131060e-01 5.547282433828326642e-01 1.110333529018440624e+00 -1.223364501035558716e-01 -2.059656242478041799e-01 5.705039728200304028e-01 5.325708188971906010e-01 4.847163156486010704e-01 5.557101398543027315e-01 -7.704642888423126612e-01 3.004083759149059674e+00 4.972320060886776250e-01 5.042170197595620129e-01 5.172423847348912584e-01 5.228810134254604503e-01 5.250194628325750568e-01 6.583580517624465500e-01 3.439649073888057518e-01 5.408104023683456552e-01 5.235963270193693120e-01 6.604924447435996937e-01 4.364960994091512392e-01 6.801416222506132536e-01 4.721603476669387622e-01 4.075144404430940392e-01 4.164929572154826842e-01 4.954515767477513655e-01 6.017375465397846179e-01 9.697225536490754472e-01 2.227594055250172733e+00 6.441919476031336966e-01 4.881656199713391153e-01 5.839848796531460495e-01 5.224189133511999428e-01 3.874525897849040446e-01 5.189687073109783277e-01 5.243502689941318406e-01 5.216880442008668961e-01 5.965403177303608695e-01 5.237518735289156124e-01 6.363272163003892423e-01 3.881048949684942628e-01 7.112600591832540786e-01 6.567078903218721564e-01 6.648260102051591902e-01 1.472928849387630523e-01 8.918863760790221029e-01 5.109404829624368816e-01 2.217810631359735385e-01 1.894314829657957278e+00 2.496959763896174356e-01 5.345913833371843671e-01 5.717391901004270638e-01 5.498888312224876895e-02 6.119606179867786988e-01 1.459918091414708075e+00 6.596456605144523921e-01 8.570756835784389960e-01 5.285698837957976126e-01 4.895529793920848638e-01 5.682264155216016910e-01 4.252440279715455351e-01 5.000022699464452547e-01 5.203043805843656777e-01 -2.324442142876526757e-02 6.514984003523504041e-01 -1.125390162356578738e+00 4.585220978757169608e-01 4.709815314678968967e-01 5.078455000406741915e-01 5.239047193016238557e-01 8.918863760826883924e-01 2.645138808593937574e-01 4.972988123700409213e-01 1.243301901338726090e+00 -4.795501064376962441e-01 5.047226509982259968e-01 1.069860682973626353e+00 1.383359435336775300e+00 3.305855588142798673e-01 5.204968295209844165e-01 -2.229284784836519512e-02 -1.550485023692818265e+00 2.996046990213140360e-01 5.291050253782128010e-01 5.254912471893874448e-01 4.983301899946939728e-01 4.360753620463475033e-01 4.966070330440432445e-01 -3.478063437924062695e-01 7.903906959535824672e-01 4.990511671098752378e-01 3.932745927699101696e-01 4.898815083901169043e-01 -4.815702549267362326e-02 -1.842955087352986521e-01 1.665583380521825418e+00 4.238688593319678288e-01 3.837896290222210793e-01 5.152801900216659181e-01 3.450441785159976127e-01 5.353233320908009629e-01 1.142879448011598353e-01 -6.451868310579716992e-01 5.211158044198936912e-01 4.807722982154292724e-01 5.706053548784253415e-01 4.472279653860191106e-01 5.100709581519297098e-01 5.296917097764297644e-01 5.138013681052016057e-01 5.848530679699726065e-01 1.005108904573511319e+00 7.206366278374727319e-01 5.110202017432077248e-01 4.879366405453440803e-01 5.008661676689294406e-01 5.454583345532575400e-01 -6.687863555223576804e-03 5.009508189025905223e-01 6.710440998957167835e-01 5.042909055103962368e-01 6.644840788125138120e-01 1.063120925818926477e+00 7.723592489603281486e-01 -3.836063338975091441e-01 5.092820711899292974e-01 6.182955250708822570e-01 5.539338677375212905e-01 4.709497476041472064e-01 8.617583737072608274e-01 5.071442831301095078e-01 5.274942079791054006e-01 -7.794517466049608045e-02 -7.722356997487459518e-01 2.145562256486227337e+00 5.437174006683688221e-01 8.681603724168789338e-01 6.077845014506428889e-01 5.447369349089711266e-01 3.267181993215666491e-01 1.466669904682183501e-01 5.050899886043697107e-01 4.852750747651894958e-01 2.665403039893266685e-02 5.143145716068107109e-01 4.653041360656824388e-01 5.180499432728370435e-01 8.889040881533463168e-01 4.825725280756563151e-01 5.369015481069767670e-01 3.480495012032812086e-01 4.773078707676134957e-01 2.467494854606420429e-01 5.145092710640609690e-01 6.024262803106625874e-01 5.570753849163538884e-01 -3.336680639926473124e-01 4.952804936539130787e-01 6.420028027659857583e-01 5.026041433274262005e-01 6.360514630859042118e-01 8.918859324422462320e-01 7.432484582489229386e-01 -5.403225548238157483e-01 1.005499445456819130e+00 1.632221065093160339e+00 4.485783103289408547e-01 4.640124963793456070e-01 1.046365687704541969e+00 5.005151086504071589e-01 6.370122869379954977e-01 5.269512575090393725e-01 1.673160949723410340e+00 5.181351256127643135e-01 6.116943140840318538e-01 1.234569163049870522e+00 -2.288599472980348132e-02 5.254804146921895347e-01 -1.556450135245762145e-01 -8.756960136705842501e-01 -1.844322524941251762e-01 7.695908228082715130e-01 4.984295554129529182e-01 6.145268980556650718e-01 -3.465716656424355779e-01 5.519182012182537456e-01 -3.540550374261632049e-02 -2.718640331761502105e-01 4.136991853314224143e-01 5.176028082070064373e-01 5.620697348606810140e-01 4.651604030240706344e-01 5.437927473957931968e-01 8.823547280467274323e-01 -3.109266262376151335e-01 5.173009005995337084e-01 5.218437575927348249e-01 6.486087900972182796e-01 1.139131324884346874e+00 5.627963765107913963e-01 5.268715865946467236e-01 5.270241589126811732e-01 1.154607835775995142e-02 -9.743188885225106954e-02 4.925069287600845613e-01 4.980615405673678997e-01 5.777194590151411013e-01 4.905419558713294825e-01 3.388182588837453935e-01 5.225089263945617013e-01 4.973442640186155894e-01 2.814595475746606290e-01 5.077464174091907978e-01 8.315457694051376913e-01 2.429561297511906304e+00 -2.183464304704776648e-01 6.740053590948822393e-01 4.480202558594042483e-01 2.613284818176503932e-01 7.107573324387884695e-01 -4.632275120965136800e-02 -1.362739355446586975e+00 5.187621952130528902e-01 2.488871547143794771e+00 4.737390644027056341e-01 1.299037770953700988e-01 2.090030652485026785e-01 4.990511571645568356e-01 4.783878554943542527e-01 1.479748072538308090e+00 5.106275509068197715e-01 1.232996316078282667e-01 4.803044155313452857e-01 1.573765351856726280e+00 5.050821374968810229e-01 5.250267973365240204e-01 5.145173641627760475e-01 7.529993843411701970e-01 4.434313516732827920e-01 5.539156515191809849e-01 -2.748653244243315884e-03 5.154553247020354778e-01 6.569968099401772843e-01 -5.366310467736604695e-01 5.853255391769215943e-02 1.148364132261052717e+00 2.312290508109710874e-01 5.139762557449462088e-01 5.916161870563412251e-01 4.960623474269016953e-01 1.943937175577243437e+00 7.170255504688491932e-01 2.472122548747880677e-02 2.160897816555209516e-01 4.562534287716282777e-01 1.035874288320167702e+00 4.323002340009262090e-01 6.912638054767305737e-03 4.975076199344956041e-01 -3.940395810713256952e-02 5.003179574459004630e-01 5.244105807197489977e-01 3.397297544087550525e-02 -1.047114628522224644e-01 6.451058701489948977e-01 5.009833245182354622e-01 4.910894458773871207e-01 4.350843425655553376e-01 5.610693109899586029e-01 5.553558391205655198e-01 5.050458123471754934e-01 5.250638631689569236e-01 4.938012704367913952e-01 6.910303580318467587e-01 1.003709413691714403e+00 2.978089320278104246e+00 7.723407566518269984e-01 5.133040980676372156e-01 6.644608146108369473e-01 2.031475620639398294e-01 5.238193594628648420e-01 8.004999098186313944e-01 4.858814124655879141e-01 1.312775779367446605e+00 5.311776468635625026e-01 -5.302084440598816562e-01 8.947565696075580194e-03 5.346057045556581455e-01 6.055295969733750505e-01 5.910949986207267859e-01 5.153411871310011882e-01 -1.383626830635514143e-03 5.619969309914563116e-01 4.560087799066964709e-01 -3.237006840091366744e+00 5.889011243202170176e-01 5.092476373511100052e-01 1.092740270229035193e+00 5.057704761034753638e-01 5.802710876481889102e-01 7.068587754332437134e-01 -8.029168631643278653e-01 -5.099463283980584238e-01 7.982958235997661411e-02 4.949077086927691771e-01 4.152429454234484729e-01 2.546584794740346380e-01 5.650829240003245602e-01 -3.093998928107050128e-01 7.350987072678952794e-01 6.179405752335807023e-01 6.890254914255045104e-01 5.213569761148885151e-01 4.943802782737357071e-01 1.877106895208295323e-01 -6.692066513944191497e-01 6.019137236762968080e-01 5.576644449551845240e-01 1.797082588233772371e-01 5.135241657234138613e-01 5.644088750439506530e-01 5.101688608885133203e-01 6.479393657809406903e-01 5.517370274994030099e-01 5.215841614276529592e-01 4.904484981663675969e-01 1.632221063701356112e+00 3.960859764161623886e-01 5.398413829453844182e-01 -6.859219744700148502e-02 5.041091916100252091e-01 6.088796924991616288e-01 5.261888502974372273e-01 5.216912519178780183e-01 3.571321301347719079e-01 8.312239079260337338e-01 1.102829635780820494e+00 5.539497530777393042e-01 5.162166026823096221e-01 5.910597033744363626e-01 6.112766049773176169e-01 5.285842378200068525e-01 5.145443255614527978e-01 1.005461200273837230e+00 7.396922733376600778e-01 -4.272539232369009232e-01 4.218073525803420765e-01 9.272612341063188879e-01 4.944695235271728828e-01 3.773296976767497729e-02 5.081587230438280312e-01 8.498615005115709442e-01 -1.433482137082785490e-01 4.893595141766839407e-01 2.718161085491667128e-01 4.909709022436050674e-01 7.393695421976261839e-01 5.207463701643703091e-01 3.614114101260709755e-01 1.364903315369521808e+00 6.001422655848266396e-01 4.937632042721331049e-01 -5.058303069044520761e-01 4.900631208388699922e-01 1.048285857739586824e+00 5.394609691225784598e-01 1.868076443832666911e-01 8.783587127605555489e-01 -1.053697152423207217e-01 3.859462521641700006e-01 1.504501127539893846e+00 -8.267344852273834643e-01 4.771289616559238889e-01 5.086544099103291749e-01 -3.857782882490968235e-01 4.820076586521874207e-01 4.424806426131196457e-01 4.500739420708327887e-01 5.245929838670344569e-01 3.309439623222526494e-01 2.668478055516185776e-01 3.764031046817482018e-01 4.782827082053631718e-01 5.167757285661521705e-01 -4.573268266734728180e-03 7.072514400886212305e-02 5.168600303018491271e-01 1.046581542369456219e+00 3.045978059109935576e-01 -5.363870462873676637e-01 4.833204408214274439e-01 5.134476115731778645e-01 4.143053014028382774e-01 3.216590820954237390e-03 3.768120452467738635e-01 5.227961835201416774e-01 5.069656921861016574e-01 4.689992413236125368e-01 3.649075102232417905e-02 5.733351815363335602e-01 4.741900878919718676e-01 6.642333251382515069e-01 2.014642370943482419e+00 7.463850847436455382e-02 3.734533057472004258e-01 5.783819463766909363e-01 1.756044834381714548e+00 5.396805215547134660e-01 6.301496383171508731e-01 2.554780866885492455e-02 5.009508035759506761e-01 5.004529304976433890e-01 4.579864331177383452e-01 4.160042795472287946e-01 4.904524291632779698e-01 4.943720007450214116e-01 5.080901655915475157e-01 -4.420554915602218915e-01 5.105130347686468451e-01 5.463101990567459376e-01 4.940573261105793978e-01 6.461895407154925053e-01 5.247902885632113046e-01 -2.242492111282414491e-01 9.504762565860572776e-01 -1.111632246335734431e+00 -4.580648964315913729e-01 4.963193571154335126e-01 5.054490593173796009e-01 6.488687069286167564e-01 5.145469809778580039e-01 2.922715513289620981e-01 6.675122703700031579e-01 5.009508210294308928e-01 5.143542786467935057e-01 6.068219627366225888e-01 5.130842004305369297e-01 5.063278735636601580e-01 2.803967343213763508e-01 4.853625971412305340e-01 4.811272947001239420e-01 3.176788474676557339e-01 5.290136322475645914e-01 4.984406363409186191e-01 4.950179047811932853e-01 5.908550650184850594e-01 5.273728243184837572e-01 5.538123009886107839e-01 4.408105270156502664e-01 5.158302534113456961e-01 5.555566935208385848e-01 2.566830783434186913e-01 5.581855671480436820e-01 2.237735934487162126e+00 5.985435217076497949e-01 4.905050562563424976e-01 4.267753407387135378e-01 4.888717450415623889e-01 1.088133844509160619e+00 6.285581934756597766e-01 7.365697506445968434e-01 5.199042549693144721e-01
7.372665925380145202e-01 2.610729266406866533e-01 3.602245354632920282e-01 1.727153358548765005e-01 2.906892868815330599e-01 2.156348177271203981e-01 5.065615633010603913e-01 4.924069488661420579e-01 3.419248860768481779e-01 2.993606899317372005e-01 1.961546070741811310e+00 1.651047121059920908e+00 -1.343840870316535208e+00 5.744358522199953798e-01 2.869439942702954327e-01 2.690206269989561805e-01 1.298742406607141520e-01 3.972705742510045379e-01 4.225662328729238859e-01 3.157236352483136499e-01 4.218338264583780250e-01 1.998725408984621144e+00 3.910171946932985976e-01 2.257294041854326361e-01 6.418632486855678776e-01 -3.361429340342477756e-01 4.974114575430554352e-01 3.734223989733814753e-01 3.254652633216552626e-01 -7.356363467164156456e-01 2.624716669451344075e-01 7.565268317689541333e-03 2.929651990488572610e-01 2.804901763743415377e-01 -4.312801853391001750e-01 2.617204193359665698e-01 3.340295331375318644e-01 -2.528281115072426588e-01 -3.033002850957080998e+00 2.814185149024518440e-01 1.010423293435604331e+00 1.322183644759945820e-01 -1.547800934464567679e-01 7.883716188793944424e-01 7.300361781377495696e-01 3.033678771778942629e-01 1.725361415740466198e-01 2.971789016971491115e-01 4.022147865200906836e-01 7.760993250831718093e-01 7.384321628736563170e-01 3.716389186970581737e-01 -3.870584102138994731e-01 2.560634510764683291e-01 5.824652736919422313e-01 7.830935340957206892e-01 2.179484779323923871e-01 3.604328122503024368e-01 3.515188399144031917e-01 2.677929741084864035e-01 4.127173328509193828e-01 2.344496441913467566e-01 2.774421121117183198e-01 3.910172232288021688e-01 -3.317985756121126784e-01 3.759595520707992300e-01 2.833607198312477760e-01 3.701498465470479671e-01 3.972336208934802437e-01 7.057250925988372003e-01 1.787342017080241208e-01 3.764254356566491544e-01 3.469104763095207655e-01 6.751236181930366786e-01 1.828960603112066874e+00 5.515086534679534136e-01 4.541208086203312178e-01 4.708673943680031226e-01 3.040095239854200271e-01 -1.266392740330974265e+00 3.351784764708294340e-01 7.304916703159953784e-01 2.088180616799083289e+00 2.837427933583248629e-01 3.564481144938000390e-01 -4.960469710734232707e-01 8.684035934690216563e-02 3.665394443577352779e-01 -5.500401299582405867e-01 -8.079873613779715580e-01 7.293918810325429325e-01 1.468366939915848768e+00 2.449595986222966315e-01 7.418337499083003106e-01 3.877250418595784009e-01 2.306186411044450213e-01 3.837285511374153302e-01 6.487394796901425620e-01 7.414834194676171997e-01 -3.378582151833141589e-01 -1.444044140546452415e-01 6.737391142146441358e-02 3.680502516859161521e-01 2.254682685172322842e-01 1.096062402863184626e-01 2.895721790000015616e+00 -2.577526393971325547e-01 -1.147573703023846703e-01 4.083108424864387298e-01 7.972864345748765791e-01 2.447266523239699787e-01 2.265140737380030023e-01 1.999412137823104452e-01 5.116807177844817645e-01 -5.131811762252880271e-01 3.711571970753214100e-01 4.897319776622559018e-01 2.525365617286067232e-01 7.180859675247053264e-01 3.579472431551083966e-01 -1.373163728404852124e+00 4.044962314887011745e-01 4.032025188338282384e-01 1.090349941570771142e+00 3.113588844961580060e-01 2.049000656833747769e+00 1.429594160826678784e-01 3.302968980079694639e-01 2.787625359296155847e-01 2.680996730371698056e-01 2.198334127771283120e-01 3.092304947260576808e-01 6.445076623608837485e-01 3.474310275586575680e-01 2.120341837397654028e-01 9.142731457873792822e-01 6.386149180464227859e-01 7.273253736368052724e-01 -3.135109222078587554e-01 1.899956260925893259e-01 3.536561791292573975e-01 3.204593907034133382e-01 1.321763692947597879e-01 3.242909989058345155e-01 3.236963919711836057e-01 7.337335485843560212e-01 -1.607286532040823335e-02 3.159859075864738243e-01 2.959303155268534491e-01 3.851852537635346851e-01 -3.645803185514783218e-01 1.635095057327639115e-02 3.033734871878923656e-01 3.511069719807563549e-01 4.391661669468929774e-01 3.007156335729914143e-01 -1.938483221559213154e+00 4.174939869563319417e-01 -5.555779146798112134e-01 -3.387519146143621596e-01 4.305582967673062256e-01 1.092893330094392990e-01 3.315235681053799177e-01 3.165903051578475291e-01 8.580487600174700746e-02 5.336081301339019173e-03 3.135937513413749600e-01 2.348479822680619999e-01 1.892391456319859888e-01 2.939803041608562983e-01 2.959719434551741912e-01 1.776989241295390820e-01 3.034076749288899810e-01 2.866410530146021873e-01 -2.370244292859306601e+00 6.987204495774652635e-01 6.898724887162540620e-01 1.019365781054137665e+00 -4.399226926223632761e-01 1.157105624417447576e+00 -4.883609270218609855e-02 2.651358176527746635e-01 1.199111476415162247e+00 2.315550670147461243e-01 2.969134356376211259e-01 2.580349718274195236e-01 3.124649916612812217e-01 2.956124143715589958e-01 -4.058692412500526370e-01 4.299901329759743818e-01 1.149076979405673216e-01 7.738586842290831047e-01 2.745407189893129263e-01 2.713955022910858883e-01 1.930905527011916589e-01 3.207821734423605409e-01 -1.508817485510989043e+00 2.841071454852954203e-01 8.384757125021143065e-02 2.756852521615072438e-01 3.277706373589814870e-01 2.943487577717979198e-01 3.514263982276358278e-01 1.044666872385933282e-01 -8.457620116379951369e-01 8.384756695449901986e-02 3.841556993718570623e-01 -4.772599011717955642e-01 2.558866948930180740e-01 1.658675971679607619e-01 3.031768672389175689e-01 -3.022760739475028213e+00 3.387969980884683596e-01 9.516547018312506712e-01 3.065838698744970947e-01 3.323156758367902253e-01 3.095820538844108460e-01 3.568683691636895250e-01 3.252653114905014187e-01 3.195108844976925488e-01 3.080576769046230456e-01 3.887759228544309664e-01 6.387607412109095328e-01 2.972865570430972548e-01 5.440553586927603380e-01 3.418032714239547798e-01 3.491153217029045464e-01 -5.454182727923116980e-01 2.117332705915897506e+00 3.323695223033470980e-01 1.197282278616966567e+00 -1.345379717141464315e+00 3.035922857249338525e-01 2.580518862746117303e-01 3.260613686271707778e-01 1.072509992438205995e+00 2.574349099030533994e-01 7.407849084806479301e-01 2.663873754452061871e-01 6.675271309167396527e-01 4.508934712994244753e-01 2.919692993167427031e-01 -1.091623930101233153e+00 2.297278682796501104e-01 3.215869167520907790e-01 3.119695060427943867e-01 9.601819004439891003e-01 -2.714661403600823752e-01 2.894323439286706101e+00 2.903295425774231608e-01 1.103640151383483925e+00 1.732936079642040106e-01 2.862056732776735446e-01 3.910174726266645306e-01 2.784010839338765808e-01 3.671132442770200788e-01 2.676185135211946453e-01 3.644074376108526886e-02 3.064770210702323361e-01 5.573167477651159718e-01 3.362739512071363790e-01 9.831835267620744889e-02 3.540097000061897536e-01 1.684764167605003748e-01 4.127172271004957982e-01 2.983769057408195424e-01 2.992628147323796117e+00 3.666213537262104083e-01 6.606768493972366985e-01 5.144084432343928315e-01 3.402636711606944475e-01 4.109056381334140751e-01 3.119683005066124504e-01 3.433235093443439689e-01 3.051626417904750865e-01 -3.656347925641166841e-01 5.058318220313000602e-01 2.856721454450779074e-01 9.325282434525539177e-02 1.752540028516549331e-01 1.460464001582630234e+00 2.990354414520523529e-01 2.322940009381239124e-01 1.935884414682599974e+00 4.676310350258941484e-01 4.676410761936738991e-01 3.335335349153731865e-01 2.926738783602301219e-01 3.711571969426174511e-01 -1.995361482396724062e+00 3.647728413320602825e-01 1.319108682937912169e+00 1.363780544205505096e-01 3.291089370728460251e-02 7.235189925488095808e-01 2.532298600852179726e-01 -6.847145540481528458e-01 4.718072762814063403e-01 3.261475392048759359e-01 2.959785410203014666e-01 -3.461484973511740892e-01 2.778801987295713705e-01 -1.838941999584786879e+00 1.773357793642340585e-01 3.028215847691799190e-01 6.169094270700398175e-01 2.918486682849872338e-01 3.145735371761271271e-01 2.944655077600695225e-01 3.491407468413341153e-01 -1.501779562523398726e-01 -7.214661728523378281e-01 1.733882626372049499e-02 6.500796868576327325e-01 3.079496723148745230e-01 3.610392892379754026e-01 2.945561536140649528e-01 1.771954254318781063e-01 3.024273883848223043e-01 2.302880807379027672e+00 7.465831837497317602e-01 2.457368645973488086e-01 -1.068444442327980637e+00 3.573588864710274260e-01 4.323441295677452167e+00 3.139628088686668428e-01 2.734409874150019876e-03 5.625588463301228748e-01 -5.194567767383855283e+00 4.634211940028565291e-01 1.437523280365621492e+00 3.255200653015877243e-01 5.590265387307906675e-01 -4.141713378306432491e-01 1.977506988240552432e-01 1.789826295412794699e-01 3.226489065953223601e-01 2.977658121213815900e-01 2.708130426099538912e+00 -3.374293657386206458e-01 2.561587219186419184e-01 -1.835810186183086223e+00 2.824763135278206549e-01 -2.528281048188650293e-01 7.142915779224781048e-01 5.805763565012662664e-01 4.358669781120090847e-01 3.980062902262974656e-01 1.307498369312269038e+00 1.255239436001241438e-01 8.384757398900960501e-02 2.297283731237717286e-01 1.044666960292420649e-01 1.827239880579410447e-01 4.068644979729504896e-01 -5.651243997851157497e-01 3.086523461415529024e-01 4.532723954075872363e-01 3.187085346443769285e-01 2.499580887602116386e-01 3.076552807278836177e-01 2.471300863245959045e-01 5.805762503134723751e-01 1.795955305034906690e-01 2.982130880608966916e-01 2.507462069583301645e-01 5.256210472369751141e-01 3.071485431171526947e+00 2.631806022422286118e-01 2.472519584489044353e-01 4.127137523367971905e-01 8.745973129913362509e-01 4.513324879886309593e-01 -1.660006876666474951e-01 7.360225164834144351e-01 2.185277801031869083e-01 1.065566308025200637e-01 3.502846851141885320e-01 5.888176782928105091e-01 7.230167858202997122e-01 7.432252668018801689e-01 7.877656790464847569e-01 3.820665320032947676e-01 1.044666876174685927e-01 1.044666873117986311e-01 3.265010496898905212e-01 8.248924731300952273e-02 1.119394118496879198e+00 4.300990423440653743e-01 3.133122249321669273e-01 4.504900861281036506e-01 2.929743539730891300e-01 8.205660680503714666e-01 8.384756543085494784e-02 3.167308501071100513e-01 3.360617970426462708e-01 4.081438331636345618e-01 -6.135344497361260307e-01 2.886004197651892977e-01 3.153560822519861362e-01 2.901601476861523365e-01 7.104654445656319872e-01 7.452948898360464147e-01 1.044666955164484379e-01 -4.445657224876942148e-02 3.017967451281481917e-01 1.659812297038265050e-01 -5.819353745064698158e-01 3.471690242443415397e-01 -3.275516588239768545e+00 1.756377637968387750e+00 5.344843753558847776e-01 -3.861003961742471846e-01 1.695914906031551206e-01 1.949168951121213578e+00 2.451802967216182572e-01 6.062119750237670024e-01 2.654229817761585841e-01 1.830768712774731855e-01 5.068750497068107430e-01 3.058716007206551124e-01 -2.520920922738078551e-01 3.314050769454829348e-01 1.940423446549699893e+00 2.759416715795806052e-01 -3.166709700149576423e-01 2.179384947736793809e-01 2.722039909223991083e-01 -1.377921902604033466e+00 3.257072857492845364e-01 1.182728639673902432e-01 4.015830887344655209e-01 3.702891008762388414e-01 3.162647470423990970e-01 3.105859977507848257e-01 2.747056905384428482e-01 -1.577961548203695719e-01 2.877489533807432998e-01 2.972949007726723991e-01 3.628714411081561675e-01 2.594734602137920843e-01 9.825170793582793660e-02 5.121793515376785733e-01 7.349906614002851279e-01 -1.266213303711029692e+00 -2.779369414942355898e-01 -8.744323112045358781e-02 -4.808105954774542778e-02 4.477285833486775446e-01 4.103438786334283050e-01 3.591929092793867406e-01 6.702235515455823300e-01 -8.234052585766662991e-04 2.791485484213977464e-01 2.990482246663743737e-01 8.969476781502883078e-02 -1.577642752695541106e-01 3.043278060432340060e-01 3.107453664204734012e-01 4.752523990628560457e-01 2.816765358443868439e-01 3.540820908678875001e-01 3.208540674028834694e-01 2.708445121670237654e-01 2.892320992673234614e-01 5.279063693292838089e-01 3.096753258521515173e-01 2.977969639503381671e-01 7.363872209491822973e-01 2.582808881969246850e-01 6.758348995169521922e-01 2.698976932662285888e-01 3.544751462300398948e-01 3.451894841181840090e-01 -1.389947154986265643e+00 2.789014665181443475e-01 5.900309690755063396e-01 4.308759525391127054e-01 2.445497955638442911e-01 3.692999278404638375e-01 4.726427738746675766e-01 7.419231433553693522e-01 3.147453482820206649e-01 2.867734607109029277e-01 3.061909393486060837e-01 3.206501889452370024e-01 2.667172422232833018e-01 5.466524696646741788e-01 3.515823923766352443e-01 3.869956202909260456e-01 3.693959121402884960e-01 1.104643459603304144e-02 1.535197580569763298e+00 4.758592898181760456e-01 3.703023572607058722e-01 3.541873363480786407e-01 -7.676911657374770881e-01 4.525080717183851409e-01 4.445062286965997256e-01 6.173868209978249366e-01 1.368384928172495796e-01 3.625551694339869679e-01 1.273082873891521860e+00 8.740971122520251324e-01 2.755874084383311273e-01 3.495169563470430507e-01 3.404379474086455248e-01 2.820364768762969043e-01 8.757395794991514881e-01 2.852463007426213171e+00 2.858173480474157646e-01 1.333478173783996801e-01 6.032746732197802331e-01 -7.621622950578083033e-02 3.098820282698747097e-01 3.052567002449834699e-01 1.009501432344341865e+00 2.688084755549618454e-01 -2.617720208895181755e-01 3.444484616032981728e-01 9.100925178255769854e-02 6.859561338906261518e-01 1.481266289188250207e+00 2.623711777871445827e-01 2.036517178337018397e-01 1.605923088301317803e+00 4.398518598639944432e-01 3.351894275237637388e-01 3.650888991341061374e-01 4.779196052956071750e-01 1.718174893332217734e-01 1.753174001678804717e-01 2.235201294319212051e-01 6.714993272053163542e-01 4.765254764564897938e-01 4.034701834966519240e-01 2.948252934916506529e-01 3.097212263028222834e-01 2.486545934569527605e-01 2.403305255647314731e-01 9.593788854752726136e-01 4.826506574937931004e-01 2.461370076638601523e-01 2.741167623422740562e-01 2.971071380110290594e-01 2.697453295952084718e-01 5.719391148669662472e-01 7.444350648345153809e-01 2.221367976449497850e-01 2.577413464991495928e-01 1.947416324971076862e-01 3.139788604591242649e-01 7.619834114634291833e-01 2.174893036230047261e-01 3.843998360908384426e-01 -3.068206287974012958e-01 2.970637857471589705e-01 1.286650578406358658e-01 3.512144696735124416e-01 2.542225016723466680e-01 3.942167155387809041e-01 1.650162006421695970e+00 3.185556631543287054e-01 3.652929160431659938e-01 -5.295578992064194773e-02 1.491733474827877659e+00 1.106254795678641711e+00 2.092163349260725003e-01 -4.691504760291119180e-01 6.539486585850888545e-02 1.318629827581339620e-01 4.659344616363992886e-01 3.016434965273677715e-01 3.189965784657422532e-01 3.672501802559113293e-01 2.310056971366163114e-01 3.007071723001855101e-01 1.721797404003465870e-01 -6.763089954993653508e-02 3.507201209191574409e-01 4.982932077759217315e-01 1.402435951771481837e-01 8.257609435088513195e-01 4.127172764232056035e-01 2.457522556093108268e-01 7.617890634281102580e-01 4.765428105352418342e-01 7.297404995580849540e-01 2.118709791431266920e-01 6.691599427395915622e-01 1.426287270691566356e+00 2.478532537857665585e-01 1.931484013674994671e+00 4.631003884199096088e-02 1.136766236574368871e-01 2.911663627708750424e-01 3.710448915695644390e-01 2.693329915341587943e-01 2.939748924843031963e-01 3.246857285421624328e-01 3.020788037591529140e-01 3.336460174652892685e-01 2.204306304345134970e-01 -1.945183022910974002e-01 3.072281912081257227e-01 -4.827294101129923909e-02 2.575937323697625181e-01 2.960643610743401988e-01 4.127172762688621765e-01 1.759515381352554086e-01 4.453331646213850581e-01 -1.056741671407673611e+00 1.850179579961740650e+00 3.171748434135022165e-01 -6.087680300369220365e-01 2.994912693513921975e-01 3.288140007340950022e-01 3.052253676572926344e-01 -4.443571259200357559e+00 3.323001573893561655e+00 5.998888834381975732e-01 2.702550381770032484e-01 4.096892510241598173e-01 3.091962578555190744e-01 4.130921164018269143e-01 2.456882436853014884e+00 5.947884831651247817e-01 3.246932407416147637e-01 3.711571914832719754e-01 1.895082067331173570e-01 3.604921310357104836e-01 8.942303926287563653e-01 -3.822985827966455252e-01 -1.029230317960399654e+00 -1.114041102735230826e+00 3.489507602766664385e-01 2.996985391610798577e-01 6.628057096586247310e-01 2.551753799264451228e-01 1.007539894535584013e+00 4.284145469520486693e-01 3.169930587584435244e-01 3.777247932336197378e-01 3.257043835409431098e-01 3.803051988210284784e-01 2.545002270526234844e-01 6.544774981784634571e-01 3.279435925089360659e-01 5.402795555300290431e-01 1.947375045396394222e-01 9.424887913470998344e-03 2.555276507105466166e-01 3.817651703207995961e-01 3.255430767586550700e-01 3.760424974368198892e-01 7.675931406959147774e-01 5.805762724565746158e-01 5.494837622209909345e-01 3.544759895887349410e-01 3.321111515031532346e-01 2.346185219813178846e-01 1.273086032600792006e+00 1.687719142949934970e+00 2.540218100491609121e-01 2.279744974107562883e-01 2.743820785292439557e-01 4.052652605774217931e-01 2.611415478760631403e-01 1.900420849708831239e-01 2.831364183131037660e-01 3.139399421626682396e-01 7.622544517882383630e-01 8.260706051931512306e-01 3.695091563221158393e-01 1.761329581652261167e+00 9.834482674992497953e-02 4.430288432317255887e-03 -2.507828156707577194e-01 -3.436400966145548574e-01 2.937910672701065651e-01 3.700538304409587975e-01 6.996460535088179222e-01 2.932176801057589377e-01 3.722408485257509003e-01 2.820523661665866322e-01 3.753866529804623098e-01 3.311944242385383985e-01 1.942447150884477614e-01 1.016984024937664932e+00 3.079004310451277648e-01 5.649509052406704868e-01 3.124068592266491251e-01 1.721421108327187699e-01 2.808871090369055024e-01 3.763129805871943123e-01 -1.612413292446352175e-01 2.255993398795674287e-01 3.200239158696632225e-01 1.726286683648566855e-01 4.127177338159583875e-01 1.141350331312221300e+00 9.075143788796971034e-01 -7.527174752808669655e-01 -2.528281114395782847e-01 5.790202836626352489e-01 -3.097810383838210502e+00 1.516896901455533575e+00 3.526396455249257156e-01 1.743209049968241497e-01 2.869911261622645759e-01 8.247042898531419253e-01 3.095606785175472053e-01 2.297284879696875892e-01 -4.219541101463825106e-01 8.226667274394194873e-01 3.214329213175377564e-01 8.988330570426807942e-01 1.987401042157136866e+00 -3.825199566805415063e-01 -1.378364364069329717e+00 3.727391596596133505e-01 1.572958856775028280e-01 8.118106117716277215e-01 2.693302405390392007e-01 7.069330923794101551e-01 4.680485717879365737e-01 8.252933871846446223e-02 3.281982908601223103e-01 2.669066035886231703e-01 3.494272627675254483e-01 4.186296096057716687e-01 1.303187923607874721e+00 1.483540109110469185e+00 3.023650376958186836e-01 2.980508814814061824e-01 -1.037320139120321283e-01 -2.085472826809605940e-01 1.787438428819405345e-01 1.323235935621189518e-01 2.827217312719036424e-01 7.022050002773777555e-01 -2.531888676269359317e-01 3.772445858905774663e-01 3.289635152780069349e-01 2.285875112346934801e-01 3.153811294346507976e-01 3.785893229608429111e-01 2.957052235398085482e-01 3.180032119019315928e-01 -7.947778459883407531e-02 2.173882061542125599e-01 4.510411128912357182e-01 1.061445345534063112e+00 1.078473488527162072e+00 9.477752199211465500e-01 2.533558015025584309e-01 7.067332570010466108e-01 8.142037609816342447e-02 3.977488984127089955e-01 -1.899710407666622469e+00 3.379153677838311332e-01 6.351307465453958079e-01 4.197079687698349049e-01 9.556330533697121599e-01 1.316804372696034342e+00 3.711571968664474919e-01 2.783969166933791817e-01 3.671749807661797704e-01 7.696457039037704617e-02 5.714586114566951869e-01 5.838851369223057031e-01 -6.570897631219847490e-01 2.059615579258319007e-01 2.926436438881532820e-01 2.827951618045286830e-01 3.475792689902684751e-01 7.329083537934704129e-01 1.116810513216817680e-02 3.602798372671797145e-01 2.942204275113680101e-01 2.242030047922966285e-01 8.746543626434919450e-01 4.058678764563964370e-01 -1.888044532731003589e-01 8.561368576455357093e-01 -1.926018167094350336e-03 5.388435474467644370e-01 3.640478881145524648e-01 1.241582902590404380e+00 4.339641112078826413e-01 6.693867678636169494e-01 4.042993002248753687e-01 4.231069769941995240e-01 -4.147180379063528655e-01 3.578986417063914072e-01 7.444761734157832045e-01 2.896193148300563736e-01 6.873288192760287352e-01 2.996679416131006746e-01 3.022973221198767546e-01 7.291774741790464365e-01 8.041938306621168597e-02 -1.946030678920186441e+00 4.175286176142631311e-01 3.590689556106723135e-01 4.838206128555266883e-01 1.800899045422091616e-01 2.799298862568605495e-01 2.780596369836035309e-01 2.810372989338968952e-01 3.178341094716785609e-01 -2.927321653403901908e-02 -1.570854133506804473e+00 7.196851732321620787e-01 2.968428791021045510e-01 3.421407730851298568e-01 1.738037977980130266e-01 8.209742896747419527e-01 3.011217046797618480e-01 -8.675480670407161032e-02 2.989124880278542506e-01 1.097665487233650428e+00 2.589490681036220598e-01 4.122058002184360581e-01 1.072275491452194141e+00 2.126834320781252063e-01 2.535690829892258247e+00 2.553124088815882931e-01 3.145547035550407822e-01 7.231955451386195000e-01 2.948823498084206518e-01 2.545039371477239021e-01 -1.826443409547561458e+00 2.379529997038911937e-01 3.320463186223952534e-01 5.028054537777244537e-01 3.225727356671784229e-01 4.998157875287136398e-01 -3.458500034837222459e-01 1.936458276556128011e+00 -5.187455676313960096e-01 8.039527969310026334e-01 3.061844096807909699e-01 4.596588179464166091e-01 6.291139410123345321e-01 2.985756244101128165e-01 1.271191154498386267e+00 8.784981807310902890e-02 2.114702047446331001e-01 -8.576383424140161527e-01 -8.237168598287801513e-02 1.400558801099530681e-01 -3.510800742824481180e+00 2.756001476426224617e+00 2.359895717191263786e-01 2.642345520877192877e-01 -1.476307416708653175e+00 3.115089798798960086e-01 4.586275403336929901e-02 3.210372176685271639e-01 1.012309969751781918e-01 6.300294188620348956e-01 5.731780889633432130e-01 8.420413450575686687e-01 -2.528281110353353123e-01 -1.787162716936854245e-01 2.518253278935240203e-01 -1.135516957867528820e+00 3.487955368583902094e-01 -5.949395528252130472e-01 3.296903061972016880e-01 5.121556481736198041e-01 7.193002295910722564e-03 3.696055535072589326e-01 2.862807608933505277e-01 -1.654599016808168954e-01 2.740009911828853451e-01 3.267065394113053967e-01 2.020606705578477380e-01 3.273116582965176491e-01 2.981163839107664471e-01 -7.524489945458215923e-01 6.436860807413437024e-01 1.495410209645707145e+00 3.417472012317338687e-02 2.496077105272435925e-01 3.192176099242957643e-01 1.223851352662395309e+00 3.327122779120861296e-01 2.434211637039936094e-01 9.023365304214068239e-01 3.184514297646144909e-01 1.750037568051350245e+00 3.170609937779364507e-01 9.595840846330490059e-01 3.045578262399132319e-01 7.324980839268655508e-01 1.319436622495532951e+00 3.589214715571205083e-01 2.944458132806584416e-01 8.501117402406993540e-01 -1.475313136044465734e-01 -2.695509421955537624e-02 5.075578277081364831e-02 2.877379237753818209e-01 3.194617310840422442e-01 1.394207515650464635e-01 4.154381104517338441e-01 -2.992904741168451732e-01 1.290827943573959802e+00 3.906680568767965100e-01 2.852305014448477394e-01 -2.884575699199398713e+00 3.209300852874639176e-01 3.653542964580742680e-01 4.615887963821090900e-01 3.131172528972347435e-01 5.037068402760703778e-01 -9.278458916182666938e-01 4.988465973857588720e-01 3.894685951468458418e-01 2.837755476229723572e-01 1.082007889067207573e+00 4.097513449898629867e-01 2.873835625220044765e-01 -1.332616249077297699e+00 5.220540764479599805e-01 8.747513737368829423e-01 2.438968072133145260e-01 3.059661031088417027e-01 1.491734392767918027e-01 7.156162240470073099e-01 -1.057949655081341089e-01 2.953806849427699222e-01 3.203342291014825705e-01 5.840119035476488973e-02 7.693990192922399718e-01 2.351670503083792274e-01 7.719199778666906431e-01 2.219969475432570227e-01 6.732024400833847011e-01 -1.479127674653584745e-01 -1.481711956787405526e+00 2.349415581414389664e-01 -6.537258260869136840e-03 3.439722834675348895e-01 2.481722710327602388e-01 7.061291764214323863e-02 5.805762831642237165e-01 3.113899692205105429e-01 1.055769677836574660e-01 4.260165401737614488e-01 3.211864685208093984e-01 2.639063895928597803e-01 3.568590456414995615e-01 -7.285008261942449437e-01 3.301428385438720525e-01 2.526956880021438145e-01 2.776332124049687988e-01 1.992357981023456237e-01 2.927982502205827564e-01 7.368896093654124790e-01 -3.319349004293171701e-01 1.028607111086403236e+00 5.783132638283261517e-01 3.358098417286805026e-01 3.241208239718293971e-01 -1.950656212635961229e+00 3.449558206542773786e-01 1.825457571311196736e-01 1.927773152972077908e-01 5.805762808753616167e-01 2.954177641222791029e-01 2.664195441095895123e-01 3.241994076951861259e-01 3.128319014302500811e-01 4.166520699902576119e-01 3.542630316476631513e-01 3.563401929378637312e-01 3.291716673955955574e-01 3.195348599400084644e-01 3.332233507253783977e-01 3.650521958123691957e-01 -6.120350902305057850e-02 2.828503667172384550e-01 4.673546553442218254e-01 3.031915100248007700e-01 3.339291460503960862e-01 -7.936581106029261257e-02 6.037805368653931248e-02 1.579340101208950298e-01 4.044348759599884602e+00 2.277467429484320849e-01 2.561338565668288547e-01 3.866603764035509982e-01 3.534526394820631245e-01 1.477313551961352278e+00 1.816955230049068781e-01 6.891006386828057995e-01 3.028279652988693504e-01
