# 
#                 ----------------------------------------------------
#                 Data from a 3D direct N-body simulation. 
# 
#                 rows are i-particle; 
#                 coumns are :mass, tag, x ,y, z, vx, vy, vz, ax, ay, az
# 
#                 NTHU, Computational Physics 
# 
#                 ----------------------------------------------------
#                 Time = 0.0
0.000000000000000000e+00 1.000000000000000000e+00 2.000000000000000000e+00 3.000000000000000000e+00 4.000000000000000000e+00 5.000000000000000000e+00 6.000000000000000000e+00 7.000000000000000000e+00 8.000000000000000000e+00 9.000000000000000000e+00 1.000000000000000000e+01 1.100000000000000000e+01 1.200000000000000000e+01 1.300000000000000000e+01 1.400000000000000000e+01 1.500000000000000000e+01 1.600000000000000000e+01 1.700000000000000000e+01 1.800000000000000000e+01 1.900000000000000000e+01 2.000000000000000000e+01 2.100000000000000000e+01 2.200000000000000000e+01 2.300000000000000000e+01 2.400000000000000000e+01 2.500000000000000000e+01 2.600000000000000000e+01 2.700000000000000000e+01 2.800000000000000000e+01 2.900000000000000000e+01 3.000000000000000000e+01 3.100000000000000000e+01 3.200000000000000000e+01 3.300000000000000000e+01 3.400000000000000000e+01 3.500000000000000000e+01 3.600000000000000000e+01 3.700000000000000000e+01 3.800000000000000000e+01 3.900000000000000000e+01 4.000000000000000000e+01 4.100000000000000000e+01 4.200000000000000000e+01 4.300000000000000000e+01 4.400000000000000000e+01 4.500000000000000000e+01 4.600000000000000000e+01 4.700000000000000000e+01 4.800000000000000000e+01 4.900000000000000000e+01 5.000000000000000000e+01 5.100000000000000000e+01 5.200000000000000000e+01 5.300000000000000000e+01 5.400000000000000000e+01 5.500000000000000000e+01 5.600000000000000000e+01 5.700000000000000000e+01 5.800000000000000000e+01 5.900000000000000000e+01 6.000000000000000000e+01 6.100000000000000000e+01 6.200000000000000000e+01 6.300000000000000000e+01 6.400000000000000000e+01 6.500000000000000000e+01 6.600000000000000000e+01 6.700000000000000000e+01 6.800000000000000000e+01 6.900000000000000000e+01 7.000000000000000000e+01 7.100000000000000000e+01 7.200000000000000000e+01 7.300000000000000000e+01 7.400000000000000000e+01 7.500000000000000000e+01 7.600000000000000000e+01 7.700000000000000000e+01 7.800000000000000000e+01 7.900000000000000000e+01 8.000000000000000000e+01 8.100000000000000000e+01 8.200000000000000000e+01 8.300000000000000000e+01 8.400000000000000000e+01 8.500000000000000000e+01 8.600000000000000000e+01 8.700000000000000000e+01 8.800000000000000000e+01 8.900000000000000000e+01 9.000000000000000000e+01 9.100000000000000000e+01 9.200000000000000000e+01 9.300000000000000000e+01 9.400000000000000000e+01 9.500000000000000000e+01 9.600000000000000000e+01 9.700000000000000000e+01 9.800000000000000000e+01 9.900000000000000000e+01 1.000000000000000000e+02 1.010000000000000000e+02 1.020000000000000000e+02 1.030000000000000000e+02 1.040000000000000000e+02 1.050000000000000000e+02 1.060000000000000000e+02 1.070000000000000000e+02 1.080000000000000000e+02 1.090000000000000000e+02 1.100000000000000000e+02 1.110000000000000000e+02 1.120000000000000000e+02 1.130000000000000000e+02 1.140000000000000000e+02 1.150000000000000000e+02 1.160000000000000000e+02 1.170000000000000000e+02 1.180000000000000000e+02 1.190000000000000000e+02 1.200000000000000000e+02 1.210000000000000000e+02 1.220000000000000000e+02 1.230000000000000000e+02 1.240000000000000000e+02 1.250000000000000000e+02 1.260000000000000000e+02 1.270000000000000000e+02 1.280000000000000000e+02 1.290000000000000000e+02 1.300000000000000000e+02 1.310000000000000000e+02 1.320000000000000000e+02 1.330000000000000000e+02 1.340000000000000000e+02 1.350000000000000000e+02 1.360000000000000000e+02 1.370000000000000000e+02 1.380000000000000000e+02 1.390000000000000000e+02 1.400000000000000000e+02 1.410000000000000000e+02 1.420000000000000000e+02 1.430000000000000000e+02 1.440000000000000000e+02 1.450000000000000000e+02 1.460000000000000000e+02 1.470000000000000000e+02 1.480000000000000000e+02 1.490000000000000000e+02 1.500000000000000000e+02 1.510000000000000000e+02 1.520000000000000000e+02 1.530000000000000000e+02 1.540000000000000000e+02 1.550000000000000000e+02 1.560000000000000000e+02 1.570000000000000000e+02 1.580000000000000000e+02 1.590000000000000000e+02 1.600000000000000000e+02 1.610000000000000000e+02 1.620000000000000000e+02 1.630000000000000000e+02 1.640000000000000000e+02 1.650000000000000000e+02 1.660000000000000000e+02 1.670000000000000000e+02 1.680000000000000000e+02 1.690000000000000000e+02 1.700000000000000000e+02 1.710000000000000000e+02 1.720000000000000000e+02 1.730000000000000000e+02 1.740000000000000000e+02 1.750000000000000000e+02 1.760000000000000000e+02 1.770000000000000000e+02 1.780000000000000000e+02 1.790000000000000000e+02 1.800000000000000000e+02 1.810000000000000000e+02 1.820000000000000000e+02 1.830000000000000000e+02 1.840000000000000000e+02 1.850000000000000000e+02 1.860000000000000000e+02 1.870000000000000000e+02 1.880000000000000000e+02 1.890000000000000000e+02 1.900000000000000000e+02 1.910000000000000000e+02 1.920000000000000000e+02 1.930000000000000000e+02 1.940000000000000000e+02 1.950000000000000000e+02 1.960000000000000000e+02 1.970000000000000000e+02 1.980000000000000000e+02 1.990000000000000000e+02 2.000000000000000000e+02 2.010000000000000000e+02 2.020000000000000000e+02 2.030000000000000000e+02 2.040000000000000000e+02 2.050000000000000000e+02 2.060000000000000000e+02 2.070000000000000000e+02 2.080000000000000000e+02 2.090000000000000000e+02 2.100000000000000000e+02 2.110000000000000000e+02 2.120000000000000000e+02 2.130000000000000000e+02 2.140000000000000000e+02 2.150000000000000000e+02 2.160000000000000000e+02 2.170000000000000000e+02 2.180000000000000000e+02 2.190000000000000000e+02 2.200000000000000000e+02 2.210000000000000000e+02 2.220000000000000000e+02 2.230000000000000000e+02 2.240000000000000000e+02 2.250000000000000000e+02 2.260000000000000000e+02 2.270000000000000000e+02 2.280000000000000000e+02 2.290000000000000000e+02 2.300000000000000000e+02 2.310000000000000000e+02 2.320000000000000000e+02 2.330000000000000000e+02 2.340000000000000000e+02 2.350000000000000000e+02 2.360000000000000000e+02 2.370000000000000000e+02 2.380000000000000000e+02 2.390000000000000000e+02 2.400000000000000000e+02 2.410000000000000000e+02 2.420000000000000000e+02 2.430000000000000000e+02 2.440000000000000000e+02 2.450000000000000000e+02 2.460000000000000000e+02 2.470000000000000000e+02 2.480000000000000000e+02 2.490000000000000000e+02 2.500000000000000000e+02 2.510000000000000000e+02 2.520000000000000000e+02 2.530000000000000000e+02 2.540000000000000000e+02 2.550000000000000000e+02 2.560000000000000000e+02 2.570000000000000000e+02 2.580000000000000000e+02 2.590000000000000000e+02 2.600000000000000000e+02 2.610000000000000000e+02 2.620000000000000000e+02 2.630000000000000000e+02 2.640000000000000000e+02 2.650000000000000000e+02 2.660000000000000000e+02 2.670000000000000000e+02 2.680000000000000000e+02 2.690000000000000000e+02 2.700000000000000000e+02 2.710000000000000000e+02 2.720000000000000000e+02 2.730000000000000000e+02 2.740000000000000000e+02 2.750000000000000000e+02 2.760000000000000000e+02 2.770000000000000000e+02 2.780000000000000000e+02 2.790000000000000000e+02 2.800000000000000000e+02 2.810000000000000000e+02 2.820000000000000000e+02 2.830000000000000000e+02 2.840000000000000000e+02 2.850000000000000000e+02 2.860000000000000000e+02 2.870000000000000000e+02 2.880000000000000000e+02 2.890000000000000000e+02 2.900000000000000000e+02 2.910000000000000000e+02 2.920000000000000000e+02 2.930000000000000000e+02 2.940000000000000000e+02 2.950000000000000000e+02 2.960000000000000000e+02 2.970000000000000000e+02 2.980000000000000000e+02 2.990000000000000000e+02 3.000000000000000000e+02 3.010000000000000000e+02 3.020000000000000000e+02 3.030000000000000000e+02 3.040000000000000000e+02 3.050000000000000000e+02 3.060000000000000000e+02 3.070000000000000000e+02 3.080000000000000000e+02 3.090000000000000000e+02 3.100000000000000000e+02 3.110000000000000000e+02 3.120000000000000000e+02 3.130000000000000000e+02 3.140000000000000000e+02 3.150000000000000000e+02 3.160000000000000000e+02 3.170000000000000000e+02 3.180000000000000000e+02 3.190000000000000000e+02 3.200000000000000000e+02 3.210000000000000000e+02 3.220000000000000000e+02 3.230000000000000000e+02 3.240000000000000000e+02 3.250000000000000000e+02 3.260000000000000000e+02 3.270000000000000000e+02 3.280000000000000000e+02 3.290000000000000000e+02 3.300000000000000000e+02 3.310000000000000000e+02 3.320000000000000000e+02 3.330000000000000000e+02 3.340000000000000000e+02 3.350000000000000000e+02 3.360000000000000000e+02 3.370000000000000000e+02 3.380000000000000000e+02 3.390000000000000000e+02 3.400000000000000000e+02 3.410000000000000000e+02 3.420000000000000000e+02 3.430000000000000000e+02 3.440000000000000000e+02 3.450000000000000000e+02 3.460000000000000000e+02 3.470000000000000000e+02 3.480000000000000000e+02 3.490000000000000000e+02 3.500000000000000000e+02 3.510000000000000000e+02 3.520000000000000000e+02 3.530000000000000000e+02 3.540000000000000000e+02 3.550000000000000000e+02 3.560000000000000000e+02 3.570000000000000000e+02 3.580000000000000000e+02 3.590000000000000000e+02 3.600000000000000000e+02 3.610000000000000000e+02 3.620000000000000000e+02 3.630000000000000000e+02 3.640000000000000000e+02 3.650000000000000000e+02 3.660000000000000000e+02 3.670000000000000000e+02 3.680000000000000000e+02 3.690000000000000000e+02 3.700000000000000000e+02 3.710000000000000000e+02 3.720000000000000000e+02 3.730000000000000000e+02 3.740000000000000000e+02 3.750000000000000000e+02 3.760000000000000000e+02 3.770000000000000000e+02 3.780000000000000000e+02 3.790000000000000000e+02 3.800000000000000000e+02 3.810000000000000000e+02 3.820000000000000000e+02 3.830000000000000000e+02 3.840000000000000000e+02 3.850000000000000000e+02 3.860000000000000000e+02 3.870000000000000000e+02 3.880000000000000000e+02 3.890000000000000000e+02 3.900000000000000000e+02 3.910000000000000000e+02 3.920000000000000000e+02 3.930000000000000000e+02 3.940000000000000000e+02 3.950000000000000000e+02 3.960000000000000000e+02 3.970000000000000000e+02 3.980000000000000000e+02 3.990000000000000000e+02 4.000000000000000000e+02 4.010000000000000000e+02 4.020000000000000000e+02 4.030000000000000000e+02 4.040000000000000000e+02 4.050000000000000000e+02 4.060000000000000000e+02 4.070000000000000000e+02 4.080000000000000000e+02 4.090000000000000000e+02 4.100000000000000000e+02 4.110000000000000000e+02 4.120000000000000000e+02 4.130000000000000000e+02 4.140000000000000000e+02 4.150000000000000000e+02 4.160000000000000000e+02 4.170000000000000000e+02 4.180000000000000000e+02 4.190000000000000000e+02 4.200000000000000000e+02 4.210000000000000000e+02 4.220000000000000000e+02 4.230000000000000000e+02 4.240000000000000000e+02 4.250000000000000000e+02 4.260000000000000000e+02 4.270000000000000000e+02 4.280000000000000000e+02 4.290000000000000000e+02 4.300000000000000000e+02 4.310000000000000000e+02 4.320000000000000000e+02 4.330000000000000000e+02 4.340000000000000000e+02 4.350000000000000000e+02 4.360000000000000000e+02 4.370000000000000000e+02 4.380000000000000000e+02 4.390000000000000000e+02 4.400000000000000000e+02 4.410000000000000000e+02 4.420000000000000000e+02 4.430000000000000000e+02 4.440000000000000000e+02 4.450000000000000000e+02 4.460000000000000000e+02 4.470000000000000000e+02 4.480000000000000000e+02 4.490000000000000000e+02 4.500000000000000000e+02 4.510000000000000000e+02 4.520000000000000000e+02 4.530000000000000000e+02 4.540000000000000000e+02 4.550000000000000000e+02 4.560000000000000000e+02 4.570000000000000000e+02 4.580000000000000000e+02 4.590000000000000000e+02 4.600000000000000000e+02 4.610000000000000000e+02 4.620000000000000000e+02 4.630000000000000000e+02 4.640000000000000000e+02 4.650000000000000000e+02 4.660000000000000000e+02 4.670000000000000000e+02 4.680000000000000000e+02 4.690000000000000000e+02 4.700000000000000000e+02 4.710000000000000000e+02 4.720000000000000000e+02 4.730000000000000000e+02 4.740000000000000000e+02 4.750000000000000000e+02 4.760000000000000000e+02 4.770000000000000000e+02 4.780000000000000000e+02 4.790000000000000000e+02 4.800000000000000000e+02 4.810000000000000000e+02 4.820000000000000000e+02 4.830000000000000000e+02 4.840000000000000000e+02 4.850000000000000000e+02 4.860000000000000000e+02 4.870000000000000000e+02 4.880000000000000000e+02 4.890000000000000000e+02 4.900000000000000000e+02 4.910000000000000000e+02 4.920000000000000000e+02 4.930000000000000000e+02 4.940000000000000000e+02 4.950000000000000000e+02 4.960000000000000000e+02 4.970000000000000000e+02 4.980000000000000000e+02 4.990000000000000000e+02 5.000000000000000000e+02 5.010000000000000000e+02 5.020000000000000000e+02 5.030000000000000000e+02 5.040000000000000000e+02 5.050000000000000000e+02 5.060000000000000000e+02 5.070000000000000000e+02 5.080000000000000000e+02 5.090000000000000000e+02 5.100000000000000000e+02 5.110000000000000000e+02 5.120000000000000000e+02 5.130000000000000000e+02 5.140000000000000000e+02 5.150000000000000000e+02 5.160000000000000000e+02 5.170000000000000000e+02 5.180000000000000000e+02 5.190000000000000000e+02 5.200000000000000000e+02 5.210000000000000000e+02 5.220000000000000000e+02 5.230000000000000000e+02 5.240000000000000000e+02 5.250000000000000000e+02 5.260000000000000000e+02 5.270000000000000000e+02 5.280000000000000000e+02 5.290000000000000000e+02 5.300000000000000000e+02 5.310000000000000000e+02 5.320000000000000000e+02 5.330000000000000000e+02 5.340000000000000000e+02 5.350000000000000000e+02 5.360000000000000000e+02 5.370000000000000000e+02 5.380000000000000000e+02 5.390000000000000000e+02 5.400000000000000000e+02 5.410000000000000000e+02 5.420000000000000000e+02 5.430000000000000000e+02 5.440000000000000000e+02 5.450000000000000000e+02 5.460000000000000000e+02 5.470000000000000000e+02 5.480000000000000000e+02 5.490000000000000000e+02 5.500000000000000000e+02 5.510000000000000000e+02 5.520000000000000000e+02 5.530000000000000000e+02 5.540000000000000000e+02 5.550000000000000000e+02 5.560000000000000000e+02 5.570000000000000000e+02 5.580000000000000000e+02 5.590000000000000000e+02 5.600000000000000000e+02 5.610000000000000000e+02 5.620000000000000000e+02 5.630000000000000000e+02 5.640000000000000000e+02 5.650000000000000000e+02 5.660000000000000000e+02 5.670000000000000000e+02 5.680000000000000000e+02 5.690000000000000000e+02 5.700000000000000000e+02 5.710000000000000000e+02 5.720000000000000000e+02 5.730000000000000000e+02 5.740000000000000000e+02 5.750000000000000000e+02 5.760000000000000000e+02 5.770000000000000000e+02 5.780000000000000000e+02 5.790000000000000000e+02 5.800000000000000000e+02 5.810000000000000000e+02 5.820000000000000000e+02 5.830000000000000000e+02 5.840000000000000000e+02 5.850000000000000000e+02 5.860000000000000000e+02 5.870000000000000000e+02 5.880000000000000000e+02 5.890000000000000000e+02 5.900000000000000000e+02 5.910000000000000000e+02 5.920000000000000000e+02 5.930000000000000000e+02 5.940000000000000000e+02 5.950000000000000000e+02 5.960000000000000000e+02 5.970000000000000000e+02 5.980000000000000000e+02 5.990000000000000000e+02 6.000000000000000000e+02 6.010000000000000000e+02 6.020000000000000000e+02 6.030000000000000000e+02 6.040000000000000000e+02 6.050000000000000000e+02 6.060000000000000000e+02 6.070000000000000000e+02 6.080000000000000000e+02 6.090000000000000000e+02 6.100000000000000000e+02 6.110000000000000000e+02 6.120000000000000000e+02 6.130000000000000000e+02 6.140000000000000000e+02 6.150000000000000000e+02 6.160000000000000000e+02 6.170000000000000000e+02 6.180000000000000000e+02 6.190000000000000000e+02 6.200000000000000000e+02 6.210000000000000000e+02 6.220000000000000000e+02 6.230000000000000000e+02 6.240000000000000000e+02 6.250000000000000000e+02 6.260000000000000000e+02 6.270000000000000000e+02 6.280000000000000000e+02 6.290000000000000000e+02 6.300000000000000000e+02 6.310000000000000000e+02 6.320000000000000000e+02 6.330000000000000000e+02 6.340000000000000000e+02 6.350000000000000000e+02 6.360000000000000000e+02 6.370000000000000000e+02 6.380000000000000000e+02 6.390000000000000000e+02 6.400000000000000000e+02 6.410000000000000000e+02 6.420000000000000000e+02 6.430000000000000000e+02 6.440000000000000000e+02 6.450000000000000000e+02 6.460000000000000000e+02 6.470000000000000000e+02 6.480000000000000000e+02 6.490000000000000000e+02 6.500000000000000000e+02 6.510000000000000000e+02 6.520000000000000000e+02 6.530000000000000000e+02 6.540000000000000000e+02 6.550000000000000000e+02 6.560000000000000000e+02 6.570000000000000000e+02 6.580000000000000000e+02 6.590000000000000000e+02 6.600000000000000000e+02 6.610000000000000000e+02 6.620000000000000000e+02 6.630000000000000000e+02 6.640000000000000000e+02 6.650000000000000000e+02 6.660000000000000000e+02 6.670000000000000000e+02 6.680000000000000000e+02 6.690000000000000000e+02 6.700000000000000000e+02 6.710000000000000000e+02 6.720000000000000000e+02 6.730000000000000000e+02 6.740000000000000000e+02 6.750000000000000000e+02 6.760000000000000000e+02 6.770000000000000000e+02 6.780000000000000000e+02 6.790000000000000000e+02 6.800000000000000000e+02 6.810000000000000000e+02 6.820000000000000000e+02 6.830000000000000000e+02 6.840000000000000000e+02 6.850000000000000000e+02 6.860000000000000000e+02 6.870000000000000000e+02 6.880000000000000000e+02 6.890000000000000000e+02 6.900000000000000000e+02 6.910000000000000000e+02 6.920000000000000000e+02 6.930000000000000000e+02 6.940000000000000000e+02 6.950000000000000000e+02 6.960000000000000000e+02 6.970000000000000000e+02 6.980000000000000000e+02 6.990000000000000000e+02 7.000000000000000000e+02 7.010000000000000000e+02 7.020000000000000000e+02 7.030000000000000000e+02 7.040000000000000000e+02 7.050000000000000000e+02 7.060000000000000000e+02 7.070000000000000000e+02 7.080000000000000000e+02 7.090000000000000000e+02 7.100000000000000000e+02 7.110000000000000000e+02 7.120000000000000000e+02 7.130000000000000000e+02 7.140000000000000000e+02 7.150000000000000000e+02 7.160000000000000000e+02 7.170000000000000000e+02 7.180000000000000000e+02 7.190000000000000000e+02 7.200000000000000000e+02 7.210000000000000000e+02 7.220000000000000000e+02 7.230000000000000000e+02 7.240000000000000000e+02 7.250000000000000000e+02 7.260000000000000000e+02 7.270000000000000000e+02 7.280000000000000000e+02 7.290000000000000000e+02 7.300000000000000000e+02 7.310000000000000000e+02 7.320000000000000000e+02 7.330000000000000000e+02 7.340000000000000000e+02 7.350000000000000000e+02 7.360000000000000000e+02 7.370000000000000000e+02 7.380000000000000000e+02 7.390000000000000000e+02 7.400000000000000000e+02 7.410000000000000000e+02 7.420000000000000000e+02 7.430000000000000000e+02 7.440000000000000000e+02 7.450000000000000000e+02 7.460000000000000000e+02 7.470000000000000000e+02 7.480000000000000000e+02 7.490000000000000000e+02 7.500000000000000000e+02 7.510000000000000000e+02 7.520000000000000000e+02 7.530000000000000000e+02 7.540000000000000000e+02 7.550000000000000000e+02 7.560000000000000000e+02 7.570000000000000000e+02 7.580000000000000000e+02 7.590000000000000000e+02 7.600000000000000000e+02 7.610000000000000000e+02 7.620000000000000000e+02 7.630000000000000000e+02 7.640000000000000000e+02 7.650000000000000000e+02 7.660000000000000000e+02 7.670000000000000000e+02 7.680000000000000000e+02 7.690000000000000000e+02 7.700000000000000000e+02 7.710000000000000000e+02 7.720000000000000000e+02 7.730000000000000000e+02 7.740000000000000000e+02 7.750000000000000000e+02 7.760000000000000000e+02 7.770000000000000000e+02 7.780000000000000000e+02 7.790000000000000000e+02 7.800000000000000000e+02 7.810000000000000000e+02 7.820000000000000000e+02 7.830000000000000000e+02 7.840000000000000000e+02 7.850000000000000000e+02 7.860000000000000000e+02 7.870000000000000000e+02 7.880000000000000000e+02 7.890000000000000000e+02 7.900000000000000000e+02 7.910000000000000000e+02 7.920000000000000000e+02 7.930000000000000000e+02 7.940000000000000000e+02 7.950000000000000000e+02 7.960000000000000000e+02 7.970000000000000000e+02 7.980000000000000000e+02 7.990000000000000000e+02 8.000000000000000000e+02 8.010000000000000000e+02 8.020000000000000000e+02 8.030000000000000000e+02 8.040000000000000000e+02 8.050000000000000000e+02 8.060000000000000000e+02 8.070000000000000000e+02 8.080000000000000000e+02 8.090000000000000000e+02 8.100000000000000000e+02 8.110000000000000000e+02 8.120000000000000000e+02 8.130000000000000000e+02 8.140000000000000000e+02 8.150000000000000000e+02 8.160000000000000000e+02 8.170000000000000000e+02 8.180000000000000000e+02 8.190000000000000000e+02 8.200000000000000000e+02 8.210000000000000000e+02 8.220000000000000000e+02 8.230000000000000000e+02 8.240000000000000000e+02 8.250000000000000000e+02 8.260000000000000000e+02 8.270000000000000000e+02 8.280000000000000000e+02 8.290000000000000000e+02 8.300000000000000000e+02 8.310000000000000000e+02 8.320000000000000000e+02 8.330000000000000000e+02 8.340000000000000000e+02 8.350000000000000000e+02 8.360000000000000000e+02 8.370000000000000000e+02 8.380000000000000000e+02 8.390000000000000000e+02 8.400000000000000000e+02 8.410000000000000000e+02 8.420000000000000000e+02 8.430000000000000000e+02 8.440000000000000000e+02 8.450000000000000000e+02 8.460000000000000000e+02 8.470000000000000000e+02 8.480000000000000000e+02 8.490000000000000000e+02 8.500000000000000000e+02 8.510000000000000000e+02 8.520000000000000000e+02 8.530000000000000000e+02 8.540000000000000000e+02 8.550000000000000000e+02 8.560000000000000000e+02 8.570000000000000000e+02 8.580000000000000000e+02 8.590000000000000000e+02 8.600000000000000000e+02 8.610000000000000000e+02 8.620000000000000000e+02 8.630000000000000000e+02 8.640000000000000000e+02 8.650000000000000000e+02 8.660000000000000000e+02 8.670000000000000000e+02 8.680000000000000000e+02 8.690000000000000000e+02 8.700000000000000000e+02 8.710000000000000000e+02 8.720000000000000000e+02 8.730000000000000000e+02 8.740000000000000000e+02 8.750000000000000000e+02 8.760000000000000000e+02 8.770000000000000000e+02 8.780000000000000000e+02 8.790000000000000000e+02 8.800000000000000000e+02 8.810000000000000000e+02 8.820000000000000000e+02 8.830000000000000000e+02 8.840000000000000000e+02 8.850000000000000000e+02 8.860000000000000000e+02 8.870000000000000000e+02 8.880000000000000000e+02 8.890000000000000000e+02 8.900000000000000000e+02 8.910000000000000000e+02 8.920000000000000000e+02 8.930000000000000000e+02 8.940000000000000000e+02 8.950000000000000000e+02 8.960000000000000000e+02 8.970000000000000000e+02 8.980000000000000000e+02 8.990000000000000000e+02 9.000000000000000000e+02 9.010000000000000000e+02 9.020000000000000000e+02 9.030000000000000000e+02 9.040000000000000000e+02 9.050000000000000000e+02 9.060000000000000000e+02 9.070000000000000000e+02 9.080000000000000000e+02 9.090000000000000000e+02 9.100000000000000000e+02 9.110000000000000000e+02 9.120000000000000000e+02 9.130000000000000000e+02 9.140000000000000000e+02 9.150000000000000000e+02 9.160000000000000000e+02 9.170000000000000000e+02 9.180000000000000000e+02 9.190000000000000000e+02 9.200000000000000000e+02 9.210000000000000000e+02 9.220000000000000000e+02 9.230000000000000000e+02 9.240000000000000000e+02 9.250000000000000000e+02 9.260000000000000000e+02 9.270000000000000000e+02 9.280000000000000000e+02 9.290000000000000000e+02 9.300000000000000000e+02 9.310000000000000000e+02 9.320000000000000000e+02 9.330000000000000000e+02 9.340000000000000000e+02 9.350000000000000000e+02 9.360000000000000000e+02 9.370000000000000000e+02 9.380000000000000000e+02 9.390000000000000000e+02 9.400000000000000000e+02 9.410000000000000000e+02 9.420000000000000000e+02 9.430000000000000000e+02 9.440000000000000000e+02 9.450000000000000000e+02 9.460000000000000000e+02 9.470000000000000000e+02 9.480000000000000000e+02 9.490000000000000000e+02 9.500000000000000000e+02 9.510000000000000000e+02 9.520000000000000000e+02 9.530000000000000000e+02 9.540000000000000000e+02 9.550000000000000000e+02 9.560000000000000000e+02 9.570000000000000000e+02 9.580000000000000000e+02 9.590000000000000000e+02 9.600000000000000000e+02 9.610000000000000000e+02 9.620000000000000000e+02 9.630000000000000000e+02 9.640000000000000000e+02 9.650000000000000000e+02 9.660000000000000000e+02 9.670000000000000000e+02 9.680000000000000000e+02 9.690000000000000000e+02 9.700000000000000000e+02 9.710000000000000000e+02 9.720000000000000000e+02 9.730000000000000000e+02 9.740000000000000000e+02 9.750000000000000000e+02 9.760000000000000000e+02 9.770000000000000000e+02 9.780000000000000000e+02 9.790000000000000000e+02 9.800000000000000000e+02 9.810000000000000000e+02 9.820000000000000000e+02 9.830000000000000000e+02 9.840000000000000000e+02 9.850000000000000000e+02 9.860000000000000000e+02 9.870000000000000000e+02 9.880000000000000000e+02 9.890000000000000000e+02 9.900000000000000000e+02 9.910000000000000000e+02 9.920000000000000000e+02 9.930000000000000000e+02 9.940000000000000000e+02 9.950000000000000000e+02 9.960000000000000000e+02 9.970000000000000000e+02 9.980000000000000000e+02 9.990000000000000000e+02
1.000000000000000000e+00 1.000000000000000000e+00 1.000000000000000000e+00 1.000000000000000000e+00 1.000000000000000000e+00 1.000000000000000000e+00 1.000000000000000000e+00 1.000000000000000000e+00 1.000000000000000000e+00 1.000000000000000000e+00 1.000000000000000000e+00 1.000000000000000000e+00 1.000000000000000000e+00 1.000000000000000000e+00 1.000000000000000000e+00 1.000000000000000000e+00 1.000000000000000000e+00 1.000000000000000000e+00 1.000000000000000000e+00 1.000000000000000000e+00 1.000000000000000000e+00 1.000000000000000000e+00 1.000000000000000000e+00 1.000000000000000000e+00 1.000000000000000000e+00 1.000000000000000000e+00 1.000000000000000000e+00 1.000000000000000000e+00 1.000000000000000000e+00 1.000000000000000000e+00 1.000000000000000000e+00 1.000000000000000000e+00 1.000000000000000000e+00 1.000000000000000000e+00 1.000000000000000000e+00 1.000000000000000000e+00 1.000000000000000000e+00 1.000000000000000000e+00 1.000000000000000000e+00 1.000000000000000000e+00 1.000000000000000000e+00 1.000000000000000000e+00 1.000000000000000000e+00 1.000000000000000000e+00 1.000000000000000000e+00 1.000000000000000000e+00 1.000000000000000000e+00 1.000000000000000000e+00 1.000000000000000000e+00 1.000000000000000000e+00 1.000000000000000000e+00 1.000000000000000000e+00 1.000000000000000000e+00 1.000000000000000000e+00 1.000000000000000000e+00 1.000000000000000000e+00 1.000000000000000000e+00 1.000000000000000000e+00 1.000000000000000000e+00 1.000000000000000000e+00 1.000000000000000000e+00 1.000000000000000000e+00 1.000000000000000000e+00 1.000000000000000000e+00 1.000000000000000000e+00 1.000000000000000000e+00 1.000000000000000000e+00 1.000000000000000000e+00 1.000000000000000000e+00 1.000000000000000000e+00 1.000000000000000000e+00 1.000000000000000000e+00 1.000000000000000000e+00 1.000000000000000000e+00 1.000000000000000000e+00 1.000000000000000000e+00 1.000000000000000000e+00 1.000000000000000000e+00 1.000000000000000000e+00 1.000000000000000000e+00 1.000000000000000000e+00 1.000000000000000000e+00 1.000000000000000000e+00 1.000000000000000000e+00 1.000000000000000000e+00 1.000000000000000000e+00 1.000000000000000000e+00 1.000000000000000000e+00 1.000000000000000000e+00 1.000000000000000000e+00 1.000000000000000000e+00 1.000000000000000000e+00 1.000000000000000000e+00 1.000000000000000000e+00 1.000000000000000000e+00 1.000000000000000000e+00 1.000000000000000000e+00 1.000000000000000000e+00 1.000000000000000000e+00 1.000000000000000000e+00 1.000000000000000000e+00 1.000000000000000000e+00 1.000000000000000000e+00 1.000000000000000000e+00 1.000000000000000000e+00 1.000000000000000000e+00 1.000000000000000000e+00 1.000000000000000000e+00 1.000000000000000000e+00 1.000000000000000000e+00 1.000000000000000000e+00 1.000000000000000000e+00 1.000000000000000000e+00 1.000000000000000000e+00 1.000000000000000000e+00 1.000000000000000000e+00 1.000000000000000000e+00 1.000000000000000000e+00 1.000000000000000000e+00 1.000000000000000000e+00 1.000000000000000000e+00 1.000000000000000000e+00 1.000000000000000000e+00 1.000000000000000000e+00 1.000000000000000000e+00 1.000000000000000000e+00 1.000000000000000000e+00 1.000000000000000000e+00 1.000000000000000000e+00 1.000000000000000000e+00 1.000000000000000000e+00 1.000000000000000000e+00 1.000000000000000000e+00 1.000000000000000000e+00 1.000000000000000000e+00 1.000000000000000000e+00 1.000000000000000000e+00 1.000000000000000000e+00 1.000000000000000000e+00 1.000000000000000000e+00 1.000000000000000000e+00 1.000000000000000000e+00 1.000000000000000000e+00 1.000000000000000000e+00 1.000000000000000000e+00 1.000000000000000000e+00 1.000000000000000000e+00 1.000000000000000000e+00 1.000000000000000000e+00 1.000000000000000000e+00 1.000000000000000000e+00 1.000000000000000000e+00 1.000000000000000000e+00 1.000000000000000000e+00 1.000000000000000000e+00 1.000000000000000000e+00 1.000000000000000000e+00 1.000000000000000000e+00 1.000000000000000000e+00 1.000000000000000000e+00 1.000000000000000000e+00 1.000000000000000000e+00 1.000000000000000000e+00 1.000000000000000000e+00 1.000000000000000000e+00 1.000000000000000000e+00 1.000000000000000000e+00 1.000000000000000000e+00 1.000000000000000000e+00 1.000000000000000000e+00 1.000000000000000000e+00 1.000000000000000000e+00 1.000000000000000000e+00 1.000000000000000000e+00 1.000000000000000000e+00 1.000000000000000000e+00 1.000000000000000000e+00 1.000000000000000000e+00 1.000000000000000000e+00 1.000000000000000000e+00 1.000000000000000000e+00 1.000000000000000000e+00 1.000000000000000000e+00 1.000000000000000000e+00 1.000000000000000000e+00 1.000000000000000000e+00 1.000000000000000000e+00 1.000000000000000000e+00 1.000000000000000000e+00 1.000000000000000000e+00 1.000000000000000000e+00 1.000000000000000000e+00 1.000000000000000000e+00 1.000000000000000000e+00 1.000000000000000000e+00 1.000000000000000000e+00 1.000000000000000000e+00 1.000000000000000000e+00 1.000000000000000000e+00 1.000000000000000000e+00 1.000000000000000000e+00 1.000000000000000000e+00 1.000000000000000000e+00 1.000000000000000000e+00 1.000000000000000000e+00 1.000000000000000000e+00 1.000000000000000000e+00 1.000000000000000000e+00 1.000000000000000000e+00 1.000000000000000000e+00 1.000000000000000000e+00 1.000000000000000000e+00 1.000000000000000000e+00 1.000000000000000000e+00 1.000000000000000000e+00 1.000000000000000000e+00 1.000000000000000000e+00 1.000000000000000000e+00 1.000000000000000000e+00 1.000000000000000000e+00 1.000000000000000000e+00 1.000000000000000000e+00 1.000000000000000000e+00 1.000000000000000000e+00 1.000000000000000000e+00 1.000000000000000000e+00 1.000000000000000000e+00 1.000000000000000000e+00 1.000000000000000000e+00 1.000000000000000000e+00 1.000000000000000000e+00 1.000000000000000000e+00 1.000000000000000000e+00 1.000000000000000000e+00 1.000000000000000000e+00 1.000000000000000000e+00 1.000000000000000000e+00 1.000000000000000000e+00 1.000000000000000000e+00 1.000000000000000000e+00 1.000000000000000000e+00 1.000000000000000000e+00 1.000000000000000000e+00 1.000000000000000000e+00 1.000000000000000000e+00 1.000000000000000000e+00 1.000000000000000000e+00 1.000000000000000000e+00 1.000000000000000000e+00 1.000000000000000000e+00 1.000000000000000000e+00 1.000000000000000000e+00 1.000000000000000000e+00 1.000000000000000000e+00 1.000000000000000000e+00 1.000000000000000000e+00 1.000000000000000000e+00 1.000000000000000000e+00 1.000000000000000000e+00 1.000000000000000000e+00 1.000000000000000000e+00 1.000000000000000000e+00 1.000000000000000000e+00 1.000000000000000000e+00 1.000000000000000000e+00 1.000000000000000000e+00 1.000000000000000000e+00 1.000000000000000000e+00 1.000000000000000000e+00 1.000000000000000000e+00 1.000000000000000000e+00 1.000000000000000000e+00 1.000000000000000000e+00 1.000000000000000000e+00 1.000000000000000000e+00 1.000000000000000000e+00 1.000000000000000000e+00 1.000000000000000000e+00 1.000000000000000000e+00 1.000000000000000000e+00 1.000000000000000000e+00 1.000000000000000000e+00 1.000000000000000000e+00 1.000000000000000000e+00 1.000000000000000000e+00 1.000000000000000000e+00 1.000000000000000000e+00 1.000000000000000000e+00 1.000000000000000000e+00 1.000000000000000000e+00 1.000000000000000000e+00 1.000000000000000000e+00 1.000000000000000000e+00 1.000000000000000000e+00 1.000000000000000000e+00 1.000000000000000000e+00 1.000000000000000000e+00 1.000000000000000000e+00 1.000000000000000000e+00 1.000000000000000000e+00 1.000000000000000000e+00 1.000000000000000000e+00 1.000000000000000000e+00 1.000000000000000000e+00 1.000000000000000000e+00 1.000000000000000000e+00 1.000000000000000000e+00 1.000000000000000000e+00 1.000000000000000000e+00 1.000000000000000000e+00 1.000000000000000000e+00 1.000000000000000000e+00 1.000000000000000000e+00 1.000000000000000000e+00 1.000000000000000000e+00 1.000000000000000000e+00 1.000000000000000000e+00 1.000000000000000000e+00 1.000000000000000000e+00 1.000000000000000000e+00 1.000000000000000000e+00 1.000000000000000000e+00 1.000000000000000000e+00 1.000000000000000000e+00 1.000000000000000000e+00 1.000000000000000000e+00 1.000000000000000000e+00 1.000000000000000000e+00 1.000000000000000000e+00 1.000000000000000000e+00 1.000000000000000000e+00 1.000000000000000000e+00 1.000000000000000000e+00 1.000000000000000000e+00 1.000000000000000000e+00 1.000000000000000000e+00 1.000000000000000000e+00 1.000000000000000000e+00 1.000000000000000000e+00 1.000000000000000000e+00 1.000000000000000000e+00 1.000000000000000000e+00 1.000000000000000000e+00 1.000000000000000000e+00 1.000000000000000000e+00 1.000000000000000000e+00 1.000000000000000000e+00 1.000000000000000000e+00 1.000000000000000000e+00 1.000000000000000000e+00 1.000000000000000000e+00 1.000000000000000000e+00 1.000000000000000000e+00 1.000000000000000000e+00 1.000000000000000000e+00 1.000000000000000000e+00 1.000000000000000000e+00 1.000000000000000000e+00 1.000000000000000000e+00 1.000000000000000000e+00 1.000000000000000000e+00 1.000000000000000000e+00 1.000000000000000000e+00 1.000000000000000000e+00 1.000000000000000000e+00 1.000000000000000000e+00 1.000000000000000000e+00 1.000000000000000000e+00 1.000000000000000000e+00 1.000000000000000000e+00 1.000000000000000000e+00 1.000000000000000000e+00 1.000000000000000000e+00 1.000000000000000000e+00 1.000000000000000000e+00 1.000000000000000000e+00 1.000000000000000000e+00 1.000000000000000000e+00 1.000000000000000000e+00 1.000000000000000000e+00 1.000000000000000000e+00 1.000000000000000000e+00 1.000000000000000000e+00 1.000000000000000000e+00 1.000000000000000000e+00 1.000000000000000000e+00 1.000000000000000000e+00 1.000000000000000000e+00 1.000000000000000000e+00 1.000000000000000000e+00 1.000000000000000000e+00 1.000000000000000000e+00 1.000000000000000000e+00 1.000000000000000000e+00 1.000000000000000000e+00 1.000000000000000000e+00 1.000000000000000000e+00 1.000000000000000000e+00 1.000000000000000000e+00 1.000000000000000000e+00 1.000000000000000000e+00 1.000000000000000000e+00 1.000000000000000000e+00 1.000000000000000000e+00 1.000000000000000000e+00 1.000000000000000000e+00 1.000000000000000000e+00 1.000000000000000000e+00 1.000000000000000000e+00 1.000000000000000000e+00 1.000000000000000000e+00 1.000000000000000000e+00 1.000000000000000000e+00 1.000000000000000000e+00 1.000000000000000000e+00 1.000000000000000000e+00 1.000000000000000000e+00 1.000000000000000000e+00 1.000000000000000000e+00 1.000000000000000000e+00 1.000000000000000000e+00 1.000000000000000000e+00 1.000000000000000000e+00 1.000000000000000000e+00 1.000000000000000000e+00 1.000000000000000000e+00 1.000000000000000000e+00 1.000000000000000000e+00 1.000000000000000000e+00 1.000000000000000000e+00 1.000000000000000000e+00 1.000000000000000000e+00 1.000000000000000000e+00 1.000000000000000000e+00 1.000000000000000000e+00 1.000000000000000000e+00 1.000000000000000000e+00 1.000000000000000000e+00 1.000000000000000000e+00 1.000000000000000000e+00 1.000000000000000000e+00 1.000000000000000000e+00 1.000000000000000000e+00 1.000000000000000000e+00 1.000000000000000000e+00 1.000000000000000000e+00 1.000000000000000000e+00 1.000000000000000000e+00 1.000000000000000000e+00 1.000000000000000000e+00 1.000000000000000000e+00 1.000000000000000000e+00 1.000000000000000000e+00 1.000000000000000000e+00 1.000000000000000000e+00 1.000000000000000000e+00 1.000000000000000000e+00 1.000000000000000000e+00 1.000000000000000000e+00 1.000000000000000000e+00 1.000000000000000000e+00 1.000000000000000000e+00 1.000000000000000000e+00 1.000000000000000000e+00 1.000000000000000000e+00 1.000000000000000000e+00 1.000000000000000000e+00 1.000000000000000000e+00 1.000000000000000000e+00 1.000000000000000000e+00 1.000000000000000000e+00 1.000000000000000000e+00 1.000000000000000000e+00 1.000000000000000000e+00 1.000000000000000000e+00 1.000000000000000000e+00 1.000000000000000000e+00 1.000000000000000000e+00 1.000000000000000000e+00 1.000000000000000000e+00 1.000000000000000000e+00 1.000000000000000000e+00 1.000000000000000000e+00 1.000000000000000000e+00 1.000000000000000000e+00 1.000000000000000000e+00 1.000000000000000000e+00 1.000000000000000000e+00 1.000000000000000000e+00 1.000000000000000000e+00 1.000000000000000000e+00 1.000000000000000000e+00 1.000000000000000000e+00 1.000000000000000000e+00 1.000000000000000000e+00 1.000000000000000000e+00 1.000000000000000000e+00 1.000000000000000000e+00 1.000000000000000000e+00 1.000000000000000000e+00 1.000000000000000000e+00 1.000000000000000000e+00 1.000000000000000000e+00 1.000000000000000000e+00 1.000000000000000000e+00 1.000000000000000000e+00 1.000000000000000000e+00 1.000000000000000000e+00 1.000000000000000000e+00 1.000000000000000000e+00 1.000000000000000000e+00 1.000000000000000000e+00 1.000000000000000000e+00 1.000000000000000000e+00 1.000000000000000000e+00 1.000000000000000000e+00 1.000000000000000000e+00 1.000000000000000000e+00 1.000000000000000000e+00 1.000000000000000000e+00 1.000000000000000000e+00 1.000000000000000000e+00 1.000000000000000000e+00 1.000000000000000000e+00 1.000000000000000000e+00 1.000000000000000000e+00 1.000000000000000000e+00 1.000000000000000000e+00 1.000000000000000000e+00 1.000000000000000000e+00 1.000000000000000000e+00 1.000000000000000000e+00 1.000000000000000000e+00 1.000000000000000000e+00 1.000000000000000000e+00 1.000000000000000000e+00 1.000000000000000000e+00 1.000000000000000000e+00 1.000000000000000000e+00 1.000000000000000000e+00 1.000000000000000000e+00 1.000000000000000000e+00 1.000000000000000000e+00 1.000000000000000000e+00 1.000000000000000000e+00 1.000000000000000000e+00 1.000000000000000000e+00 1.000000000000000000e+00 1.000000000000000000e+00 1.000000000000000000e+00 1.000000000000000000e+00 1.000000000000000000e+00 1.000000000000000000e+00 1.000000000000000000e+00 1.000000000000000000e+00 1.000000000000000000e+00 1.000000000000000000e+00 1.000000000000000000e+00 1.000000000000000000e+00 1.000000000000000000e+00 1.000000000000000000e+00 1.000000000000000000e+00 1.000000000000000000e+00 1.000000000000000000e+00 1.000000000000000000e+00 1.000000000000000000e+00 1.000000000000000000e+00 1.000000000000000000e+00 1.000000000000000000e+00 1.000000000000000000e+00 1.000000000000000000e+00 1.000000000000000000e+00 1.000000000000000000e+00 1.000000000000000000e+00 1.000000000000000000e+00 1.000000000000000000e+00 1.000000000000000000e+00 1.000000000000000000e+00 1.000000000000000000e+00 1.000000000000000000e+00 1.000000000000000000e+00 1.000000000000000000e+00 1.000000000000000000e+00 1.000000000000000000e+00 1.000000000000000000e+00 1.000000000000000000e+00 1.000000000000000000e+00 1.000000000000000000e+00 1.000000000000000000e+00 1.000000000000000000e+00 1.000000000000000000e+00 1.000000000000000000e+00 1.000000000000000000e+00 1.000000000000000000e+00 1.000000000000000000e+00 1.000000000000000000e+00 1.000000000000000000e+00 1.000000000000000000e+00 1.000000000000000000e+00 1.000000000000000000e+00 1.000000000000000000e+00 1.000000000000000000e+00 1.000000000000000000e+00 1.000000000000000000e+00 1.000000000000000000e+00 1.000000000000000000e+00 1.000000000000000000e+00 1.000000000000000000e+00 1.000000000000000000e+00 1.000000000000000000e+00 1.000000000000000000e+00 1.000000000000000000e+00 1.000000000000000000e+00 1.000000000000000000e+00 1.000000000000000000e+00 1.000000000000000000e+00 1.000000000000000000e+00 1.000000000000000000e+00 1.000000000000000000e+00 1.000000000000000000e+00 1.000000000000000000e+00 1.000000000000000000e+00 1.000000000000000000e+00 1.000000000000000000e+00 1.000000000000000000e+00 1.000000000000000000e+00 1.000000000000000000e+00 1.000000000000000000e+00 1.000000000000000000e+00 1.000000000000000000e+00 1.000000000000000000e+00 1.000000000000000000e+00 1.000000000000000000e+00 1.000000000000000000e+00 1.000000000000000000e+00 1.000000000000000000e+00 1.000000000000000000e+00 1.000000000000000000e+00 1.000000000000000000e+00 1.000000000000000000e+00 1.000000000000000000e+00 1.000000000000000000e+00 1.000000000000000000e+00 1.000000000000000000e+00 1.000000000000000000e+00 1.000000000000000000e+00 1.000000000000000000e+00 1.000000000000000000e+00 1.000000000000000000e+00 1.000000000000000000e+00 1.000000000000000000e+00 1.000000000000000000e+00 1.000000000000000000e+00 1.000000000000000000e+00 1.000000000000000000e+00 1.000000000000000000e+00 1.000000000000000000e+00 1.000000000000000000e+00 1.000000000000000000e+00 1.000000000000000000e+00 1.000000000000000000e+00 1.000000000000000000e+00 1.000000000000000000e+00 1.000000000000000000e+00 1.000000000000000000e+00 1.000000000000000000e+00 1.000000000000000000e+00 1.000000000000000000e+00 1.000000000000000000e+00 1.000000000000000000e+00 1.000000000000000000e+00 1.000000000000000000e+00 1.000000000000000000e+00 1.000000000000000000e+00 1.000000000000000000e+00 1.000000000000000000e+00 1.000000000000000000e+00 1.000000000000000000e+00 1.000000000000000000e+00 1.000000000000000000e+00 1.000000000000000000e+00 1.000000000000000000e+00 1.000000000000000000e+00 1.000000000000000000e+00 1.000000000000000000e+00 1.000000000000000000e+00 1.000000000000000000e+00 1.000000000000000000e+00 1.000000000000000000e+00 1.000000000000000000e+00 1.000000000000000000e+00 1.000000000000000000e+00 1.000000000000000000e+00 1.000000000000000000e+00 1.000000000000000000e+00 1.000000000000000000e+00 1.000000000000000000e+00 1.000000000000000000e+00 1.000000000000000000e+00 1.000000000000000000e+00 1.000000000000000000e+00 1.000000000000000000e+00 1.000000000000000000e+00 1.000000000000000000e+00 1.000000000000000000e+00 1.000000000000000000e+00 1.000000000000000000e+00 1.000000000000000000e+00 1.000000000000000000e+00 1.000000000000000000e+00 1.000000000000000000e+00 1.000000000000000000e+00 1.000000000000000000e+00 1.000000000000000000e+00 1.000000000000000000e+00 1.000000000000000000e+00 1.000000000000000000e+00 1.000000000000000000e+00 1.000000000000000000e+00 1.000000000000000000e+00 1.000000000000000000e+00 1.000000000000000000e+00 1.000000000000000000e+00 1.000000000000000000e+00 1.000000000000000000e+00 1.000000000000000000e+00 1.000000000000000000e+00 1.000000000000000000e+00 1.000000000000000000e+00 1.000000000000000000e+00 1.000000000000000000e+00 1.000000000000000000e+00 1.000000000000000000e+00 1.000000000000000000e+00 1.000000000000000000e+00 1.000000000000000000e+00 1.000000000000000000e+00 1.000000000000000000e+00 1.000000000000000000e+00 1.000000000000000000e+00 1.000000000000000000e+00 1.000000000000000000e+00 1.000000000000000000e+00 1.000000000000000000e+00 1.000000000000000000e+00 1.000000000000000000e+00 1.000000000000000000e+00 1.000000000000000000e+00 1.000000000000000000e+00 1.000000000000000000e+00 1.000000000000000000e+00 1.000000000000000000e+00 1.000000000000000000e+00 1.000000000000000000e+00 1.000000000000000000e+00 1.000000000000000000e+00 1.000000000000000000e+00 1.000000000000000000e+00 1.000000000000000000e+00 1.000000000000000000e+00 1.000000000000000000e+00 1.000000000000000000e+00 1.000000000000000000e+00 1.000000000000000000e+00 1.000000000000000000e+00 1.000000000000000000e+00 1.000000000000000000e+00 1.000000000000000000e+00 1.000000000000000000e+00 1.000000000000000000e+00 1.000000000000000000e+00 1.000000000000000000e+00 1.000000000000000000e+00 1.000000000000000000e+00 1.000000000000000000e+00 1.000000000000000000e+00 1.000000000000000000e+00 1.000000000000000000e+00 1.000000000000000000e+00 1.000000000000000000e+00 1.000000000000000000e+00 1.000000000000000000e+00 1.000000000000000000e+00 1.000000000000000000e+00 1.000000000000000000e+00 1.000000000000000000e+00 1.000000000000000000e+00 1.000000000000000000e+00 1.000000000000000000e+00 1.000000000000000000e+00 1.000000000000000000e+00 1.000000000000000000e+00 1.000000000000000000e+00 1.000000000000000000e+00 1.000000000000000000e+00 1.000000000000000000e+00 1.000000000000000000e+00 1.000000000000000000e+00 1.000000000000000000e+00 1.000000000000000000e+00 1.000000000000000000e+00 1.000000000000000000e+00 1.000000000000000000e+00 1.000000000000000000e+00 1.000000000000000000e+00 1.000000000000000000e+00 1.000000000000000000e+00 1.000000000000000000e+00 1.000000000000000000e+00 1.000000000000000000e+00 1.000000000000000000e+00 1.000000000000000000e+00 1.000000000000000000e+00 1.000000000000000000e+00 1.000000000000000000e+00 1.000000000000000000e+00 1.000000000000000000e+00 1.000000000000000000e+00 1.000000000000000000e+00 1.000000000000000000e+00 1.000000000000000000e+00 1.000000000000000000e+00 1.000000000000000000e+00 1.000000000000000000e+00 1.000000000000000000e+00 1.000000000000000000e+00 1.000000000000000000e+00 1.000000000000000000e+00 1.000000000000000000e+00 1.000000000000000000e+00 1.000000000000000000e+00 1.000000000000000000e+00 1.000000000000000000e+00 1.000000000000000000e+00 1.000000000000000000e+00 1.000000000000000000e+00 1.000000000000000000e+00 1.000000000000000000e+00 1.000000000000000000e+00 1.000000000000000000e+00 1.000000000000000000e+00 1.000000000000000000e+00 1.000000000000000000e+00 1.000000000000000000e+00 1.000000000000000000e+00 1.000000000000000000e+00 1.000000000000000000e+00 1.000000000000000000e+00 1.000000000000000000e+00 1.000000000000000000e+00 1.000000000000000000e+00 1.000000000000000000e+00 1.000000000000000000e+00 1.000000000000000000e+00 1.000000000000000000e+00 1.000000000000000000e+00 1.000000000000000000e+00 1.000000000000000000e+00 1.000000000000000000e+00 1.000000000000000000e+00 1.000000000000000000e+00 1.000000000000000000e+00 1.000000000000000000e+00 1.000000000000000000e+00 1.000000000000000000e+00 1.000000000000000000e+00 1.000000000000000000e+00 1.000000000000000000e+00 1.000000000000000000e+00 1.000000000000000000e+00 1.000000000000000000e+00 1.000000000000000000e+00 1.000000000000000000e+00 1.000000000000000000e+00 1.000000000000000000e+00 1.000000000000000000e+00 1.000000000000000000e+00 1.000000000000000000e+00 1.000000000000000000e+00 1.000000000000000000e+00 1.000000000000000000e+00 1.000000000000000000e+00 1.000000000000000000e+00 1.000000000000000000e+00 1.000000000000000000e+00 1.000000000000000000e+00 1.000000000000000000e+00 1.000000000000000000e+00 1.000000000000000000e+00 1.000000000000000000e+00 1.000000000000000000e+00 1.000000000000000000e+00 1.000000000000000000e+00 1.000000000000000000e+00 1.000000000000000000e+00 1.000000000000000000e+00 1.000000000000000000e+00 1.000000000000000000e+00 1.000000000000000000e+00 1.000000000000000000e+00 1.000000000000000000e+00 1.000000000000000000e+00 1.000000000000000000e+00 1.000000000000000000e+00 1.000000000000000000e+00 1.000000000000000000e+00 1.000000000000000000e+00 1.000000000000000000e+00 1.000000000000000000e+00 1.000000000000000000e+00 1.000000000000000000e+00 1.000000000000000000e+00 1.000000000000000000e+00 1.000000000000000000e+00 1.000000000000000000e+00 1.000000000000000000e+00 1.000000000000000000e+00 1.000000000000000000e+00 1.000000000000000000e+00 1.000000000000000000e+00 1.000000000000000000e+00 1.000000000000000000e+00 1.000000000000000000e+00 1.000000000000000000e+00 1.000000000000000000e+00 1.000000000000000000e+00 1.000000000000000000e+00 1.000000000000000000e+00 1.000000000000000000e+00 1.000000000000000000e+00 1.000000000000000000e+00 1.000000000000000000e+00 1.000000000000000000e+00 1.000000000000000000e+00 1.000000000000000000e+00 1.000000000000000000e+00 1.000000000000000000e+00 1.000000000000000000e+00 1.000000000000000000e+00 1.000000000000000000e+00 1.000000000000000000e+00 1.000000000000000000e+00 1.000000000000000000e+00 1.000000000000000000e+00 1.000000000000000000e+00 1.000000000000000000e+00 1.000000000000000000e+00 1.000000000000000000e+00 1.000000000000000000e+00 1.000000000000000000e+00 1.000000000000000000e+00 1.000000000000000000e+00 1.000000000000000000e+00 1.000000000000000000e+00 1.000000000000000000e+00 1.000000000000000000e+00 1.000000000000000000e+00 1.000000000000000000e+00 1.000000000000000000e+00 1.000000000000000000e+00 1.000000000000000000e+00 1.000000000000000000e+00 1.000000000000000000e+00 1.000000000000000000e+00 1.000000000000000000e+00 1.000000000000000000e+00 1.000000000000000000e+00 1.000000000000000000e+00 1.000000000000000000e+00 1.000000000000000000e+00 1.000000000000000000e+00 1.000000000000000000e+00 1.000000000000000000e+00 1.000000000000000000e+00 1.000000000000000000e+00 1.000000000000000000e+00 1.000000000000000000e+00 1.000000000000000000e+00 1.000000000000000000e+00 1.000000000000000000e+00 1.000000000000000000e+00 1.000000000000000000e+00 1.000000000000000000e+00 1.000000000000000000e+00 1.000000000000000000e+00 1.000000000000000000e+00 1.000000000000000000e+00 1.000000000000000000e+00 1.000000000000000000e+00 1.000000000000000000e+00 1.000000000000000000e+00 1.000000000000000000e+00 1.000000000000000000e+00 1.000000000000000000e+00 1.000000000000000000e+00 1.000000000000000000e+00 1.000000000000000000e+00 1.000000000000000000e+00 1.000000000000000000e+00 1.000000000000000000e+00
7.414679554020013434e-03 5.618318513821140003e-01 -2.156340763378408465e-01 7.355290901174960094e-01 5.161983594389971675e-01 5.516630068301924261e-01 6.291381517056227057e-01 2.740610483781568130e-01 5.211290558571335385e-01 5.234675936830399667e-01 1.078139173535174411e+00 -6.810471928676181674e-01 1.396446013742260739e+00 4.488636411056154407e-01 5.126040864377690021e-01 3.947199647685845636e-01 9.001211519869423139e-01 9.738487730181365487e-01 6.838248680279697123e-01 5.143800937528549833e-01 4.130266149896272831e-01 9.792610973322642964e-01 4.541869338812236090e-01 4.681144615626166572e-01 1.044122204001819709e-01 6.776767225236998149e-01 3.673322762873597602e-01 6.254081802002789958e-01 5.376194408510091005e-01 1.554819268792621445e+00 5.273948208804630777e-01 6.125961799682588804e-01 7.201837755363631466e-01 4.898583668413465930e-01 7.102356317636059346e-01 4.499821606909760741e-01 5.417156692137127250e-01 1.760473015834483457e+00 -6.518908373107103194e-02 5.250539371116679233e-01 -1.515548039345306630e-01 -5.599709126323070274e-01 7.502500093057871133e-01 2.246520789700526544e-01 2.676438737718858651e-01 5.247556049031003589e-01 7.351754172592482872e-01 5.122031535323106066e-01 5.974440311422617444e-01 2.362538033972766058e-02 1.363068692761501208e-03 8.336928916245370802e-01 6.722369499708041873e-01 4.601860528250180660e-01 4.540724310905765448e-01 1.838087943968070431e-02 4.751921997434238043e-01 5.386092586708742802e-01 1.878717998016255497e-01 4.613981043086238243e-01 9.113398915826359525e-01 5.418746887927687883e-01 5.192563896618997976e-01 4.541868022052033549e-01 6.820003237492440196e-01 5.496402267723331514e-01 5.131055374802635516e-01 2.977631667658537373e-01 5.481657459575651758e-01 -4.463931061307135559e-03 4.130298989248142871e-01 5.015991172705254186e-01 5.222627284577591178e-01 3.012002061396125419e-02 1.498569185280300697e+00 5.573496309755376910e-01 6.332001244849642108e-01 7.384480446825073541e-01 5.129154358386951440e-01 1.380861045999114411e+00 5.274692736578737717e-01 3.004412763169918565e-01 1.383616798905127565e+00 6.948047402549956120e-01 4.882248897882009997e-01 7.569916253884850788e-01 8.124254165592841304e-01 5.474853581697998184e-01 4.078054326835126586e-01 5.756495161209788103e-01 2.719434926199993940e-01 2.153426532768566659e+00 7.294631364671131379e-01 -3.986046858328975984e-02 5.586970703587166298e-01 5.361369034068189654e-01 5.475438268902983463e-01 4.741035832673944905e-01 1.894717031267961205e-01 6.779337215284669815e-01 1.589094797835242323e+00 6.882867680885659256e-01 5.470115657540743914e-01 7.454626335553785621e-01 8.598360577981030151e-01 -2.033185171542295944e+00 -1.203189388382552405e+00 5.450959228389530287e-01 5.727513866142144305e-01 9.723536075914649413e-01 5.393041516788628087e-01 4.531965245159612632e-01 1.658523738150498028e-01 4.800729574796868682e-01 5.193363825107805143e-01 5.069507100236938513e-01 5.124126211469685055e-01 5.507042882936160622e-01 8.934476524200460901e-01 5.116804787596587190e-01 1.296337980592956240e+00 5.583700186858758796e-01 5.620780334404569256e-01 -3.914436793302012996e-01 5.202999584075141959e-01 1.932527026938915649e+00 5.569137335495292218e-01 5.173010592387227158e-01 6.871249482764277827e-01 5.157166994304444030e-01 5.118385487058710881e-01 5.185968975375890855e-01 4.151386119415509390e-01 2.969278283678902786e-01 -2.477516967646524459e-01 -1.587376762388953977e-01 6.294490029621951921e-01 4.515885633707229091e-02 9.950552824916728545e-01 6.599194034222563010e-01 5.248145879440712092e-01 8.600448871716377397e-01 6.330225400918134682e-01 5.957658324032668595e-01 5.132780202514442003e-01 4.458263984887799597e-02 8.906071722364471421e-01 5.253199273204493813e-02 4.633407969325513687e-01 -8.726638763625970130e-01 7.753410062303909278e-01 -2.973382834616812298e-01 5.247560810270159859e-01 5.452228736250301910e-01 4.728692667427005225e-01 5.147777488443994187e-01 1.905136762586900678e+00 -7.863875062489487922e-02 8.106805496042748249e-01 6.970050004928787235e-01 5.197792284645462724e-01 4.159567037849604687e-01 5.076474697721765628e-01 5.143891496969676957e-01 1.086261639900180542e+00 1.660348100027023710e-01 8.470227367650672301e-01 4.049381533664387911e-01 5.629055126977678958e-01 6.361121325767320478e-01 4.628622583620069508e-01 7.375189299078255267e-01 5.247713057476545151e-01 5.085525586730249570e-01 4.056490327019762199e-01 3.303780000507917924e-02 1.837884367040778233e-01 8.230969322091225004e-02 7.421917909884711007e-01 1.140952175273755698e+00 7.097114317848947085e-01 5.096939693526694182e-01 -1.824977298929378045e-01 4.527238896176794536e-01 6.608114447294366478e-01 5.266611731327920376e-01 5.195186401989401181e-01 5.202142948879839857e-01 2.755728762072904736e+00 5.490649583861102467e-01 5.232841088658283235e-01 -8.744439713356751964e-01 5.028366123148556577e-01 5.708767870921962473e-01 1.825387357120515919e-01 5.113540603876716162e-01 9.296977255826618380e-01 5.179108844284260327e-01 6.541777754235619247e-01 4.201859276088458217e-01 6.219504561087060290e-01 5.437048551744747549e-01 9.458307796284627367e-01 6.001649160156569129e-01 5.432412611399047853e-01 6.541778068635377696e-01 2.681180986709618130e-01 1.282181742595457807e+00 5.224882604807836728e-01 3.719982436128590475e-01 4.393601898498838976e-01 -7.379907640535496305e-02 4.758641528557867040e-01 1.613038597698994991e-01 5.025548525555557644e-01 5.126973603900858434e-01 5.154646690026979394e-01 5.146167115860235119e-01 5.202953085486623497e-01 5.093825545491624807e-01 4.424854144900219333e-01 6.080303103903844653e-01 -6.996377631352985738e-01 5.807476545579238758e-01 3.428329054278830834e-01 3.897366699645252175e-01 1.287103666477516506e-01 1.287755913732958835e+00 9.529328816447525385e-01 5.000761168394745049e-01 -1.041444505432992385e-01 1.049913742907025771e+00 5.162168255462662447e-01 4.455844056508453943e-01 5.193884941954780565e-01 4.154860095116983953e-01 3.785168689490233662e-01 1.936196631623849918e-01 -1.489005928315057237e-01 -1.120530154795019023e-01 3.389385829437794317e-01 5.081331814761868015e-01 -1.017108321326501974e-01 4.515676314121183643e-01 5.187184902824003574e-01 4.645376675865564575e-01 -1.027421682577088907e-01 7.472737322450555553e-01 -2.233229139715297240e+00 5.998046865568952279e-01 -5.681283855325677257e-01 4.964982799226051458e-01 5.114719457544365522e-01 4.541865530047945465e-01 4.731742193433903787e-01 5.481293132232845089e-01 5.295570734003061109e-01 7.445492856786908309e-01 5.448372849462014278e-01 1.685449719137312785e+00 6.748054089417708790e-01 6.955876753289892411e-01 4.962266751900804573e-01 3.469450964025804773e-01 9.113398626494285670e-01 3.898599073144512484e-01 2.645117444545581620e+00 5.373487190447755468e-01 2.386793748129668047e-01 7.004963383791612541e-01 5.182276702402929258e-01 9.119377453224649654e-01 5.135427541422719067e-01 5.434603477615782552e-01 5.133556861848344033e-01 1.074642766659495985e+00 7.660065585114748110e-01 8.653751457990248586e-01 8.091318895664848521e-01 3.873404111470510891e-01 6.761687589674710841e-01 5.447785185649656192e-01 3.919499753071863379e-01 -7.073914033589613348e-01 3.832709227072007563e-01 6.618335724958810395e-01 5.557391815385460676e-01 5.350240519702577080e-01 5.069507099242828163e-01 6.067240548776511311e-01 5.493867564096475142e-01 -7.947366060619349692e-01 7.018627780960164930e-01 5.235484959795606574e-01 4.533408767369540016e-02 5.501285189998924574e-01 1.844280047813822820e+00 4.976741352083218772e-01 5.133287759235906078e-01 4.633477873735535324e-01 -3.366342960403691631e+00 5.055667865657110793e-01 2.744797014324372064e+00 7.369150750711648268e-01 5.190368495492884149e-01 -5.800672893859013524e-01 5.112933795384700941e-01 5.151175207605370732e-01 4.335144496099966327e-01 4.573518077881195687e-01 3.749203589725455532e-01 6.381781981215529642e-01 3.146860068540571764e-01 5.182259921194826147e-01 5.125553022543087867e-01 3.600409166493349633e-01 5.077969877951372668e-01 7.364401486769164284e-01 5.136620838069035910e-01 1.191852716002038015e+00 6.190682313612845197e-03 2.207460914281446307e+00 2.613556469512813507e+00 5.341490543566683735e-01 -2.021582357556951648e-01 4.420346231406006576e-01 4.037855020146793317e-01 7.252076972433596502e-01 1.365814717836117520e+00 5.375167435678346317e-01 1.120484382941756785e+00 5.133298245964487139e-01 1.270365217884913134e-01 1.247346976197877932e+00 4.084310975772325603e-01 5.187092520892040426e-01 5.183872040664093683e-01 8.815677842751062920e-01 -3.649060360048203666e+00 1.618440801716880095e+00 5.537958337287791633e-01 6.389894196999944542e-01 5.140514160078356598e-01 1.760473023788531988e+00 3.081834759117768607e-01 5.415515431043262939e-01 5.186627417837201826e-01 4.292063818038195366e-01 1.381050552912880924e+00 6.061039205468162772e-01 6.541780995933685894e-01 4.515654319431284813e-01 6.001649159067857786e-01 6.179964374106410308e-01 5.628917014114457329e-01 8.919090620718586049e-01 5.150422357724937505e-01 3.919479088887848905e-01 2.142936381314218819e-01 6.508359449461385005e-01 5.150962488488084468e-01 4.260305856611620312e-01 5.415515402118942223e-01 6.623518338925324933e-01 5.141088034218977976e-01 1.002260926553315334e+00 9.933205245742398048e-01 1.124949189728044807e+00 5.113182141458955110e-01 2.382105512493450927e-01 9.113392368068325977e-01 -1.088296214003390272e-01 9.332150536433352350e-01 6.278125770373353953e-01 7.238516058322434082e-03 5.752388625225721697e-01 9.845277031849642979e-01 3.907491146843163343e-01 5.230684709130449805e-01 2.751513172183062128e-01 -3.310699721097568049e-01 -2.431581937235368418e+00 4.742182363736492934e-01 6.001649160829654051e-01 6.001649470936201158e-01 5.181026368675925031e-01 4.404469408115747608e-01 -2.100794688761100648e-01 3.277587874451046712e-01 5.139732119893595241e-01 6.613243949701240743e-01 5.113532446703490386e-01 1.056690569330593465e+00 6.541778459435815263e-01 5.143925659475049317e-01 4.783238888157622659e-01 2.672904874327291513e-01 6.502476193861049802e-01 5.037775823501474681e-01 5.120765269978165835e-01 5.537597360263386559e-01 2.757429559143830256e-01 2.313244030677047425e-02 6.001649168053572181e-01 6.572268903208425828e-01 5.099658946460468023e-01 4.290784234760898208e-01 8.576362402737650603e-01 6.818075364639788472e-01 5.632156041270346414e-01 1.823697847278501039e+00 5.188541879267333234e-01 -3.003408931386894132e+00 7.354538131378018928e-01 1.507431214857081203e+00 4.998153088429552748e-01 -1.047359991268194568e+00 7.285502544621791365e-01 4.633029640400007088e-01 5.178568445282355492e-01 4.929202186579901834e-01 -2.939345132910713421e-01 5.078809251767303357e-01 1.065684640162197327e+00 6.078080719213210248e-01 -3.321888986256338883e-01 5.101816174338456022e-01 5.202476692354572885e-01 7.702624069841925714e-01 5.418775160724833562e-01 5.125770124234690917e-01 -5.094350401249149174e-01 5.625216609776646504e-01 5.147011040813038729e-01 6.941938113719987591e-01 4.951295292716174079e-01 7.649647871807333521e-01 5.072144372428573078e-01 5.806995701260603271e-01 6.926082894725729133e-01 5.456947630691794116e-01 3.222700766277794004e-01 2.746947033440823582e-01 3.182137052481484041e-01 9.560720438531570275e-01 5.469785981089136939e-01 3.165869367505247389e+00 6.604073788703228587e-01 6.128158814347115513e-01 5.580046724473491926e-01 6.220344265245746351e-01 2.764530033814987381e-02 4.841445689061267266e-01 5.771087685380856813e-01 5.237863669626489083e-01 1.164682008410069747e+00 7.652017380506669353e-01 5.126464128984580260e-01 4.492855988102269493e-01 1.115250633962494353e+00 5.022092538783918814e-01 5.423470151194494937e-01 4.899404666952548171e-01 7.398229693250339967e-01 5.105468055426111151e-01 9.222400649771531622e-01 4.912645867380770470e-01 5.136755543314190930e-01 6.124182452687560764e-03 5.142340384453993885e-01 2.179276448764135010e-02 3.518971908039025820e-01 4.149862806357795253e-01 5.603641003416439670e-01 7.727639641501131695e-01 5.138607948627674782e-01 3.973932974344341895e-01 5.531011764005342585e-02 5.410993357642557289e-01 5.494952010194537051e-01 4.960642592266549245e-01 4.848053693050095175e-02 5.117184333552381448e-01 2.458205237057193016e-01 5.119102428692915430e-01 4.252086500520643741e-01 1.252399078310868052e+00 7.878934207488228481e-01 5.332596924909304148e-01 2.715116081858001129e-01 6.577274693259790306e-01 4.214200746802386766e-01 9.882638447669446213e-01 5.922430774506390883e-01 5.521057690406425689e-01 6.870383232279401176e-01 1.973313969545956059e+00 4.549820796218751462e-01 4.297489957199563393e-01 5.138682427723533230e-01 7.020232405556440236e-01 4.457062432231677640e-01 8.287340264629420306e-01 -5.654536346971889005e-01 3.256770248243769927e-01 5.295995691601325106e-01 4.307028634111890186e-01 3.695571963654769587e-01 -6.034736651951317921e-01 3.897383158006457737e-01 5.154848864343751780e-01 7.386731396843456698e-01 6.648364305243810168e-01 1.436947417864187448e+00 5.152938403239500920e-01 5.169721669902666017e-01 -6.869174366753699745e-01 5.161515444872376568e-01 1.203523385547560220e+00 6.980757204425452889e-01 2.571877403999629497e-01 2.760894037825850633e-01 -1.602003221930471621e+00 4.875034023746257494e-01 1.888975569825599443e-01 1.094050616747745286e+00 8.133489649751290962e-01 5.139333667939618433e-01 5.077383116700284749e-01 6.275479849308980285e-01 7.357544510564355544e-01 4.610779844676068384e-01 5.635224438125548962e-01 2.571550001749939654e-02 4.961134726760147440e-01 6.271157560016362709e-01 6.290925663825803760e-01 5.008734215398824574e-01 5.752644655746453894e-01 1.192639923093645304e+00 -1.079726022630672494e-01 -2.291021387998810332e-01 4.393435459243951180e-01 5.424922882141659519e-01 5.568752295246103268e-01 5.047520476342958196e-01 -8.374465837029906323e-01 3.130956562220521988e+00 5.829198834969262499e-01 4.547745104516320303e-01 4.133689967017852851e-01 5.150292306686212740e-01 5.150372810741056240e-01 6.215023754364916719e-01 3.264276308055633624e-01 5.822817752671617386e-01 5.143812444806370454e-01 6.389060263287339447e-01 3.662693839466892309e-01 4.769129062519700257e-01 5.315081844954647750e-01 4.061216268308844302e-01 4.801403441225329805e-01 5.467942500948829165e-01 6.483826037456736913e-01 1.002623286329724639e+00 2.297273683323125759e+00 5.640107582415161414e-01 4.947723838426751342e-01 5.093823816684800443e-01 5.321816383593188649e-01 3.640241847417916010e-01 5.165850317604684383e-01 5.182641129707938887e-01 5.372185239435445236e-01 4.847279001299837908e-01 4.795202554224318736e-01 7.360123685467906407e-01 3.682344976907919176e-01 5.370259944949551389e-01 5.035495230854620807e-01 5.664772294246156470e-01 1.233055798533603808e-01 9.113398783318247265e-01 5.507382484666014655e-01 1.382629405481146101e-01 1.908325111800153850e+00 2.725590932836194358e-01 4.498003176060025310e-01 5.862456830406802544e-01 6.115023024189802231e-02 5.109595349000640718e-01 1.501410182420327644e+00 7.590056209816661292e-01 7.762450502801243601e-01 5.149873597878311671e-01 5.495414853502362806e-01 4.919878614254949989e-01 6.360989743875006264e-01 4.962125030597144826e-01 5.135467781960570965e-01 -1.744131174137866225e-01 5.723477587413907663e-01 -1.400973805520519644e+00 5.201820887616084299e-01 4.955299278595907686e-01 5.555693314674676753e-01 4.633495089233209963e-01 9.113398783270285630e-01 2.240971944883216049e-01 5.617994581330405524e-01 1.318532390885858385e+00 -5.390915143877272886e-01 5.083884629858063109e-01 1.121830376497487736e+00 1.487062482979906841e+00 4.105872053570172597e-01 5.065080457858428531e-01 -4.745354546692213266e-02 -1.649724186884842680e+00 2.815075263526666260e-01 7.515822174053912175e-01 5.252405366076122739e-01 5.124399692870054146e-01 5.003476142105340863e-01 4.872421473973280737e-01 -3.937012120427541007e-01 8.116863150994192422e-01 5.069507036801116362e-01 3.395182048692242383e-01 5.540599502993966974e-01 -1.982333898290031954e-02 -1.745916579834889126e-01 1.763034554480441329e+00 4.161129309107055585e-01 4.596001076278395936e-01 5.117397275857096250e-01 3.307043646577661478e-01 6.155353998816071037e-01 -3.363544690651946306e-02 -1.041651478235731121e+00 5.137488789558097846e-01 5.079606211511313862e-01 5.298233937489315037e-01 6.080392605869981981e-01 5.543027227111775312e-01 5.428086251594925749e-01 5.417127140184462286e-01 5.792857291447200963e-01 1.026233155560975385e+00 7.274655349917050762e-01 5.540913915388344657e-01 5.609796110987853579e-01 4.566660393226667503e-01 4.220864511018337928e-01 1.148963936540209688e-02 5.415515296494557429e-01 5.328034426071894814e-01 4.619662601543405578e-01 7.494215857460609920e-01 9.543258443625948217e-01 8.287538311634984334e-01 -4.769746641265452669e-01 5.548363778241146571e-01 4.957512275108481581e-01 5.194054562400923780e-01 5.792045220790651427e-01 8.997495048601021894e-01 5.570063709833997789e-01 5.063738127051802262e-01 -2.176647409655349807e-01 -8.466504182840237647e-01 2.261834205581652935e+00 5.183275727991737414e-01 8.896346452786979553e-01 4.663356835681923274e-01 5.698407495789186150e-01 3.661148378540707848e-01 1.492557479380107466e-01 5.139510065537076233e-01 5.486441455044362980e-01 3.956468131149923698e-04 5.064887742639256896e-01 4.246326611788299177e-01 5.070003394036691757e-01 7.182119894229526125e-01 5.098229545088771575e-01 5.938220802390909991e-01 3.928086256006640964e-01 4.942183786152076208e-01 3.707705043131286904e-01 5.189656653296370603e-01 4.343833037539585606e-01 5.062380870277589651e-01 -2.874997275637046767e-01 5.079034271410459711e-01 6.429624764629162659e-01 5.141086390439594256e-01 7.352456288058710765e-01 9.113401754112417930e-01 7.339809748041578041e-01 -5.845237357656783983e-01 9.916241795943671056e-01 1.760473015835159361e+00 4.805433719310637231e-01 4.638604371233888135e-01 1.070788800106159622e+00 5.425800906192278505e-01 7.350672258151152993e-01 5.135762369711021069e-01 1.795336334262685352e+00 5.075004773899716159e-01 4.515666711749759532e-01 1.233875467775323864e+00 -5.465563129441065870e-02 5.557090542379881093e-01 -1.673141944107569556e-01 -9.409830416038998946e-01 -1.747414590629781106e-01 7.794709687439850265e-01 5.432271546654710015e-01 5.581105806539068404e-01 -3.331470813732675951e-01 5.265371344197319337e-01 2.786236289186035803e-02 -3.564176279681088855e-01 4.710637769529260610e-01 5.193935207849623703e-01 5.143265754728300054e-01 5.663013948707406042e-01 5.618368725102244055e-01 9.035282537694880878e-01 -3.881161751769204304e-01 5.166298424736472938e-01 5.703409667323747767e-01 6.236874836017962664e-01 1.160146124373864218e+00 5.117537357088429717e-01 6.204963024165591756e-01 5.144968105404956749e-01 2.933873178746984611e-02 -2.931960803380289637e-01 5.221168251235071001e-01 4.981267600507884863e-01 6.670768573699396020e-01 5.328914036501525286e-01 3.373944669988767631e-01 5.101497099258878176e-01 5.121299000923252853e-01 3.442051238099986255e-01 5.124143549097108785e-01 8.376649646398963700e-01 2.526901310798344902e+00 -2.374865881602170326e-01 6.668571487077277204e-01 3.349513923467706267e-01 2.187825260931887672e-01 6.816240374443577332e-01 -5.706336316868412806e-02 -1.495781199228492175e+00 5.160065377395116615e-01 2.587801796050461345e+00 5.002528785695814495e-01 1.487521720969535999e-01 1.776940601541240894e-01 5.069507099086918434e-01 5.645011207461748670e-01 1.541962769809925859e+00 4.880660476749029697e-01 1.257946467699529725e-01 4.409537724588805663e-01 1.672513452722390603e+00 5.794651306045006667e-01 7.242560857603114188e-01 5.452467011874790881e-01 7.413044484211314122e-01 4.545602608358343399e-01 5.623837973416273561e-01 1.228587913705622876e-02 5.194384091814997495e-01 5.149266560303406015e-01 -5.655849265837463724e-01 -4.017795635660219300e-02 1.170014304618311352e+00 2.354416285497903105e-01 4.905699513466915684e-01 6.802147361783993373e-01 5.472759896947941849e-01 1.990348352574037527e+00 7.031814895183888803e-01 2.939561530326311248e-02 2.702219280413692415e-01 4.025633997626488214e-01 1.100629426333167737e+00 5.282776263437207742e-01 -2.317730965036250701e-02 5.238533349492644486e-01 -2.181804162793435017e-02 5.101452526218114292e-01 5.188964957411538181e-01 6.800744755271304759e-03 -6.596619606316843354e-02 6.665169432069276700e-01 6.196467780085650467e-01 5.340645181038762290e-01 2.910659937876439729e-01 5.030342188803236247e-01 4.858792450089702841e-01 5.669609272026144842e-01 5.561012882347553532e-01 4.808336704072830869e-01 6.332083460697310873e-01 1.013965418582218447e+00 3.093336743621549090e+00 9.035239915830178825e-01 5.144670172085133997e-01 6.489358696215252742e-01 2.116895989526948740e-01 5.143541896922195766e-01 8.382891650001275119e-01 4.865167288707930582e-01 1.316079237460604734e+00 4.719167942679602379e-01 -5.667758852371477252e-01 -1.325956085522464814e-02 4.117573115520650195e-01 6.114309947585689908e-01 5.135322400078762284e-01 5.218887923885480173e-01 1.028786481096544830e-02 5.428174206876602570e-01 3.935310819743858546e-01 -3.581399033528619213e+00 4.872794151681163477e-01 5.170046113653998798e-01 1.120001167439511391e+00 5.152082086240888925e-01 5.795839541139924389e-01 6.806470374503229559e-01 -8.663323322222047373e-01 -5.060845940988468739e-01 5.178732621284348747e-02 5.142168399342601504e-01 4.135777643200045373e-01 2.232256666965449776e-01 4.904394206042804738e-01 -3.320371429757968951e-01 6.421123062754581223e-01 5.277057908795400598e-01 6.937600752678230176e-01 5.370952378323620158e-01 4.756702447011643686e-01 1.632818793240082278e-01 -7.357131545496206071e-01 6.513738979005526675e-01 5.023107918165049535e-01 1.651015809592548955e-01 5.159497740670431210e-01 5.857128301784190194e-01 5.044980808268041406e-01 6.702453733619481158e-01 5.680121730812347502e-01 5.383326676362253371e-01 4.985613896297728109e-01 1.760473016380467826e+00 3.692431451026212397e-01 5.510026228270525905e-01 -1.086550512255648887e-01 5.445711851446315421e-01 6.211445905992922789e-01 5.088332194277270792e-01 5.001800583822634261e-01 3.482052886236519651e-01 9.087330129450963412e-01 1.184052098195488067e+00 5.574572661630310400e-01 5.625252474628077426e-01 5.955104107078389442e-01 4.625643983385072100e-01 5.029762559542232392e-01 5.126217794553462603e-01 9.915961126618401122e-01 7.282041303876224392e-01 -4.498944475627453254e-01 4.458125467161515587e-01 9.185199158699715039e-01 4.923627979877917005e-01 -5.421940832622918621e-03 5.217440230065806261e-01 1.225167892269267478e+00 -1.383968858725726225e-01 5.538357866116769834e-01 2.506277011539780331e-01 5.469726706214027567e-01 8.159072567053621272e-01 5.227985770499469220e-01 3.672551868388075902e-01 1.392013881403693976e+00 4.965760997966928159e-01 5.246537286959042090e-01 -6.239723081271424387e-01 4.584449071003118270e-01 1.043567462591014738e+00 5.889664205045571643e-01 9.918901653145706376e-02 9.509755161383168787e-01 -5.846798187599167723e-02 5.781393784485270304e-01 1.592933166672500844e+00 -8.513213017958933815e-01 5.389445456459822648e-01 5.151414259281539287e-01 -4.399183936484816759e-01 3.291918851915272004e-01 5.768523208289225712e-01 4.689938784428169249e-01 5.270074947763543349e-01 3.545351834071800989e-01 2.639202008066953709e-01 3.459417654193458480e-01 5.406619634464903124e-01 5.145347870425738268e-01 4.790012698678743075e-03 -7.021266002593931632e-02 4.985535029846080435e-01 1.059521360657987188e+00 4.121543069071204601e-01 -5.650847521875776991e-01 5.649764135813720722e-01 5.091315367392098556e-01 4.901762842000997877e-01 3.086436649144667921e-02 3.392296081557277243e-01 5.143230762646694432e-01 5.174874850124053793e-01 4.543085092336305308e-01 4.113159384359903192e-02 4.498422697439269924e-01 5.077394772174582682e-01 6.535341765859744578e-01 2.069096377708100842e+00 2.071394425643146783e-02 3.822977862381372050e-01 4.740293399533869745e-01 1.814095252605024911e+00 5.643182964809344559e-01 4.768930049760387591e-01 1.438466480303478463e-02 5.415515437613641625e-01 5.119535777710295665e-01 4.716950232576520574e-01 3.805543279604252649e-01 5.182791609567086732e-01 5.637671623353152084e-01 5.585514084538448776e-01 -5.114873531951635854e-01 5.163808293928353610e-01 5.272846381128577509e-01 4.973448783908557824e-01 9.977418250950685907e-01 5.193726553315287653e-01 -2.403763359852173209e-01 1.052989091006557132e+00 -1.230008022092039521e+00 -5.073834899818319144e-01 5.170794021833452492e-01 5.113258354523240179e-01 6.486836748041419076e-01 5.225742249978636567e-01 3.739427899627765783e-01 6.176101498570061299e-01 5.415515458409090321e-01 5.124313415082119016e-01 5.845077039415709219e-01 5.769755285148056023e-01 5.139877586574809198e-01 2.856113477056285710e-01 4.946202533333011742e-01 4.618157363051959563e-01 3.671477845536161855e-01 5.217710919760072397e-01 5.096592854797976635e-01 5.471309808912708794e-01 6.382349818277119891e-01 5.077383065064591250e-01 6.628065843194631546e-01 4.791075249283192616e-01 5.219831833111454600e-01 5.455563790780635358e-01 3.418576544341418999e-01 4.385633357492892404e-01 2.374289273076277684e+00 5.501813183285474418e-01 5.710988092535187466e-01 3.178799655313603312e-01 5.816920243974684768e-01 1.106488624473962012e+00 5.384586538514896104e-01 7.118366657319143975e-01 5.148640633247352216e-01
6.839894693589146923e-01 2.607109338067756243e-01 4.131673831482747805e-01 3.357353479058695217e-02 3.121912122636566478e-01 2.995445077696747282e-01 5.284112546191910287e-01 4.482446411396618369e-01 2.243857793515430243e-01 3.334667461138690614e-01 2.030704687735853220e+00 1.700148423374779005e+00 -1.419991001344768300e+00 6.233232788186384710e-01 3.170293319415126154e-01 3.996411152147337775e-01 1.287552044985988964e-01 4.252314625853382823e-01 4.464419666930023456e-01 3.212706172587300180e-01 4.712982867873388715e-01 2.087530891921887122e+00 3.990466995745437506e-01 3.707712828566279151e-01 7.119022779847190563e-01 -2.499336126886618215e-01 4.623795315898017178e-01 2.457810753724898045e-01 2.821965613296963382e-01 -8.465916462358531458e-01 2.504653585760498458e-01 -1.087064874126778269e-01 2.892435095564688252e-01 2.552205892232939921e-01 -4.276028383270527589e-01 4.406888804193934694e-01 3.047631592634915676e-01 -3.334253879551239974e-01 -3.185412658590662804e+00 3.330004555891336038e-01 1.119384607736890969e+00 1.396266978335788667e-01 -1.639718071570495928e-01 7.915949086909597199e-01 6.435770336800996638e-01 2.813697618582591820e-01 3.403335885481276885e-02 3.045327556259758151e-01 2.545667075174486427e-01 6.995589044916880050e-01 6.858745052215350357e-01 4.596591417897534226e-01 -2.647117658646232496e-01 2.007693497356043966e-01 6.051325551701419725e-01 6.710535632040345311e-01 3.551296751136986396e-01 2.697263257176198414e-01 3.476276663258481281e-01 3.483115018437655253e-01 4.236727112132882000e-01 3.656401827066184662e-01 3.082563917192330250e-01 3.990467152322809685e-01 -3.463229255985295074e-01 2.012774457615187085e-01 3.363391721423480973e-01 3.365157994098680327e-01 2.308892282576793520e-01 7.304676357468451453e-01 1.170960791514088634e-01 3.105257816815937266e-01 3.024822637999899366e-01 7.179811316384241415e-01 1.896707715039411601e+00 5.070423810579143264e-01 4.678967732961303860e-01 4.792417980658590926e-01 3.160983672262702715e-01 -1.320623183596631334e+00 2.981360966669028834e-01 6.314436636932331259e-01 2.267613188470877006e+00 1.183030763536170593e-01 2.802693025156787754e-01 -4.211534725532182777e-01 1.220400113205105941e-01 2.761235849571625489e-01 -5.709521108515572818e-01 -8.687627606098689004e-01 6.435103528453727240e-01 1.551646401141659526e+00 9.617929838791260122e-02 7.022275941744728911e-01 2.847060631312944845e-01 3.054591189519686445e-01 2.752319360284395389e-01 7.315403589127942308e-01 7.386696481627516020e-01 -2.540338659691446788e-01 -1.672622966858881843e-01 5.584050365437439462e-02 2.838722674059195872e-01 2.162196584219701623e-01 6.282589393608890155e-03 3.053830216270365217e+00 -2.793022088125350910e-01 9.339038725253411000e-02 1.817594147719351627e-01 8.074146686791147109e-01 2.323697356664289615e-01 4.217994288814656545e-01 1.689171736130052059e-01 4.706670301821771485e-01 -4.916491783985225128e-01 2.029788510077298880e-01 2.892740272550554659e-01 4.035789719695750954e-01 9.877335088466564494e-01 3.239991122083765163e-01 -1.432661536087261211e+00 2.513155891783535045e-01 1.989715470263373753e-01 1.313780755749988982e+00 3.033329459297219866e-01 2.139014376559547959e+00 1.872281370621518004e-01 3.680192657718119320e-01 2.945351403331449847e-01 3.260558531902548740e-01 2.700874555119406883e-01 3.153247708716269693e-01 6.734325147711915927e-01 4.060021185708544977e-01 1.814821231529507861e-01 8.787290150587954152e-01 6.989845530589933187e-01 7.246407099198010071e-01 -3.293415013840096939e-01 1.985260958843039214e-01 3.542232731321929839e-01 3.214107937152939076e-01 2.484105603958598751e-01 3.132599567440257915e-01 3.071018171484650172e-01 6.935109277473409106e-01 -1.220493131221689898e-01 3.185781395030528040e-01 4.499210281699795311e-01 3.956825935040127473e-01 -2.771816679394729088e-01 2.089918643249948083e-02 2.813726344345033326e-01 2.706835963417824065e-01 3.595074836030781595e-01 3.206323219922361800e-01 -2.258782212556097679e+00 4.468224655441003224e-01 -5.859900856596891305e-01 -2.533782307122186550e-01 3.282969191438880885e-01 2.106681181794159974e-01 3.357707911651998112e-01 3.182244591976005066e-01 1.102440276861139101e-01 6.361872338156342177e-02 3.142793539988567586e-01 4.127921365760984784e-01 2.727641886940777582e-01 3.619736905365860125e-01 1.817836291367193879e-01 3.606908289145134561e-02 2.813728739314877436e-01 3.176632008096620385e-01 -2.467572992822976374e+00 7.143271281992232824e-01 6.300333512327687124e-01 9.777196096614659826e-01 -4.529875711741087607e-01 1.168811827009420989e+00 -1.673008643401666107e-02 3.175513644886592823e-01 1.227997475589295062e+00 2.654852828396409570e-01 3.043409908173123068e-01 2.578525018088193010e-01 2.830208639784679292e-01 3.080047479883990524e-01 -4.603314618287704385e-01 3.526825191229592815e-01 2.140347074414570283e-01 8.037876384165920651e-01 3.072716757664636367e-01 2.350121900468676306e-01 2.241792191165063453e-01 3.051283366785766393e-01 -1.617174492291997723e+00 3.173417673910565173e-01 1.995812229943364768e-01 3.516313352254211155e-01 1.095339309399328831e-01 2.801747355233110137e-01 3.777021477960407769e-01 1.295370433771032004e-01 -7.996637053110632332e-01 1.995812086546484010e-01 4.522870253209914093e-01 -5.043592804693106668e-01 3.508304540869224830e-01 1.557871905127015399e-01 2.625687138509422702e-01 -3.191759565681666633e+00 4.400434127427890751e-01 9.360339352567834670e-01 3.224885893403602322e-01 3.115848230817163111e-01 3.154383086237678158e-01 3.081842200123645625e-01 3.051804251898129761e-01 3.185956344990768518e-01 3.252091968534791544e-01 1.727230077340908554e-01 6.583999125838818633e-01 1.359503246840642887e-01 5.227513585732469492e-01 4.517554939088635479e-01 3.831620740698222227e-01 -6.391410942358808356e-01 2.241776086583090688e+00 3.813657659157801971e-01 1.229008289088933115e+00 -1.378591740204218707e+00 3.128815262952966414e-01 2.052206479092473779e-01 3.485759495100285710e-01 1.147484411025319728e+00 4.821722125530621961e-01 7.941029873101976833e-01 2.788500363556217221e-01 6.704051076730227487e-01 3.265295751717069428e-01 2.859001700697933468e-01 -1.147566870762757318e+00 3.591543056282821555e-01 3.107991295279757815e-01 4.713764955834405246e-01 9.138158828324270955e-01 -3.408888747542346831e-01 3.083006948998774810e+00 4.687063766789932862e-01 1.220417212404109719e+00 -1.119616005924321256e-01 3.227217970863772156e-01 3.990468343080931235e-01 3.082498655629929973e-01 2.783462624869366686e-01 3.548044221028071044e-01 -9.386209208536171189e-02 1.524320401677254910e-01 5.608130742518225853e-01 2.835163192465959270e-01 9.135100638034282516e-02 2.681510039389830014e-01 3.432389210732218476e-01 4.236727432268420079e-01 2.684253748920722993e-01 3.168523518611690015e+00 3.807589349254179023e-01 6.555761542186133717e-01 5.434917008914342818e-01 2.954973719935808374e-01 4.231835450108345498e-01 3.079418783792383651e-01 2.597537456854531190e-01 3.157780993728085961e-01 -5.122142190228476943e-01 4.718940018699947503e-01 2.854938482492110352e-01 1.178478903795831950e-01 2.467802844774428794e-01 1.514272201751517111e+00 2.399814123846350233e-01 2.818963425831932379e-01 1.979682432612895671e+00 4.921460494197805735e-01 3.347773116466144505e-01 2.716678770070142801e-01 2.806362300264101384e-01 2.029788487035990296e-01 -2.043988334457018219e+00 2.816952489360705636e-01 1.476956924416862771e+00 6.285572356651801529e-05 2.612973834777865267e-01 7.115966594746157003e-01 2.562348799123052023e-01 -7.125971900347881638e-01 4.364502538235556228e-01 3.003871923872029059e-01 4.499434296048541726e-01 -3.788505911268732484e-01 3.285394115701452122e-01 -2.131614531816743430e+00 3.542964096632843229e-02 3.025353525521983222e-01 6.062213088992295384e-01 3.237358207410030997e-01 3.093180060877084303e-01 4.539865147311689109e-01 2.162156936436312460e-01 -1.228884331496130772e-01 -7.528375728778956555e-01 5.232072987302291076e-03 6.817268445267341548e-01 3.106667898174446663e-01 4.866388654083808607e-01 3.208704686221097169e-01 3.469851475315270661e-02 3.168392134465479182e-01 2.403042863474817548e+00 6.968662803262356542e-01 2.465729451036947351e-01 -1.133776372188339376e+00 2.192036188601922675e-01 4.585013100565308974e+00 3.271510164141870347e-01 -1.142326243164010907e-01 5.685419653518950511e-01 -5.475619457342034480e+00 5.024538072711354220e-01 1.517607803467704075e+00 3.182828685617747899e-01 5.411971392746490750e-01 -4.333868561859091639e-01 3.736830436241703746e-01 3.329284357633294222e-01 3.163018967880055765e-01 2.509210805464296978e-01 2.868756505000055856e+00 -3.630604325187416492e-01 2.732596070246189890e-01 -1.893379523050245039e+00 3.159127482364477713e-01 -3.334253921059665005e-01 7.405531518300035865e-01 5.505114142383994436e-01 3.388760084601681877e-01 3.316855216706874332e-01 1.285305160990755757e+00 1.362637862793814603e-01 1.995809751818479194e-01 3.591561011051032093e-01 1.295370435639055795e-01 2.585894741915507611e-01 3.974494173738553071e-01 -5.990086026099992189e-01 3.140048585402727688e-01 5.365614769940661999e-01 3.711289404329085051e-01 1.688633727866823142e-01 3.131554734402666185e-01 4.529594420938605204e-01 5.505114299510120990e-01 3.718076874782122454e-01 3.141730678196582027e-01 2.026577479454738095e-01 4.493586246260375949e-01 3.322010106551655628e+00 3.219484380284455827e-01 1.636302159070190387e-01 4.236737764787580907e-01 8.534835673028302594e-01 4.637221060452607624e-01 -1.908469887619002880e-01 6.900624154656279652e-01 2.449988854654316928e-01 1.129019239155232418e-01 3.910063784768951778e-01 6.539149113735845953e-01 6.532984143970806956e-01 7.733884899599825502e-01 8.073337092338980225e-01 3.841533414795587631e-01 1.295370432707589892e-01 1.295369947574937786e-01 3.178139162344098545e-01 1.171558872324735129e-01 1.120058423779511925e+00 4.131217545094937882e-01 3.149035379497601150e-01 3.710192637240832259e-01 3.185517257012883685e-01 7.832967076875386736e-01 1.995809690651898782e-01 3.137063066351923890e-01 4.394270513028352698e-01 2.961326703979750841e-01 -6.301064247973338084e-01 3.240643727310492106e-01 3.242695832656123933e-01 3.629027197287883477e-01 7.022009435724205773e-01 7.416735366634845672e-01 1.295370430266223061e-01 4.700303820839984992e-02 3.154627032827539979e-01 4.352150210682144693e-01 -5.894051496344813179e-01 2.098417095675943478e-01 -3.446651620843283137e+00 1.907803748708102987e+00 6.256001914636899475e-01 -4.405440704156560194e-01 3.345184403752039098e-02 2.025282072678113110e+00 3.131293978861190985e-01 6.314830207020803998e-01 4.309008516291915752e-02 2.952718384063515722e-01 4.551280399322530923e-01 3.057983558053780637e-01 -4.203135033116322528e-01 2.508552927489935414e-01 2.025747466201099911e+00 3.522154622208701347e-01 -3.983955685185094908e-01 2.830030542548606642e-01 3.039991012584739583e-01 -1.442602261453225676e+00 2.982533719055957544e-01 3.369005559095043512e-01 4.027530525904093883e-01 2.102199725781297157e-01 3.155057312120665425e-01 2.321386782645817604e-01 3.109335333318379857e-01 -1.602094850380198221e-01 3.232430594865982054e-01 1.359422840945085087e-01 3.366228386306650000e-01 2.771324079367719628e-01 2.465069556557629438e-02 4.405403261097683432e-01 6.191476450983073310e-01 -1.353723382942328302e+00 -4.981605660396158375e-01 -1.051519773642282524e-01 5.394701921324039640e-02 3.004416991503896517e-01 4.250447577400317534e-01 3.625318172458725230e-01 7.230253053313453471e-01 -1.029628487700868927e-01 3.275155448211262699e-01 3.005417165808708102e-01 9.196698202957809265e-02 -1.602248520904362150e-01 3.080918697614036805e-01 4.379393775461667415e-01 4.787440747021369236e-01 3.042191540573616071e-01 2.714159420228990371e-01 3.169602457468280177e-01 2.598899247956865111e-01 3.187672590614359369e-01 5.133940322303557346e-01 4.305907885895067788e-01 3.174823756154259158e-01 6.894133415619959626e-01 3.137148719625106330e-01 7.203162996808872842e-01 9.615425401299917962e-02 4.898266445334883423e-01 2.192587758054842517e-01 -1.432368037929880211e+00 2.931781242974119683e-01 6.432699213867545396e-01 3.875382574629216981e-01 2.585772160253283491e-01 2.904994547817046358e-01 2.715659686568142051e-01 6.989050492245427737e-01 3.172892859581157299e-01 3.678360453515250872e-01 3.162296229836623063e-01 2.918045405360349398e-01 2.181337065418310350e-01 5.239585204213658143e-01 2.892574016735660059e-01 2.660698911314927639e-01 1.864531496293576895e-01 4.275747300295133779e-02 1.609586377425586967e+00 3.105984528549884938e-01 3.735240029857821997e-01 3.740908965124246088e-01 -8.227738629238667833e-01 4.284367752183912970e-01 3.342029936494845255e-01 5.154059132001700405e-01 5.181059780659342737e-04 3.308252774342345104e-01 1.508655220888437398e+00 8.860802139482120143e-01 3.958849512980311958e-01 2.669182010047599363e-01 3.852508707977818636e-01 3.247341619363118825e-01 9.091687926944953535e-01 2.985876111939093747e+00 3.106300796498477346e-01 5.666478197653979781e-02 5.951157991661423230e-01 -1.683960016137270310e-01 3.150115613857506491e-01 3.180215650462591692e-01 1.054269249625776839e+00 3.131529657253648846e-01 -3.082526545074847357e-01 3.703777648998208827e-01 1.155253047607838895e-01 6.600568160350260838e-01 1.690659512867322523e+00 3.686778538010737072e-01 2.389687711597561492e-01 1.644533359135843975e+00 4.130234975460606028e-01 2.990685933402976726e-01 2.606435722053324078e-01 3.444495828788893266e-01 3.385487367186210128e-02 4.451339980552838638e-01 2.352757232148030286e-01 7.244372795038686030e-01 2.832864302797192813e-01 3.256516921897208983e-01 2.994433822738337136e-01 4.597129958201668920e-01 2.724841562546675422e-01 2.529117958624003681e-01 9.208397306875486521e-01 5.020661207263154013e-01 3.996847679306052559e-01 2.871719493873803319e-01 3.087365331472921026e-01 3.076325854268129878e-01 5.835012228895657405e-01 7.654613988516688616e-01 3.247587203680766810e-01 2.788047854369181677e-01 4.237356073575636040e-01 3.199770437788532207e-01 7.419785951864362739e-01 2.109972747609040189e-01 4.403655201402410513e-01 -3.171397978403177609e-01 3.131017589799120482e-01 2.488390959916413347e-01 4.092040996564927369e-01 3.445929802286948895e-01 2.282080396955967483e-01 1.747493605829958607e+00 1.265468085389981345e-01 2.782258484179183644e-01 -1.507285395346334433e-01 1.601387607742441821e+00 1.138224141455145944e+00 7.006810208776263760e-02 -4.626635116960622907e-01 3.600977125563216696e-01 3.575379392339659845e-01 5.155585238539847071e-01 3.157758909987930518e-01 3.147521624170950272e-01 1.957039957007705999e-01 3.398996618982556006e-01 3.694750378421022274e-01 3.327141557243544490e-02 -1.754852787812461734e-01 3.851282054344684069e-01 3.533161030013304282e-01 1.964034685721883222e-01 8.571992209352222725e-01 4.236727268588357798e-01 2.225675248871519796e-01 8.250699283999655131e-01 4.762404559375738589e-01 6.432793737598101469e-01 4.386062310094954730e-01 6.858374180317430291e-01 1.458817451106130036e+00 3.029406305056714377e-01 2.038879685875953474e+00 -1.601792676070230154e-02 1.342207445130277343e-01 3.120107008582556074e-01 2.846485324335722988e-01 3.211060740533395186e-01 3.619632524953205199e-01 3.288015798723403771e-01 3.128632065986048372e-01 3.538943658222539201e-01 1.817007654722710697e-01 -2.831607670655001963e-01 2.744481629911161846e-01 -7.782872335237546457e-02 2.704757000801453759e-01 4.499892440072654765e-01 4.236727268548051151e-01 1.995259565551459335e-01 2.281097225300380005e-01 -1.191078723375370796e+00 1.926017467474448130e+00 3.154706879421797505e-01 -6.941457101477587210e-01 2.979440404241362472e-01 3.134601096235424822e-01 3.186372761206044402e-01 -4.674266804396626895e+00 3.468975941061700929e+00 6.191718516142670214e-01 1.031752471060039256e-01 3.271453637375358880e-01 3.150324724172398061e-01 3.160121149262659634e-01 2.568944952301269513e+00 6.148678525444439824e-01 3.204344810543474087e-01 2.029788469931921302e-01 2.458455813873436924e-01 2.755176210594087460e-01 8.739295345354529676e-01 -3.789162643916357265e-01 -1.140734788783626552e+00 -1.185311528835338635e+00 3.160238533436882657e-01 3.144986053309831719e-01 7.056425621242810031e-01 3.393506934105297024e-01 1.279621330138166035e+00 4.630367088243777518e-01 3.215551799232503338e-01 3.000822623104203446e-01 3.088483544701821626e-01 2.744133263801407097e-01 2.728702339527928067e-01 6.521439477611092883e-01 2.799002385097562606e-01 6.405876457404920954e-01 2.160950060859470057e-01 2.180257319053682460e-02 2.729122876349546201e-01 2.065481021998028521e-01 3.399511779317773152e-01 3.397885682944462027e-01 6.969946614088959880e-01 5.505114366690117000e-01 4.701791807446290550e-01 3.893817498969533442e-01 3.183302040128487831e-01 2.550880518524754059e-01 1.508660821335197522e+00 1.826668933664131966e+00 2.722812670208386576e-01 3.494194405697402805e-01 3.075333558078993668e-01 1.740659178148884489e-01 2.378211138917871448e-01 2.062953922241241578e-01 3.341565460412513899e-01 3.205985380603326718e-01 7.887314456298275545e-01 8.650435636579860699e-01 2.482057771942371982e-01 1.834138706401021279e+00 1.924617601706065939e-01 -1.546460156046174650e-01 -2.712327000766149854e-01 -3.230650360070094207e-01 3.142165534431998197e-01 2.825405298845421465e-01 7.049875870299999736e-01 3.254812168251982607e-01 4.533001716055368724e-01 3.183188892837782169e-01 3.781035432241006133e-01 4.065564352938955683e-01 4.134279849097527437e-02 1.022543656707288973e+00 3.050067402458142563e-01 4.840015264551251195e-01 3.113935834345433196e-01 3.636237951964194637e-01 3.066437439713073365e-01 3.869283389713191745e-01 -1.182111289869200166e-01 2.234654377038217676e-01 3.075208004829160791e-01 3.421533556270085069e-02 4.236724147834836640e-01 1.119132713750968788e+00 9.430339246482273285e-01 -7.380557641890755916e-01 -3.334253879842991042e-01 6.417472582754643051e-01 -3.253169788849662680e+00 1.553605045630215509e+00 2.710339994136109487e-01 3.324342766607552013e-02 3.119014561272303032e-01 8.697766072085585387e-01 3.174713779303485750e-01 3.591543806267505912e-01 -4.355508556431622047e-01 8.289444174021470824e-01 2.603324267535100378e-01 8.875558722645077170e-01 2.057492748423365381e+00 -3.791065319674405409e-01 -1.427656451409387461e+00 2.804129294364740566e-01 2.573534010620681656e-01 7.781083815660383429e-01 3.019799143551753495e-01 6.995723235117031757e-01 4.690123162376448884e-01 1.499338434146486043e-01 3.114673641344923860e-01 3.413046250072296894e-01 2.185861653611281541e-01 3.554752117323284888e-01 1.376421101349031284e+00 1.585733695988520875e+00 3.178351747039597774e-01 2.513423844147373853e-01 3.738398720786868801e-02 -2.351072855390152205e-01 1.996353213851971287e-01 1.266931893566143261e-02 3.226058086690224980e-01 7.059082168313621786e-01 -4.214258497381112578e-01 2.932831068569372590e-01 3.460599261019859374e-01 1.576148562130228470e-01 3.014635027877985429e-01 2.705066428577510007e-01 3.206504888434161260e-01 3.160139619853566950e-01 -2.594775484747499986e-02 2.494118715073841697e-01 4.415293028707460432e-01 1.102334293501155082e+00 1.096858678550269195e+00 9.386554259661122890e-01 1.948962806679266635e-01 7.680452367565950844e-01 1.238912855088171588e-01 4.565370931094018814e-01 -2.056456687142248718e+00 2.844428994182414683e-01 6.504422352055236889e-01 2.716458398944279207e-01 9.581512926308349831e-01 1.354121835014567399e+00 2.029788503349258255e-01 2.931179860377324253e-01 3.721502804022612243e-01 2.332353730540371872e-01 5.562464354359651919e-01 8.089096065788671241e-01 -7.476192683414147888e-01 1.473171007909570285e-01 1.240101978876980288e-01 2.972603638863158260e-01 3.436171174129866723e-01 7.696069283240000169e-01 -1.589421641044076738e-01 3.880843934806736395e-01 3.077586132917850548e-01 2.736826170753715592e-01 8.863624600713534418e-01 4.221418101316153915e-01 -2.039403034947906979e-01 8.593855541894803718e-01 -4.458388329391840821e-02 5.730959033350664367e-01 2.824805472281505248e-01 1.272871702576164665e+00 5.448431676192730944e-01 7.222884035532599611e-01 4.363608138967262629e-01 4.795712823549436177e-01 -5.151537363814121528e-01 2.874755826867426145e-01 7.636198201964238264e-01 3.203632526799115032e-01 6.438977305026715170e-01 3.135996024713724184e-01 3.109634697147158344e-01 7.323327090490138191e-01 1.240813965832165272e-01 -2.016103741688335393e+00 2.860299499893526054e-01 2.803761400560603745e-01 7.457804587690949338e-01 3.964135315275200133e-01 3.967833786239667315e-01 2.662194919354157197e-01 2.447779108466258680e-01 3.653761893669605354e-01 2.899374444722846444e-02 -1.606960837089936422e+00 7.434906499083242526e-01 2.643482185400025664e-01 3.099591063680749436e-01 1.887060524530797534e-01 8.239366929458920019e-01 3.196327868012188156e-01 -1.294612349493119985e-01 3.151274374210720763e-01 1.114282230909322546e+00 2.981911845508730119e-01 4.145681888935572879e-01 1.064507581966034566e+00 3.235855729470046849e-01 2.709332659044711988e+00 2.864472772187389715e-01 2.979125689767121443e-01 6.884323575707599341e-01 3.075298906000925037e-01 2.900197690638967041e-01 -2.019946029130457621e+00 3.810703794659730526e-01 3.045200943704096108e-01 5.121304982722842958e-01 3.073294857783796519e-01 3.074384956567947635e-01 -2.452068295223050753e-01 2.018101313732452606e+00 -5.204607383713145685e-01 8.279207192097629564e-01 3.163019644047387890e-01 3.791803614768117225e-01 7.600842373405770624e-01 3.563873719473260038e-01 1.315157959056986181e+00 1.626795192655269007e-01 2.965518100021442005e-01 -8.777340921726607403e-01 -1.289994171853967309e-01 -2.816608659298194817e-01 -3.819886832374373764e+00 2.894268764641493963e+00 7.169578811544288777e-02 3.181765956777189985e-01 -1.583618187091497376e+00 3.209254901750697719e-01 2.134744718573732269e-01 3.324045246464463199e-01 1.377106779210581777e-01 6.377257183508546756e-01 5.921800661102001317e-01 9.869016256641289786e-01 -3.334253881564629984e-01 -2.136789128908655466e-01 2.089327662947708109e-01 -1.172856055896033034e+00 2.823689906283290973e-01 -6.299139888886888805e-01 3.236732419699593910e-01 4.792123986723168527e-01 4.481641522310229886e-02 4.212295234759592666e-01 2.730259368951352683e-01 -1.037200182119834835e-01 2.034079202712674728e-01 3.030936891706721426e-01 3.505656793778231251e-01 3.139123537392581320e-01 3.178656484653009651e-01 -7.378156956068508965e-01 5.715472844108491213e-01 1.526175201654951907e+00 5.565886548393157718e-02 2.418805612466977395e-01 4.118519868246477422e-01 1.214129760249280654e+00 3.004722280988004202e-01 1.577887525142423197e-01 8.968782555528808098e-01 3.224075367606996645e-01 1.829783481611868101e+00 3.827541988732636735e-01 1.189751102362725188e+00 3.000040078954982481e-01 7.369304273395604898e-01 1.341464985697660373e+00 2.939875497756112011e-01 4.038716734319334756e-01 9.068619585369055436e-01 -1.856122830774074028e-01 -4.927019621126844245e-02 1.581662984529903226e-01 2.959318964267541596e-01 3.454144029115935877e-01 1.414520223217296258e-01 2.356518195180743735e-01 -3.487716704611498741e-01 1.292513170083748220e+00 2.612843968650836457e-01 3.155124563748710198e-01 -3.093858482526515186e+00 4.866434883453814031e-01 3.731477635888127420e-01 4.615223527615018861e-01 4.353978314263855509e-01 5.023274342200044762e-01 -1.039317947498528349e+00 5.948207119503182705e-01 2.635209606818073036e-01 3.173595675585689779e-01 1.043466474993336224e+00 4.451793508133491395e-01 3.300469481472971256e-01 -1.381729678616547830e+00 4.516775720695331287e-01 8.865142030215129587e-01 2.996857659535365204e-01 3.233135897137293102e-01 3.225899762348619637e-01 6.971871150324757682e-01 -8.373163329834366897e-02 3.127597113311898491e-01 3.091041600082169438e-01 6.909579295670072174e-02 7.048171405543556256e-01 3.598180777048332613e-01 7.376378445414053520e-01 1.753627603279399594e-01 6.848203336089059290e-01 -2.084862836632502547e-01 -1.500655178550360347e+00 3.482235019251408992e-01 -1.485145379743221285e-02 3.121333261410065285e-01 3.294769762848278605e-01 5.591205818384653581e-02 5.505114260479772037e-01 3.139798267031274071e-01 8.720434174125474280e-02 4.582414828061046608e-01 2.805042382155049085e-01 3.144027538409297495e-01 2.695609201731963278e-01 -8.057297080051234461e-01 2.991824732600129599e-01 3.550366450639982352e-01 3.030284433168069502e-01 -1.016225369603151740e-01 3.149589728571930425e-01 7.945966852483269394e-01 -4.931092619067277694e-01 1.089561294496744326e+00 6.017839185603336416e-01 2.852557567243251824e-01 3.177972404816714613e-01 -2.017889903866342927e+00 2.998983772265754744e-01 1.807012496226653442e-01 2.312604627150596504e-01 5.505114402981536870e-01 3.157505897200688083e-01 2.614658648958037568e-01 1.174164425004722706e-01 3.164281979487206797e-01 4.357598073946290507e-01 4.204204746949488647e-01 3.864446728774750262e-01 3.024586599652360208e-01 3.124316058714753375e-01 3.273985962408103023e-01 2.774419794101989356e-01 1.746614143463228949e-02 3.172015161957842944e-01 5.877504499740828781e-01 2.223714977154175598e-01 3.235803200795058232e-01 -1.209836308313403386e-01 1.291039466456883056e-01 5.002192940979293123e-01 4.340134071632572699e+00 2.763161963020197565e-01 1.339461300233190377e-01 5.201518321585592020e-01 2.164939127158046206e-01 1.530452010140561203e+00 3.313233420487272651e-01 6.603971425581792731e-01 3.182118341617173329e-01
