# 
#                 ----------------------------------------------------
#                 Data from a 3D direct N-body simulation. 
# 
#                 rows are i-particle; 
#                 coumns are :mass, tag, x ,y, z, vx, vy, vz, ax, ay, az
# 
#                 NTHU, Computational Physics 
# 
#                 ----------------------------------------------------
#                 Time = 0.0
0.000000000000000000e+00 1.000000000000000000e+00 2.000000000000000000e+00 3.000000000000000000e+00 4.000000000000000000e+00 5.000000000000000000e+00 6.000000000000000000e+00 7.000000000000000000e+00 8.000000000000000000e+00 9.000000000000000000e+00 1.000000000000000000e+01 1.100000000000000000e+01 1.200000000000000000e+01 1.300000000000000000e+01 1.400000000000000000e+01 1.500000000000000000e+01 1.600000000000000000e+01 1.700000000000000000e+01 1.800000000000000000e+01 1.900000000000000000e+01 2.000000000000000000e+01 2.100000000000000000e+01 2.200000000000000000e+01 2.300000000000000000e+01 2.400000000000000000e+01 2.500000000000000000e+01 2.600000000000000000e+01 2.700000000000000000e+01 2.800000000000000000e+01 2.900000000000000000e+01 3.000000000000000000e+01 3.100000000000000000e+01 3.200000000000000000e+01 3.300000000000000000e+01 3.400000000000000000e+01 3.500000000000000000e+01 3.600000000000000000e+01 3.700000000000000000e+01 3.800000000000000000e+01 3.900000000000000000e+01 4.000000000000000000e+01 4.100000000000000000e+01 4.200000000000000000e+01 4.300000000000000000e+01 4.400000000000000000e+01 4.500000000000000000e+01 4.600000000000000000e+01 4.700000000000000000e+01 4.800000000000000000e+01 4.900000000000000000e+01 5.000000000000000000e+01 5.100000000000000000e+01 5.200000000000000000e+01 5.300000000000000000e+01 5.400000000000000000e+01 5.500000000000000000e+01 5.600000000000000000e+01 5.700000000000000000e+01 5.800000000000000000e+01 5.900000000000000000e+01 6.000000000000000000e+01 6.100000000000000000e+01 6.200000000000000000e+01 6.300000000000000000e+01 6.400000000000000000e+01 6.500000000000000000e+01 6.600000000000000000e+01 6.700000000000000000e+01 6.800000000000000000e+01 6.900000000000000000e+01 7.000000000000000000e+01 7.100000000000000000e+01 7.200000000000000000e+01 7.300000000000000000e+01 7.400000000000000000e+01 7.500000000000000000e+01 7.600000000000000000e+01 7.700000000000000000e+01 7.800000000000000000e+01 7.900000000000000000e+01 8.000000000000000000e+01 8.100000000000000000e+01 8.200000000000000000e+01 8.300000000000000000e+01 8.400000000000000000e+01 8.500000000000000000e+01 8.600000000000000000e+01 8.700000000000000000e+01 8.800000000000000000e+01 8.900000000000000000e+01 9.000000000000000000e+01 9.100000000000000000e+01 9.200000000000000000e+01 9.300000000000000000e+01 9.400000000000000000e+01 9.500000000000000000e+01 9.600000000000000000e+01 9.700000000000000000e+01 9.800000000000000000e+01 9.900000000000000000e+01 1.000000000000000000e+02 1.010000000000000000e+02 1.020000000000000000e+02 1.030000000000000000e+02 1.040000000000000000e+02 1.050000000000000000e+02 1.060000000000000000e+02 1.070000000000000000e+02 1.080000000000000000e+02 1.090000000000000000e+02 1.100000000000000000e+02 1.110000000000000000e+02 1.120000000000000000e+02 1.130000000000000000e+02 1.140000000000000000e+02 1.150000000000000000e+02 1.160000000000000000e+02 1.170000000000000000e+02 1.180000000000000000e+02 1.190000000000000000e+02 1.200000000000000000e+02 1.210000000000000000e+02 1.220000000000000000e+02 1.230000000000000000e+02 1.240000000000000000e+02 1.250000000000000000e+02 1.260000000000000000e+02 1.270000000000000000e+02 1.280000000000000000e+02 1.290000000000000000e+02 1.300000000000000000e+02 1.310000000000000000e+02 1.320000000000000000e+02 1.330000000000000000e+02 1.340000000000000000e+02 1.350000000000000000e+02 1.360000000000000000e+02 1.370000000000000000e+02 1.380000000000000000e+02 1.390000000000000000e+02 1.400000000000000000e+02 1.410000000000000000e+02 1.420000000000000000e+02 1.430000000000000000e+02 1.440000000000000000e+02 1.450000000000000000e+02 1.460000000000000000e+02 1.470000000000000000e+02 1.480000000000000000e+02 1.490000000000000000e+02 1.500000000000000000e+02 1.510000000000000000e+02 1.520000000000000000e+02 1.530000000000000000e+02 1.540000000000000000e+02 1.550000000000000000e+02 1.560000000000000000e+02 1.570000000000000000e+02 1.580000000000000000e+02 1.590000000000000000e+02 1.600000000000000000e+02 1.610000000000000000e+02 1.620000000000000000e+02 1.630000000000000000e+02 1.640000000000000000e+02 1.650000000000000000e+02 1.660000000000000000e+02 1.670000000000000000e+02 1.680000000000000000e+02 1.690000000000000000e+02 1.700000000000000000e+02 1.710000000000000000e+02 1.720000000000000000e+02 1.730000000000000000e+02 1.740000000000000000e+02 1.750000000000000000e+02 1.760000000000000000e+02 1.770000000000000000e+02 1.780000000000000000e+02 1.790000000000000000e+02 1.800000000000000000e+02 1.810000000000000000e+02 1.820000000000000000e+02 1.830000000000000000e+02 1.840000000000000000e+02 1.850000000000000000e+02 1.860000000000000000e+02 1.870000000000000000e+02 1.880000000000000000e+02 1.890000000000000000e+02 1.900000000000000000e+02 1.910000000000000000e+02 1.920000000000000000e+02 1.930000000000000000e+02 1.940000000000000000e+02 1.950000000000000000e+02 1.960000000000000000e+02 1.970000000000000000e+02 1.980000000000000000e+02 1.990000000000000000e+02 2.000000000000000000e+02 2.010000000000000000e+02 2.020000000000000000e+02 2.030000000000000000e+02 2.040000000000000000e+02 2.050000000000000000e+02 2.060000000000000000e+02 2.070000000000000000e+02 2.080000000000000000e+02 2.090000000000000000e+02 2.100000000000000000e+02 2.110000000000000000e+02 2.120000000000000000e+02 2.130000000000000000e+02 2.140000000000000000e+02 2.150000000000000000e+02 2.160000000000000000e+02 2.170000000000000000e+02 2.180000000000000000e+02 2.190000000000000000e+02 2.200000000000000000e+02 2.210000000000000000e+02 2.220000000000000000e+02 2.230000000000000000e+02 2.240000000000000000e+02 2.250000000000000000e+02 2.260000000000000000e+02 2.270000000000000000e+02 2.280000000000000000e+02 2.290000000000000000e+02 2.300000000000000000e+02 2.310000000000000000e+02 2.320000000000000000e+02 2.330000000000000000e+02 2.340000000000000000e+02 2.350000000000000000e+02 2.360000000000000000e+02 2.370000000000000000e+02 2.380000000000000000e+02 2.390000000000000000e+02 2.400000000000000000e+02 2.410000000000000000e+02 2.420000000000000000e+02 2.430000000000000000e+02 2.440000000000000000e+02 2.450000000000000000e+02 2.460000000000000000e+02 2.470000000000000000e+02 2.480000000000000000e+02 2.490000000000000000e+02 2.500000000000000000e+02 2.510000000000000000e+02 2.520000000000000000e+02 2.530000000000000000e+02 2.540000000000000000e+02 2.550000000000000000e+02 2.560000000000000000e+02 2.570000000000000000e+02 2.580000000000000000e+02 2.590000000000000000e+02 2.600000000000000000e+02 2.610000000000000000e+02 2.620000000000000000e+02 2.630000000000000000e+02 2.640000000000000000e+02 2.650000000000000000e+02 2.660000000000000000e+02 2.670000000000000000e+02 2.680000000000000000e+02 2.690000000000000000e+02 2.700000000000000000e+02 2.710000000000000000e+02 2.720000000000000000e+02 2.730000000000000000e+02 2.740000000000000000e+02 2.750000000000000000e+02 2.760000000000000000e+02 2.770000000000000000e+02 2.780000000000000000e+02 2.790000000000000000e+02 2.800000000000000000e+02 2.810000000000000000e+02 2.820000000000000000e+02 2.830000000000000000e+02 2.840000000000000000e+02 2.850000000000000000e+02 2.860000000000000000e+02 2.870000000000000000e+02 2.880000000000000000e+02 2.890000000000000000e+02 2.900000000000000000e+02 2.910000000000000000e+02 2.920000000000000000e+02 2.930000000000000000e+02 2.940000000000000000e+02 2.950000000000000000e+02 2.960000000000000000e+02 2.970000000000000000e+02 2.980000000000000000e+02 2.990000000000000000e+02 3.000000000000000000e+02 3.010000000000000000e+02 3.020000000000000000e+02 3.030000000000000000e+02 3.040000000000000000e+02 3.050000000000000000e+02 3.060000000000000000e+02 3.070000000000000000e+02 3.080000000000000000e+02 3.090000000000000000e+02 3.100000000000000000e+02 3.110000000000000000e+02 3.120000000000000000e+02 3.130000000000000000e+02 3.140000000000000000e+02 3.150000000000000000e+02 3.160000000000000000e+02 3.170000000000000000e+02 3.180000000000000000e+02 3.190000000000000000e+02 3.200000000000000000e+02 3.210000000000000000e+02 3.220000000000000000e+02 3.230000000000000000e+02 3.240000000000000000e+02 3.250000000000000000e+02 3.260000000000000000e+02 3.270000000000000000e+02 3.280000000000000000e+02 3.290000000000000000e+02 3.300000000000000000e+02 3.310000000000000000e+02 3.320000000000000000e+02 3.330000000000000000e+02 3.340000000000000000e+02 3.350000000000000000e+02 3.360000000000000000e+02 3.370000000000000000e+02 3.380000000000000000e+02 3.390000000000000000e+02 3.400000000000000000e+02 3.410000000000000000e+02 3.420000000000000000e+02 3.430000000000000000e+02 3.440000000000000000e+02 3.450000000000000000e+02 3.460000000000000000e+02 3.470000000000000000e+02 3.480000000000000000e+02 3.490000000000000000e+02 3.500000000000000000e+02 3.510000000000000000e+02 3.520000000000000000e+02 3.530000000000000000e+02 3.540000000000000000e+02 3.550000000000000000e+02 3.560000000000000000e+02 3.570000000000000000e+02 3.580000000000000000e+02 3.590000000000000000e+02 3.600000000000000000e+02 3.610000000000000000e+02 3.620000000000000000e+02 3.630000000000000000e+02 3.640000000000000000e+02 3.650000000000000000e+02 3.660000000000000000e+02 3.670000000000000000e+02 3.680000000000000000e+02 3.690000000000000000e+02 3.700000000000000000e+02 3.710000000000000000e+02 3.720000000000000000e+02 3.730000000000000000e+02 3.740000000000000000e+02 3.750000000000000000e+02 3.760000000000000000e+02 3.770000000000000000e+02 3.780000000000000000e+02 3.790000000000000000e+02 3.800000000000000000e+02 3.810000000000000000e+02 3.820000000000000000e+02 3.830000000000000000e+02 3.840000000000000000e+02 3.850000000000000000e+02 3.860000000000000000e+02 3.870000000000000000e+02 3.880000000000000000e+02 3.890000000000000000e+02 3.900000000000000000e+02 3.910000000000000000e+02 3.920000000000000000e+02 3.930000000000000000e+02 3.940000000000000000e+02 3.950000000000000000e+02 3.960000000000000000e+02 3.970000000000000000e+02 3.980000000000000000e+02 3.990000000000000000e+02 4.000000000000000000e+02 4.010000000000000000e+02 4.020000000000000000e+02 4.030000000000000000e+02 4.040000000000000000e+02 4.050000000000000000e+02 4.060000000000000000e+02 4.070000000000000000e+02 4.080000000000000000e+02 4.090000000000000000e+02 4.100000000000000000e+02 4.110000000000000000e+02 4.120000000000000000e+02 4.130000000000000000e+02 4.140000000000000000e+02 4.150000000000000000e+02 4.160000000000000000e+02 4.170000000000000000e+02 4.180000000000000000e+02 4.190000000000000000e+02 4.200000000000000000e+02 4.210000000000000000e+02 4.220000000000000000e+02 4.230000000000000000e+02 4.240000000000000000e+02 4.250000000000000000e+02 4.260000000000000000e+02 4.270000000000000000e+02 4.280000000000000000e+02 4.290000000000000000e+02 4.300000000000000000e+02 4.310000000000000000e+02 4.320000000000000000e+02 4.330000000000000000e+02 4.340000000000000000e+02 4.350000000000000000e+02 4.360000000000000000e+02 4.370000000000000000e+02 4.380000000000000000e+02 4.390000000000000000e+02 4.400000000000000000e+02 4.410000000000000000e+02 4.420000000000000000e+02 4.430000000000000000e+02 4.440000000000000000e+02 4.450000000000000000e+02 4.460000000000000000e+02 4.470000000000000000e+02 4.480000000000000000e+02 4.490000000000000000e+02 4.500000000000000000e+02 4.510000000000000000e+02 4.520000000000000000e+02 4.530000000000000000e+02 4.540000000000000000e+02 4.550000000000000000e+02 4.560000000000000000e+02 4.570000000000000000e+02 4.580000000000000000e+02 4.590000000000000000e+02 4.600000000000000000e+02 4.610000000000000000e+02 4.620000000000000000e+02 4.630000000000000000e+02 4.640000000000000000e+02 4.650000000000000000e+02 4.660000000000000000e+02 4.670000000000000000e+02 4.680000000000000000e+02 4.690000000000000000e+02 4.700000000000000000e+02 4.710000000000000000e+02 4.720000000000000000e+02 4.730000000000000000e+02 4.740000000000000000e+02 4.750000000000000000e+02 4.760000000000000000e+02 4.770000000000000000e+02 4.780000000000000000e+02 4.790000000000000000e+02 4.800000000000000000e+02 4.810000000000000000e+02 4.820000000000000000e+02 4.830000000000000000e+02 4.840000000000000000e+02 4.850000000000000000e+02 4.860000000000000000e+02 4.870000000000000000e+02 4.880000000000000000e+02 4.890000000000000000e+02 4.900000000000000000e+02 4.910000000000000000e+02 4.920000000000000000e+02 4.930000000000000000e+02 4.940000000000000000e+02 4.950000000000000000e+02 4.960000000000000000e+02 4.970000000000000000e+02 4.980000000000000000e+02 4.990000000000000000e+02 5.000000000000000000e+02 5.010000000000000000e+02 5.020000000000000000e+02 5.030000000000000000e+02 5.040000000000000000e+02 5.050000000000000000e+02 5.060000000000000000e+02 5.070000000000000000e+02 5.080000000000000000e+02 5.090000000000000000e+02 5.100000000000000000e+02 5.110000000000000000e+02 5.120000000000000000e+02 5.130000000000000000e+02 5.140000000000000000e+02 5.150000000000000000e+02 5.160000000000000000e+02 5.170000000000000000e+02 5.180000000000000000e+02 5.190000000000000000e+02 5.200000000000000000e+02 5.210000000000000000e+02 5.220000000000000000e+02 5.230000000000000000e+02 5.240000000000000000e+02 5.250000000000000000e+02 5.260000000000000000e+02 5.270000000000000000e+02 5.280000000000000000e+02 5.290000000000000000e+02 5.300000000000000000e+02 5.310000000000000000e+02 5.320000000000000000e+02 5.330000000000000000e+02 5.340000000000000000e+02 5.350000000000000000e+02 5.360000000000000000e+02 5.370000000000000000e+02 5.380000000000000000e+02 5.390000000000000000e+02 5.400000000000000000e+02 5.410000000000000000e+02 5.420000000000000000e+02 5.430000000000000000e+02 5.440000000000000000e+02 5.450000000000000000e+02 5.460000000000000000e+02 5.470000000000000000e+02 5.480000000000000000e+02 5.490000000000000000e+02 5.500000000000000000e+02 5.510000000000000000e+02 5.520000000000000000e+02 5.530000000000000000e+02 5.540000000000000000e+02 5.550000000000000000e+02 5.560000000000000000e+02 5.570000000000000000e+02 5.580000000000000000e+02 5.590000000000000000e+02 5.600000000000000000e+02 5.610000000000000000e+02 5.620000000000000000e+02 5.630000000000000000e+02 5.640000000000000000e+02 5.650000000000000000e+02 5.660000000000000000e+02 5.670000000000000000e+02 5.680000000000000000e+02 5.690000000000000000e+02 5.700000000000000000e+02 5.710000000000000000e+02 5.720000000000000000e+02 5.730000000000000000e+02 5.740000000000000000e+02 5.750000000000000000e+02 5.760000000000000000e+02 5.770000000000000000e+02 5.780000000000000000e+02 5.790000000000000000e+02 5.800000000000000000e+02 5.810000000000000000e+02 5.820000000000000000e+02 5.830000000000000000e+02 5.840000000000000000e+02 5.850000000000000000e+02 5.860000000000000000e+02 5.870000000000000000e+02 5.880000000000000000e+02 5.890000000000000000e+02 5.900000000000000000e+02 5.910000000000000000e+02 5.920000000000000000e+02 5.930000000000000000e+02 5.940000000000000000e+02 5.950000000000000000e+02 5.960000000000000000e+02 5.970000000000000000e+02 5.980000000000000000e+02 5.990000000000000000e+02 6.000000000000000000e+02 6.010000000000000000e+02 6.020000000000000000e+02 6.030000000000000000e+02 6.040000000000000000e+02 6.050000000000000000e+02 6.060000000000000000e+02 6.070000000000000000e+02 6.080000000000000000e+02 6.090000000000000000e+02 6.100000000000000000e+02 6.110000000000000000e+02 6.120000000000000000e+02 6.130000000000000000e+02 6.140000000000000000e+02 6.150000000000000000e+02 6.160000000000000000e+02 6.170000000000000000e+02 6.180000000000000000e+02 6.190000000000000000e+02 6.200000000000000000e+02 6.210000000000000000e+02 6.220000000000000000e+02 6.230000000000000000e+02 6.240000000000000000e+02 6.250000000000000000e+02 6.260000000000000000e+02 6.270000000000000000e+02 6.280000000000000000e+02 6.290000000000000000e+02 6.300000000000000000e+02 6.310000000000000000e+02 6.320000000000000000e+02 6.330000000000000000e+02 6.340000000000000000e+02 6.350000000000000000e+02 6.360000000000000000e+02 6.370000000000000000e+02 6.380000000000000000e+02 6.390000000000000000e+02 6.400000000000000000e+02 6.410000000000000000e+02 6.420000000000000000e+02 6.430000000000000000e+02 6.440000000000000000e+02 6.450000000000000000e+02 6.460000000000000000e+02 6.470000000000000000e+02 6.480000000000000000e+02 6.490000000000000000e+02 6.500000000000000000e+02 6.510000000000000000e+02 6.520000000000000000e+02 6.530000000000000000e+02 6.540000000000000000e+02 6.550000000000000000e+02 6.560000000000000000e+02 6.570000000000000000e+02 6.580000000000000000e+02 6.590000000000000000e+02 6.600000000000000000e+02 6.610000000000000000e+02 6.620000000000000000e+02 6.630000000000000000e+02 6.640000000000000000e+02 6.650000000000000000e+02 6.660000000000000000e+02 6.670000000000000000e+02 6.680000000000000000e+02 6.690000000000000000e+02 6.700000000000000000e+02 6.710000000000000000e+02 6.720000000000000000e+02 6.730000000000000000e+02 6.740000000000000000e+02 6.750000000000000000e+02 6.760000000000000000e+02 6.770000000000000000e+02 6.780000000000000000e+02 6.790000000000000000e+02 6.800000000000000000e+02 6.810000000000000000e+02 6.820000000000000000e+02 6.830000000000000000e+02 6.840000000000000000e+02 6.850000000000000000e+02 6.860000000000000000e+02 6.870000000000000000e+02 6.880000000000000000e+02 6.890000000000000000e+02 6.900000000000000000e+02 6.910000000000000000e+02 6.920000000000000000e+02 6.930000000000000000e+02 6.940000000000000000e+02 6.950000000000000000e+02 6.960000000000000000e+02 6.970000000000000000e+02 6.980000000000000000e+02 6.990000000000000000e+02 7.000000000000000000e+02 7.010000000000000000e+02 7.020000000000000000e+02 7.030000000000000000e+02 7.040000000000000000e+02 7.050000000000000000e+02 7.060000000000000000e+02 7.070000000000000000e+02 7.080000000000000000e+02 7.090000000000000000e+02 7.100000000000000000e+02 7.110000000000000000e+02 7.120000000000000000e+02 7.130000000000000000e+02 7.140000000000000000e+02 7.150000000000000000e+02 7.160000000000000000e+02 7.170000000000000000e+02 7.180000000000000000e+02 7.190000000000000000e+02 7.200000000000000000e+02 7.210000000000000000e+02 7.220000000000000000e+02 7.230000000000000000e+02 7.240000000000000000e+02 7.250000000000000000e+02 7.260000000000000000e+02 7.270000000000000000e+02 7.280000000000000000e+02 7.290000000000000000e+02 7.300000000000000000e+02 7.310000000000000000e+02 7.320000000000000000e+02 7.330000000000000000e+02 7.340000000000000000e+02 7.350000000000000000e+02 7.360000000000000000e+02 7.370000000000000000e+02 7.380000000000000000e+02 7.390000000000000000e+02 7.400000000000000000e+02 7.410000000000000000e+02 7.420000000000000000e+02 7.430000000000000000e+02 7.440000000000000000e+02 7.450000000000000000e+02 7.460000000000000000e+02 7.470000000000000000e+02 7.480000000000000000e+02 7.490000000000000000e+02 7.500000000000000000e+02 7.510000000000000000e+02 7.520000000000000000e+02 7.530000000000000000e+02 7.540000000000000000e+02 7.550000000000000000e+02 7.560000000000000000e+02 7.570000000000000000e+02 7.580000000000000000e+02 7.590000000000000000e+02 7.600000000000000000e+02 7.610000000000000000e+02 7.620000000000000000e+02 7.630000000000000000e+02 7.640000000000000000e+02 7.650000000000000000e+02 7.660000000000000000e+02 7.670000000000000000e+02 7.680000000000000000e+02 7.690000000000000000e+02 7.700000000000000000e+02 7.710000000000000000e+02 7.720000000000000000e+02 7.730000000000000000e+02 7.740000000000000000e+02 7.750000000000000000e+02 7.760000000000000000e+02 7.770000000000000000e+02 7.780000000000000000e+02 7.790000000000000000e+02 7.800000000000000000e+02 7.810000000000000000e+02 7.820000000000000000e+02 7.830000000000000000e+02 7.840000000000000000e+02 7.850000000000000000e+02 7.860000000000000000e+02 7.870000000000000000e+02 7.880000000000000000e+02 7.890000000000000000e+02 7.900000000000000000e+02 7.910000000000000000e+02 7.920000000000000000e+02 7.930000000000000000e+02 7.940000000000000000e+02 7.950000000000000000e+02 7.960000000000000000e+02 7.970000000000000000e+02 7.980000000000000000e+02 7.990000000000000000e+02 8.000000000000000000e+02 8.010000000000000000e+02 8.020000000000000000e+02 8.030000000000000000e+02 8.040000000000000000e+02 8.050000000000000000e+02 8.060000000000000000e+02 8.070000000000000000e+02 8.080000000000000000e+02 8.090000000000000000e+02 8.100000000000000000e+02 8.110000000000000000e+02 8.120000000000000000e+02 8.130000000000000000e+02 8.140000000000000000e+02 8.150000000000000000e+02 8.160000000000000000e+02 8.170000000000000000e+02 8.180000000000000000e+02 8.190000000000000000e+02 8.200000000000000000e+02 8.210000000000000000e+02 8.220000000000000000e+02 8.230000000000000000e+02 8.240000000000000000e+02 8.250000000000000000e+02 8.260000000000000000e+02 8.270000000000000000e+02 8.280000000000000000e+02 8.290000000000000000e+02 8.300000000000000000e+02 8.310000000000000000e+02 8.320000000000000000e+02 8.330000000000000000e+02 8.340000000000000000e+02 8.350000000000000000e+02 8.360000000000000000e+02 8.370000000000000000e+02 8.380000000000000000e+02 8.390000000000000000e+02 8.400000000000000000e+02 8.410000000000000000e+02 8.420000000000000000e+02 8.430000000000000000e+02 8.440000000000000000e+02 8.450000000000000000e+02 8.460000000000000000e+02 8.470000000000000000e+02 8.480000000000000000e+02 8.490000000000000000e+02 8.500000000000000000e+02 8.510000000000000000e+02 8.520000000000000000e+02 8.530000000000000000e+02 8.540000000000000000e+02 8.550000000000000000e+02 8.560000000000000000e+02 8.570000000000000000e+02 8.580000000000000000e+02 8.590000000000000000e+02 8.600000000000000000e+02 8.610000000000000000e+02 8.620000000000000000e+02 8.630000000000000000e+02 8.640000000000000000e+02 8.650000000000000000e+02 8.660000000000000000e+02 8.670000000000000000e+02 8.680000000000000000e+02 8.690000000000000000e+02 8.700000000000000000e+02 8.710000000000000000e+02 8.720000000000000000e+02 8.730000000000000000e+02 8.740000000000000000e+02 8.750000000000000000e+02 8.760000000000000000e+02 8.770000000000000000e+02 8.780000000000000000e+02 8.790000000000000000e+02 8.800000000000000000e+02 8.810000000000000000e+02 8.820000000000000000e+02 8.830000000000000000e+02 8.840000000000000000e+02 8.850000000000000000e+02 8.860000000000000000e+02 8.870000000000000000e+02 8.880000000000000000e+02 8.890000000000000000e+02 8.900000000000000000e+02 8.910000000000000000e+02 8.920000000000000000e+02 8.930000000000000000e+02 8.940000000000000000e+02 8.950000000000000000e+02 8.960000000000000000e+02 8.970000000000000000e+02 8.980000000000000000e+02 8.990000000000000000e+02 9.000000000000000000e+02 9.010000000000000000e+02 9.020000000000000000e+02 9.030000000000000000e+02 9.040000000000000000e+02 9.050000000000000000e+02 9.060000000000000000e+02 9.070000000000000000e+02 9.080000000000000000e+02 9.090000000000000000e+02 9.100000000000000000e+02 9.110000000000000000e+02 9.120000000000000000e+02 9.130000000000000000e+02 9.140000000000000000e+02 9.150000000000000000e+02 9.160000000000000000e+02 9.170000000000000000e+02 9.180000000000000000e+02 9.190000000000000000e+02 9.200000000000000000e+02 9.210000000000000000e+02 9.220000000000000000e+02 9.230000000000000000e+02 9.240000000000000000e+02 9.250000000000000000e+02 9.260000000000000000e+02 9.270000000000000000e+02 9.280000000000000000e+02 9.290000000000000000e+02 9.300000000000000000e+02 9.310000000000000000e+02 9.320000000000000000e+02 9.330000000000000000e+02 9.340000000000000000e+02 9.350000000000000000e+02 9.360000000000000000e+02 9.370000000000000000e+02 9.380000000000000000e+02 9.390000000000000000e+02 9.400000000000000000e+02 9.410000000000000000e+02 9.420000000000000000e+02 9.430000000000000000e+02 9.440000000000000000e+02 9.450000000000000000e+02 9.460000000000000000e+02 9.470000000000000000e+02 9.480000000000000000e+02 9.490000000000000000e+02 9.500000000000000000e+02 9.510000000000000000e+02 9.520000000000000000e+02 9.530000000000000000e+02 9.540000000000000000e+02 9.550000000000000000e+02 9.560000000000000000e+02 9.570000000000000000e+02 9.580000000000000000e+02 9.590000000000000000e+02 9.600000000000000000e+02 9.610000000000000000e+02 9.620000000000000000e+02 9.630000000000000000e+02 9.640000000000000000e+02 9.650000000000000000e+02 9.660000000000000000e+02 9.670000000000000000e+02 9.680000000000000000e+02 9.690000000000000000e+02 9.700000000000000000e+02 9.710000000000000000e+02 9.720000000000000000e+02 9.730000000000000000e+02 9.740000000000000000e+02 9.750000000000000000e+02 9.760000000000000000e+02 9.770000000000000000e+02 9.780000000000000000e+02 9.790000000000000000e+02 9.800000000000000000e+02 9.810000000000000000e+02 9.820000000000000000e+02 9.830000000000000000e+02 9.840000000000000000e+02 9.850000000000000000e+02 9.860000000000000000e+02 9.870000000000000000e+02 9.880000000000000000e+02 9.890000000000000000e+02 9.900000000000000000e+02 9.910000000000000000e+02 9.920000000000000000e+02 9.930000000000000000e+02 9.940000000000000000e+02 9.950000000000000000e+02 9.960000000000000000e+02 9.970000000000000000e+02 9.980000000000000000e+02 9.990000000000000000e+02
1.000000000000000000e+00 1.000000000000000000e+00 1.000000000000000000e+00 1.000000000000000000e+00 1.000000000000000000e+00 1.000000000000000000e+00 1.000000000000000000e+00 1.000000000000000000e+00 1.000000000000000000e+00 1.000000000000000000e+00 1.000000000000000000e+00 1.000000000000000000e+00 1.000000000000000000e+00 1.000000000000000000e+00 1.000000000000000000e+00 1.000000000000000000e+00 1.000000000000000000e+00 1.000000000000000000e+00 1.000000000000000000e+00 1.000000000000000000e+00 1.000000000000000000e+00 1.000000000000000000e+00 1.000000000000000000e+00 1.000000000000000000e+00 1.000000000000000000e+00 1.000000000000000000e+00 1.000000000000000000e+00 1.000000000000000000e+00 1.000000000000000000e+00 1.000000000000000000e+00 1.000000000000000000e+00 1.000000000000000000e+00 1.000000000000000000e+00 1.000000000000000000e+00 1.000000000000000000e+00 1.000000000000000000e+00 1.000000000000000000e+00 1.000000000000000000e+00 1.000000000000000000e+00 1.000000000000000000e+00 1.000000000000000000e+00 1.000000000000000000e+00 1.000000000000000000e+00 1.000000000000000000e+00 1.000000000000000000e+00 1.000000000000000000e+00 1.000000000000000000e+00 1.000000000000000000e+00 1.000000000000000000e+00 1.000000000000000000e+00 1.000000000000000000e+00 1.000000000000000000e+00 1.000000000000000000e+00 1.000000000000000000e+00 1.000000000000000000e+00 1.000000000000000000e+00 1.000000000000000000e+00 1.000000000000000000e+00 1.000000000000000000e+00 1.000000000000000000e+00 1.000000000000000000e+00 1.000000000000000000e+00 1.000000000000000000e+00 1.000000000000000000e+00 1.000000000000000000e+00 1.000000000000000000e+00 1.000000000000000000e+00 1.000000000000000000e+00 1.000000000000000000e+00 1.000000000000000000e+00 1.000000000000000000e+00 1.000000000000000000e+00 1.000000000000000000e+00 1.000000000000000000e+00 1.000000000000000000e+00 1.000000000000000000e+00 1.000000000000000000e+00 1.000000000000000000e+00 1.000000000000000000e+00 1.000000000000000000e+00 1.000000000000000000e+00 1.000000000000000000e+00 1.000000000000000000e+00 1.000000000000000000e+00 1.000000000000000000e+00 1.000000000000000000e+00 1.000000000000000000e+00 1.000000000000000000e+00 1.000000000000000000e+00 1.000000000000000000e+00 1.000000000000000000e+00 1.000000000000000000e+00 1.000000000000000000e+00 1.000000000000000000e+00 1.000000000000000000e+00 1.000000000000000000e+00 1.000000000000000000e+00 1.000000000000000000e+00 1.000000000000000000e+00 1.000000000000000000e+00 1.000000000000000000e+00 1.000000000000000000e+00 1.000000000000000000e+00 1.000000000000000000e+00 1.000000000000000000e+00 1.000000000000000000e+00 1.000000000000000000e+00 1.000000000000000000e+00 1.000000000000000000e+00 1.000000000000000000e+00 1.000000000000000000e+00 1.000000000000000000e+00 1.000000000000000000e+00 1.000000000000000000e+00 1.000000000000000000e+00 1.000000000000000000e+00 1.000000000000000000e+00 1.000000000000000000e+00 1.000000000000000000e+00 1.000000000000000000e+00 1.000000000000000000e+00 1.000000000000000000e+00 1.000000000000000000e+00 1.000000000000000000e+00 1.000000000000000000e+00 1.000000000000000000e+00 1.000000000000000000e+00 1.000000000000000000e+00 1.000000000000000000e+00 1.000000000000000000e+00 1.000000000000000000e+00 1.000000000000000000e+00 1.000000000000000000e+00 1.000000000000000000e+00 1.000000000000000000e+00 1.000000000000000000e+00 1.000000000000000000e+00 1.000000000000000000e+00 1.000000000000000000e+00 1.000000000000000000e+00 1.000000000000000000e+00 1.000000000000000000e+00 1.000000000000000000e+00 1.000000000000000000e+00 1.000000000000000000e+00 1.000000000000000000e+00 1.000000000000000000e+00 1.000000000000000000e+00 1.000000000000000000e+00 1.000000000000000000e+00 1.000000000000000000e+00 1.000000000000000000e+00 1.000000000000000000e+00 1.000000000000000000e+00 1.000000000000000000e+00 1.000000000000000000e+00 1.000000000000000000e+00 1.000000000000000000e+00 1.000000000000000000e+00 1.000000000000000000e+00 1.000000000000000000e+00 1.000000000000000000e+00 1.000000000000000000e+00 1.000000000000000000e+00 1.000000000000000000e+00 1.000000000000000000e+00 1.000000000000000000e+00 1.000000000000000000e+00 1.000000000000000000e+00 1.000000000000000000e+00 1.000000000000000000e+00 1.000000000000000000e+00 1.000000000000000000e+00 1.000000000000000000e+00 1.000000000000000000e+00 1.000000000000000000e+00 1.000000000000000000e+00 1.000000000000000000e+00 1.000000000000000000e+00 1.000000000000000000e+00 1.000000000000000000e+00 1.000000000000000000e+00 1.000000000000000000e+00 1.000000000000000000e+00 1.000000000000000000e+00 1.000000000000000000e+00 1.000000000000000000e+00 1.000000000000000000e+00 1.000000000000000000e+00 1.000000000000000000e+00 1.000000000000000000e+00 1.000000000000000000e+00 1.000000000000000000e+00 1.000000000000000000e+00 1.000000000000000000e+00 1.000000000000000000e+00 1.000000000000000000e+00 1.000000000000000000e+00 1.000000000000000000e+00 1.000000000000000000e+00 1.000000000000000000e+00 1.000000000000000000e+00 1.000000000000000000e+00 1.000000000000000000e+00 1.000000000000000000e+00 1.000000000000000000e+00 1.000000000000000000e+00 1.000000000000000000e+00 1.000000000000000000e+00 1.000000000000000000e+00 1.000000000000000000e+00 1.000000000000000000e+00 1.000000000000000000e+00 1.000000000000000000e+00 1.000000000000000000e+00 1.000000000000000000e+00 1.000000000000000000e+00 1.000000000000000000e+00 1.000000000000000000e+00 1.000000000000000000e+00 1.000000000000000000e+00 1.000000000000000000e+00 1.000000000000000000e+00 1.000000000000000000e+00 1.000000000000000000e+00 1.000000000000000000e+00 1.000000000000000000e+00 1.000000000000000000e+00 1.000000000000000000e+00 1.000000000000000000e+00 1.000000000000000000e+00 1.000000000000000000e+00 1.000000000000000000e+00 1.000000000000000000e+00 1.000000000000000000e+00 1.000000000000000000e+00 1.000000000000000000e+00 1.000000000000000000e+00 1.000000000000000000e+00 1.000000000000000000e+00 1.000000000000000000e+00 1.000000000000000000e+00 1.000000000000000000e+00 1.000000000000000000e+00 1.000000000000000000e+00 1.000000000000000000e+00 1.000000000000000000e+00 1.000000000000000000e+00 1.000000000000000000e+00 1.000000000000000000e+00 1.000000000000000000e+00 1.000000000000000000e+00 1.000000000000000000e+00 1.000000000000000000e+00 1.000000000000000000e+00 1.000000000000000000e+00 1.000000000000000000e+00 1.000000000000000000e+00 1.000000000000000000e+00 1.000000000000000000e+00 1.000000000000000000e+00 1.000000000000000000e+00 1.000000000000000000e+00 1.000000000000000000e+00 1.000000000000000000e+00 1.000000000000000000e+00 1.000000000000000000e+00 1.000000000000000000e+00 1.000000000000000000e+00 1.000000000000000000e+00 1.000000000000000000e+00 1.000000000000000000e+00 1.000000000000000000e+00 1.000000000000000000e+00 1.000000000000000000e+00 1.000000000000000000e+00 1.000000000000000000e+00 1.000000000000000000e+00 1.000000000000000000e+00 1.000000000000000000e+00 1.000000000000000000e+00 1.000000000000000000e+00 1.000000000000000000e+00 1.000000000000000000e+00 1.000000000000000000e+00 1.000000000000000000e+00 1.000000000000000000e+00 1.000000000000000000e+00 1.000000000000000000e+00 1.000000000000000000e+00 1.000000000000000000e+00 1.000000000000000000e+00 1.000000000000000000e+00 1.000000000000000000e+00 1.000000000000000000e+00 1.000000000000000000e+00 1.000000000000000000e+00 1.000000000000000000e+00 1.000000000000000000e+00 1.000000000000000000e+00 1.000000000000000000e+00 1.000000000000000000e+00 1.000000000000000000e+00 1.000000000000000000e+00 1.000000000000000000e+00 1.000000000000000000e+00 1.000000000000000000e+00 1.000000000000000000e+00 1.000000000000000000e+00 1.000000000000000000e+00 1.000000000000000000e+00 1.000000000000000000e+00 1.000000000000000000e+00 1.000000000000000000e+00 1.000000000000000000e+00 1.000000000000000000e+00 1.000000000000000000e+00 1.000000000000000000e+00 1.000000000000000000e+00 1.000000000000000000e+00 1.000000000000000000e+00 1.000000000000000000e+00 1.000000000000000000e+00 1.000000000000000000e+00 1.000000000000000000e+00 1.000000000000000000e+00 1.000000000000000000e+00 1.000000000000000000e+00 1.000000000000000000e+00 1.000000000000000000e+00 1.000000000000000000e+00 1.000000000000000000e+00 1.000000000000000000e+00 1.000000000000000000e+00 1.000000000000000000e+00 1.000000000000000000e+00 1.000000000000000000e+00 1.000000000000000000e+00 1.000000000000000000e+00 1.000000000000000000e+00 1.000000000000000000e+00 1.000000000000000000e+00 1.000000000000000000e+00 1.000000000000000000e+00 1.000000000000000000e+00 1.000000000000000000e+00 1.000000000000000000e+00 1.000000000000000000e+00 1.000000000000000000e+00 1.000000000000000000e+00 1.000000000000000000e+00 1.000000000000000000e+00 1.000000000000000000e+00 1.000000000000000000e+00 1.000000000000000000e+00 1.000000000000000000e+00 1.000000000000000000e+00 1.000000000000000000e+00 1.000000000000000000e+00 1.000000000000000000e+00 1.000000000000000000e+00 1.000000000000000000e+00 1.000000000000000000e+00 1.000000000000000000e+00 1.000000000000000000e+00 1.000000000000000000e+00 1.000000000000000000e+00 1.000000000000000000e+00 1.000000000000000000e+00 1.000000000000000000e+00 1.000000000000000000e+00 1.000000000000000000e+00 1.000000000000000000e+00 1.000000000000000000e+00 1.000000000000000000e+00 1.000000000000000000e+00 1.000000000000000000e+00 1.000000000000000000e+00 1.000000000000000000e+00 1.000000000000000000e+00 1.000000000000000000e+00 1.000000000000000000e+00 1.000000000000000000e+00 1.000000000000000000e+00 1.000000000000000000e+00 1.000000000000000000e+00 1.000000000000000000e+00 1.000000000000000000e+00 1.000000000000000000e+00 1.000000000000000000e+00 1.000000000000000000e+00 1.000000000000000000e+00 1.000000000000000000e+00 1.000000000000000000e+00 1.000000000000000000e+00 1.000000000000000000e+00 1.000000000000000000e+00 1.000000000000000000e+00 1.000000000000000000e+00 1.000000000000000000e+00 1.000000000000000000e+00 1.000000000000000000e+00 1.000000000000000000e+00 1.000000000000000000e+00 1.000000000000000000e+00 1.000000000000000000e+00 1.000000000000000000e+00 1.000000000000000000e+00 1.000000000000000000e+00 1.000000000000000000e+00 1.000000000000000000e+00 1.000000000000000000e+00 1.000000000000000000e+00 1.000000000000000000e+00 1.000000000000000000e+00 1.000000000000000000e+00 1.000000000000000000e+00 1.000000000000000000e+00 1.000000000000000000e+00 1.000000000000000000e+00 1.000000000000000000e+00 1.000000000000000000e+00 1.000000000000000000e+00 1.000000000000000000e+00 1.000000000000000000e+00 1.000000000000000000e+00 1.000000000000000000e+00 1.000000000000000000e+00 1.000000000000000000e+00 1.000000000000000000e+00 1.000000000000000000e+00 1.000000000000000000e+00 1.000000000000000000e+00 1.000000000000000000e+00 1.000000000000000000e+00 1.000000000000000000e+00 1.000000000000000000e+00 1.000000000000000000e+00 1.000000000000000000e+00 1.000000000000000000e+00 1.000000000000000000e+00 1.000000000000000000e+00 1.000000000000000000e+00 1.000000000000000000e+00 1.000000000000000000e+00 1.000000000000000000e+00 1.000000000000000000e+00 1.000000000000000000e+00 1.000000000000000000e+00 1.000000000000000000e+00 1.000000000000000000e+00 1.000000000000000000e+00 1.000000000000000000e+00 1.000000000000000000e+00 1.000000000000000000e+00 1.000000000000000000e+00 1.000000000000000000e+00 1.000000000000000000e+00 1.000000000000000000e+00 1.000000000000000000e+00 1.000000000000000000e+00 1.000000000000000000e+00 1.000000000000000000e+00 1.000000000000000000e+00 1.000000000000000000e+00 1.000000000000000000e+00 1.000000000000000000e+00 1.000000000000000000e+00 1.000000000000000000e+00 1.000000000000000000e+00 1.000000000000000000e+00 1.000000000000000000e+00 1.000000000000000000e+00 1.000000000000000000e+00 1.000000000000000000e+00 1.000000000000000000e+00 1.000000000000000000e+00 1.000000000000000000e+00 1.000000000000000000e+00 1.000000000000000000e+00 1.000000000000000000e+00 1.000000000000000000e+00 1.000000000000000000e+00 1.000000000000000000e+00 1.000000000000000000e+00 1.000000000000000000e+00 1.000000000000000000e+00 1.000000000000000000e+00 1.000000000000000000e+00 1.000000000000000000e+00 1.000000000000000000e+00 1.000000000000000000e+00 1.000000000000000000e+00 1.000000000000000000e+00 1.000000000000000000e+00 1.000000000000000000e+00 1.000000000000000000e+00 1.000000000000000000e+00 1.000000000000000000e+00 1.000000000000000000e+00 1.000000000000000000e+00 1.000000000000000000e+00 1.000000000000000000e+00 1.000000000000000000e+00 1.000000000000000000e+00 1.000000000000000000e+00 1.000000000000000000e+00 1.000000000000000000e+00 1.000000000000000000e+00 1.000000000000000000e+00 1.000000000000000000e+00 1.000000000000000000e+00 1.000000000000000000e+00 1.000000000000000000e+00 1.000000000000000000e+00 1.000000000000000000e+00 1.000000000000000000e+00 1.000000000000000000e+00 1.000000000000000000e+00 1.000000000000000000e+00 1.000000000000000000e+00 1.000000000000000000e+00 1.000000000000000000e+00 1.000000000000000000e+00 1.000000000000000000e+00 1.000000000000000000e+00 1.000000000000000000e+00 1.000000000000000000e+00 1.000000000000000000e+00 1.000000000000000000e+00 1.000000000000000000e+00 1.000000000000000000e+00 1.000000000000000000e+00 1.000000000000000000e+00 1.000000000000000000e+00 1.000000000000000000e+00 1.000000000000000000e+00 1.000000000000000000e+00 1.000000000000000000e+00 1.000000000000000000e+00 1.000000000000000000e+00 1.000000000000000000e+00 1.000000000000000000e+00 1.000000000000000000e+00 1.000000000000000000e+00 1.000000000000000000e+00 1.000000000000000000e+00 1.000000000000000000e+00 1.000000000000000000e+00 1.000000000000000000e+00 1.000000000000000000e+00 1.000000000000000000e+00 1.000000000000000000e+00 1.000000000000000000e+00 1.000000000000000000e+00 1.000000000000000000e+00 1.000000000000000000e+00 1.000000000000000000e+00 1.000000000000000000e+00 1.000000000000000000e+00 1.000000000000000000e+00 1.000000000000000000e+00 1.000000000000000000e+00 1.000000000000000000e+00 1.000000000000000000e+00 1.000000000000000000e+00 1.000000000000000000e+00 1.000000000000000000e+00 1.000000000000000000e+00 1.000000000000000000e+00 1.000000000000000000e+00 1.000000000000000000e+00 1.000000000000000000e+00 1.000000000000000000e+00 1.000000000000000000e+00 1.000000000000000000e+00 1.000000000000000000e+00 1.000000000000000000e+00 1.000000000000000000e+00 1.000000000000000000e+00 1.000000000000000000e+00 1.000000000000000000e+00 1.000000000000000000e+00 1.000000000000000000e+00 1.000000000000000000e+00 1.000000000000000000e+00 1.000000000000000000e+00 1.000000000000000000e+00 1.000000000000000000e+00 1.000000000000000000e+00 1.000000000000000000e+00 1.000000000000000000e+00 1.000000000000000000e+00 1.000000000000000000e+00 1.000000000000000000e+00 1.000000000000000000e+00 1.000000000000000000e+00 1.000000000000000000e+00 1.000000000000000000e+00 1.000000000000000000e+00 1.000000000000000000e+00 1.000000000000000000e+00 1.000000000000000000e+00 1.000000000000000000e+00 1.000000000000000000e+00 1.000000000000000000e+00 1.000000000000000000e+00 1.000000000000000000e+00 1.000000000000000000e+00 1.000000000000000000e+00 1.000000000000000000e+00 1.000000000000000000e+00 1.000000000000000000e+00 1.000000000000000000e+00 1.000000000000000000e+00 1.000000000000000000e+00 1.000000000000000000e+00 1.000000000000000000e+00 1.000000000000000000e+00 1.000000000000000000e+00 1.000000000000000000e+00 1.000000000000000000e+00 1.000000000000000000e+00 1.000000000000000000e+00 1.000000000000000000e+00 1.000000000000000000e+00 1.000000000000000000e+00 1.000000000000000000e+00 1.000000000000000000e+00 1.000000000000000000e+00 1.000000000000000000e+00 1.000000000000000000e+00 1.000000000000000000e+00 1.000000000000000000e+00 1.000000000000000000e+00 1.000000000000000000e+00 1.000000000000000000e+00 1.000000000000000000e+00 1.000000000000000000e+00 1.000000000000000000e+00 1.000000000000000000e+00 1.000000000000000000e+00 1.000000000000000000e+00 1.000000000000000000e+00 1.000000000000000000e+00 1.000000000000000000e+00 1.000000000000000000e+00 1.000000000000000000e+00 1.000000000000000000e+00 1.000000000000000000e+00 1.000000000000000000e+00 1.000000000000000000e+00 1.000000000000000000e+00 1.000000000000000000e+00 1.000000000000000000e+00 1.000000000000000000e+00 1.000000000000000000e+00 1.000000000000000000e+00 1.000000000000000000e+00 1.000000000000000000e+00 1.000000000000000000e+00 1.000000000000000000e+00 1.000000000000000000e+00 1.000000000000000000e+00 1.000000000000000000e+00 1.000000000000000000e+00 1.000000000000000000e+00 1.000000000000000000e+00 1.000000000000000000e+00 1.000000000000000000e+00 1.000000000000000000e+00 1.000000000000000000e+00 1.000000000000000000e+00 1.000000000000000000e+00 1.000000000000000000e+00 1.000000000000000000e+00 1.000000000000000000e+00 1.000000000000000000e+00 1.000000000000000000e+00 1.000000000000000000e+00 1.000000000000000000e+00 1.000000000000000000e+00 1.000000000000000000e+00 1.000000000000000000e+00 1.000000000000000000e+00 1.000000000000000000e+00 1.000000000000000000e+00 1.000000000000000000e+00 1.000000000000000000e+00 1.000000000000000000e+00 1.000000000000000000e+00 1.000000000000000000e+00 1.000000000000000000e+00 1.000000000000000000e+00 1.000000000000000000e+00 1.000000000000000000e+00 1.000000000000000000e+00 1.000000000000000000e+00 1.000000000000000000e+00 1.000000000000000000e+00 1.000000000000000000e+00 1.000000000000000000e+00 1.000000000000000000e+00 1.000000000000000000e+00 1.000000000000000000e+00 1.000000000000000000e+00 1.000000000000000000e+00 1.000000000000000000e+00 1.000000000000000000e+00 1.000000000000000000e+00 1.000000000000000000e+00 1.000000000000000000e+00 1.000000000000000000e+00 1.000000000000000000e+00 1.000000000000000000e+00 1.000000000000000000e+00 1.000000000000000000e+00 1.000000000000000000e+00 1.000000000000000000e+00 1.000000000000000000e+00 1.000000000000000000e+00 1.000000000000000000e+00 1.000000000000000000e+00 1.000000000000000000e+00 1.000000000000000000e+00 1.000000000000000000e+00 1.000000000000000000e+00 1.000000000000000000e+00 1.000000000000000000e+00 1.000000000000000000e+00 1.000000000000000000e+00 1.000000000000000000e+00 1.000000000000000000e+00 1.000000000000000000e+00 1.000000000000000000e+00 1.000000000000000000e+00 1.000000000000000000e+00 1.000000000000000000e+00 1.000000000000000000e+00 1.000000000000000000e+00 1.000000000000000000e+00 1.000000000000000000e+00 1.000000000000000000e+00 1.000000000000000000e+00 1.000000000000000000e+00 1.000000000000000000e+00 1.000000000000000000e+00 1.000000000000000000e+00 1.000000000000000000e+00 1.000000000000000000e+00 1.000000000000000000e+00 1.000000000000000000e+00 1.000000000000000000e+00 1.000000000000000000e+00 1.000000000000000000e+00 1.000000000000000000e+00 1.000000000000000000e+00 1.000000000000000000e+00 1.000000000000000000e+00 1.000000000000000000e+00 1.000000000000000000e+00 1.000000000000000000e+00 1.000000000000000000e+00 1.000000000000000000e+00 1.000000000000000000e+00 1.000000000000000000e+00 1.000000000000000000e+00 1.000000000000000000e+00 1.000000000000000000e+00 1.000000000000000000e+00 1.000000000000000000e+00 1.000000000000000000e+00 1.000000000000000000e+00 1.000000000000000000e+00 1.000000000000000000e+00 1.000000000000000000e+00 1.000000000000000000e+00 1.000000000000000000e+00 1.000000000000000000e+00 1.000000000000000000e+00 1.000000000000000000e+00 1.000000000000000000e+00 1.000000000000000000e+00 1.000000000000000000e+00 1.000000000000000000e+00 1.000000000000000000e+00 1.000000000000000000e+00 1.000000000000000000e+00 1.000000000000000000e+00 1.000000000000000000e+00 1.000000000000000000e+00 1.000000000000000000e+00 1.000000000000000000e+00 1.000000000000000000e+00 1.000000000000000000e+00 1.000000000000000000e+00 1.000000000000000000e+00 1.000000000000000000e+00 1.000000000000000000e+00 1.000000000000000000e+00 1.000000000000000000e+00 1.000000000000000000e+00 1.000000000000000000e+00 1.000000000000000000e+00 1.000000000000000000e+00 1.000000000000000000e+00 1.000000000000000000e+00 1.000000000000000000e+00 1.000000000000000000e+00 1.000000000000000000e+00 1.000000000000000000e+00 1.000000000000000000e+00 1.000000000000000000e+00 1.000000000000000000e+00 1.000000000000000000e+00 1.000000000000000000e+00 1.000000000000000000e+00 1.000000000000000000e+00 1.000000000000000000e+00 1.000000000000000000e+00 1.000000000000000000e+00 1.000000000000000000e+00 1.000000000000000000e+00 1.000000000000000000e+00 1.000000000000000000e+00 1.000000000000000000e+00 1.000000000000000000e+00 1.000000000000000000e+00 1.000000000000000000e+00 1.000000000000000000e+00 1.000000000000000000e+00 1.000000000000000000e+00 1.000000000000000000e+00 1.000000000000000000e+00 1.000000000000000000e+00 1.000000000000000000e+00 1.000000000000000000e+00 1.000000000000000000e+00 1.000000000000000000e+00 1.000000000000000000e+00 1.000000000000000000e+00 1.000000000000000000e+00 1.000000000000000000e+00 1.000000000000000000e+00 1.000000000000000000e+00 1.000000000000000000e+00 1.000000000000000000e+00 1.000000000000000000e+00 1.000000000000000000e+00 1.000000000000000000e+00 1.000000000000000000e+00 1.000000000000000000e+00 1.000000000000000000e+00 1.000000000000000000e+00 1.000000000000000000e+00 1.000000000000000000e+00 1.000000000000000000e+00 1.000000000000000000e+00 1.000000000000000000e+00 1.000000000000000000e+00 1.000000000000000000e+00 1.000000000000000000e+00 1.000000000000000000e+00 1.000000000000000000e+00 1.000000000000000000e+00 1.000000000000000000e+00 1.000000000000000000e+00 1.000000000000000000e+00 1.000000000000000000e+00 1.000000000000000000e+00 1.000000000000000000e+00 1.000000000000000000e+00 1.000000000000000000e+00 1.000000000000000000e+00 1.000000000000000000e+00 1.000000000000000000e+00 1.000000000000000000e+00 1.000000000000000000e+00 1.000000000000000000e+00 1.000000000000000000e+00 1.000000000000000000e+00 1.000000000000000000e+00 1.000000000000000000e+00 1.000000000000000000e+00 1.000000000000000000e+00 1.000000000000000000e+00 1.000000000000000000e+00 1.000000000000000000e+00 1.000000000000000000e+00 1.000000000000000000e+00 1.000000000000000000e+00 1.000000000000000000e+00 1.000000000000000000e+00 1.000000000000000000e+00 1.000000000000000000e+00 1.000000000000000000e+00 1.000000000000000000e+00 1.000000000000000000e+00 1.000000000000000000e+00 1.000000000000000000e+00 1.000000000000000000e+00 1.000000000000000000e+00 1.000000000000000000e+00 1.000000000000000000e+00 1.000000000000000000e+00 1.000000000000000000e+00 1.000000000000000000e+00 1.000000000000000000e+00 1.000000000000000000e+00 1.000000000000000000e+00 1.000000000000000000e+00 1.000000000000000000e+00 1.000000000000000000e+00 1.000000000000000000e+00 1.000000000000000000e+00 1.000000000000000000e+00 1.000000000000000000e+00 1.000000000000000000e+00 1.000000000000000000e+00 1.000000000000000000e+00 1.000000000000000000e+00 1.000000000000000000e+00 1.000000000000000000e+00 1.000000000000000000e+00 1.000000000000000000e+00 1.000000000000000000e+00 1.000000000000000000e+00 1.000000000000000000e+00 1.000000000000000000e+00 1.000000000000000000e+00 1.000000000000000000e+00 1.000000000000000000e+00 1.000000000000000000e+00 1.000000000000000000e+00 1.000000000000000000e+00 1.000000000000000000e+00 1.000000000000000000e+00 1.000000000000000000e+00 1.000000000000000000e+00 1.000000000000000000e+00 1.000000000000000000e+00 1.000000000000000000e+00 1.000000000000000000e+00 1.000000000000000000e+00 1.000000000000000000e+00 1.000000000000000000e+00 1.000000000000000000e+00 1.000000000000000000e+00 1.000000000000000000e+00 1.000000000000000000e+00 1.000000000000000000e+00 1.000000000000000000e+00 1.000000000000000000e+00 1.000000000000000000e+00 1.000000000000000000e+00 1.000000000000000000e+00 1.000000000000000000e+00 1.000000000000000000e+00 1.000000000000000000e+00 1.000000000000000000e+00 1.000000000000000000e+00 1.000000000000000000e+00 1.000000000000000000e+00 1.000000000000000000e+00 1.000000000000000000e+00 1.000000000000000000e+00 1.000000000000000000e+00 1.000000000000000000e+00 1.000000000000000000e+00 1.000000000000000000e+00 1.000000000000000000e+00 1.000000000000000000e+00 1.000000000000000000e+00 1.000000000000000000e+00 1.000000000000000000e+00 1.000000000000000000e+00 1.000000000000000000e+00 1.000000000000000000e+00 1.000000000000000000e+00 1.000000000000000000e+00 1.000000000000000000e+00 1.000000000000000000e+00 1.000000000000000000e+00 1.000000000000000000e+00 1.000000000000000000e+00 1.000000000000000000e+00 1.000000000000000000e+00 1.000000000000000000e+00 1.000000000000000000e+00 1.000000000000000000e+00 1.000000000000000000e+00 1.000000000000000000e+00 1.000000000000000000e+00 1.000000000000000000e+00 1.000000000000000000e+00 1.000000000000000000e+00 1.000000000000000000e+00 1.000000000000000000e+00 1.000000000000000000e+00 1.000000000000000000e+00
6.125438568857881350e-02 5.348979884390211437e-01 -2.958228261783372726e-01 7.810373491640407728e-01 5.198711735213946694e-01 5.592509368733505903e-01 5.643865459748664826e-01 4.152636921227199629e-01 5.671627461407056092e-01 5.201682680113546287e-01 1.087764903453091847e+00 -7.392171032665487695e-01 1.427342234650583741e+00 4.703189294083104377e-01 5.217439638364147481e-01 4.257485638988204868e-01 8.282991800060643950e-01 9.797770360558639702e-01 7.508186895012113338e-01 5.123146801036825293e-01 3.711353523683838529e-01 9.967117743131385099e-01 3.510238931147043329e-01 5.673816233441985046e-01 6.369072501298120303e-02 6.607726623469785121e-01 4.266857175857423079e-01 7.181960518187521236e-01 5.179661689935407543e-01 1.644476739792821718e+00 4.891543463584479556e-01 6.011873853320640615e-01 7.184525194124488090e-01 5.087194967818223779e-01 6.874261951707405505e-01 4.642355604929428448e-01 5.798521672563288210e-01 1.874838067227344363e+00 -9.782528750919405880e-02 5.076038876638849784e-01 -2.332462677071688306e-01 -5.622397188371447418e-01 7.454279783581612140e-01 2.320579739936269315e-01 3.324993936521730142e-01 4.950406971445733273e-01 7.806846667742631807e-01 5.488385137360650701e-01 6.845671295584900840e-01 9.341171094606547098e-03 3.914369968245743486e-02 7.467694102414746959e-01 6.841390471771824355e-01 4.155032544338134737e-01 4.677347750455924658e-01 2.409331615419719325e-02 5.739611242892912468e-01 5.050904405673655173e-01 2.022407055220128425e-01 5.446372530592953343e-01 9.309998985128103977e-01 4.480418797702495626e-01 4.951220141858819757e-01 3.510238439179042547e-01 6.742191085730896427e-01 6.674794152097059952e-01 5.133259203118084590e-01 4.545797425657430724e-01 5.453535589680307272e-01 5.134069705111928700e-02 4.770827239083755278e-01 5.930947460236279944e-01 5.267593517470700037e-01 1.751688681219054980e-02 1.531670269175696264e+00 5.241735761724979348e-01 6.395036954852150179e-01 7.128832172883748930e-01 5.192790370924289522e-01 1.390045464510740514e+00 5.392404541071333934e-01 3.673065012181042643e-01 1.459421163425844714e+00 7.716240823919293668e-01 5.242528097417330502e-01 7.500277542936587549e-01 7.958202322250071958e-01 5.110007259645522604e-01 4.281957388054545843e-01 5.768435840158302463e-01 3.360017639982273430e-01 2.249464032067134411e+00 7.912999983290617267e-01 6.938739510486292839e-02 4.834441409575673809e-01 5.266959619192509434e-01 5.579282375398165739e-01 4.860152543255702451e-01 1.904704052522065705e-01 6.588830137649276386e-01 1.653619607223301147e+00 6.869291016402757633e-01 5.027004233100301755e-01 5.489587800084110292e-01 8.523365725527848324e-01 -2.164981428592850587e+00 -1.258836137842104907e+00 5.056637123774275766e-01 6.295166084181889055e-01 9.669423363118176962e-01 5.901616395502411461e-01 4.177931638605446030e-01 1.891105025752736757e-01 5.149476104501964357e-01 5.296809010640591842e-01 5.101005231068077572e-01 4.509615410944659009e-01 4.836850172161985539e-01 1.017449933946021456e+00 5.108814012737357135e-01 1.322264216683243676e+00 5.340957569611914924e-01 6.517891242240320127e-01 -5.727616566692474986e-01 5.220811600124899421e-01 1.986263694222102583e+00 4.782780418912666032e-01 5.095590957120175180e-01 6.683542380050288001e-01 5.025780604542349206e-01 5.860177254849086026e-01 5.182999550641984587e-01 4.428618830296719988e-01 5.298951914154319542e-01 -4.040503337426656905e-01 -1.726466637663414683e-01 6.815451872922518861e-01 4.641988623379262463e-02 1.013749751651698450e+00 5.227331315036326531e-01 5.438729223302816163e-01 8.775570739577226442e-01 4.618187949869600462e-01 4.689024140575457911e-01 5.220099579056173278e-01 2.648652814828799176e-02 9.887028107174091751e-01 -1.991980163783958202e-01 4.175688701181237139e-01 -9.356668971505867072e-01 7.473298051565133715e-01 -2.811239585799757967e-01 4.950260395439790018e-01 5.129582694797907294e-01 5.675184936436383776e-01 5.231358494466740172e-01 2.063867517017198505e+00 -1.822146345277965152e-01 8.301695814168218446e-01 6.506857828114462894e-01 5.660980636808158328e-01 4.738370630240418269e-01 5.124969892524557924e-01 5.216266630065099497e-01 1.062590090033017631e+00 2.683033552622340889e-01 8.520565008832258203e-01 2.935023517011989824e-01 3.776548605327148533e-01 6.210905474261139148e-01 6.329062582619735533e-01 7.828735673345279533e-01 4.950691217357007234e-01 5.182434644857082384e-01 4.023039727040740310e-01 4.372808460437188627e-02 2.296496806737260143e-01 1.156906683759774818e-01 7.600026694127264282e-01 1.144497255911568923e+00 6.566715634816111535e-01 5.208310581623840640e-01 -1.634548183673849575e-01 4.506223431859081030e-01 4.194748924968405568e-01 5.100015505114382508e-01 5.337557427123389431e-01 5.055675326581819951e-01 2.890441116266018184e+00 4.758022186393003894e-01 5.748454666545568248e-01 -9.340171210318796158e-01 5.143146787227047545e-01 4.943389438686821014e-01 2.050488236599587177e-01 5.171310855702936360e-01 9.490430110724785706e-01 5.402094377924540058e-01 3.980016484748600258e-01 5.688711848461174281e-01 6.335893214953987052e-01 5.378179620396091876e-01 8.281986568142353233e-01 6.026141201476669096e-01 5.432043862597264461e-01 3.980016046035837474e-01 1.831060609835076236e-01 1.305027372416182718e+00 5.419889423226147418e-01 5.109604819903125206e-01 4.197382793846142213e-01 -9.887736079276392143e-02 5.027526155461297108e-01 1.539581949238853220e-01 5.164846372772001759e-01 5.245126346884729784e-01 5.236590080237090161e-01 5.265553494457734240e-01 5.253574110624601445e-01 5.194257991794956064e-01 4.442659110128970301e-01 5.489083279266835369e-01 -7.257677046398757215e-01 6.301805704104371797e-01 4.967847534844222479e-01 3.460963471686506199e-01 -1.176865661846024196e-02 1.350002865915372663e+00 9.762438491933324025e-01 4.886314896165854238e-01 -1.015832393877894174e-01 1.070902236789127659e+00 5.233812523832109820e-01 4.858197781774637458e-01 6.724079098745621152e-01 4.051747866885074267e-01 2.338229852842050316e-01 1.592434497460462617e-01 -1.687530411779923634e-01 -5.511857754728410885e-02 5.495717596987498288e-01 5.165156924981221254e-01 -1.230585785623817957e-01 4.480159163281641765e-01 5.234604964481133216e-01 5.337471521651662165e-01 -9.105636056904714559e-02 7.654336593121913168e-01 -2.402908201576957392e+00 6.155374469476517785e-01 -6.882867580845337674e-01 5.012127231833088947e-01 5.247522118150854675e-01 3.510225102193884061e-01 4.981441297992516004e-01 5.422766887451759832e-01 5.008325666903098439e-01 7.939341208533997607e-01 5.756885177900318284e-01 1.704980727766326254e+00 6.846077639044988450e-01 6.731684883830857391e-01 4.497435338519024106e-01 4.220022771757168667e-01 9.309999382224720677e-01 4.999674594092792246e-01 2.762967893679777909e+00 4.403951272121707228e-01 2.167743003813498714e-01 7.781567382676556344e-01 5.199241703147267080e-01 9.305832095860033792e-01 5.207278685560345899e-01 5.786852972258711425e-01 5.206137514628155216e-01 1.166311732508210408e+00 7.638323252357783755e-01 8.546637376357766325e-01 7.959916128280265513e-01 5.893865600118904924e-01 6.869101511205857324e-01 5.071887182556228391e-01 3.697774475417358042e-01 -7.561799183283139936e-01 3.925414476473542136e-01 4.103065236342062772e-01 5.326817451301415485e-01 4.913411746048913509e-01 5.101005415698512957e-01 6.132355679597419895e-01 5.092428274880748118e-01 -9.493737762968174065e-01 7.730316998395078132e-01 4.940747559113229936e-01 -1.641739071878240558e-02 4.527310068277635713e-01 1.862855920886705263e+00 5.073749260187490062e-01 5.193864365399872840e-01 4.175664385399860401e-01 -3.533964127754814388e+00 5.168637486440361695e-01 2.985182807214843415e+00 7.824318493484687664e-01 5.471678232293895050e-01 -5.679392797173979934e-01 5.271649170091563530e-01 5.212746773069095729e-01 4.586417596002466124e-01 4.496118089414702368e-01 3.317644354458939016e-01 6.537639865572411058e-01 3.136937765832619185e-01 5.262428446154665540e-01 5.205356615513057061e-01 3.603676789190718988e-01 5.216426327382460704e-01 7.819674705264176851e-01 5.228594297399220547e-01 1.218202042961432641e+00 4.944436968091204393e-02 2.247202791811007572e+00 2.699003907807083102e+00 4.796052205142296576e-01 -2.427703922182651297e-01 3.853645300217131697e-01 3.996663589987776155e-01 7.451008065388994295e-01 1.404183713218180474e+00 5.300391874931971170e-01 1.139103552953008469e+00 5.234832029817638732e-01 1.180645113958638109e-01 1.263774648316585925e+00 5.847378386883020918e-01 5.707470730772201684e-01 5.368021837006849983e-01 9.102649197651845325e-01 -3.885399575602480837e+00 1.668524417782022651e+00 5.357430314482553024e-01 6.344690491201692151e-01 5.315134884433964091e-01 1.874838067777315542e+00 2.934373773773297223e-01 5.676278959858068740e-01 4.676333064410911899e-01 6.337657264577016836e-01 1.367950578237654868e+00 5.127634979051839403e-01 3.980014934662207127e-01 4.480153984480026441e-01 6.026141237239476256e-01 3.959065328269735229e-01 5.703469139711161429e-01 9.053252442437959013e-01 5.225376393220362292e-01 3.811308944987786829e-01 1.348950727455779375e-01 6.516212908158749428e-01 5.241123942932760515e-01 2.673444120606691676e-01 5.676279268709713000e-01 6.123285018199071672e-01 5.181809011622692251e-01 1.053514447708866930e+00 9.218630368211666593e-01 1.166774438665621583e+00 5.252603931483622590e-01 2.111704773626220943e-01 9.310003965800931480e-01 -1.100585398551421762e-01 9.340062792961555393e-01 6.307578711618679890e-01 4.861655924843814175e-02 4.227578828115548526e-01 8.736092121679215339e-01 3.832436010637250146e-01 4.739099880586795654e-01 3.279101541984329460e-01 -3.428460963288227359e-01 -2.545910006525715641e+00 5.561019743968288465e-01 6.026141238546147694e-01 6.026141178624864203e-01 5.234148380863338224e-01 3.487009914467042448e-01 -2.440640841368996450e-01 2.757799902822685723e-01 5.249722487437180618e-01 7.108959478417770095e-01 5.194039166263916263e-01 1.015823388450637355e+00 3.980021618468426725e-01 5.203032667530587130e-01 5.010827172118890172e-01 2.996623852753137474e-01 6.632214006599126410e-01 5.168709385022082214e-01 5.258737245434758067e-01 4.879597210566791188e-01 3.260192841845448442e-01 2.351653649668985699e-02 6.026141233355037929e-01 6.638440727472885161e-01 5.226264216561914422e-01 3.886263413076607720e-01 8.603069426426089850e-01 7.702561572295359982e-01 5.648989898589934500e-01 1.939353351406221115e+00 4.840039267699567382e-01 -3.235491718080810042e+00 7.809501631129119881e-01 1.554075314329259605e+00 5.887763905851307600e-01 -1.127212724494846219e+00 8.628644730648235006e-01 4.338872474016143288e-01 5.354035009530424549e-01 5.437340636961620621e-01 -4.662169095868956559e-01 5.040631247538034376e-01 1.080646507008065527e+00 4.449275019071288750e-01 -4.211823948533368056e-01 5.110976456936262569e-01 5.362725091409603628e-01 7.964068174065402905e-01 5.231921635577873042e-01 6.163716096500032604e-01 -5.545224435877429414e-01 5.608880403602235498e-01 5.230212363114441487e-01 5.029436887957015045e-01 5.140774157939258515e-01 7.715377142238817321e-01 5.206036804527645057e-01 6.301775284522129761e-01 3.920524911307031735e-01 5.276306214251041959e-01 2.237596721295473656e-01 3.443743809348437379e-01 3.754032147503214012e-01 9.768129693405780412e-01 5.606438014946335535e-01 3.278001491524340949e+00 6.544568135623261007e-01 6.697076989953884008e-01 5.421643462297571769e-01 5.255996409800676172e-01 1.124541762136137615e-02 4.968750452728599165e-01 5.476770435620840205e-01 5.287149617382383981e-01 1.154241363782259056e+00 7.718625580369978811e-01 5.239395405291670249e-01 4.357580739050583851e-01 1.120274261953809525e+00 5.262601846809563666e-01 5.540582747102014149e-01 5.372404369553862580e-01 8.688289892966222228e-01 5.250570851559610563e-01 9.513300212742531459e-01 4.881050155421436942e-01 5.204962038262097579e-01 4.782286756455802340e-02 5.282924608374185427e-01 2.154504667899261386e-02 2.781054561126860558e-01 3.971647169726212900e-01 5.687286458459911431e-01 7.920458625205379910e-01 5.254767717981981834e-01 3.823521032500247774e-01 1.370841997387432787e-01 5.024833255801199883e-01 5.027766171140055640e-01 4.413631673850912374e-01 -2.352498768592339688e-03 5.216107554608031549e-01 2.744953125140842110e-01 5.187392716853022057e-01 4.081024087666358935e-01 1.265069049313324756e+00 7.443810608359319181e-01 5.163689991092358378e-01 2.435904315074833848e-01 8.310574709580516028e-01 4.569046426554280727e-01 1.006175425366103715e+00 5.634433994922560807e-01 6.217443823225450306e-01 7.121644391785099115e-01 2.041409561840628051e+00 5.189467100751944395e-01 5.818480739658699052e-01 5.308397853817716783e-01 7.729935593998407128e-01 6.129292005896933571e-01 8.778711837959739528e-01 -5.895095875652991424e-01 4.314078950038282567e-01 5.237844157369735409e-01 4.429120369770592203e-01 4.779961082002504580e-01 -6.461002602207007728e-01 3.841305498479647973e-01 5.169555302832479216e-01 7.186826075002786807e-01 6.707302268037484971e-01 1.577842054999257781e+00 5.199187785332344269e-01 5.276897910580113926e-01 -7.421690228066408768e-01 5.290034440348850842e-01 1.254241794786820297e+00 7.303125311256521979e-01 2.981809281900686948e-01 2.255090496036106229e-01 -1.894051120308436031e+00 5.646577794961116226e-01 1.984719734113123690e-01 1.113192907790019337e+00 8.317612973389557629e-01 5.536192479336354832e-01 5.687154540036530870e-01 5.247935875266044325e-01 7.812621620056776628e-01 4.144268369646379457e-01 5.510599417440050773e-01 9.782875149674295431e-03 6.145877298377739884e-01 4.871682897541904644e-01 3.690839890719793126e-01 5.163444763733897602e-01 4.281678120685137312e-01 1.244400621849037547e+00 -9.426247634166462497e-02 -2.497700184072568497e-01 4.100078339240343928e-01 5.031926380441932301e-01 5.251782523653624191e-01 5.268310065743947446e-01 -8.982646518770280863e-01 3.241595899413196591e+00 4.517781818299975716e-01 4.361523366848908956e-01 4.635486958424950288e-01 5.255044910928046153e-01 5.030376109075742619e-01 4.606816139104271124e-01 3.299272123806694101e-01 6.198902538162530673e-01 5.215029495426215522e-01 4.495810441844589334e-01 3.073342830532544423e-01 4.070457540594278334e-01 5.593450864465826511e-01 4.049358266842497667e-01 5.639728999292150657e-01 5.115487906145519403e-01 6.882846396755156748e-01 1.030397676219139136e+00 2.358629139322879098e+00 4.831139986641626027e-01 5.022512549495288248e-01 3.184548182353597046e-01 4.754114485196059281e-01 3.955416010830641871e-01 5.235582164697263341e-01 5.171606488523740053e-01 4.854054764286068746e-01 5.901105613165897879e-01 5.740932139128032130e-01 7.815187658999696030e-01 3.646122311465901933e-01 3.824007655582352672e-01 3.872208244338846139e-01 4.726018467204648466e-01 1.017674222690268943e-01 9.309999226484780843e-01 4.853030766541894803e-01 7.780476971302736910e-02 1.915288101203063809e+00 3.366051026035129512e-01 4.002005565614500937e-01 5.994435215112184911e-01 6.711758906175957495e-02 5.538438104095849690e-01 1.542197140350764606e+00 8.113270912431720383e-01 6.728550344176542630e-01 5.192102973139400834e-01 5.087860329376018287e-01 4.158238400238782329e-01 6.210783634978312984e-01 5.200898571851143570e-01 5.183745583200732865e-01 -2.911898442373395124e-01 4.580063427508082041e-01 -1.650577678772298329e+00 5.239503515086294527e-01 5.289939727418585536e-01 5.333013400839737850e-01 4.175568733578379765e-01 9.309999226247667181e-01 2.286970010639623463e-01 5.004834035437674133e-01 1.384643618621448136e+00 -5.929798462066987463e-01 5.202257356547997924e-01 1.165388733813093047e+00 1.579012428345169194e+00 5.994379247866055138e-01 5.207413859787369814e-01 -7.026986692929514111e-02 -1.739407292332978860e+00 2.651930096853247765e-01 8.586818906262638773e-01 5.395782110900024797e-01 5.231091364066347005e-01 6.175228223732605048e-01 4.787288795505917904e-01 -4.350216305902504521e-01 8.422870958268375841e-01 5.101012755711946678e-01 3.235690261517973343e-01 5.042761854679675970e-01 6.445220973747432282e-03 -1.619393951636817208e-01 1.849758565788419684e+00 4.095720227304512906e-01 4.895104620980239574e-01 5.190282070957291660e-01 3.178580294910323678e-01 4.717630380386906297e-01 -1.635437914197281351e-01 -1.396751720649999973e+00 5.267288695534289023e-01 4.778930617599903563e-01 5.007540820104070534e-01 5.156819950771102112e-01 5.348153031329980767e-01 5.473225213311971871e-01 5.195850541881814610e-01 5.533347949372604546e-01 1.043367415344509386e+00 7.069596642870018544e-01 5.350451188251410528e-01 6.432419350401697988e-01 5.555873576284304782e-01 5.795138283460518069e-01 6.289874246010943026e-02 5.676278677351123125e-01 4.261084919187464459e-01 5.823538402843760897e-01 7.449205402878786852e-01 8.108640554086328223e-01 8.778820146502965827e-01 -5.613973799419794686e-01 5.334601142918252714e-01 4.931029329395433813e-01 5.279670826606424061e-01 5.980303820020889116e-01 9.172600243560855571e-01 4.660223181230784273e-01 5.199706583857909292e-01 -3.245140645939018631e-01 -9.142053752320378202e-01 2.364856304025295231e+00 5.216973527686549206e-01 9.091101128137784038e-01 4.212210306818355288e-01 5.810379034706101287e-01 4.082652449961913788e-01 1.533785337558674911e-01 5.197539816330376539e-01 5.047782774257493221e-01 3.165587132017205416e-03 5.236961480303525818e-01 4.650000825029457774e-01 5.197478176546102002e-01 4.467470501360005231e-01 5.266172039435491614e-01 6.466447854142348683e-01 4.359348478458190401e-01 5.464505854737350399e-01 5.476715620883338964e-01 5.156414590820302957e-01 4.175733524582843081e-01 5.277274224452305207e-01 -2.401686828037588872e-01 5.195247041918068520e-01 6.411047714061519631e-01 5.415131806260859992e-01 7.807624407870419336e-01 9.309998209385509371e-01 7.233498171258908593e-01 -6.243812311014451666e-01 9.755059291318782799e-01 1.874838067212842851e+00 5.149096653073408358e-01 4.637284970745503276e-01 1.092773897087684576e+00 5.543660693247569604e-01 7.805877521453484791e-01 5.178709047241172314e-01 1.904386550462860539e+00 5.198516700302503457e-01 4.480154522004548001e-01 1.237777331706391371e+00 -6.967654518995911039e-02 5.050386487866996843e-01 -1.504061646286053155e-01 -9.998422693960501428e-01 -1.621992061380150840e-01 7.775773699277560569e-01 5.577616621286050069e-01 5.322871405993097049e-01 -3.147902950663196142e-01 5.426144491604441011e-01 4.454553231843053074e-02 -4.258187085656732762e-01 5.529608013864230065e-01 5.235350834415591903e-01 5.224671501747508717e-01 4.982656758842544664e-01 4.700322734045405126e-01 9.225518368159268956e-01 -4.572274352578658552e-01 5.197158097833446400e-01 5.002161946545461424e-01 5.636685492996503788e-01 1.180355211804299032e+00 4.764631682414560143e-01 7.042397428387692226e-01 5.193557907039346722e-01 4.889307828906241937e-02 -4.656248571890242438e-01 5.292153101085038669e-01 4.989624522329649259e-01 6.873755707381036251e-01 5.229712883023738268e-01 3.871860180014734532e-01 5.207177158679657802e-01 5.217986068339541816e-01 4.286066330893040233e-01 5.441530056523296022e-01 8.419087898720689633e-01 2.614331525768097908e+00 -2.539639646725206368e-01 6.539460001797621214e-01 3.581382293476815248e-01 1.970921109324967058e-01 6.459822888402514396e-01 -5.371707205308510341e-02 -1.615916845368469579e+00 5.052873941980285943e-01 2.677452461279782536e+00 5.915957800381494991e-01 1.749924334266760306e-01 1.500267492201991237e-01 5.101005249328268709e-01 5.948649302015470708e-01 1.596360683771165023e+00 5.275003567704911189e-01 1.258165432273338769e-01 4.089411760661744166e-01 1.758424301960933356e+00 5.885111774931461870e-01 8.050487777809547385e-01 5.123874070450145091e-01 7.376089098489916340e-01 4.681224912443310848e-01 5.856450402317409099e-01 2.962951950301014395e-02 5.270443235128229320e-01 5.977979460722768756e-01 -5.898017673582315323e-01 -1.169740747076189052e-01 1.185901353223370203e+00 2.414843335394651624e-01 4.773911705652087445e-01 7.279874235554950612e-01 5.065797969424385983e-01 2.031461529344561701e+00 6.499692568264598957e-01 1.327775272743299435e-02 3.968841361609568019e-01 4.010596681842512612e-01 1.153074415069590186e+00 5.035909220974641443e-01 -2.127665809380957507e-02 5.271350358122494084e-01 -3.667687209642188795e-03 4.999097467521920746e-01 5.163284992612783286e-01 1.821068584920415914e-02 -1.414232775904360889e-02 6.576179372314562288e-01 4.753182314879395576e-01 5.881236966913487851e-01 1.703355460152929934e-01 3.997008289139356019e-01 5.340251063280330168e-01 4.367587646893770770e-01 4.891311249075577794e-01 4.801884721039289539e-01 5.707552643192171926e-01 1.022852874501846143e+00 3.202169156983452503e+00 9.737761601955690072e-01 5.283441107575526097e-01 5.359230161697586814e-01 2.201069029224272111e-01 5.221197804398509668e-01 8.638521849629190452e-01 5.134444931127333245e-01 1.317298212549649961e+00 5.338134383666010008e-01 -5.994429898420323699e-01 -2.129150445214917503e-02 4.372868410396227867e-01 6.167885185937997949e-01 5.821556735401862692e-01 5.180022528126225767e-01 5.739497692079521124e-02 5.103599928474760183e-01 5.732761186847601387e-01 -3.893887514431817021e+00 4.780397012961464243e-01 5.356305834327771409e-01 1.144368238255826009e+00 5.188581712305544436e-01 3.962090079488881367e-01 6.646002857141096731e-01 -9.237588973204580167e-01 -4.970441369454016156e-01 1.937925774680604799e-02 5.236810509955928117e-01 6.275728083741507479e-01 2.086356035210863713e-01 5.093530734423726836e-01 -3.495679173947476293e-01 5.346695892405921580e-01 5.693134111494441152e-01 6.972801294918045123e-01 5.580737747743204080e-01 4.655791843476357883e-01 1.411384468020804306e-01 -7.956806247439092150e-01 6.541026169675294710e-01 5.609115737941566815e-01 1.527816836525162369e-01 5.192021594217600677e-01 5.045879815177668481e-01 5.175946902750351297e-01 6.630978350700599266e-01 5.834993094751209641e-01 5.525214856121679619e-01 5.054034900111744610e-01 1.874838073726588838e+00 3.465101614331421165e-01 5.260301108551366234e-01 -1.429605543116663491e-01 5.084140772727377966e-01 6.465843630813906673e-01 5.327445755872833866e-01 4.799507838842453911e-01 3.800488757607741186e-01 9.645224308450639494e-01 1.234269910723374108e+00 5.530657105870889767e-01 5.800651117410192681e-01 5.972333703375544145e-01 5.042089556809798978e-01 5.120532391986782894e-01 5.219224078970293723e-01 9.755122780128548943e-01 6.706712523370639278e-01 -4.683250077297654856e-01 4.691937902382313785e-01 8.982829835502481597e-01 5.124756768358207371e-01 -4.389070756873751644e-02 5.256344741296112844e-01 1.553560165868834719e+00 -1.378192339273471567e-01 6.702851843144522759e-01 2.318928605458905057e-01 4.795767431680971193e-01 8.805953300147646434e-01 5.219776269399410973e-01 3.754569344648109874e-01 1.415812610211252709e+00 4.706256013923074133e-01 5.132698226784637718e-01 -7.264737218378569672e-01 4.385904376840329411e-01 1.038503034378793988e+00 6.306851007146768717e-01 6.254654048802767152e-02 9.999487300314195970e-01 -1.000608472854475767e-02 7.550777112792217416e-01 1.670346143721316290e+00 -8.708168132098518255e-01 5.676500617755723122e-01 5.211885453810386482e-01 -4.887705872291797649e-01 3.010358385791219171e-01 5.509668026416016939e-01 5.252437807924392743e-01 4.674842093881222960e-01 4.494259575206285828e-01 2.625536603333769037e-01 3.513300251751982350e-01 5.690768985537496549e-01 5.259945647451351736e-01 9.680899338305459789e-03 -1.723208889206503114e-01 5.025872893192960822e-01 1.070715914781056766e+00 5.651654537293202551e-01 -5.893956754853026947e-01 4.287576271767020164e-01 5.202253522769987315e-01 5.690473363497503545e-01 4.850823415760099205e-02 3.231048315141427651e-01 5.196646051549537182e-01 5.146698937938061214e-01 4.545172837912336283e-01 -1.519082292756542170e-02 5.500195706168689025e-01 5.370259154502344812e-01 5.579605703201968581e-01 2.117457013082259643e+00 -1.854544645764099817e-02 3.906677130411461696e-01 5.683383686395360179e-01 1.865517791818831261e+00 4.846615081957481030e-01 5.688212587200908166e-01 3.103267529268913943e-02 5.676279127460746032e-01 5.242936626267862277e-01 4.781210913726333112e-01 4.087013374753248329e-01 5.366592929690553460e-01 4.462955086393035065e-01 5.309292042371607234e-01 -5.715610170402809498e-01 5.217245049414056535e-01 5.044855077256601428e-01 5.317293471568054208e-01 1.304361743160516118e+00 5.261064220716951123e-01 -2.507253032217538480e-01 1.142537798757746526e+00 -1.336972622190828242e+00 -5.520430168167909102e-01 5.262318947584716522e-01 5.207474626864372347e-01 6.700478959868597650e-01 5.257652101425487334e-01 5.373318186334720137e-01 4.986031855401458213e-01 5.676279003928514921e-01 5.202505531081281775e-01 5.386821350867507796e-01 6.075437011480457894e-01 5.239605099298960678e-01 3.268648150239852890e-01 5.273260145540210608e-01 5.383898369457268407e-01 4.157454609647252552e-01 5.168147723015518169e-01 5.180180261762384886e-01 5.093949028415828417e-01 6.532704398095486864e-01 5.234580325620727947e-01 7.290499840785605867e-01 5.217739866508902535e-01 5.327770278746817301e-01 5.358577392644982007e-01 4.344199868009824272e-01 3.460658676950829626e-01 2.498240352425301403e+00 5.334212831495958040e-01 6.362754598700955944e-01 2.967393959411406823e-01 5.768245840170722616e-01 1.124319491686162298e+00 4.177568012450804114e-01 6.860135677972657442e-01 5.220769691708766480e-01
7.177524629098289699e-01 2.911913400391287765e-01 4.567544625436321670e-01 -4.302162027594350069e-02 3.038512664120917028e-01 4.082476359587698389e-01 5.402834861132017608e-01 3.783666695946995562e-01 3.921040748453221703e-01 3.187385229868430758e-01 2.093011217469606944e+00 1.744320605078612862e+00 -1.486366752822458226e+00 5.734595447356419795e-01 3.053037682156672372e-01 4.678735193369248924e-01 1.380715333949401880e-01 4.524443983693589577e-01 3.967466143545202995e-01 3.225350092542168534e-01 3.976641543055630112e-01 2.168006997000396563e+00 3.429857512945489462e-01 3.360047218172139694e-01 7.595245050738813619e-01 -1.554439206852266386e-01 3.936161533782442379e-01 1.795384267834045089e-01 3.365081500187221408e-01 -9.462829873551019677e-01 4.614456508968642900e-01 -1.677130194288831699e-01 2.895547147692423273e-01 2.989787880780904183e-01 -4.060754250963298784e-01 5.074090008990429501e-01 3.331652882326753828e-01 -4.057212987708223584e-01 -3.335092755741765558e+00 3.154961535383032922e-01 1.215652570965047197e+00 1.477797659849955647e-01 -1.701452299201590135e-01 7.913271107573743857e-01 5.355950373245347285e-01 3.125157118132468881e-01 -4.256372850168162192e-02 3.214964807389094625e-01 1.157789386915054897e-01 6.555145019628201286e-01 6.961770367786425107e-01 5.122289453517674396e-01 -1.255374220794790441e-01 2.534973488366896177e-01 5.853156705291958639e-01 6.670164390414734523e-01 2.809765165210704740e-01 2.777790888286629234e-01 3.445758358006962840e-01 2.909679052495814378e-01 4.359102650478069441e-01 4.353120253916827886e-01 3.416887211038501238e-01 3.429857634434171909e-01 -3.394645907306171329e-01 1.126238625638137925e-01 3.151144020502172904e-01 3.041630604575950025e-01 2.697516235001478080e-01 6.953555355570272267e-01 1.826184402959313557e-01 2.531179082058839236e-01 3.056156564915869511e-01 7.170605849611557669e-01 1.957846879108528171e+00 3.856825481065317973e-01 4.803902247245525614e-01 4.832349330779984742e-01 3.046373428412293971e-01 -1.366693532298071556e+00 3.260852640939347347e-01 5.159236285390587096e-01 2.429041527260196176e+00 6.238629553946844347e-02 2.426809889395148412e-01 -3.376467649076881350e-01 1.476988313518831364e-01 3.584489503306305114e-01 -5.871946880363762000e-01 -9.211352425649708131e-01 5.356406063918410787e-01 1.626637550094874207e+00 4.805807398029761368e-02 6.821730502611744740e-01 3.732595381196802120e-01 3.555033731092536176e-01 2.815814756986044776e-01 7.949244308763085964e-01 7.360632258416304197e-01 -1.468683043431532886e-01 -1.850127991977744968e-01 5.705427453782173364e-02 3.453227906846814133e-01 2.232508171509277051e-01 -7.079048226515506637e-02 3.197183637469143580e+00 -2.986860627411610514e-01 3.910439865846941920e-01 6.727839242576773293e-02 8.128201779362593804e-01 2.900064237631361785e-01 5.403740724218992764e-01 1.619307639099236418e-01 3.316839631153638002e-01 -4.691059678436956815e-01 3.148432443691308591e-01 6.778297821082808483e-02 3.890861583317523076e-01 1.218473020990580302e+00 3.392861739037383861e-01 -1.485702481081361270e+00 1.038923643672531039e-01 5.722604376650170660e-02 1.512867283669715235e+00 3.158090159344112968e-01 2.220696675551839583e+00 4.052032010807858353e-01 1.999173123763547388e-01 3.170036471242339005e-01 3.104897864253664541e-01 3.441499361921667166e-01 3.025230074973579986e-01 6.683047148489645872e-01 4.028773126897450818e-01 1.564715896128910377e-01 8.516147659504966771e-01 7.329093084567855909e-01 7.001407126243481827e-01 -3.428918481735264145e-01 2.355394781710066776e-01 3.183879197433094888e-01 3.222591156605488227e-01 3.674355897551279670e-01 2.827696402141981480e-01 3.057245898475977608e-01 7.010560698339437513e-01 -1.919621067481103449e-01 3.195159584234130157e-01 4.116858165210411924e-01 4.052546046278548975e-01 -1.808050563910210129e-01 3.036465331077181293e-02 3.125295146817537728e-01 3.143530094443878764e-01 2.668878044466278521e-01 3.084273379360067402e-01 -2.548464182480740803e+00 4.737840841964921501e-01 -6.137852804264181117e-01 -1.484212303117559972e-01 1.276497420636337476e-01 4.107694493327010976e-01 3.132770265340548699e-01 3.057189614837913516e-01 1.340648513450224399e-01 1.311855519107399948e-01 3.214896679680369629e-01 4.999585605134756472e-01 4.810264156903611421e-01 2.621522207993687292e-01 2.482562681035183905e-01 -4.072568126122712295e-02 3.124169925174337115e-01 3.011998964028888559e-01 -2.554086298479528505e+00 6.653333903383964465e-01 5.613362157187198331e-01 9.248391004125027237e-01 -4.621636041858155353e-01 1.175778953734155419e+00 6.233814019912958804e-02 3.113965602105537855e-01 1.250337385599034956e+00 3.812854545253327454e-01 3.163947241794823340e-01 3.557525971975307177e-01 2.660689351829071403e-01 3.146413328926522257e-01 -5.091663564616333293e-01 3.551552138020622196e-01 3.574807973431348151e-01 8.292125643809985513e-01 3.483372483312894285e-01 3.719338554057788349e-01 2.546143496037847065e-01 3.062939388986153366e-01 -1.712349637259623858e+00 2.973870028200295001e-01 3.772373985126348250e-01 2.439453607164752957e-01 2.587193620703513025e-02 3.877334467313870991e-01 3.915190036107222271e-01 1.562960407328701506e-01 -7.488430848623299774e-01 3.772374250246373628e-01 4.999337467884494290e-01 -5.285029146769845143e-01 3.232681098053422630e-01 2.503450974379935468e-01 2.245788463094085530e-01 -3.333676372027495116e+00 4.081487208015747159e-01 9.073018438877096248e-01 2.886648300650584975e-01 3.027641711761611676e-01 3.045901744947977496e-01 3.363613642788029212e-01 3.089865821381670985e-01 3.057308018876012667e-01 3.833823740452160234e-01 8.213075386277761403e-02 6.750508224359188514e-01 1.102953814675762256e-01 4.227278073749805021e-01 5.384494299777059512e-01 4.152993785163130447e-01 -7.185191024686899963e-01 2.354064921793104226e+00 4.139218589143927596e-01 1.257364855667271186e+00 -1.407095409577835854e+00 3.090540366857961185e-01 2.890334649696064684e-01 3.423173584462880781e-01 1.202445196754623469e+00 5.329146721657312957e-01 8.422883354536636613e-01 2.904487524220262795e-01 6.652323093954687350e-01 2.144845759127370355e-01 2.930106979031751324e-01 -1.201837661172897365e+00 4.196835618052400796e-01 3.047271862240157891e-01 5.070075302813136231e-01 8.685906339954163613e-01 -3.896990218085342739e-01 3.253823083818187190e+00 4.991730740322374849e-01 1.323109680296238544e+00 -3.246418714399268435e-01 3.046829940951576443e-01 3.429834363565387734e-01 3.597490447292322480e-01 2.828902865698861291e-01 2.628050846951275887e-01 -1.660674046454315433e-01 8.218861650632156013e-02 5.630459049175290387e-01 2.298126450488169603e-01 1.072947156370724492e-01 2.409678169003840742e-01 5.023577445102779260e-01 4.359102401547461647e-01 2.582073633403134671e-01 3.327709050349152431e+00 3.338406655888423447e-01 6.500735034592488581e-01 5.160236014536164761e-01 2.836076511158733826e-01 4.361814194336187112e-01 3.061037520114326393e-01 2.996588804683485430e-01 3.046425628310870382e-01 -6.414637364050749246e-01 4.053706837577696898e-01 2.850633839331734309e-01 1.489648674218155000e-01 3.526922376793431013e-01 1.562701476206284967e+00 3.665195606101649961e-01 3.272239485955406035e-01 2.018051502724536483e+00 5.143625620508787133e-01 3.123825293512992318e-01 2.975052670032724556e-01 3.035969575612655902e-01 3.148429017749566627e-01 -2.081570756364755415e+00 3.451625712070371388e-01 1.617728652716700077e+00 -9.878816900862533168e-02 3.549488974974518984e-01 6.563757458281692658e-01 3.407500764078154054e-01 -7.352149719018260532e-01 3.518592666820574699e-01 3.074585766691136368e-01 4.116851189235077313e-01 -4.084046343208309615e-01 3.256363504070630688e-01 -2.396820790059932982e+00 -4.116329225419444043e-02 2.889853538870907901e-01 5.958524479507659732e-01 3.033253572553811228e-01 3.035742513960221767e-01 4.969522460695333099e-01 1.628654268582891140e-01 -7.177114619338235968e-02 -7.802421654145641483e-01 -5.263525144540748962e-03 6.880543433198886838e-01 2.937524332147922745e-01 4.959979115488495904e-01 2.919252575986175935e-01 -4.187704891254358242e-02 3.001069487822903281e-01 2.493693740593173835e+00 6.809329091202590556e-01 2.472996912639542355e-01 -1.192017779294187285e+00 2.457541764938822870e-01 4.822046045663124225e+00 4.170971434695442404e-01 -2.005447065349079960e-01 5.724182656428037363e-01 -5.730926654404751019e+00 5.369706769979513128e-01 1.591132677473529489e+00 3.060622117499208761e-01 5.216457300537959973e-01 -4.580606980608371570e-01 4.256075291903984592e-01 2.424451710667994420e-01 3.451967402878550750e-01 2.099377937450301046e-01 3.014437609205496305e+00 -3.862450757293944825e-01 3.057430953197929901e-01 -1.945472089570245977e+00 2.760545662177411042e-01 -4.057212965219864076e-01 7.617158730763070595e-01 4.883198944205053849e-01 2.596296461001852962e-01 2.854173147625558293e-01 1.260503921809090766e+00 1.611643537477281396e-01 3.772376313498767564e-01 4.196828968110262181e-01 1.562960368162608915e-01 3.872406354777103155e-01 3.844081748677147803e-01 -6.279108575538807635e-01 3.050630410844357709e-01 5.634759412761665143e-01 4.080775304382347479e-01 1.826617611353228421e-01 3.052270398170887633e-01 5.127888561080640173e-01 4.883199590774451315e-01 5.133718186539651951e-01 3.095367619494582834e-01 1.613285478865779943e-01 3.714514190283059736e-01 3.548307971380575854e+00 2.874899716168579644e-01 9.990827667047921801e-02 4.359096680876728969e-01 8.349530108130862605e-01 4.703797661052532830e-01 -1.929608143249119945e-01 6.899098229292939255e-01 3.479596818761099275e-01 1.292275335762194943e-01 4.266206661910861841e-01 6.825755495311338628e-01 5.196962988463480482e-01 8.003061801836588440e-01 8.250097985625112207e-01 2.261927090584462674e-01 1.562960408364739984e-01 1.562960491581546485e-01 2.768098078526657346e-01 2.313128187370855349e-01 1.119560817470912406e+00 3.846507970440457558e-01 3.134235146730300348e-01 2.610986929015395308e-01 3.014293097563405799e-01 7.420607937516027208e-01 3.772373195991962636e-01 3.053349636785545607e-01 4.147804726991123347e-01 1.931412015425952033e-01 -6.435180688468258303e-01 2.976909842479988910e-01 3.070856283338898041e-01 3.635872993038892220e-01 6.637682325850768894e-01 6.569598629156079284e-01 1.562960415579034146e-01 1.460890936300693888e-01 3.114995490710114612e-01 5.169166195321116541e-01 -5.966151293762476104e-01 1.711810717395984560e-01 -3.601888530607111782e+00 2.044774313117649012e+00 6.274607742330274851e-01 -4.898421653307495904e-01 -4.315559498127639199e-02 2.096489084319562490e+00 3.254308540200625544e-01 6.543277706804828675e-01 -6.872528418538094430e-02 4.055866941410011250e-01 3.912467757441239757e-01 3.237203810849733632e-01 -5.681468676996670464e-01 3.535254300536837535e-01 2.103170396326436098e+00 2.105645677213855427e-01 -4.702890931230985228e-01 2.907383819692079818e-01 3.087951202124180616e-01 -1.470382550715628955e+00 3.009428929651770113e-01 3.725441085142769948e-01 4.036366685879280158e-01 1.091960521656794719e-01 3.106686787473352251e-01 2.210891992174410237e-01 3.006948312793334410e-01 -1.614986258696114452e-01 3.141968277120167907e-01 1.102443947163468385e-01 3.007664858836379684e-01 3.050646800322083796e-01 1.195318587971317542e-02 3.684782780900427990e-01 4.887147282904011902e-01 -1.432908876874371851e+00 -6.875279974185954934e-01 -1.211605815198472380e-01 1.539231710346896931e-01 1.449030756021668087e-01 4.367870776343715233e-01 3.571838764006746159e-01 7.093200213956700750e-01 -1.437297632569035644e-01 3.345415085817037282e-01 3.021538962425739938e-01 9.643974599307200690e-02 -1.617104709979738653e-01 2.828347919198604954e-01 4.610729429886550323e-01 4.801147987066424760e-01 3.518800612012717988e-01 2.961197785687489370e-01 3.016566172118674283e-01 2.431462202090228508e-01 3.045872999932277558e-01 4.814550097921683203e-01 2.384252198087553065e-01 3.055766315517098319e-01 6.893720420862088361e-01 3.181547162036214571e-01 7.102410734856655639e-01 -3.065498088138956731e-02 5.832299078703454542e-01 3.035628903831912861e-01 -1.479325717432025789e+00 3.091453984818317569e-01 6.291624928940259265e-01 3.449445046658169978e-01 3.383223459162030822e-01 3.581779527632404370e-01 1.627923495925303610e-01 6.859532664865406471e-01 3.094996749936432812e-01 4.323554295507659462e-01 3.033457799431024671e-01 2.727798147339782209e-01 1.746052671343668594e-01 4.705719964085051110e-01 3.123061300933184237e-01 1.575495410909972804e-01 2.057281507016636007e-02 1.155237362337816348e-01 1.676179638851967191e+00 1.581043061333546051e-01 3.315772405603267248e-01 3.926041959746104926e-01 -8.727799760323021738e-01 2.943853578145090855e-01 2.215743948541780695e-01 2.559801687202943321e-01 -9.821675160972385965e-02 2.636061776263993739e-01 1.715451697407376574e+00 8.962109464521054170e-01 4.738399215965152234e-01 2.618592944212714824e-01 3.116294189217486688e-01 3.462521731299806893e-01 9.369433344617466020e-01 3.107031716122038656e+00 3.062712636957645174e-01 1.057791413098676039e-02 5.834663573966970551e-01 -2.477603644870051136e-01 3.018049333491070740e-01 3.030487597496941410e-01 1.091725824726085481e+00 3.002877928894673865e-01 -3.499852447738043826e-01 3.930004329570940258e-01 1.413809229812615087e-01 6.129654786664607835e-01 1.879839258057473206e+00 2.550229943923074671e-01 2.870699227162960554e-01 1.677414676370337476e+00 3.879780315041416183e-01 2.483459863675018808e-01 1.480040322854363766e-01 1.735676459471247046e-01 -4.272085643947142602e-02 5.257492773186884794e-01 2.464216352250739595e-01 7.103524630837674270e-01 2.830017949774590313e-01 1.990701255423039939e-01 3.338759261488732921e-01 3.411200129960873517e-01 4.444340035140810219e-01 2.650158943813972212e-01 8.748828344861713235e-01 5.195063902432097702e-01 5.162176797263426931e-01 3.374185687787686905e-01 2.404976338527685664e-01 3.058130654282068539e-01 5.942604935920161591e-01 7.817928881713782641e-01 3.733911392718018418e-01 3.328470425995918025e-01 6.103007717331221382e-01 3.074105479428805299e-01 6.899580849522384263e-01 3.469694117735281358e-01 4.844920291534087209e-01 -3.029213496383827420e-01 3.017056213939481313e-01 3.305570770500081967e-01 4.570375742531244678e-01 2.020769779344754602e-01 3.643138319004172732e-01 1.835342667912346126e+00 -5.939347510117367820e-03 3.581893060535309425e-01 -2.269891214471815022e-01 1.696045564327552935e+00 1.166373421316186487e+00 3.790858919002712546e-02 -4.376699830960980031e-01 4.494333066432628088e-01 2.660470023834242137e-01 4.793550024568593582e-01 3.059262835832824434e-01 2.998342885519681977e-01 2.373161695370971103e-01 3.317695277665582143e-01 2.603270598334470609e-01 -4.330993573534339808e-02 -2.390978434517673223e-01 3.030583124705213960e-01 2.205523037285295473e-01 2.570497831279054401e-01 8.853922711159556425e-01 4.359102511267849978e-01 3.227315501550140353e-01 8.621743950777850385e-01 4.751034894265812603e-01 5.352722411959791593e-01 4.499503932711669818e-01 7.010045196133535272e-01 1.487044522700251781e+00 4.011345026239424572e-01 2.134314237014811155e+00 -2.126096479263824696e-02 1.599842180474875253e-01 3.026111340298274777e-01 3.472603988025918520e-01 3.875484583510371839e-01 2.621573273984282859e-01 2.897180355626687853e-01 3.026625654815883748e-01 3.718905379064875727e-01 2.300610625642752760e-01 -3.634393994476293743e-01 3.116685887504416774e-01 -5.273841454733461942e-02 3.064749169223862091e-01 4.116892590744936076e-01 4.359102510355631344e-01 2.361660578910332875e-01 2.366155257778347343e-01 -1.309132024609407141e+00 1.994558797436261743e+00 3.019284211775912774e-01 -7.651328224083450147e-01 2.967696698954987999e-01 3.364712099718732419e-01 3.032920052561444701e-01 -4.883532887896318009e+00 3.600859314371530395e+00 6.365203175908341615e-01 1.571026076600819110e-02 3.282654440243559235e-01 3.038503500649741840e-01 2.515635488663829356e-01 2.670726795084919836e+00 6.330299841955158158e-01 3.191770901216079426e-01 3.148430317253844146e-01 3.137463900441853082e-01 3.412866148214245277e-01 8.536979730850127179e-01 -3.720260616930298747e-01 -1.240076118374932701e+00 -1.244961828894447509e+00 3.047027269629664081e-01 3.002846991354335970e-01 7.438279310856690252e-01 3.626371350925153836e-01 1.518322477896064449e+00 4.941850958767661783e-01 3.040347696185303761e-01 3.406281569809658238e-01 3.040193391718509774e-01 3.444277173456357644e-01 3.059407875534342347e-01 6.367882155188698823e-01 3.272737174222929424e-01 6.608429129616391062e-01 2.361120008817660099e-01 6.701242989141760475e-02 3.057898848694958760e-01 1.767089604771505673e-01 2.510789512361989440e-01 2.936980057815130607e-01 6.287147519197906487e-01 4.883199033055885541e-01 2.536013713179205986e-01 2.367426988246186526e-01 3.029160106224281224e-01 2.778598693485090920e-01 1.715470178738839335e+00 1.952343024584021425e+00 3.057570483659108884e-01 3.126919974906883226e-01 3.075934685619536313e-01 1.707659407761216719e-01 2.205926131111007882e-01 4.322434570400819354e-01 2.909141552429034827e-01 3.292596623030351610e-01 8.124998548800691500e-01 8.995678917456445545e-01 3.258826316454669914e-01 1.900130802343917624e+00 3.696843685356988041e-01 -2.842033511044924077e-01 -2.701939001553059772e-01 -3.015677732171834213e-01 3.027140672310396630e-01 3.497282461768571604e-01 7.098028890399271651e-01 2.990505144257060710e-01 4.389297811260550741e-01 2.792713987967265221e-01 3.082204618737115487e-01 2.659835942589504620e-01 -7.481486426079410335e-02 1.006745984737698718e+00 3.009001653872973026e-01 3.077684931874403174e-01 3.069655694240352450e-01 3.488061402484032292e-01 3.203177103662376290e-01 3.980759666050366352e-01 -7.582995995971840431e-02 2.220991147285062695e-01 2.805343798998987115e-01 -4.238227172923308278e-02 4.359102846457393321e-01 1.093013001125859640e+00 9.751207140013010699e-01 -7.177363989303154890e-01 -4.057212988162030021e-01 6.616840168583487669e-01 -3.393907473874209213e+00 1.587021953720298084e+00 2.956407241931175434e-01 -4.335704377004318683e-02 3.020712987650627235e-01 9.098263847425436257e-01 3.027385144360587588e-01 4.196834063344406784e-01 -4.389017858498948654e-01 8.135091237344589388e-01 3.108278836185498495e-01 8.557841561307442113e-01 2.120597640029068920e+00 -3.721529242525013492e-01 -1.491346418347197167e+00 2.606733398010354086e-01 3.033856094308906570e-01 7.460326243779289435e-01 2.800857821316308227e-01 6.975520064630745809e-01 4.690910683639851197e-01 3.431389529901019975e-01 3.113860936249059908e-01 3.104121072712349716e-01 3.239945816437890258e-01 3.131829868249395576e-01 1.442555614634510652e+00 1.676999098129615007e+00 3.003123070606814049e-01 3.477552270017848501e-01 2.657782148133605027e-01 -2.514668979561732187e-01 2.317476792885657944e-01 -6.231013778903568556e-02 3.055658259946700261e-01 7.044535776684376360e-01 -5.693987824431409051e-01 2.970496464689673655e-01 3.182133978348309356e-01 1.558385073821460520e-01 3.262380837738367845e-01 1.790727985735155736e-01 3.029840104091361397e-01 3.034064753961570604e-01 6.482971765027788213e-02 3.044203428786469989e-01 4.320514043106697954e-01 1.139101310365591369e+00 1.112536848726325189e+00 9.087524570325108408e-01 2.188052855269955188e-01 7.956022290059834301e-01 1.619566052349444008e-01 5.078676362398306665e-01 -2.198010647244439841e+00 2.960941006050408775e-01 6.643422757276735702e-01 2.993157330862015741e-01 9.436503635474935425e-01 1.384440663722595222e+00 3.148432513843644753e-01 2.386161649150719821e-01 3.763238213165714940e-01 4.219448604040955675e-01 5.473417777944440399e-01 9.724235275640077392e-01 -8.266418147669383210e-01 2.782644936462989604e-01 1.591371188577502677e-02 3.131972319971979002e-01 3.402024718168739637e-01 7.594800280921548685e-01 -2.821837397815100679e-01 4.133907100339634377e-01 2.961634882255731460e-01 3.600802935703815155e-01 8.962651338020884983e-01 4.350554600571195918e-01 -2.244228780046075011e-01 8.577483346568567368e-01 -3.329303469977522995e-02 5.578771492377381236e-01 3.444896862163938644e-01 1.300712978949920551e+00 6.031760892363550175e-01 7.089149382073391958e-01 4.318289153287823701e-01 4.812127370883548250e-01 -5.977798575941838388e-01 2.201182736815150420e-01 7.470122397445104756e-01 2.927852043507530033e-01 6.042709101775088909e-01 3.139400886524155165e-01 3.077299296762592284e-01 7.094958486494435945e-01 1.695018145486380245e-01 -2.077788657676441275e+00 2.122864762852534060e-01 2.498393649205435108e-01 9.493421906171269908e-01 3.294740031813552239e-01 3.323145015729244145e-01 3.804390854978763059e-01 3.087354994510829176e-01 4.070729165990032428e-01 1.169388770803839322e-01 -1.637650729833564966e+00 7.677719820674913098e-01 2.390866774173141807e-01 3.177883955503293945e-01 2.697908828787508040e-01 8.182427791401695183e-01 3.078017337068252868e-01 -1.596216621001950442e-01 3.553129132210484653e-01 1.127623138118392765e+00 3.132342047023428111e-01 4.167617202020397760e-01 1.036660296150664351e+00 4.306805451926490891e-01 2.866537333865723625e+00 3.182099207456042800e-01 3.293931038412956092e-01 7.156160161277743681e-01 2.892886539997446826e-01 3.314881659483177034e-01 -2.195514206219567388e+00 4.629109981581114308e-01 3.057106967947544884e-01 5.203977587174302144e-01 3.053404036809121980e-01 1.904676106851928841e-01 -1.607577764398612219e-01 2.092046665970108688e+00 -5.175522496565897468e-01 8.236736497135096480e-01 3.041639742461035856e-01 3.164727670036338592e-01 8.598777308238035877e-01 2.761886645958760989e-01 1.351066573114818592e+00 2.384287558618861658e-01 4.131627629698292337e-01 -8.882904368853441479e-01 -1.284679204242519801e-01 -6.316008318659095400e-01 -4.100196022435574683e+00 3.018900490509233148e+00 1.670098456948223425e-02 2.813373383039592945e-01 -1.677595251562003398e+00 2.989453254087105494e-01 4.593455642542967343e-01 3.214235190942779652e-01 1.904848318679795705e-01 6.436167947179116666e-01 6.055054448957346569e-01 1.111155552243946687e+00 -4.057213012444246814e-01 -2.403632239086832545e-01 2.685839035783688655e-01 -1.201599440355374027e+00 3.604206516198493748e-01 -6.622823384863287810e-01 3.057909943134565767e-01 4.381881576710348614e-01 1.266810254500072008e-01 4.620880893463507055e-01 2.609091483135710376e-01 -1.593871278232321040e-03 2.711588226734621965e-01 2.804078930248720680e-01 3.676351757010548060e-01 3.024911477912122781e-01 3.044713994891755648e-01 -7.175287335577248404e-01 4.518465417747149493e-01 1.550989594621723811e+00 7.986038439437548320e-02 2.344829595990957360e-01 2.406442565481858309e-01 1.201995749234911370e+00 3.293105960394784315e-01 8.225759012177434604e-02 8.819290111028093015e-01 2.209268814322591923e-01 1.897683710692046777e+00 2.972500081044450737e-01 1.386590542716481078e+00 2.874576308787120116e-01 7.333995980661808245e-01 1.360617930362996830e+00 4.113884812744805219e-01 2.529393687813363822e-01 9.560308978439084893e-01 -1.818885019972215911e-01 -6.989781766135147456e-02 2.597991213399208910e-01 3.075401257939393007e-01 3.664863057110406830e-01 1.464159662247186688e-01 9.863974316944063014e-02 -3.920027358918595772e-01 1.292042644760147629e+00 2.990408935820522696e-01 3.025933212337891809e-01 -3.282930290461311795e+00 5.689242119536821463e-01 2.091189284413580152e-01 3.305438951763647881e-01 3.576243609846237459e-01 4.109884704360225460e-01 -1.135249133011050793e+00 6.369767198645973627e-01 2.984213087611111148e-01 2.955556509971277723e-01 1.016484756651153010e+00 4.714209766150720959e-01 3.187550453579890419e-01 -1.424990651860548851e+00 3.399974281437977974e-01 8.963844960240299198e-01 3.764518803500414013e-01 3.170438833954822844e-01 2.764081555829327463e-01 7.096354356741848557e-01 -3.982357921307672077e-02 3.011063296942200762e-01 3.169097537369593431e-01 1.053394847775206561e-01 6.660155576804194233e-01 2.412775253042281909e-01 6.803424013310869212e-01 1.933429406345219814e-01 6.950810558304967302e-01 -2.535416288919636330e-01 -1.513881379285591633e+00 2.807247669451200522e-01 -2.203768001602510185e-02 2.616926823790725054e-01 3.429021129744431184e-01 5.653163857509017204e-02 4.883199806643236385e-01 2.987157172846162667e-01 8.482034916322278573e-02 4.163784960132598800e-01 3.322888552345170665e-01 2.799598177612936389e-01 3.527459348257966920e-01 -8.726012000273463132e-01 3.030661667687045147e-01 3.339375015692793158e-01 2.790852491405793057e-01 -3.639591245234806149e-01 3.061313349906840675e-01 8.446043590486181918e-01 -6.341951685227206204e-01 1.144738772592560183e+00 6.230921509433375860e-01 3.339332354963654992e-01 3.066042811851231731e-01 -2.077736239857423506e+00 3.053059553388386416e-01 2.827759748300188170e-01 3.303687522332607318e-01 4.883198747276571994e-01 3.047888731048178923e-01 3.477239636514868892e-01 5.119876104858909344e-02 3.049049422584339530e-01 4.323262661438124765e-01 2.862600458228702904e-01 2.391784796454304030e-01 2.799668617740662668e-01 3.125709636912429867e-01 3.107414303534488664e-01 3.571611003633528569e-01 1.533102607560633546e-01 3.104405676777513556e-01 6.313729610359788413e-01 1.502251741500577331e-01 3.126718236636469306e-01 -1.533642712129551500e-01 2.066997278629923718e-01 6.610449189742401144e-01 4.608636172900417272e+00 3.222465015180766001e-01 5.937551138493162017e-02 5.741638627425371677e-01 1.733772845699327325e-01 1.577869062784332144e+00 3.203183044550843572e-01 6.282547443843830015e-01 3.090852212737761340e-01
