# 
#                 ----------------------------------------------------
#                 Data from a 3D direct N-body simulation. 
# 
#                 rows are i-particle; 
#                 coumns are :mass, tag, x ,y, z, vx, vy, vz, ax, ay, az
# 
#                 NTHU, Computational Physics 
# 
#                 ----------------------------------------------------
#                 Time = 0.0
0.000000000000000000e+00 1.000000000000000000e+00 2.000000000000000000e+00 3.000000000000000000e+00 4.000000000000000000e+00 5.000000000000000000e+00 6.000000000000000000e+00 7.000000000000000000e+00 8.000000000000000000e+00 9.000000000000000000e+00 1.000000000000000000e+01 1.100000000000000000e+01 1.200000000000000000e+01 1.300000000000000000e+01 1.400000000000000000e+01 1.500000000000000000e+01 1.600000000000000000e+01 1.700000000000000000e+01 1.800000000000000000e+01 1.900000000000000000e+01 2.000000000000000000e+01 2.100000000000000000e+01 2.200000000000000000e+01 2.300000000000000000e+01 2.400000000000000000e+01 2.500000000000000000e+01 2.600000000000000000e+01 2.700000000000000000e+01 2.800000000000000000e+01 2.900000000000000000e+01 3.000000000000000000e+01 3.100000000000000000e+01 3.200000000000000000e+01 3.300000000000000000e+01 3.400000000000000000e+01 3.500000000000000000e+01 3.600000000000000000e+01 3.700000000000000000e+01 3.800000000000000000e+01 3.900000000000000000e+01 4.000000000000000000e+01 4.100000000000000000e+01 4.200000000000000000e+01 4.300000000000000000e+01 4.400000000000000000e+01 4.500000000000000000e+01 4.600000000000000000e+01 4.700000000000000000e+01 4.800000000000000000e+01 4.900000000000000000e+01 5.000000000000000000e+01 5.100000000000000000e+01 5.200000000000000000e+01 5.300000000000000000e+01 5.400000000000000000e+01 5.500000000000000000e+01 5.600000000000000000e+01 5.700000000000000000e+01 5.800000000000000000e+01 5.900000000000000000e+01 6.000000000000000000e+01 6.100000000000000000e+01 6.200000000000000000e+01 6.300000000000000000e+01 6.400000000000000000e+01 6.500000000000000000e+01 6.600000000000000000e+01 6.700000000000000000e+01 6.800000000000000000e+01 6.900000000000000000e+01 7.000000000000000000e+01 7.100000000000000000e+01 7.200000000000000000e+01 7.300000000000000000e+01 7.400000000000000000e+01 7.500000000000000000e+01 7.600000000000000000e+01 7.700000000000000000e+01 7.800000000000000000e+01 7.900000000000000000e+01 8.000000000000000000e+01 8.100000000000000000e+01 8.200000000000000000e+01 8.300000000000000000e+01 8.400000000000000000e+01 8.500000000000000000e+01 8.600000000000000000e+01 8.700000000000000000e+01 8.800000000000000000e+01 8.900000000000000000e+01 9.000000000000000000e+01 9.100000000000000000e+01 9.200000000000000000e+01 9.300000000000000000e+01 9.400000000000000000e+01 9.500000000000000000e+01 9.600000000000000000e+01 9.700000000000000000e+01 9.800000000000000000e+01 9.900000000000000000e+01 1.000000000000000000e+02 1.010000000000000000e+02 1.020000000000000000e+02 1.030000000000000000e+02 1.040000000000000000e+02 1.050000000000000000e+02 1.060000000000000000e+02 1.070000000000000000e+02 1.080000000000000000e+02 1.090000000000000000e+02 1.100000000000000000e+02 1.110000000000000000e+02 1.120000000000000000e+02 1.130000000000000000e+02 1.140000000000000000e+02 1.150000000000000000e+02 1.160000000000000000e+02 1.170000000000000000e+02 1.180000000000000000e+02 1.190000000000000000e+02 1.200000000000000000e+02 1.210000000000000000e+02 1.220000000000000000e+02 1.230000000000000000e+02 1.240000000000000000e+02 1.250000000000000000e+02 1.260000000000000000e+02 1.270000000000000000e+02 1.280000000000000000e+02 1.290000000000000000e+02 1.300000000000000000e+02 1.310000000000000000e+02 1.320000000000000000e+02 1.330000000000000000e+02 1.340000000000000000e+02 1.350000000000000000e+02 1.360000000000000000e+02 1.370000000000000000e+02 1.380000000000000000e+02 1.390000000000000000e+02 1.400000000000000000e+02 1.410000000000000000e+02 1.420000000000000000e+02 1.430000000000000000e+02 1.440000000000000000e+02 1.450000000000000000e+02 1.460000000000000000e+02 1.470000000000000000e+02 1.480000000000000000e+02 1.490000000000000000e+02 1.500000000000000000e+02 1.510000000000000000e+02 1.520000000000000000e+02 1.530000000000000000e+02 1.540000000000000000e+02 1.550000000000000000e+02 1.560000000000000000e+02 1.570000000000000000e+02 1.580000000000000000e+02 1.590000000000000000e+02 1.600000000000000000e+02 1.610000000000000000e+02 1.620000000000000000e+02 1.630000000000000000e+02 1.640000000000000000e+02 1.650000000000000000e+02 1.660000000000000000e+02 1.670000000000000000e+02 1.680000000000000000e+02 1.690000000000000000e+02 1.700000000000000000e+02 1.710000000000000000e+02 1.720000000000000000e+02 1.730000000000000000e+02 1.740000000000000000e+02 1.750000000000000000e+02 1.760000000000000000e+02 1.770000000000000000e+02 1.780000000000000000e+02 1.790000000000000000e+02 1.800000000000000000e+02 1.810000000000000000e+02 1.820000000000000000e+02 1.830000000000000000e+02 1.840000000000000000e+02 1.850000000000000000e+02 1.860000000000000000e+02 1.870000000000000000e+02 1.880000000000000000e+02 1.890000000000000000e+02 1.900000000000000000e+02 1.910000000000000000e+02 1.920000000000000000e+02 1.930000000000000000e+02 1.940000000000000000e+02 1.950000000000000000e+02 1.960000000000000000e+02 1.970000000000000000e+02 1.980000000000000000e+02 1.990000000000000000e+02 2.000000000000000000e+02 2.010000000000000000e+02 2.020000000000000000e+02 2.030000000000000000e+02 2.040000000000000000e+02 2.050000000000000000e+02 2.060000000000000000e+02 2.070000000000000000e+02 2.080000000000000000e+02 2.090000000000000000e+02 2.100000000000000000e+02 2.110000000000000000e+02 2.120000000000000000e+02 2.130000000000000000e+02 2.140000000000000000e+02 2.150000000000000000e+02 2.160000000000000000e+02 2.170000000000000000e+02 2.180000000000000000e+02 2.190000000000000000e+02 2.200000000000000000e+02 2.210000000000000000e+02 2.220000000000000000e+02 2.230000000000000000e+02 2.240000000000000000e+02 2.250000000000000000e+02 2.260000000000000000e+02 2.270000000000000000e+02 2.280000000000000000e+02 2.290000000000000000e+02 2.300000000000000000e+02 2.310000000000000000e+02 2.320000000000000000e+02 2.330000000000000000e+02 2.340000000000000000e+02 2.350000000000000000e+02 2.360000000000000000e+02 2.370000000000000000e+02 2.380000000000000000e+02 2.390000000000000000e+02 2.400000000000000000e+02 2.410000000000000000e+02 2.420000000000000000e+02 2.430000000000000000e+02 2.440000000000000000e+02 2.450000000000000000e+02 2.460000000000000000e+02 2.470000000000000000e+02 2.480000000000000000e+02 2.490000000000000000e+02 2.500000000000000000e+02 2.510000000000000000e+02 2.520000000000000000e+02 2.530000000000000000e+02 2.540000000000000000e+02 2.550000000000000000e+02 2.560000000000000000e+02 2.570000000000000000e+02 2.580000000000000000e+02 2.590000000000000000e+02 2.600000000000000000e+02 2.610000000000000000e+02 2.620000000000000000e+02 2.630000000000000000e+02 2.640000000000000000e+02 2.650000000000000000e+02 2.660000000000000000e+02 2.670000000000000000e+02 2.680000000000000000e+02 2.690000000000000000e+02 2.700000000000000000e+02 2.710000000000000000e+02 2.720000000000000000e+02 2.730000000000000000e+02 2.740000000000000000e+02 2.750000000000000000e+02 2.760000000000000000e+02 2.770000000000000000e+02 2.780000000000000000e+02 2.790000000000000000e+02 2.800000000000000000e+02 2.810000000000000000e+02 2.820000000000000000e+02 2.830000000000000000e+02 2.840000000000000000e+02 2.850000000000000000e+02 2.860000000000000000e+02 2.870000000000000000e+02 2.880000000000000000e+02 2.890000000000000000e+02 2.900000000000000000e+02 2.910000000000000000e+02 2.920000000000000000e+02 2.930000000000000000e+02 2.940000000000000000e+02 2.950000000000000000e+02 2.960000000000000000e+02 2.970000000000000000e+02 2.980000000000000000e+02 2.990000000000000000e+02 3.000000000000000000e+02 3.010000000000000000e+02 3.020000000000000000e+02 3.030000000000000000e+02 3.040000000000000000e+02 3.050000000000000000e+02 3.060000000000000000e+02 3.070000000000000000e+02 3.080000000000000000e+02 3.090000000000000000e+02 3.100000000000000000e+02 3.110000000000000000e+02 3.120000000000000000e+02 3.130000000000000000e+02 3.140000000000000000e+02 3.150000000000000000e+02 3.160000000000000000e+02 3.170000000000000000e+02 3.180000000000000000e+02 3.190000000000000000e+02 3.200000000000000000e+02 3.210000000000000000e+02 3.220000000000000000e+02 3.230000000000000000e+02 3.240000000000000000e+02 3.250000000000000000e+02 3.260000000000000000e+02 3.270000000000000000e+02 3.280000000000000000e+02 3.290000000000000000e+02 3.300000000000000000e+02 3.310000000000000000e+02 3.320000000000000000e+02 3.330000000000000000e+02 3.340000000000000000e+02 3.350000000000000000e+02 3.360000000000000000e+02 3.370000000000000000e+02 3.380000000000000000e+02 3.390000000000000000e+02 3.400000000000000000e+02 3.410000000000000000e+02 3.420000000000000000e+02 3.430000000000000000e+02 3.440000000000000000e+02 3.450000000000000000e+02 3.460000000000000000e+02 3.470000000000000000e+02 3.480000000000000000e+02 3.490000000000000000e+02 3.500000000000000000e+02 3.510000000000000000e+02 3.520000000000000000e+02 3.530000000000000000e+02 3.540000000000000000e+02 3.550000000000000000e+02 3.560000000000000000e+02 3.570000000000000000e+02 3.580000000000000000e+02 3.590000000000000000e+02 3.600000000000000000e+02 3.610000000000000000e+02 3.620000000000000000e+02 3.630000000000000000e+02 3.640000000000000000e+02 3.650000000000000000e+02 3.660000000000000000e+02 3.670000000000000000e+02 3.680000000000000000e+02 3.690000000000000000e+02 3.700000000000000000e+02 3.710000000000000000e+02 3.720000000000000000e+02 3.730000000000000000e+02 3.740000000000000000e+02 3.750000000000000000e+02 3.760000000000000000e+02 3.770000000000000000e+02 3.780000000000000000e+02 3.790000000000000000e+02 3.800000000000000000e+02 3.810000000000000000e+02 3.820000000000000000e+02 3.830000000000000000e+02 3.840000000000000000e+02 3.850000000000000000e+02 3.860000000000000000e+02 3.870000000000000000e+02 3.880000000000000000e+02 3.890000000000000000e+02 3.900000000000000000e+02 3.910000000000000000e+02 3.920000000000000000e+02 3.930000000000000000e+02 3.940000000000000000e+02 3.950000000000000000e+02 3.960000000000000000e+02 3.970000000000000000e+02 3.980000000000000000e+02 3.990000000000000000e+02 4.000000000000000000e+02 4.010000000000000000e+02 4.020000000000000000e+02 4.030000000000000000e+02 4.040000000000000000e+02 4.050000000000000000e+02 4.060000000000000000e+02 4.070000000000000000e+02 4.080000000000000000e+02 4.090000000000000000e+02 4.100000000000000000e+02 4.110000000000000000e+02 4.120000000000000000e+02 4.130000000000000000e+02 4.140000000000000000e+02 4.150000000000000000e+02 4.160000000000000000e+02 4.170000000000000000e+02 4.180000000000000000e+02 4.190000000000000000e+02 4.200000000000000000e+02 4.210000000000000000e+02 4.220000000000000000e+02 4.230000000000000000e+02 4.240000000000000000e+02 4.250000000000000000e+02 4.260000000000000000e+02 4.270000000000000000e+02 4.280000000000000000e+02 4.290000000000000000e+02 4.300000000000000000e+02 4.310000000000000000e+02 4.320000000000000000e+02 4.330000000000000000e+02 4.340000000000000000e+02 4.350000000000000000e+02 4.360000000000000000e+02 4.370000000000000000e+02 4.380000000000000000e+02 4.390000000000000000e+02 4.400000000000000000e+02 4.410000000000000000e+02 4.420000000000000000e+02 4.430000000000000000e+02 4.440000000000000000e+02 4.450000000000000000e+02 4.460000000000000000e+02 4.470000000000000000e+02 4.480000000000000000e+02 4.490000000000000000e+02 4.500000000000000000e+02 4.510000000000000000e+02 4.520000000000000000e+02 4.530000000000000000e+02 4.540000000000000000e+02 4.550000000000000000e+02 4.560000000000000000e+02 4.570000000000000000e+02 4.580000000000000000e+02 4.590000000000000000e+02 4.600000000000000000e+02 4.610000000000000000e+02 4.620000000000000000e+02 4.630000000000000000e+02 4.640000000000000000e+02 4.650000000000000000e+02 4.660000000000000000e+02 4.670000000000000000e+02 4.680000000000000000e+02 4.690000000000000000e+02 4.700000000000000000e+02 4.710000000000000000e+02 4.720000000000000000e+02 4.730000000000000000e+02 4.740000000000000000e+02 4.750000000000000000e+02 4.760000000000000000e+02 4.770000000000000000e+02 4.780000000000000000e+02 4.790000000000000000e+02 4.800000000000000000e+02 4.810000000000000000e+02 4.820000000000000000e+02 4.830000000000000000e+02 4.840000000000000000e+02 4.850000000000000000e+02 4.860000000000000000e+02 4.870000000000000000e+02 4.880000000000000000e+02 4.890000000000000000e+02 4.900000000000000000e+02 4.910000000000000000e+02 4.920000000000000000e+02 4.930000000000000000e+02 4.940000000000000000e+02 4.950000000000000000e+02 4.960000000000000000e+02 4.970000000000000000e+02 4.980000000000000000e+02 4.990000000000000000e+02 5.000000000000000000e+02 5.010000000000000000e+02 5.020000000000000000e+02 5.030000000000000000e+02 5.040000000000000000e+02 5.050000000000000000e+02 5.060000000000000000e+02 5.070000000000000000e+02 5.080000000000000000e+02 5.090000000000000000e+02 5.100000000000000000e+02 5.110000000000000000e+02 5.120000000000000000e+02 5.130000000000000000e+02 5.140000000000000000e+02 5.150000000000000000e+02 5.160000000000000000e+02 5.170000000000000000e+02 5.180000000000000000e+02 5.190000000000000000e+02 5.200000000000000000e+02 5.210000000000000000e+02 5.220000000000000000e+02 5.230000000000000000e+02 5.240000000000000000e+02 5.250000000000000000e+02 5.260000000000000000e+02 5.270000000000000000e+02 5.280000000000000000e+02 5.290000000000000000e+02 5.300000000000000000e+02 5.310000000000000000e+02 5.320000000000000000e+02 5.330000000000000000e+02 5.340000000000000000e+02 5.350000000000000000e+02 5.360000000000000000e+02 5.370000000000000000e+02 5.380000000000000000e+02 5.390000000000000000e+02 5.400000000000000000e+02 5.410000000000000000e+02 5.420000000000000000e+02 5.430000000000000000e+02 5.440000000000000000e+02 5.450000000000000000e+02 5.460000000000000000e+02 5.470000000000000000e+02 5.480000000000000000e+02 5.490000000000000000e+02 5.500000000000000000e+02 5.510000000000000000e+02 5.520000000000000000e+02 5.530000000000000000e+02 5.540000000000000000e+02 5.550000000000000000e+02 5.560000000000000000e+02 5.570000000000000000e+02 5.580000000000000000e+02 5.590000000000000000e+02 5.600000000000000000e+02 5.610000000000000000e+02 5.620000000000000000e+02 5.630000000000000000e+02 5.640000000000000000e+02 5.650000000000000000e+02 5.660000000000000000e+02 5.670000000000000000e+02 5.680000000000000000e+02 5.690000000000000000e+02 5.700000000000000000e+02 5.710000000000000000e+02 5.720000000000000000e+02 5.730000000000000000e+02 5.740000000000000000e+02 5.750000000000000000e+02 5.760000000000000000e+02 5.770000000000000000e+02 5.780000000000000000e+02 5.790000000000000000e+02 5.800000000000000000e+02 5.810000000000000000e+02 5.820000000000000000e+02 5.830000000000000000e+02 5.840000000000000000e+02 5.850000000000000000e+02 5.860000000000000000e+02 5.870000000000000000e+02 5.880000000000000000e+02 5.890000000000000000e+02 5.900000000000000000e+02 5.910000000000000000e+02 5.920000000000000000e+02 5.930000000000000000e+02 5.940000000000000000e+02 5.950000000000000000e+02 5.960000000000000000e+02 5.970000000000000000e+02 5.980000000000000000e+02 5.990000000000000000e+02 6.000000000000000000e+02 6.010000000000000000e+02 6.020000000000000000e+02 6.030000000000000000e+02 6.040000000000000000e+02 6.050000000000000000e+02 6.060000000000000000e+02 6.070000000000000000e+02 6.080000000000000000e+02 6.090000000000000000e+02 6.100000000000000000e+02 6.110000000000000000e+02 6.120000000000000000e+02 6.130000000000000000e+02 6.140000000000000000e+02 6.150000000000000000e+02 6.160000000000000000e+02 6.170000000000000000e+02 6.180000000000000000e+02 6.190000000000000000e+02 6.200000000000000000e+02 6.210000000000000000e+02 6.220000000000000000e+02 6.230000000000000000e+02 6.240000000000000000e+02 6.250000000000000000e+02 6.260000000000000000e+02 6.270000000000000000e+02 6.280000000000000000e+02 6.290000000000000000e+02 6.300000000000000000e+02 6.310000000000000000e+02 6.320000000000000000e+02 6.330000000000000000e+02 6.340000000000000000e+02 6.350000000000000000e+02 6.360000000000000000e+02 6.370000000000000000e+02 6.380000000000000000e+02 6.390000000000000000e+02 6.400000000000000000e+02 6.410000000000000000e+02 6.420000000000000000e+02 6.430000000000000000e+02 6.440000000000000000e+02 6.450000000000000000e+02 6.460000000000000000e+02 6.470000000000000000e+02 6.480000000000000000e+02 6.490000000000000000e+02 6.500000000000000000e+02 6.510000000000000000e+02 6.520000000000000000e+02 6.530000000000000000e+02 6.540000000000000000e+02 6.550000000000000000e+02 6.560000000000000000e+02 6.570000000000000000e+02 6.580000000000000000e+02 6.590000000000000000e+02 6.600000000000000000e+02 6.610000000000000000e+02 6.620000000000000000e+02 6.630000000000000000e+02 6.640000000000000000e+02 6.650000000000000000e+02 6.660000000000000000e+02 6.670000000000000000e+02 6.680000000000000000e+02 6.690000000000000000e+02 6.700000000000000000e+02 6.710000000000000000e+02 6.720000000000000000e+02 6.730000000000000000e+02 6.740000000000000000e+02 6.750000000000000000e+02 6.760000000000000000e+02 6.770000000000000000e+02 6.780000000000000000e+02 6.790000000000000000e+02 6.800000000000000000e+02 6.810000000000000000e+02 6.820000000000000000e+02 6.830000000000000000e+02 6.840000000000000000e+02 6.850000000000000000e+02 6.860000000000000000e+02 6.870000000000000000e+02 6.880000000000000000e+02 6.890000000000000000e+02 6.900000000000000000e+02 6.910000000000000000e+02 6.920000000000000000e+02 6.930000000000000000e+02 6.940000000000000000e+02 6.950000000000000000e+02 6.960000000000000000e+02 6.970000000000000000e+02 6.980000000000000000e+02 6.990000000000000000e+02 7.000000000000000000e+02 7.010000000000000000e+02 7.020000000000000000e+02 7.030000000000000000e+02 7.040000000000000000e+02 7.050000000000000000e+02 7.060000000000000000e+02 7.070000000000000000e+02 7.080000000000000000e+02 7.090000000000000000e+02 7.100000000000000000e+02 7.110000000000000000e+02 7.120000000000000000e+02 7.130000000000000000e+02 7.140000000000000000e+02 7.150000000000000000e+02 7.160000000000000000e+02 7.170000000000000000e+02 7.180000000000000000e+02 7.190000000000000000e+02 7.200000000000000000e+02 7.210000000000000000e+02 7.220000000000000000e+02 7.230000000000000000e+02 7.240000000000000000e+02 7.250000000000000000e+02 7.260000000000000000e+02 7.270000000000000000e+02 7.280000000000000000e+02 7.290000000000000000e+02 7.300000000000000000e+02 7.310000000000000000e+02 7.320000000000000000e+02 7.330000000000000000e+02 7.340000000000000000e+02 7.350000000000000000e+02 7.360000000000000000e+02 7.370000000000000000e+02 7.380000000000000000e+02 7.390000000000000000e+02 7.400000000000000000e+02 7.410000000000000000e+02 7.420000000000000000e+02 7.430000000000000000e+02 7.440000000000000000e+02 7.450000000000000000e+02 7.460000000000000000e+02 7.470000000000000000e+02 7.480000000000000000e+02 7.490000000000000000e+02 7.500000000000000000e+02 7.510000000000000000e+02 7.520000000000000000e+02 7.530000000000000000e+02 7.540000000000000000e+02 7.550000000000000000e+02 7.560000000000000000e+02 7.570000000000000000e+02 7.580000000000000000e+02 7.590000000000000000e+02 7.600000000000000000e+02 7.610000000000000000e+02 7.620000000000000000e+02 7.630000000000000000e+02 7.640000000000000000e+02 7.650000000000000000e+02 7.660000000000000000e+02 7.670000000000000000e+02 7.680000000000000000e+02 7.690000000000000000e+02 7.700000000000000000e+02 7.710000000000000000e+02 7.720000000000000000e+02 7.730000000000000000e+02 7.740000000000000000e+02 7.750000000000000000e+02 7.760000000000000000e+02 7.770000000000000000e+02 7.780000000000000000e+02 7.790000000000000000e+02 7.800000000000000000e+02 7.810000000000000000e+02 7.820000000000000000e+02 7.830000000000000000e+02 7.840000000000000000e+02 7.850000000000000000e+02 7.860000000000000000e+02 7.870000000000000000e+02 7.880000000000000000e+02 7.890000000000000000e+02 7.900000000000000000e+02 7.910000000000000000e+02 7.920000000000000000e+02 7.930000000000000000e+02 7.940000000000000000e+02 7.950000000000000000e+02 7.960000000000000000e+02 7.970000000000000000e+02 7.980000000000000000e+02 7.990000000000000000e+02 8.000000000000000000e+02 8.010000000000000000e+02 8.020000000000000000e+02 8.030000000000000000e+02 8.040000000000000000e+02 8.050000000000000000e+02 8.060000000000000000e+02 8.070000000000000000e+02 8.080000000000000000e+02 8.090000000000000000e+02 8.100000000000000000e+02 8.110000000000000000e+02 8.120000000000000000e+02 8.130000000000000000e+02 8.140000000000000000e+02 8.150000000000000000e+02 8.160000000000000000e+02 8.170000000000000000e+02 8.180000000000000000e+02 8.190000000000000000e+02 8.200000000000000000e+02 8.210000000000000000e+02 8.220000000000000000e+02 8.230000000000000000e+02 8.240000000000000000e+02 8.250000000000000000e+02 8.260000000000000000e+02 8.270000000000000000e+02 8.280000000000000000e+02 8.290000000000000000e+02 8.300000000000000000e+02 8.310000000000000000e+02 8.320000000000000000e+02 8.330000000000000000e+02 8.340000000000000000e+02 8.350000000000000000e+02 8.360000000000000000e+02 8.370000000000000000e+02 8.380000000000000000e+02 8.390000000000000000e+02 8.400000000000000000e+02 8.410000000000000000e+02 8.420000000000000000e+02 8.430000000000000000e+02 8.440000000000000000e+02 8.450000000000000000e+02 8.460000000000000000e+02 8.470000000000000000e+02 8.480000000000000000e+02 8.490000000000000000e+02 8.500000000000000000e+02 8.510000000000000000e+02 8.520000000000000000e+02 8.530000000000000000e+02 8.540000000000000000e+02 8.550000000000000000e+02 8.560000000000000000e+02 8.570000000000000000e+02 8.580000000000000000e+02 8.590000000000000000e+02 8.600000000000000000e+02 8.610000000000000000e+02 8.620000000000000000e+02 8.630000000000000000e+02 8.640000000000000000e+02 8.650000000000000000e+02 8.660000000000000000e+02 8.670000000000000000e+02 8.680000000000000000e+02 8.690000000000000000e+02 8.700000000000000000e+02 8.710000000000000000e+02 8.720000000000000000e+02 8.730000000000000000e+02 8.740000000000000000e+02 8.750000000000000000e+02 8.760000000000000000e+02 8.770000000000000000e+02 8.780000000000000000e+02 8.790000000000000000e+02 8.800000000000000000e+02 8.810000000000000000e+02 8.820000000000000000e+02 8.830000000000000000e+02 8.840000000000000000e+02 8.850000000000000000e+02 8.860000000000000000e+02 8.870000000000000000e+02 8.880000000000000000e+02 8.890000000000000000e+02 8.900000000000000000e+02 8.910000000000000000e+02 8.920000000000000000e+02 8.930000000000000000e+02 8.940000000000000000e+02 8.950000000000000000e+02 8.960000000000000000e+02 8.970000000000000000e+02 8.980000000000000000e+02 8.990000000000000000e+02 9.000000000000000000e+02 9.010000000000000000e+02 9.020000000000000000e+02 9.030000000000000000e+02 9.040000000000000000e+02 9.050000000000000000e+02 9.060000000000000000e+02 9.070000000000000000e+02 9.080000000000000000e+02 9.090000000000000000e+02 9.100000000000000000e+02 9.110000000000000000e+02 9.120000000000000000e+02 9.130000000000000000e+02 9.140000000000000000e+02 9.150000000000000000e+02 9.160000000000000000e+02 9.170000000000000000e+02 9.180000000000000000e+02 9.190000000000000000e+02 9.200000000000000000e+02 9.210000000000000000e+02 9.220000000000000000e+02 9.230000000000000000e+02 9.240000000000000000e+02 9.250000000000000000e+02 9.260000000000000000e+02 9.270000000000000000e+02 9.280000000000000000e+02 9.290000000000000000e+02 9.300000000000000000e+02 9.310000000000000000e+02 9.320000000000000000e+02 9.330000000000000000e+02 9.340000000000000000e+02 9.350000000000000000e+02 9.360000000000000000e+02 9.370000000000000000e+02 9.380000000000000000e+02 9.390000000000000000e+02 9.400000000000000000e+02 9.410000000000000000e+02 9.420000000000000000e+02 9.430000000000000000e+02 9.440000000000000000e+02 9.450000000000000000e+02 9.460000000000000000e+02 9.470000000000000000e+02 9.480000000000000000e+02 9.490000000000000000e+02 9.500000000000000000e+02 9.510000000000000000e+02 9.520000000000000000e+02 9.530000000000000000e+02 9.540000000000000000e+02 9.550000000000000000e+02 9.560000000000000000e+02 9.570000000000000000e+02 9.580000000000000000e+02 9.590000000000000000e+02 9.600000000000000000e+02 9.610000000000000000e+02 9.620000000000000000e+02 9.630000000000000000e+02 9.640000000000000000e+02 9.650000000000000000e+02 9.660000000000000000e+02 9.670000000000000000e+02 9.680000000000000000e+02 9.690000000000000000e+02 9.700000000000000000e+02 9.710000000000000000e+02 9.720000000000000000e+02 9.730000000000000000e+02 9.740000000000000000e+02 9.750000000000000000e+02 9.760000000000000000e+02 9.770000000000000000e+02 9.780000000000000000e+02 9.790000000000000000e+02 9.800000000000000000e+02 9.810000000000000000e+02 9.820000000000000000e+02 9.830000000000000000e+02 9.840000000000000000e+02 9.850000000000000000e+02 9.860000000000000000e+02 9.870000000000000000e+02 9.880000000000000000e+02 9.890000000000000000e+02 9.900000000000000000e+02 9.910000000000000000e+02 9.920000000000000000e+02 9.930000000000000000e+02 9.940000000000000000e+02 9.950000000000000000e+02 9.960000000000000000e+02 9.970000000000000000e+02 9.980000000000000000e+02 9.990000000000000000e+02
1.000000000000000000e+00 1.000000000000000000e+00 1.000000000000000000e+00 1.000000000000000000e+00 1.000000000000000000e+00 1.000000000000000000e+00 1.000000000000000000e+00 1.000000000000000000e+00 1.000000000000000000e+00 1.000000000000000000e+00 1.000000000000000000e+00 1.000000000000000000e+00 1.000000000000000000e+00 1.000000000000000000e+00 1.000000000000000000e+00 1.000000000000000000e+00 1.000000000000000000e+00 1.000000000000000000e+00 1.000000000000000000e+00 1.000000000000000000e+00 1.000000000000000000e+00 1.000000000000000000e+00 1.000000000000000000e+00 1.000000000000000000e+00 1.000000000000000000e+00 1.000000000000000000e+00 1.000000000000000000e+00 1.000000000000000000e+00 1.000000000000000000e+00 1.000000000000000000e+00 1.000000000000000000e+00 1.000000000000000000e+00 1.000000000000000000e+00 1.000000000000000000e+00 1.000000000000000000e+00 1.000000000000000000e+00 1.000000000000000000e+00 1.000000000000000000e+00 1.000000000000000000e+00 1.000000000000000000e+00 1.000000000000000000e+00 1.000000000000000000e+00 1.000000000000000000e+00 1.000000000000000000e+00 1.000000000000000000e+00 1.000000000000000000e+00 1.000000000000000000e+00 1.000000000000000000e+00 1.000000000000000000e+00 1.000000000000000000e+00 1.000000000000000000e+00 1.000000000000000000e+00 1.000000000000000000e+00 1.000000000000000000e+00 1.000000000000000000e+00 1.000000000000000000e+00 1.000000000000000000e+00 1.000000000000000000e+00 1.000000000000000000e+00 1.000000000000000000e+00 1.000000000000000000e+00 1.000000000000000000e+00 1.000000000000000000e+00 1.000000000000000000e+00 1.000000000000000000e+00 1.000000000000000000e+00 1.000000000000000000e+00 1.000000000000000000e+00 1.000000000000000000e+00 1.000000000000000000e+00 1.000000000000000000e+00 1.000000000000000000e+00 1.000000000000000000e+00 1.000000000000000000e+00 1.000000000000000000e+00 1.000000000000000000e+00 1.000000000000000000e+00 1.000000000000000000e+00 1.000000000000000000e+00 1.000000000000000000e+00 1.000000000000000000e+00 1.000000000000000000e+00 1.000000000000000000e+00 1.000000000000000000e+00 1.000000000000000000e+00 1.000000000000000000e+00 1.000000000000000000e+00 1.000000000000000000e+00 1.000000000000000000e+00 1.000000000000000000e+00 1.000000000000000000e+00 1.000000000000000000e+00 1.000000000000000000e+00 1.000000000000000000e+00 1.000000000000000000e+00 1.000000000000000000e+00 1.000000000000000000e+00 1.000000000000000000e+00 1.000000000000000000e+00 1.000000000000000000e+00 1.000000000000000000e+00 1.000000000000000000e+00 1.000000000000000000e+00 1.000000000000000000e+00 1.000000000000000000e+00 1.000000000000000000e+00 1.000000000000000000e+00 1.000000000000000000e+00 1.000000000000000000e+00 1.000000000000000000e+00 1.000000000000000000e+00 1.000000000000000000e+00 1.000000000000000000e+00 1.000000000000000000e+00 1.000000000000000000e+00 1.000000000000000000e+00 1.000000000000000000e+00 1.000000000000000000e+00 1.000000000000000000e+00 1.000000000000000000e+00 1.000000000000000000e+00 1.000000000000000000e+00 1.000000000000000000e+00 1.000000000000000000e+00 1.000000000000000000e+00 1.000000000000000000e+00 1.000000000000000000e+00 1.000000000000000000e+00 1.000000000000000000e+00 1.000000000000000000e+00 1.000000000000000000e+00 1.000000000000000000e+00 1.000000000000000000e+00 1.000000000000000000e+00 1.000000000000000000e+00 1.000000000000000000e+00 1.000000000000000000e+00 1.000000000000000000e+00 1.000000000000000000e+00 1.000000000000000000e+00 1.000000000000000000e+00 1.000000000000000000e+00 1.000000000000000000e+00 1.000000000000000000e+00 1.000000000000000000e+00 1.000000000000000000e+00 1.000000000000000000e+00 1.000000000000000000e+00 1.000000000000000000e+00 1.000000000000000000e+00 1.000000000000000000e+00 1.000000000000000000e+00 1.000000000000000000e+00 1.000000000000000000e+00 1.000000000000000000e+00 1.000000000000000000e+00 1.000000000000000000e+00 1.000000000000000000e+00 1.000000000000000000e+00 1.000000000000000000e+00 1.000000000000000000e+00 1.000000000000000000e+00 1.000000000000000000e+00 1.000000000000000000e+00 1.000000000000000000e+00 1.000000000000000000e+00 1.000000000000000000e+00 1.000000000000000000e+00 1.000000000000000000e+00 1.000000000000000000e+00 1.000000000000000000e+00 1.000000000000000000e+00 1.000000000000000000e+00 1.000000000000000000e+00 1.000000000000000000e+00 1.000000000000000000e+00 1.000000000000000000e+00 1.000000000000000000e+00 1.000000000000000000e+00 1.000000000000000000e+00 1.000000000000000000e+00 1.000000000000000000e+00 1.000000000000000000e+00 1.000000000000000000e+00 1.000000000000000000e+00 1.000000000000000000e+00 1.000000000000000000e+00 1.000000000000000000e+00 1.000000000000000000e+00 1.000000000000000000e+00 1.000000000000000000e+00 1.000000000000000000e+00 1.000000000000000000e+00 1.000000000000000000e+00 1.000000000000000000e+00 1.000000000000000000e+00 1.000000000000000000e+00 1.000000000000000000e+00 1.000000000000000000e+00 1.000000000000000000e+00 1.000000000000000000e+00 1.000000000000000000e+00 1.000000000000000000e+00 1.000000000000000000e+00 1.000000000000000000e+00 1.000000000000000000e+00 1.000000000000000000e+00 1.000000000000000000e+00 1.000000000000000000e+00 1.000000000000000000e+00 1.000000000000000000e+00 1.000000000000000000e+00 1.000000000000000000e+00 1.000000000000000000e+00 1.000000000000000000e+00 1.000000000000000000e+00 1.000000000000000000e+00 1.000000000000000000e+00 1.000000000000000000e+00 1.000000000000000000e+00 1.000000000000000000e+00 1.000000000000000000e+00 1.000000000000000000e+00 1.000000000000000000e+00 1.000000000000000000e+00 1.000000000000000000e+00 1.000000000000000000e+00 1.000000000000000000e+00 1.000000000000000000e+00 1.000000000000000000e+00 1.000000000000000000e+00 1.000000000000000000e+00 1.000000000000000000e+00 1.000000000000000000e+00 1.000000000000000000e+00 1.000000000000000000e+00 1.000000000000000000e+00 1.000000000000000000e+00 1.000000000000000000e+00 1.000000000000000000e+00 1.000000000000000000e+00 1.000000000000000000e+00 1.000000000000000000e+00 1.000000000000000000e+00 1.000000000000000000e+00 1.000000000000000000e+00 1.000000000000000000e+00 1.000000000000000000e+00 1.000000000000000000e+00 1.000000000000000000e+00 1.000000000000000000e+00 1.000000000000000000e+00 1.000000000000000000e+00 1.000000000000000000e+00 1.000000000000000000e+00 1.000000000000000000e+00 1.000000000000000000e+00 1.000000000000000000e+00 1.000000000000000000e+00 1.000000000000000000e+00 1.000000000000000000e+00 1.000000000000000000e+00 1.000000000000000000e+00 1.000000000000000000e+00 1.000000000000000000e+00 1.000000000000000000e+00 1.000000000000000000e+00 1.000000000000000000e+00 1.000000000000000000e+00 1.000000000000000000e+00 1.000000000000000000e+00 1.000000000000000000e+00 1.000000000000000000e+00 1.000000000000000000e+00 1.000000000000000000e+00 1.000000000000000000e+00 1.000000000000000000e+00 1.000000000000000000e+00 1.000000000000000000e+00 1.000000000000000000e+00 1.000000000000000000e+00 1.000000000000000000e+00 1.000000000000000000e+00 1.000000000000000000e+00 1.000000000000000000e+00 1.000000000000000000e+00 1.000000000000000000e+00 1.000000000000000000e+00 1.000000000000000000e+00 1.000000000000000000e+00 1.000000000000000000e+00 1.000000000000000000e+00 1.000000000000000000e+00 1.000000000000000000e+00 1.000000000000000000e+00 1.000000000000000000e+00 1.000000000000000000e+00 1.000000000000000000e+00 1.000000000000000000e+00 1.000000000000000000e+00 1.000000000000000000e+00 1.000000000000000000e+00 1.000000000000000000e+00 1.000000000000000000e+00 1.000000000000000000e+00 1.000000000000000000e+00 1.000000000000000000e+00 1.000000000000000000e+00 1.000000000000000000e+00 1.000000000000000000e+00 1.000000000000000000e+00 1.000000000000000000e+00 1.000000000000000000e+00 1.000000000000000000e+00 1.000000000000000000e+00 1.000000000000000000e+00 1.000000000000000000e+00 1.000000000000000000e+00 1.000000000000000000e+00 1.000000000000000000e+00 1.000000000000000000e+00 1.000000000000000000e+00 1.000000000000000000e+00 1.000000000000000000e+00 1.000000000000000000e+00 1.000000000000000000e+00 1.000000000000000000e+00 1.000000000000000000e+00 1.000000000000000000e+00 1.000000000000000000e+00 1.000000000000000000e+00 1.000000000000000000e+00 1.000000000000000000e+00 1.000000000000000000e+00 1.000000000000000000e+00 1.000000000000000000e+00 1.000000000000000000e+00 1.000000000000000000e+00 1.000000000000000000e+00 1.000000000000000000e+00 1.000000000000000000e+00 1.000000000000000000e+00 1.000000000000000000e+00 1.000000000000000000e+00 1.000000000000000000e+00 1.000000000000000000e+00 1.000000000000000000e+00 1.000000000000000000e+00 1.000000000000000000e+00 1.000000000000000000e+00 1.000000000000000000e+00 1.000000000000000000e+00 1.000000000000000000e+00 1.000000000000000000e+00 1.000000000000000000e+00 1.000000000000000000e+00 1.000000000000000000e+00 1.000000000000000000e+00 1.000000000000000000e+00 1.000000000000000000e+00 1.000000000000000000e+00 1.000000000000000000e+00 1.000000000000000000e+00 1.000000000000000000e+00 1.000000000000000000e+00 1.000000000000000000e+00 1.000000000000000000e+00 1.000000000000000000e+00 1.000000000000000000e+00 1.000000000000000000e+00 1.000000000000000000e+00 1.000000000000000000e+00 1.000000000000000000e+00 1.000000000000000000e+00 1.000000000000000000e+00 1.000000000000000000e+00 1.000000000000000000e+00 1.000000000000000000e+00 1.000000000000000000e+00 1.000000000000000000e+00 1.000000000000000000e+00 1.000000000000000000e+00 1.000000000000000000e+00 1.000000000000000000e+00 1.000000000000000000e+00 1.000000000000000000e+00 1.000000000000000000e+00 1.000000000000000000e+00 1.000000000000000000e+00 1.000000000000000000e+00 1.000000000000000000e+00 1.000000000000000000e+00 1.000000000000000000e+00 1.000000000000000000e+00 1.000000000000000000e+00 1.000000000000000000e+00 1.000000000000000000e+00 1.000000000000000000e+00 1.000000000000000000e+00 1.000000000000000000e+00 1.000000000000000000e+00 1.000000000000000000e+00 1.000000000000000000e+00 1.000000000000000000e+00 1.000000000000000000e+00 1.000000000000000000e+00 1.000000000000000000e+00 1.000000000000000000e+00 1.000000000000000000e+00 1.000000000000000000e+00 1.000000000000000000e+00 1.000000000000000000e+00 1.000000000000000000e+00 1.000000000000000000e+00 1.000000000000000000e+00 1.000000000000000000e+00 1.000000000000000000e+00 1.000000000000000000e+00 1.000000000000000000e+00 1.000000000000000000e+00 1.000000000000000000e+00 1.000000000000000000e+00 1.000000000000000000e+00 1.000000000000000000e+00 1.000000000000000000e+00 1.000000000000000000e+00 1.000000000000000000e+00 1.000000000000000000e+00 1.000000000000000000e+00 1.000000000000000000e+00 1.000000000000000000e+00 1.000000000000000000e+00 1.000000000000000000e+00 1.000000000000000000e+00 1.000000000000000000e+00 1.000000000000000000e+00 1.000000000000000000e+00 1.000000000000000000e+00 1.000000000000000000e+00 1.000000000000000000e+00 1.000000000000000000e+00 1.000000000000000000e+00 1.000000000000000000e+00 1.000000000000000000e+00 1.000000000000000000e+00 1.000000000000000000e+00 1.000000000000000000e+00 1.000000000000000000e+00 1.000000000000000000e+00 1.000000000000000000e+00 1.000000000000000000e+00 1.000000000000000000e+00 1.000000000000000000e+00 1.000000000000000000e+00 1.000000000000000000e+00 1.000000000000000000e+00 1.000000000000000000e+00 1.000000000000000000e+00 1.000000000000000000e+00 1.000000000000000000e+00 1.000000000000000000e+00 1.000000000000000000e+00 1.000000000000000000e+00 1.000000000000000000e+00 1.000000000000000000e+00 1.000000000000000000e+00 1.000000000000000000e+00 1.000000000000000000e+00 1.000000000000000000e+00 1.000000000000000000e+00 1.000000000000000000e+00 1.000000000000000000e+00 1.000000000000000000e+00 1.000000000000000000e+00 1.000000000000000000e+00 1.000000000000000000e+00 1.000000000000000000e+00 1.000000000000000000e+00 1.000000000000000000e+00 1.000000000000000000e+00 1.000000000000000000e+00 1.000000000000000000e+00 1.000000000000000000e+00 1.000000000000000000e+00 1.000000000000000000e+00 1.000000000000000000e+00 1.000000000000000000e+00 1.000000000000000000e+00 1.000000000000000000e+00 1.000000000000000000e+00 1.000000000000000000e+00 1.000000000000000000e+00 1.000000000000000000e+00 1.000000000000000000e+00 1.000000000000000000e+00 1.000000000000000000e+00 1.000000000000000000e+00 1.000000000000000000e+00 1.000000000000000000e+00 1.000000000000000000e+00 1.000000000000000000e+00 1.000000000000000000e+00 1.000000000000000000e+00 1.000000000000000000e+00 1.000000000000000000e+00 1.000000000000000000e+00 1.000000000000000000e+00 1.000000000000000000e+00 1.000000000000000000e+00 1.000000000000000000e+00 1.000000000000000000e+00 1.000000000000000000e+00 1.000000000000000000e+00 1.000000000000000000e+00 1.000000000000000000e+00 1.000000000000000000e+00 1.000000000000000000e+00 1.000000000000000000e+00 1.000000000000000000e+00 1.000000000000000000e+00 1.000000000000000000e+00 1.000000000000000000e+00 1.000000000000000000e+00 1.000000000000000000e+00 1.000000000000000000e+00 1.000000000000000000e+00 1.000000000000000000e+00 1.000000000000000000e+00 1.000000000000000000e+00 1.000000000000000000e+00 1.000000000000000000e+00 1.000000000000000000e+00 1.000000000000000000e+00 1.000000000000000000e+00 1.000000000000000000e+00 1.000000000000000000e+00 1.000000000000000000e+00 1.000000000000000000e+00 1.000000000000000000e+00 1.000000000000000000e+00 1.000000000000000000e+00 1.000000000000000000e+00 1.000000000000000000e+00 1.000000000000000000e+00 1.000000000000000000e+00 1.000000000000000000e+00 1.000000000000000000e+00 1.000000000000000000e+00 1.000000000000000000e+00 1.000000000000000000e+00 1.000000000000000000e+00 1.000000000000000000e+00 1.000000000000000000e+00 1.000000000000000000e+00 1.000000000000000000e+00 1.000000000000000000e+00 1.000000000000000000e+00 1.000000000000000000e+00 1.000000000000000000e+00 1.000000000000000000e+00 1.000000000000000000e+00 1.000000000000000000e+00 1.000000000000000000e+00 1.000000000000000000e+00 1.000000000000000000e+00 1.000000000000000000e+00 1.000000000000000000e+00 1.000000000000000000e+00 1.000000000000000000e+00 1.000000000000000000e+00 1.000000000000000000e+00 1.000000000000000000e+00 1.000000000000000000e+00 1.000000000000000000e+00 1.000000000000000000e+00 1.000000000000000000e+00 1.000000000000000000e+00 1.000000000000000000e+00 1.000000000000000000e+00 1.000000000000000000e+00 1.000000000000000000e+00 1.000000000000000000e+00 1.000000000000000000e+00 1.000000000000000000e+00 1.000000000000000000e+00 1.000000000000000000e+00 1.000000000000000000e+00 1.000000000000000000e+00 1.000000000000000000e+00 1.000000000000000000e+00 1.000000000000000000e+00 1.000000000000000000e+00 1.000000000000000000e+00 1.000000000000000000e+00 1.000000000000000000e+00 1.000000000000000000e+00 1.000000000000000000e+00 1.000000000000000000e+00 1.000000000000000000e+00 1.000000000000000000e+00 1.000000000000000000e+00 1.000000000000000000e+00 1.000000000000000000e+00 1.000000000000000000e+00 1.000000000000000000e+00 1.000000000000000000e+00 1.000000000000000000e+00 1.000000000000000000e+00 1.000000000000000000e+00 1.000000000000000000e+00 1.000000000000000000e+00 1.000000000000000000e+00 1.000000000000000000e+00 1.000000000000000000e+00 1.000000000000000000e+00 1.000000000000000000e+00 1.000000000000000000e+00 1.000000000000000000e+00 1.000000000000000000e+00 1.000000000000000000e+00 1.000000000000000000e+00 1.000000000000000000e+00 1.000000000000000000e+00 1.000000000000000000e+00 1.000000000000000000e+00 1.000000000000000000e+00 1.000000000000000000e+00 1.000000000000000000e+00 1.000000000000000000e+00 1.000000000000000000e+00 1.000000000000000000e+00 1.000000000000000000e+00 1.000000000000000000e+00 1.000000000000000000e+00 1.000000000000000000e+00 1.000000000000000000e+00 1.000000000000000000e+00 1.000000000000000000e+00 1.000000000000000000e+00 1.000000000000000000e+00 1.000000000000000000e+00 1.000000000000000000e+00 1.000000000000000000e+00 1.000000000000000000e+00 1.000000000000000000e+00 1.000000000000000000e+00 1.000000000000000000e+00 1.000000000000000000e+00 1.000000000000000000e+00 1.000000000000000000e+00 1.000000000000000000e+00 1.000000000000000000e+00 1.000000000000000000e+00 1.000000000000000000e+00 1.000000000000000000e+00 1.000000000000000000e+00 1.000000000000000000e+00 1.000000000000000000e+00 1.000000000000000000e+00 1.000000000000000000e+00 1.000000000000000000e+00 1.000000000000000000e+00 1.000000000000000000e+00 1.000000000000000000e+00 1.000000000000000000e+00 1.000000000000000000e+00 1.000000000000000000e+00 1.000000000000000000e+00 1.000000000000000000e+00 1.000000000000000000e+00 1.000000000000000000e+00 1.000000000000000000e+00 1.000000000000000000e+00 1.000000000000000000e+00 1.000000000000000000e+00 1.000000000000000000e+00 1.000000000000000000e+00 1.000000000000000000e+00 1.000000000000000000e+00 1.000000000000000000e+00 1.000000000000000000e+00 1.000000000000000000e+00 1.000000000000000000e+00 1.000000000000000000e+00 1.000000000000000000e+00 1.000000000000000000e+00 1.000000000000000000e+00 1.000000000000000000e+00 1.000000000000000000e+00 1.000000000000000000e+00 1.000000000000000000e+00 1.000000000000000000e+00 1.000000000000000000e+00 1.000000000000000000e+00 1.000000000000000000e+00 1.000000000000000000e+00 1.000000000000000000e+00 1.000000000000000000e+00 1.000000000000000000e+00 1.000000000000000000e+00 1.000000000000000000e+00 1.000000000000000000e+00 1.000000000000000000e+00 1.000000000000000000e+00 1.000000000000000000e+00 1.000000000000000000e+00 1.000000000000000000e+00 1.000000000000000000e+00 1.000000000000000000e+00 1.000000000000000000e+00 1.000000000000000000e+00 1.000000000000000000e+00 1.000000000000000000e+00 1.000000000000000000e+00 1.000000000000000000e+00 1.000000000000000000e+00 1.000000000000000000e+00 1.000000000000000000e+00 1.000000000000000000e+00 1.000000000000000000e+00 1.000000000000000000e+00 1.000000000000000000e+00 1.000000000000000000e+00 1.000000000000000000e+00 1.000000000000000000e+00 1.000000000000000000e+00 1.000000000000000000e+00 1.000000000000000000e+00 1.000000000000000000e+00 1.000000000000000000e+00 1.000000000000000000e+00 1.000000000000000000e+00 1.000000000000000000e+00 1.000000000000000000e+00 1.000000000000000000e+00 1.000000000000000000e+00 1.000000000000000000e+00 1.000000000000000000e+00 1.000000000000000000e+00 1.000000000000000000e+00 1.000000000000000000e+00 1.000000000000000000e+00 1.000000000000000000e+00 1.000000000000000000e+00 1.000000000000000000e+00 1.000000000000000000e+00 1.000000000000000000e+00 1.000000000000000000e+00 1.000000000000000000e+00 1.000000000000000000e+00 1.000000000000000000e+00 1.000000000000000000e+00 1.000000000000000000e+00 1.000000000000000000e+00 1.000000000000000000e+00 1.000000000000000000e+00 1.000000000000000000e+00 1.000000000000000000e+00 1.000000000000000000e+00 1.000000000000000000e+00 1.000000000000000000e+00 1.000000000000000000e+00 1.000000000000000000e+00 1.000000000000000000e+00 1.000000000000000000e+00 1.000000000000000000e+00 1.000000000000000000e+00 1.000000000000000000e+00 1.000000000000000000e+00 1.000000000000000000e+00 1.000000000000000000e+00 1.000000000000000000e+00 1.000000000000000000e+00 1.000000000000000000e+00 1.000000000000000000e+00 1.000000000000000000e+00 1.000000000000000000e+00 1.000000000000000000e+00 1.000000000000000000e+00 1.000000000000000000e+00 1.000000000000000000e+00 1.000000000000000000e+00 1.000000000000000000e+00 1.000000000000000000e+00 1.000000000000000000e+00 1.000000000000000000e+00 1.000000000000000000e+00 1.000000000000000000e+00 1.000000000000000000e+00 1.000000000000000000e+00 1.000000000000000000e+00 1.000000000000000000e+00 1.000000000000000000e+00 1.000000000000000000e+00 1.000000000000000000e+00 1.000000000000000000e+00 1.000000000000000000e+00 1.000000000000000000e+00 1.000000000000000000e+00 1.000000000000000000e+00 1.000000000000000000e+00 1.000000000000000000e+00 1.000000000000000000e+00 1.000000000000000000e+00 1.000000000000000000e+00 1.000000000000000000e+00 1.000000000000000000e+00 1.000000000000000000e+00 1.000000000000000000e+00 1.000000000000000000e+00 1.000000000000000000e+00 1.000000000000000000e+00 1.000000000000000000e+00 1.000000000000000000e+00 1.000000000000000000e+00 1.000000000000000000e+00 1.000000000000000000e+00 1.000000000000000000e+00 1.000000000000000000e+00 1.000000000000000000e+00 1.000000000000000000e+00 1.000000000000000000e+00 1.000000000000000000e+00 1.000000000000000000e+00 1.000000000000000000e+00 1.000000000000000000e+00 1.000000000000000000e+00 1.000000000000000000e+00 1.000000000000000000e+00 1.000000000000000000e+00 1.000000000000000000e+00 1.000000000000000000e+00 1.000000000000000000e+00 1.000000000000000000e+00 1.000000000000000000e+00 1.000000000000000000e+00 1.000000000000000000e+00 1.000000000000000000e+00 1.000000000000000000e+00 1.000000000000000000e+00 1.000000000000000000e+00 1.000000000000000000e+00 1.000000000000000000e+00 1.000000000000000000e+00 1.000000000000000000e+00 1.000000000000000000e+00 1.000000000000000000e+00 1.000000000000000000e+00 1.000000000000000000e+00 1.000000000000000000e+00 1.000000000000000000e+00 1.000000000000000000e+00 1.000000000000000000e+00 1.000000000000000000e+00 1.000000000000000000e+00 1.000000000000000000e+00 1.000000000000000000e+00 1.000000000000000000e+00 1.000000000000000000e+00 1.000000000000000000e+00 1.000000000000000000e+00 1.000000000000000000e+00 1.000000000000000000e+00 1.000000000000000000e+00 1.000000000000000000e+00 1.000000000000000000e+00 1.000000000000000000e+00 1.000000000000000000e+00 1.000000000000000000e+00 1.000000000000000000e+00 1.000000000000000000e+00 1.000000000000000000e+00 1.000000000000000000e+00 1.000000000000000000e+00 1.000000000000000000e+00 1.000000000000000000e+00 1.000000000000000000e+00 1.000000000000000000e+00 1.000000000000000000e+00 1.000000000000000000e+00 1.000000000000000000e+00 1.000000000000000000e+00 1.000000000000000000e+00 1.000000000000000000e+00 1.000000000000000000e+00 1.000000000000000000e+00 1.000000000000000000e+00 1.000000000000000000e+00 1.000000000000000000e+00 1.000000000000000000e+00 1.000000000000000000e+00 1.000000000000000000e+00 1.000000000000000000e+00 1.000000000000000000e+00 1.000000000000000000e+00 1.000000000000000000e+00 1.000000000000000000e+00 1.000000000000000000e+00 1.000000000000000000e+00 1.000000000000000000e+00 1.000000000000000000e+00 1.000000000000000000e+00 1.000000000000000000e+00 1.000000000000000000e+00 1.000000000000000000e+00 1.000000000000000000e+00 1.000000000000000000e+00 1.000000000000000000e+00 1.000000000000000000e+00 1.000000000000000000e+00 1.000000000000000000e+00 1.000000000000000000e+00 1.000000000000000000e+00 1.000000000000000000e+00 1.000000000000000000e+00 1.000000000000000000e+00 1.000000000000000000e+00 1.000000000000000000e+00 1.000000000000000000e+00 1.000000000000000000e+00 1.000000000000000000e+00 1.000000000000000000e+00 1.000000000000000000e+00 1.000000000000000000e+00 1.000000000000000000e+00 1.000000000000000000e+00 1.000000000000000000e+00 1.000000000000000000e+00 1.000000000000000000e+00 1.000000000000000000e+00 1.000000000000000000e+00 1.000000000000000000e+00 1.000000000000000000e+00 1.000000000000000000e+00 1.000000000000000000e+00 1.000000000000000000e+00 1.000000000000000000e+00 1.000000000000000000e+00 1.000000000000000000e+00 1.000000000000000000e+00 1.000000000000000000e+00 1.000000000000000000e+00 1.000000000000000000e+00 1.000000000000000000e+00 1.000000000000000000e+00 1.000000000000000000e+00 1.000000000000000000e+00 1.000000000000000000e+00 1.000000000000000000e+00 1.000000000000000000e+00 1.000000000000000000e+00 1.000000000000000000e+00 1.000000000000000000e+00 1.000000000000000000e+00 1.000000000000000000e+00 1.000000000000000000e+00 1.000000000000000000e+00 1.000000000000000000e+00 1.000000000000000000e+00 1.000000000000000000e+00 1.000000000000000000e+00 1.000000000000000000e+00 1.000000000000000000e+00 1.000000000000000000e+00 1.000000000000000000e+00 1.000000000000000000e+00 1.000000000000000000e+00 1.000000000000000000e+00 1.000000000000000000e+00 1.000000000000000000e+00 1.000000000000000000e+00 1.000000000000000000e+00 1.000000000000000000e+00 1.000000000000000000e+00 1.000000000000000000e+00 1.000000000000000000e+00 1.000000000000000000e+00 1.000000000000000000e+00 1.000000000000000000e+00 1.000000000000000000e+00 1.000000000000000000e+00 1.000000000000000000e+00 1.000000000000000000e+00 1.000000000000000000e+00 1.000000000000000000e+00 1.000000000000000000e+00 1.000000000000000000e+00 1.000000000000000000e+00 1.000000000000000000e+00 1.000000000000000000e+00 1.000000000000000000e+00 1.000000000000000000e+00 1.000000000000000000e+00 1.000000000000000000e+00 1.000000000000000000e+00 1.000000000000000000e+00 1.000000000000000000e+00 1.000000000000000000e+00 1.000000000000000000e+00 1.000000000000000000e+00
2.710198486173617111e-02 5.350416803430926294e-01 3.095252448647515808e-01 4.629341616267509396e-01 5.015065519017249951e-01 5.523543975466397304e-01 7.772411623989621265e-01 1.838986989239185244e-01 4.606577110209917891e-01 5.044111641777032640e-01 1.042554194690485048e+00 -4.683720358593477240e-01 1.272433649697324531e+00 5.255459894173075686e-01 4.634097734086870535e-01 8.037895122484840504e-01 1.009019758344028572e+00 7.709162190225330447e-01 2.000741297784565109e-01 5.062658269187182425e-01 4.680027222975334245e-01 9.163536567696298762e-01 6.595403223241989021e-01 4.571048822247547605e-01 4.553859769471588215e-01 7.657884708894234782e-01 3.763775197261222671e-01 6.302952574085812776e-01 5.048034212353188499e-01 1.221362664110129392e+00 5.581744025534972620e-01 3.476252121629274661e-01 7.648390826508196794e-01 4.974769787344813787e-01 7.553255678156119979e-01 5.367551866945042827e-01 5.719611564631141842e-01 1.327497128832980433e+00 3.173466279110647575e-02 5.050003146696075973e-01 1.671096637719795552e-01 -4.976816397219052668e-01 7.570722890639924874e-01 1.951620106046417502e-01 2.367085831089121295e-01 6.172913665571697628e-01 4.619212867628298413e-01 5.090500970967603012e-01 5.109802211144657269e-01 1.900234351657785481e-02 8.956283013309612739e-03 6.444971607612716147e-01 5.919050461418490228e-01 4.013738829186361823e-01 5.276463259202880396e-01 -1.584318464900961315e-02 5.288574864342336923e-01 5.039535876030591943e-01 1.567532674502628565e-01 5.052226335125286072e-01 8.395278224869502370e-01 5.041087989089314547e-01 5.362949974891831895e-01 6.595399972044171388e-01 6.663159188357888896e-01 5.067870284422651972e-01 5.050936850161940050e-01 5.891423669868063318e-01 5.742124032667221822e-01 1.589829159216737259e-02 5.857016094131016759e-01 4.557812875628468596e-01 5.185522115711728164e-01 8.483086281171553847e-03 1.376210426469459458e+00 4.742983081257300393e-01 6.106996698894257003e-01 7.876109342807635638e-01 5.090616005518117104e-01 1.332424157305601486e+00 4.999112364752703042e-01 1.590081932748866889e-01 1.103352623697560153e+00 4.431518778179748264e-01 4.945557652620681255e-01 7.529190712599955759e-01 8.471995986958923419e-01 5.224044055529494246e-01 3.425032162516986611e-01 5.703787684975020200e-01 2.367057666960079021e-01 1.800100075360611562e+00 4.907594198184137002e-01 -7.204281112413120358e-02 5.333907767351115936e-01 4.780870065097744259e-01 4.858883961316321498e-01 4.454630850096648054e-01 2.073560624083118920e-01 7.558690059058617017e-01 1.287750067126441245e+00 6.116149083967667988e-01 4.938082249817132841e-01 1.049198672552903000e+00 4.351580908961431571e-01 -1.555560306495585854e+00 -9.982393405518296126e-01 5.656986719300196587e-01 5.068825058241642756e-01 9.609460779072386272e-01 5.238694128242976644e-01 4.793642580651208407e-01 5.228436914578217243e-01 5.436055201095132405e-01 4.813637416550500814e-01 6.929406834017043382e-01 3.857636068226016901e-01 6.638735844733667513e-01 4.836181646128897005e-01 4.988509649213608288e-01 1.197732138557475068e+00 4.062121887528685749e-01 4.595427297569321112e-01 3.044884916094260374e-01 5.196157503617060414e-01 1.737706863168715588e+00 5.261179785057141789e-01 4.312028169428304136e-01 5.022163480295321891e-01 4.986874045074649042e-01 5.108633196706188206e-01 5.031710301214464831e-01 3.957797578952270690e-01 8.465155493930716368e-02 5.577331582830545864e-01 -9.475207056215703694e-02 4.772782188310426554e-01 2.033725900748714274e-02 9.277519840003277674e-01 5.060750033398052627e-01 5.024172193775330308e-01 7.803636020046917920e-01 4.610941232561432401e-01 4.074992305303204443e-01 5.084533530403375634e-01 3.175755794221401390e-02 4.579631984618440232e-01 4.901791318021762600e-01 5.090004318606438094e-01 -6.447101017446007498e-01 7.368485064052109346e-01 -2.507345608358735323e-01 6.173352066160789908e-01 5.311025436870594474e-01 7.776405823934615658e-01 4.881461226952377164e-01 1.325199847482028126e+00 3.105137394177705512e-01 8.086447395322216014e-01 7.674830160700980564e-01 5.333374480059596134e-01 6.213194636024635953e-01 5.349782959463266208e-01 5.027950823748976728e-01 1.137864478118643552e+00 -6.221698795589138131e-02 7.687395212738004080e-01 4.695228034703469167e-01 5.338457851626112749e-01 6.152547607625951098e-01 4.103969538195459399e-01 4.631307853285296372e-01 6.172886531734675941e-01 5.069002012023346992e-01 4.186863547664740892e-01 4.563387458892335935e-02 1.310202557704569226e-01 3.259960952618262686e-02 6.691681355443517276e-01 1.104151195358796134e+00 6.753206690533503087e-01 4.921246825687662918e-01 -2.308430085892965444e-01 3.374975998027646695e-01 5.307806428821408851e-01 5.110512445618573540e-01 5.071156935281878608e-01 5.049043183364181342e-01 2.251663490794800992e+00 7.770749252978637056e-01 5.459118077544293790e-01 -6.108539548202295277e-01 4.976689860366283469e-01 5.592814788467067588e-01 1.252506707003855357e-01 5.067975815705861864e-01 8.541258128736198829e-01 5.079305191253122853e-01 6.911857712806640519e-01 5.037422665562126811e-01 3.360307820725072503e-01 4.509165118025194041e-01 1.084669973796584141e+00 5.838927631706387622e-01 5.429218041850116805e-01 6.911857182016271084e-01 4.978252817780008943e-01 1.192514930344025004e+00 5.194427197325269807e-01 5.395540412003405617e-01 4.387014640770460217e-01 3.861811028610260405e-02 5.239615830352335468e-01 2.438444282200393776e-01 5.011119331893019169e-01 5.156178182132118426e-01 5.056494500924699764e-01 5.037228272010444430e-01 5.191784446426745969e-01 4.998107022204636984e-01 5.186427140347302789e-01 2.881833110190111791e-01 -5.606751680945747385e-01 4.106025788143795041e-01 2.258107176767946422e-01 5.746017852113768365e-01 5.727978257476548096e-01 1.013601328105841803e+00 8.670652727875570731e-01 7.141056838287711539e-01 -1.107854060713969468e-01 9.695592852463897904e-01 5.059216373914990905e-01 6.294770623120472530e-01 1.680757620891457776e-02 4.603083106152152659e-01 4.981722846733976362e-01 3.194279160909103688e-01 -7.454714188186875590e-02 -1.988836585145468960e-01 2.808843278652330966e-01 5.387168919515838983e-01 -2.324483358207008257e-02 4.596620203367948743e-01 5.191201559849794034e-01 9.203057384289213827e-01 -1.214855153594990300e-01 6.005502937401849817e-01 -1.616073511474106938e+00 5.743960906127664190e-01 -9.564480292653738946e-02 5.774040023238304897e-01 4.728734094986270509e-01 6.595392716369856689e-01 5.555677015660200890e-01 5.172062590825904360e-01 4.703608139335265781e-01 4.828998661368287260e-01 6.068036202343084495e-01 1.581038604848585827e+00 5.511567036410931486e-01 6.053782803740808127e-01 5.459098396521848695e-01 7.968920217691169983e-01 8.395762437416428581e-01 3.779847445758365843e-01 2.215984730651044732e+00 5.231205382724407604e-01 3.185114717539476725e-01 5.811270260562879653e-01 4.920846647457505219e-01 8.336138684390620446e-01 5.048896313091495447e-01 5.251539942114091808e-01 4.962410474839806795e-01 7.133116784813879896e-01 3.706369671016891965e-01 8.868919718707118927e-01 8.424011043325563275e-01 -2.091193293437951933e-02 6.372353747001205937e-01 4.375177934983759398e-01 4.950876002347053828e-01 -5.233132908210628154e-01 3.572532325129687547e-01 8.763240695163140304e-01 6.135028321877205038e-01 5.160990354218343290e-01 6.929407222181035442e-01 6.226899085681287804e-01 5.255141241824143883e-01 -2.078897696683657814e-01 4.220248323016676517e-01 5.156216339249626301e-01 -1.220890959632142322e-02 5.036512924089721066e-01 1.745157310171909781e+00 6.629694832685064654e-01 4.977928943393715722e-01 5.090670702741569853e-01 -2.754743019222999578e+00 5.223887164070180056e-01 1.871313465873752691e+00 4.628816303985303082e-01 4.836693534910553871e-01 -5.882847848953420833e-01 4.967791167665965846e-01 5.168534962958061252e-01 8.045415349099026558e-01 5.571136490680996811e-01 5.912809390713880120e-01 5.860500260563813457e-01 3.220060160326966292e-01 4.775434316899409559e-01 5.019126297724961772e-01 4.908873244346349529e-01 5.073206466188657782e-01 4.632078282189551754e-01 5.016863974238083834e-01 1.095702323480016949e+00 1.326971341263274116e-02 2.048843593789344553e+00 2.290589890341979462e+00 3.252012879000665269e-01 -5.492780113538475728e-02 4.517355401925308711e-01 5.120877288107712477e-01 6.280426857576910660e-01 1.227439103421724020e+00 5.601143949180563686e-01 1.047149157320789836e+00 5.125595376525889924e-01 2.164552512137690177e-01 1.198446950194868910e+00 6.836340718913522796e-01 5.214821668170407376e-01 4.959743901074954997e-01 3.660797986557741135e-01 -2.793210714608691969e+00 1.436830168468741897e+00 5.248405487837776162e-01 6.530323712821644033e-01 4.697720760468910850e-01 1.327497121942744940e+00 3.700215769244399877e-01 4.455377499446390166e-01 2.615625877932356014e-01 6.305192876858003448e-01 1.394220395346758901e+00 6.952655574014507955e-01 6.911858042458330909e-01 4.596638458231808722e-01 5.838927530611139893e-01 6.375217133566242200e-01 4.931129263665617879e-01 7.870520101707756400e-01 5.088523809695640887e-01 5.702344928514208044e-01 6.197389179834087436e-01 4.750241279827313590e-01 5.002938493605486592e-01 4.579235092365305237e-01 4.455376214770742638e-01 4.014303715046983467e-01 5.069719056196371199e-01 5.065385109401635555e-01 1.095078589863365259e+00 9.714297313763740060e-01 5.118658561014588493e-01 5.212065093105759939e-01 8.396681258293892114e-01 -1.030434194270326009e-01 9.008034198067148557e-01 5.741179540977646711e-01 1.306615033653421055e-02 5.773694550993240249e-01 1.145346590045782431e+00 5.019890088392573446e-01 6.072798375269867766e-01 2.293976790374417929e-01 -2.780882183683354159e-01 -2.013419972939958225e+00 5.185782346828375911e-01 5.838927510978152435e-01 5.838927510978109137e-01 5.186807744679772236e-01 6.375178240746527392e-01 -8.118801318956100910e-02 5.153219999149014630e-01 5.058460328253385763e-01 1.886228839258778933e-01 5.016215837603997807e-01 1.143824687662887696e+00 6.911856996206530157e-01 5.126346290798589056e-01 5.227870428425158700e-01 5.160114963069716287e-01 5.690415437132226861e-01 5.266884042638709795e-01 4.912362531703864388e-01 3.896470181996395943e-01 2.770300559539004559e-01 -6.906252137773873784e-03 5.838927511354510269e-01 6.139154662935873974e-01 4.956983490888208221e-01 8.118956898065557981e-01 8.260518458992615054e-01 5.725242181887867376e-01 5.565617494548559252e-01 1.401424850486153506e+00 4.962063872430844680e-01 -2.160181451704534350e+00 4.627458958190764915e-01 1.344550235092748292e+00 5.083313188671387817e-01 -7.493190533041691470e-01 4.780544998615556263e-01 4.661955489300070310e-01 4.077970521957348105e-01 5.000212441981047862e-01 4.176777915934143937e-01 5.341298850458958691e-01 1.011329791166258207e+00 6.008804057801717668e-01 1.631911295568007000e-02 4.899693180188104402e-01 4.923644518925132663e-01 7.123886221057761370e-01 4.849916700565833905e-01 7.562540797138421755e-01 -2.775666372173750118e-01 4.681905635177306957e-01 5.011409341177474053e-01 4.068013417425224709e-01 5.115539209156068079e-01 7.398922317517809821e-01 5.019883840372865169e-01 4.107169687363626531e-01 9.565020704319924238e-01 5.336690292136631042e-01 4.946422592437946797e-01 1.125697278580026078e-01 1.400894368920033162e-01 8.805455390570009477e-01 5.078001888610348402e-01 2.759136800093354491e+00 6.305789522047089424e-01 3.464427244523476945e-01 5.937372278504873258e-01 7.758252860701566611e-01 8.822907630134272511e-03 4.708694427376269864e-01 4.232781248648107564e-01 4.779056524780803117e-01 1.143002167197386454e+00 7.404071268424119445e-01 4.995157740916383315e-01 5.195470816238418887e-01 1.042231510755740720e+00 4.903502563400898850e-01 5.268926944517454691e-01 5.049058251771817440e-01 5.123758918544858432e-01 5.028216869031065794e-01 8.043534732291183209e-01 5.250769078071353402e-01 4.951985194793880884e-01 1.799807781791844252e-02 5.022875601165498471e-01 2.178317744331403731e-03 5.403986450855383650e-01 5.268487275424861283e-01 5.025841512727516891e-01 7.254900298457799268e-01 5.445635877752931231e-01 5.823020721202986083e-01 -6.524912860845243079e-03 4.910127820956138867e-01 5.022328397792501509e-01 3.917558524999034120e-01 1.176011607230532767e-02 5.106260424125360631e-01 5.647821217543723682e-01 5.002328082366337414e-01 6.269140790571600119e-01 1.080245479807093512e+00 6.067362106000517841e-01 4.795343494074336688e-01 5.744297538891818267e-01 3.706610502716251032e-01 4.533769953783252649e-01 9.201855771356001190e-01 3.273687859785827658e-01 5.880354179624369682e-01 6.121288305162893018e-01 1.727458763025519595e+00 6.279783865089396677e-01 5.793203555167494301e-01 4.888212976971094137e-01 4.214356012586262801e-01 5.284436550785912567e-01 6.232855962482463097e-01 -4.619303367341569544e-01 5.658117582266548595e-01 6.271974619943392337e-01 5.877491673345258683e-01 5.922451074390514547e-01 -4.031475848949579999e-01 4.101083038112242063e-01 4.966826079075774003e-01 5.798568339993245280e-01 6.275871606365240885e-01 8.142544148912974622e-01 4.991822299563306031e-01 5.440048715789980172e-01 -4.422866575045641957e-01 4.702535670445574523e-01 1.016144610953320315e+00 4.873216081480367667e-01 1.364863631032670888e-01 5.267956268809708131e-01 -5.308875066640429408e-01 5.132978853970653343e-01 6.647426802659642808e-01 1.018732448946251257e+00 8.248825664259329393e-01 4.860031259552649030e-01 4.538358464517218138e-01 2.056608339205109048e-01 4.617936146936705843e-01 5.509652336672383743e-01 6.264576552340980209e-01 1.994213590611842307e-03 5.406227528071633204e-01 3.495765523665307906e-01 6.714357618101075564e-01 6.217302895679862607e-01 5.447930665112602489e-01 7.751065122963695098e-01 -1.362157991256199019e-01 -1.516368848248840218e-01 5.326239459810329091e-01 5.017886314653754454e-01 5.735954589706636630e-01 5.187680768485958271e-01 -6.177876712755232536e-01 2.706432794753961257e+00 2.565614553038947920e-01 4.154006664250385339e-01 8.704896254539155054e-01 4.971048349780882725e-01 5.333006222260102680e-01 5.373011439142392209e-01 5.642022217774091963e-01 4.553992150782199544e-01 5.030190143432444749e-01 5.114870167843772464e-01 5.304861283254106441e-01 4.627191572442033718e-01 5.357054780081307310e-01 4.110683824692807908e-01 5.196155019452732837e-01 5.179803197406591675e-01 5.021325600345745155e-01 8.831994026437025580e-01 2.059518567954021773e+00 4.319757111616152057e-01 4.803236495648334214e-01 5.732086301428499509e-01 5.194362955119420366e-01 6.051621488336087484e-01 4.977684797323913002e-01 5.040156081579900693e-01 2.491013550611892169e-01 4.980122992015579286e-01 5.020731599363873476e-01 4.617837924958078100e-01 5.523345315220037355e-01 5.586762468064265796e-01 8.855388890638673516e-01 8.419133907844413844e-01 2.032850714545633153e-01 8.395673105340611952e-01 5.228592591124534561e-01 5.063114786428397629e-01 1.836617225410308585e+00 2.350757456073612472e-01 4.766951067716842516e-01 5.388280556323408188e-01 4.285683553185262035e-02 4.727612937015227557e-01 1.348509654627933152e+00 5.358330770151178424e-01 9.438095600286980913e-01 5.142864932847197590e-01 5.221942731008210048e-01 5.506256851064725844e-01 6.152277045967011748e-01 4.832165314779927612e-01 4.971591824319601671e-01 5.623957234243042169e-01 3.022798705686171039e-01 -4.925502012399204377e-01 5.185164115713283284e-01 5.490804351309996889e-01 5.245984105440593126e-01 5.090796668601736963e-01 8.395681189067188965e-01 4.692979652975601823e-01 3.745109744888892589e-01 1.059521583874025064e+00 -3.430801612465342321e-01 5.065959951649106063e-01 9.306498870955880465e-01 1.133133143519625685e+00 5.807548248806159163e-01 5.016637664588921020e-01 3.516789967384510718e-02 -1.322309835857519378e+00 3.411520647769748504e-01 5.060037606391011300e-01 4.794984368514388917e-01 4.953098591661786454e-01 5.147117421029111517e-01 5.178894208555091527e-01 -2.415594027186488135e-01 7.667744012182846625e-01 6.929407192350260924e-01 6.670834157185855373e-01 5.309087407031130024e-01 -1.095425191704956364e-01 -1.897875691292832956e-01 1.433816412457391110e+00 4.443091529857385868e-01 5.286763907299016907e-01 5.069406202352884083e-01 3.777314195543066688e-01 4.470323002244568356e-01 5.424176761323858953e-01 3.208475691633126958e-01 5.084771664926818202e-01 5.920464797281260738e-01 4.575995936840657752e-01 5.094777466271910304e-01 5.213270933146362252e-01 4.811294115343185407e-01 5.287829729109752019e-01 4.603014682244034872e-01 9.474362965846980789e-01 5.490538365466344217e-01 5.192682539515153239e-01 5.921114207640927329e-01 4.271473301424947855e-01 5.400326269885964425e-01 -1.076813591114279649e-02 4.455377558006932137e-01 7.680959586794214866e-01 5.139699883234601918e-01 4.317528256524807428e-01 1.189497106000757309e+00 6.232804287129712906e-01 -1.687996446062338118e-01 5.373117348014533334e-01 5.446328673429302603e-01 5.045056915864789548e-01 4.962654734894851316e-01 6.397628477407091285e-01 5.055335286540524331e-01 5.024539127989261500e-01 4.121820150260656068e-01 -6.027190075830745064e-01 1.867275340068801359e+00 4.773058432764926695e-01 8.191274434433571949e-01 7.369249245742830468e-01 5.051830817428668574e-01 2.788808807258634226e-01 1.487845612745982982e-01 4.919577005606687869e-01 5.247658845273870387e-01 -4.457712817505849433e-03 5.018651689634348045e-01 5.676301238817537120e-01 5.087251477260513743e-01 1.043189154360851800e+00 5.043804553300702542e-01 4.198877433995320541e-01 2.659088448930371218e-01 4.724487684623685513e-01 1.417526609858555109e-01 5.086144303098214525e-01 6.539085311070084172e-01 5.030285395105376089e-01 -4.144920581298784934e-01 4.682311890328098580e-01 6.152351982233513761e-01 5.261737479756489755e-01 4.633193115666101591e-01 8.397059445087897700e-01 7.555582804059500779e-01 -4.382659833817093009e-01 1.021955619662000547e+00 1.327497127717907066e+00 5.510584636686690629e-01 4.643921526179662362e-01 9.897884513505366133e-01 5.163652940804913660e-01 4.635479561224022937e-01 5.037501930556020913e-01 1.383843047552939076e+00 4.987470889193565404e-01 4.596627240712969353e-01 1.191174136110893622e+00 -7.181360736228178596e-03 6.515132698057024552e-01 -6.779051844590533449e-02 -7.249275174809206579e-01 -1.902589216553312035e-01 7.281668706085834275e-01 5.268824733690474771e-01 5.714608778507145326e-01 -3.493876845230080574e-01 5.220361502164074796e-01 4.464615230407100593e-02 -3.244529442485838411e-02 5.797057404446378515e-01 4.987519346733104708e-01 4.907219726054656284e-01 5.389147612383279329e-01 4.516301535416463175e-01 8.329938626407771274e-01 -1.297969685798704420e-01 5.009416311551809775e-01 5.058814441192094336e-01 6.481846620613537224e-01 1.087728183879547172e+00 4.883601836538258856e-01 5.278283654751970699e-01 4.976814560398191145e-01 3.553311398694911083e-02 4.183604474301662046e-01 5.209576072132257041e-01 4.756696057238204434e-01 5.092688248230671233e-01 5.000815331585399814e-01 4.906140345118633062e-01 5.014559856983823449e-01 5.043532781186398362e-01 2.379469454560943498e-01 3.219262788381752061e-01 8.115617721025327747e-01 2.202971922041621955e+00 -1.704277717548727811e-01 6.635284649205268614e-01 5.160345494629073881e-01 4.795619361679244186e-01 7.382809006568255006e-01 4.052724601973316937e-02 -1.056141415847107856e+00 4.928856228057530431e-01 2.262635849857656201e+00 5.358558912561177667e-01 1.309996976160232862e-01 2.830151028056918650e-01 6.929406870822022446e-01 6.023475291009612320e-01 1.327219813286714789e+00 5.897642822468498469e-01 1.079935678355679052e-01 6.698064243883516955e-01 1.328312312753129110e+00 5.199801499729526100e-01 5.184274804079492815e-01 5.116784642847400644e-01 8.083627303503555517e-01 4.728548729997058553e-01 4.996464508906508506e-01 -2.096261432195006824e-02 5.026629124224041290e-01 4.912751091785427238e-01 -4.640818241182106396e-01 4.070990662197456755e-01 1.090139880753954849e+00 2.313199360889665601e-01 4.040952353494762228e-01 6.453825927971318377e-01 5.245745202461732370e-01 1.833096124050589859e+00 5.990663897891013168e-01 6.365167686515601012e-03 4.805974623404714041e-01 5.097485287078874494e-01 8.473491020776290350e-01 4.884968242853018339e-01 7.026294453466491730e-02 5.037579189672022340e-01 -6.948901275942417910e-02 4.954372782057425706e-01 5.108867516857652502e-01 -1.646682584551195649e-02 -1.261368166993833140e-01 6.094835952751604946e-01 6.098114956613438498e-01 5.047493223708543475e-01 5.975114910155893133e-01 5.206542756626120205e-01 5.358740431308213203e-01 5.491187648226661944e-01 6.531443134526687677e-01 4.939293607680646514e-01 7.501979106601259772e-01 9.782441202868848995e-01 2.722339924178001969e+00 3.323557518514389519e-01 5.270909223903339491e-01 5.045788116198899331e-01 1.796369482440762777e-01 5.020005880220992367e-01 6.722712163973596500e-01 4.557749064921310378e-01 1.297234105894200296e+00 6.429927684650958986e-01 -4.442837873798854975e-01 3.824736666417916098e-02 4.006941481456637866e-01 5.920528969448221046e-01 5.235250594551940084e-01 5.197935646267594079e-01 -1.760777962348650250e-02 5.033485508706864175e-01 4.835824935805216329e-01 -2.451019659304064291e+00 5.630789415076140614e-01 5.271698162357547623e-01 1.028777623768420746e+00 5.164992945320928674e-01 3.856736269312382448e-01 7.692363153823618127e-01 -6.576891205771322468e-01 -4.945448904159889247e-01 5.574124265938085188e-02 5.474248338336222819e-01 5.227097575308293775e-01 6.456122522477751868e-01 5.242161451851016229e-01 -2.421172705650704582e-01 8.623333735988881754e-01 5.318077980347154510e-01 6.748243594323195538e-01 5.254682162989540162e-01 4.963116355819919279e-01 2.435914556357889338e-01 -5.155619407388897235e-01 2.921778308556364778e-01 5.160258069805407910e-01 2.180752541412543100e-01 4.936514926414590221e-01 4.716608062446223104e-01 5.097511283255322656e-01 5.451583334119272095e-01 5.181444508589265752e-01 4.809369734135133800e-01 4.738419457136371360e-01 1.327497121534946034e+00 4.657589730130554662e-01 4.656273184903755302e-01 1.939572306483884623e-02 5.232533700938494237e-01 5.700500837133364307e-01 4.990168738846132990e-01 5.532786325838122687e-01 5.082776163219414611e-01 7.222422770285764626e-01 7.579990365237684324e-01 5.553819123712724348e-01 5.359313373008105508e-01 5.694263836479040997e-01 4.815492242948260504e-01 4.755123332764796262e-01 5.010365267351193364e-01 1.022022903005835204e+00 6.363009575349062308e-01 -3.653572512370441006e-01 3.749257503661226343e-01 8.968923497931152733e-01 5.133494314908521039e-01 1.377612358481316857e-01 5.223629474163463682e-01 2.680039832294398572e-01 -9.014268202007739983e-02 7.145761203739408041e-01 3.224320910575376731e-01 4.744058869377875132e-01 4.854474802547346646e-01 5.048392504467307251e-01 3.623587872234524387e-01 1.299292520235139525e+00 6.145887327740733319e-01 5.487192574606367668e-01 -2.093678749514302773e-01 5.761383440382181753e-01 1.054321302539499072e+00 4.394404336449969084e-01 6.210777993941318798e-01 5.587753348432403788e-01 -1.861009482245410684e-01 4.557765048304083799e-01 1.287423871253365437e+00 -7.583488644591070971e-01 5.071195522575802084e-01 5.042264305934113233e-01 -2.608097874272926608e-01 5.427660318502458558e-01 6.070468480885738982e-01 5.171288402247898874e-01 4.935078858857894768e-01 5.563259969137134275e-01 2.816313895969352887e-01 5.690728004757138470e-01 5.245607031995415115e-01 5.071531988140605129e-01 2.612414227043695011e-02 6.937315931785215106e-01 5.114326802088191570e-01 1.014339434060480105e+00 3.111470225054140948e-01 -4.628027258663804377e-01 6.470303314949924500e-01 5.044629837427084817e-01 3.384224022523737996e-01 2.248847795408041861e-02 5.155435029024011406e-01 5.048716359390561514e-01 5.115480671109601252e-01 5.169620467986202339e-01 1.251935731067426762e-02 4.984894047981939802e-01 4.041920202091600633e-01 4.653248525075896480e-01 1.885533996209592278e+00 2.568735900625482294e-01 3.547361619497277907e-01 4.988343073641023362e-01 1.617913575776547264e+00 2.358799576371199413e-01 5.126527379705739795e-01 1.880448567789287095e-01 4.455350993954119154e-01 5.057705730037220793e-01 4.619997781862120734e-01 4.944470486471754245e-01 4.921094032111335559e-01 4.926408628162430858e-01 4.925139414847786168e-01 -2.685661440466870498e-01 5.190805194072858342e-01 4.474206506794535798e-01 4.929492896148816028e-01 3.624074819606877274e-01 5.137688275557108497e-01 -1.636308443781566146e-01 6.850710844967011770e-01 -8.391319128911270964e-01 -3.451144055536019550e-01 5.378470935933417074e-01 5.135844059939630446e-01 6.199286369987322409e-01 5.186079614329339726e-01 2.813944139080484796e-01 6.274116390905725149e-01 4.455377482452236304e-01 5.134742387646792361e-01 4.951962305270804499e-01 4.191631343728388082e-01 4.916698483489302385e-01 6.237264626011360669e-01 4.908279785333432010e-01 5.199877823003692390e-01 2.220783069497608009e-01 5.013820548509102526e-01 5.237621682623844199e-01 5.244347508846571859e-01 4.545503445608871651e-01 5.186428537044147635e-01 5.144071422802328764e-01 4.872636984720074560e-01 5.016749562582365485e-01 5.726049166439927118e-01 1.405778405467112413e-01 6.559968399515362369e-01 1.926380033849508067e+00 5.029306362012415654e-01 3.321336602105487423e-01 7.046941926829196623e-01 5.198722148103321894e-01 1.047297141882903349e+00 5.127621826558205198e-01 7.773591973904131480e-01 4.965375483739921103e-01
7.915372828358618884e-01 2.712015611622897171e-01 2.342282985493771563e-01 4.245316038650943646e-01 3.215107283912619351e-01 2.247907843702130481e-01 4.169280735784893221e-01 5.353258728725659443e-01 2.932826434777949798e-01 3.134758740944550426e-01 1.801624186439729991e+00 1.537175313114370834e+00 -1.157135618206197147e+00 2.770925673877821516e-01 3.231824632766725491e-01 2.491099150569622278e-01 1.623294352363489901e-01 3.799235691071821130e-01 2.485851889638909240e-01 3.122994018095153756e-01 2.517722011240129953e-01 1.795643973815360672e+00 2.154853287281245089e-01 3.883679019482299544e-01 3.858993298392116023e-01 -4.901498979595336758e-01 4.591240445420846084e-01 1.833930756302964982e-01 3.413442066620290261e-01 -4.768919555267179811e-01 2.432229989884929777e-01 4.562879967003542481e-01 3.277933959127254937e-01 3.256141908821288400e-01 -3.723798530532560491e-01 2.536431394707165388e-01 4.057650815541312683e-01 -6.422121296629949849e-02 -2.662633324884455810e+00 3.161473934070418434e-01 7.426614241548669115e-01 1.220836789609184986e-01 -1.225972901897190437e-01 7.453044901869574357e-01 8.532573009436091871e-01 1.631693424284273164e-01 4.239020823103852864e-01 3.014199698196854404e-01 4.212432283620976547e-01 7.506535851055289310e-01 7.495158370832817329e-01 1.407679050955273903e-01 -5.833912534389553706e-01 3.965347450853986544e-01 2.756364029293290052e-01 6.995226110775187855e-01 2.994196097304184789e-01 5.002872453893911775e-01 3.619868884206231541e-01 3.137031173704685760e-01 3.757811523054806480e-01 3.439425964424825954e-01 2.708647893280808905e-01 2.154852327610157769e-01 -2.078648430631544475e-01 4.170408259418013075e-01 3.187604725550259865e-01 3.319549283334857770e-01 1.750152516830399962e-01 7.579061446139638836e-01 3.261744278731040225e-01 3.724364296968597499e-01 2.831646740319893607e-01 7.656071939375025392e-01 1.672837400235284822e+00 3.220098334199493206e-01 4.226763372131872587e-01 4.364573118954103714e-01 3.320865598135236962e-01 -1.128055414193201544e+00 3.094810175718936684e-01 8.791835035549150357e-01 1.670658370794691150e+00 4.877946526571858010e-01 3.163924356014969352e-01 -6.187122203179002966e-01 2.995051153506109523e-02 2.956346229472373577e-01 -4.893892712392809985e-01 -6.554549067112601657e-01 8.520636123740317203e-01 1.275394619143128239e+00 2.771932438975134305e-01 8.090985563897613586e-01 2.805571795925907996e-01 3.228477667331106638e-01 3.750410674101206099e-01 4.095623736625398359e-01 7.680118429536476610e-01 -4.956986428716233517e-01 -7.563851733891734097e-02 1.275816384503987155e-01 3.286755020250358150e-01 2.571181899151974704e-01 3.681133493857725592e-01 2.534438345077001387e+00 -2.077651200412867216e-01 -4.150744495227262076e-01 2.806156828045636153e-01 7.571289120628693636e-01 2.127236304953015744e-01 4.130392503910247370e-01 3.511170031141168102e-01 2.538139583418747014e-01 -5.480153916341923281e-01 2.067552382283309453e-01 5.807316252006946566e-01 1.828776582268719642e-01 1.296072433519445538e-02 3.322406445171699474e-01 -1.232982066148836875e+00 3.448702980965265286e-01 3.656170085088773503e-01 5.493574780735188678e-01 2.782838651773340555e-01 1.843692425212471564e+00 3.576006313076010024e-01 2.787807333078759497e-01 3.318080799492969524e-01 3.234743619528167580e-01 3.766419108191241261e-01 3.218833949365695890e-01 4.980265294549530153e-01 2.119922558932346990e-01 3.159645491439609932e-01 9.058009809171563287e-01 2.621593822530114970e-01 7.407781778034442377e-01 -2.739415392591948439e-01 3.668985767532486619e-01 3.235437389056744495e-01 3.186164685439434319e-01 3.615430594055621949e-01 3.291889577465576533e-01 3.057624433726157664e-01 7.678852376708701355e-01 5.206803741855453582e-01 3.864754405668821557e-01 8.348019364182100721e-02 3.614833081221902056e-01 -4.786102481025775179e-01 2.745755314053788254e-02 1.631915571068617010e-01 2.911073635813282712e-01 5.068481318118021051e-01 2.966242333183039537e-01 -1.201009525403892830e+00 3.574344542221586929e-01 -5.076241225290392123e-01 -4.970296297761730431e-01 3.159497905697928322e-01 3.978820057130989518e-01 2.985144784651922456e-01 3.192492166526749720e-01 3.957714339026613404e-02 -8.328913751082342443e-02 3.586286517601898760e-01 2.833778570745217884e-01 2.432004897798399068e-01 3.097775100500747558e-01 6.158336488902986794e-01 4.248784322772810040e-01 1.630791360431074200e-01 3.206676230428338603e-01 -2.139698298476460980e+00 6.807840582275156427e-01 7.828034979832253493e-01 1.057871415645830204e+00 -3.966506228533050460e-01 1.113644468741411764e+00 4.966436978106468503e-02 4.153578103251546194e-01 1.114420123507618765e+00 4.169987972141411259e-01 3.540645055042901945e-01 3.340071578055478496e-01 3.101448387985985544e-01 3.250463977562221829e-01 -2.785853138278187591e-01 1.902644414203152334e-01 3.529930802974708404e-01 6.971622920197954043e-01 3.335237182318768201e-01 2.421434895975208557e-01 1.307540578176325241e-01 3.083248030041821353e-01 -1.245596273659076436e+00 3.070281744791020784e-01 5.527204456394661791e-02 3.034007306351394484e-01 4.634371292613154170e-01 2.980950017502116967e-01 2.770408019236392794e-01 6.369218511260675564e-02 -9.153102830991646233e-01 5.527211438726044312e-02 3.278265321982554714e-01 -4.132803067588048385e-01 2.906905656686337158e-01 4.036353166301670514e-01 3.368747112417790901e-01 -2.659747078502427087e+00 2.905104630865778526e-01 9.296005057208224232e-01 3.195307839658843574e-01 2.816769446497189300e-01 3.602568823691709721e-01 3.507201122305392826e-01 3.045784460365627555e-01 3.211394976258585277e-01 2.966078273732477011e-01 2.677077347323412182e-01 5.892604172784448036e-01 5.304234533512242056e-01 4.485975493580859896e-01 2.480664912327405769e-01 2.789710316555834568e-01 -2.980320479607501127e-01 1.830081296866185703e+00 9.394764646616902276e-03 1.122854434845971028e+00 -1.261889516872571670e+00 3.207086608705368436e-01 2.944438296343373507e-01 2.855199155277430845e-01 8.230057872337889213e-01 -1.490119765422985854e-01 6.179666419507184871e-01 2.393914683011011124e-01 6.314501581571928535e-01 5.991481931352212742e-01 2.995940233821647869e-01 -9.752618679892578468e-01 3.457134817048549968e-01 3.016583082586845044e-01 7.498934067417152571e-02 1.039496164332420314e+00 -3.449646901264884907e-02 2.461759554313247556e+00 3.322815056165986936e-01 8.162846353105184249e-01 2.646400992228249982e-01 3.075477541751358013e-01 2.154854324168382906e-01 2.347930368139124202e-01 2.907973997405697286e-01 2.285140598617379504e-01 3.854549889596785572e-01 4.166862851730308015e-01 5.449262280832046779e-01 4.092616792583942953e-01 2.060410976480007983e-01 1.353921946434863965e-01 3.096109895027961412e-01 3.757641855374113105e-01 3.714370287326339004e-01 2.589166947720223710e+00 3.609152840411374852e-01 6.685494586665635675e-01 6.164809248023331301e-02 3.310773008894037917e-01 3.802189869226597629e-01 3.418438715384722326e-01 2.854750246394658353e-01 3.322321955943252081e-01 -1.749121069332115752e-04 3.611945114250246780e-01 2.848220369837329291e-01 2.467098039252207595e-02 1.008508861852650956e-01 1.335815494885911114e+00 3.546998900468917859e-01 1.229085117254815479e-01 1.829566420619346045e+00 4.117176465099940397e-01 6.546506859303021786e-01 1.198406348085825079e-01 3.309370008884185976e-01 2.067551207166725968e-01 -1.844352805248972382e+00 2.964932359662602601e-01 9.429784942360480704e-01 4.085394266029944710e-01 -2.759649234640763060e-01 8.039375756767539460e-01 3.067070653086291787e-01 -6.089120004844721379e-01 1.990555564539484845e-01 3.146720357841220617e-01 8.347625692483910675e-02 -2.709653770809569151e-01 2.629923584268121783e-01 -1.168440151701570562e+00 4.250943148875109823e-01 3.955545422721916671e-01 6.374145553399905850e-01 3.192194863847336861e-01 2.972085290423778225e-01 2.135682216353892438e-01 2.565613497932219267e-01 -1.161283151788264772e-01 -6.449707448473422922e-01 4.728997298877343769e-02 4.063486562436205984e-01 3.237337997327281447e-01 3.219506090562562206e-01 3.239406943059307542e-01 4.248654333405726402e-01 3.100698133159274783e-01 2.073268262579357923e+00 7.401911218241501444e-01 2.438476152267188835e-01 -9.143121405748425579e-01 4.676714704449970172e-01 3.725057406395836157e+00 3.880714540096915077e-01 3.617304998637985158e-01 5.429512486563756735e-01 -4.554848484985210000e+00 3.692046414037472579e-01 1.260615118123544987e+00 3.024231245291857939e-01 5.830633214599744152e-01 -3.936087402856537909e-01 3.423217089796211088e-01 2.149953197994091403e-01 3.174187021115999485e-01 2.931692617465524453e-01 2.341305571372204852e+00 -2.785960466520453482e-01 2.823478400588602111e-01 -1.706493248616260505e+00 3.477367429166269286e-01 -6.422121077171273618e-02 6.399695569489453062e-01 4.078705102136567784e-01 4.677516853170664013e-01 2.790125896081685486e-01 1.338378427253791969e+00 2.211831530379826105e-01 5.527199767933897723e-02 3.457127178275046231e-01 6.369224020036139133e-02 1.288920496206881205e-01 4.178558787220907900e-01 -5.056615217817763686e-01 3.317772221070929284e-01 2.574689801063733130e-01 3.250271446644918405e-01 5.001983536371659156e-01 3.193638693542194540e-01 6.788466798366257771e-02 4.078705796738852363e-01 2.376847223317310187e-01 3.180173264934239019e-01 3.353139865583451007e-01 6.613341087022109877e-01 2.494159464762101930e+00 3.069684471932987435e-01 4.434532093567291611e-01 3.755368315378624366e-01 9.476877997412384014e-01 4.101080152318539174e-01 1.003595913918256533e-03 7.385823092350133345e-01 2.083759184827402022e-01 1.242521375796734051e-01 2.988976026765622906e-01 2.860336689163061052e-01 8.508347268284875975e-01 6.727563489212725623e-01 7.427427948179503581e-01 2.661121600628561512e-01 6.369222183479575361e-02 6.369222183572367801e-02 2.806835636468591466e-01 4.173536342130493848e-01 1.112551834424466035e+00 -2.306143363091133977e-02 3.352270311970680927e-01 4.724095909876966926e-01 3.361779293245621969e-01 8.792280844330802037e-01 5.527213399743598210e-02 3.257275518796365343e-01 2.682743903457392443e-01 5.023131634951211177e-01 -5.285621084813836301e-01 4.099273313994298840e-01 2.898630192910753300e-01 2.645881732059569003e-01 5.887065571690560661e-01 7.816706330893613552e-01 6.369222173451560831e-02 -2.216295591424971845e-01 3.151505637830943618e-01 -3.513198167156798835e-02 -5.192416729627603589e-01 4.450190779824624854e-01 -2.884886477095793822e+00 1.408062404120353994e+00 2.071942884093082859e-01 -2.613199261268126516e-01 4.237992345901608338e-01 1.727813229085432667e+00 3.026779581926551388e-01 5.482886863058298310e-01 7.425043681050815803e-01 4.947289706885328320e-01 4.435513298692657647e-01 3.287404604726404389e-01 1.937095694605831531e-01 2.746003969477571749e-01 1.745795174938665095e+00 3.943657440749855358e-01 -1.149469702462741078e-01 3.494304262684465590e-01 3.499633854110217324e-01 -1.252474492845542242e+00 3.628643491803141274e-01 1.587446337451688116e-02 3.971990331744386094e-01 2.480337595233825243e-01 3.171475773849489754e-01 4.113418159594805501e-01 3.709031649063462277e-01 -1.479599419832152984e-01 3.192690517284992868e-01 5.303365454956548986e-01 3.622274123735879647e-01 2.700479213293800473e-01 6.093182817835722798e-01 6.423439637737506924e-01 8.275029311503575569e-01 -1.065463825811042931e+00 3.778295281707443332e-01 -4.675134517941149925e-02 -2.251476596218823789e-01 4.627862450062730226e-01 3.753307709097812861e-01 3.432395515522061458e-01 7.656346598736656350e-01 3.070029155327623216e-01 1.690569062801765832e-01 3.720229207422475204e-01 9.386463252518847944e-02 -1.485327914718900522e-01 3.141108996455570512e-01 2.587647339659983614e-01 4.579662392040961816e-01 3.282644289912509672e-01 2.866754863268792253e-01 3.044488957382224248e-01 4.493234567245830702e-01 3.196266728486032438e-01 5.127682390598083950e-01 2.835485022092218976e-01 3.132192685109259633e-01 7.390279264132962878e-01 3.241147808468146096e-01 7.671009368044682253e-01 2.589875948706040210e-01 2.746878525958935668e-01 3.604707465710216829e-01 -1.256433499110636287e+00 2.340891443948247830e-01 1.479786275613232394e-01 5.063653760158374206e-01 4.462476502725342131e-01 3.281690076694402936e-01 5.835457911969793576e-01 7.677724703500612424e-01 3.446636699195805287e-01 1.611043783448035116e-01 3.356834164300867562e-01 1.602985280805169915e-02 3.738049383535669845e-01 4.161124638292083011e-01 3.548488891870834605e-01 4.218610185759091857e-01 3.840810166403167414e-01 4.363775969132575178e-02 1.360940133601571400e+00 5.175651968212876541e-01 2.944970716388191634e-01 3.116915022342223729e-01 -6.421592571772126723e-01 3.026009320128974500e-01 2.466035577089291109e-01 4.666316531753697538e-01 4.089174661114982068e-01 1.325164005899776842e-01 6.737569019935151227e-01 8.444717250461782898e-01 1.635446660779452388e-01 2.384750122152085039e-01 6.228608434515885139e-02 2.673633601188885600e-01 7.875531515058171728e-01 2.548612181101418184e+00 3.313678892966799849e-01 3.280792673805276172e-01 6.062174549598854378e-01 1.701880402430251960e-01 3.185643373000797696e-01 2.331057897138587576e-01 8.913655998350037413e-01 3.541903981605113438e-01 -1.532010630648900362e-01 3.168402649208832966e-01 5.109596586491257225e-02 5.523003384682851902e-01 9.969331773254788143e-01 2.558095449422048140e-01 3.344419795585769628e-01 1.508697119044600798e+00 4.734069921505146272e-01 3.395273238633754187e-01 1.144103158483327221e-01 4.442264681441219776e-01 4.254652474066850654e-01 2.698443542200297252e-01 2.056175798649300113e-01 7.652892280590359864e-01 1.545198139982544849e-01 2.467662397530337448e-01 3.095631647070126724e-01 1.969415870433306459e-01 3.918522629757453801e-01 2.360859603975024867e-01 9.882008012786659412e-01 4.376133344366471833e-01 3.541076435386700805e-01 3.396326641948306801e-01 3.175238438239658123e-01 3.796612582176490114e-01 5.468661376063236323e-01 6.626631044165941509e-01 2.719396057561530577e-01 3.399332473059117343e-01 2.955852669199093286e-01 3.180623118614190337e-01 6.570809839072637715e-01 2.973850696988051823e-01 2.878431106817597729e-01 -1.637897395763650565e-01 3.170898851294080556e-01 4.087339625321965708e-01 4.593409942319211514e-01 3.066963986637135098e-01 2.550486455822084664e-01 1.425610242601859978e+00 5.313631070741497986e-01 2.794114006981631704e-01 3.567912166451427947e-01 1.214737868001791066e+00 1.029148485516341971e+00 3.560490939388143428e-01 -4.014395887549266351e-01 -1.648203845584107763e-01 1.773957617347009241e-01 3.060328348529973708e-01 3.260529981167626934e-01 3.429150670495199615e-01 4.611890584727487141e-01 2.932683712372367579e-01 3.065715666682857776e-01 4.250452247937426820e-01 3.518115743678142948e-01 2.077051544597779686e-01 7.049677784547485615e-01 4.128737250949728044e-02 7.520852988236672587e-01 3.757669179470577436e-01 2.864358527954459221e-01 4.247313201096269419e-01 4.734362320665589374e-01 8.512029036029806761e-01 1.739456026866228744e-01 6.312836250696015616e-01 1.346117564535071587e+00 4.148134399279354567e-01 1.734867956663215915e+00 5.410606535795196015e-01 9.954118165799999418e-02 3.302947776575303473e-01 2.954218629899755810e-01 2.939245945194656207e-01 3.097942551789644727e-01 3.166656571211525772e-01 3.231756316155457442e-01 2.974496587020963867e-01 3.769686216497802889e-01 9.238017823038610632e-03 2.965348230035249055e-01 3.920325886778402991e-01 2.729531208309273205e-01 8.353394661127623577e-02 3.757666171883594641e-01 1.846807164277733948e-01 3.571746736466070993e-01 -7.285470073117134016e-01 1.675866484933529188e+00 3.256733981771812725e-01 -3.782316995001652193e-01 3.031787365690847835e-01 2.549465002796014734e-01 3.109860867556014652e-01 -3.917024463598650197e+00 2.987213668874613592e+00 5.554625966041676355e-01 3.795085890450827781e-01 4.477513730826319649e-01 3.208376700596733411e-01 4.343740398191980323e-01 2.201732826673380217e+00 5.487156004802516973e-01 3.483272343177261643e-01 2.067551471862540124e-01 5.274090098747575839e-01 2.860874144058943580e-01 9.318685817071786781e-01 -3.738579246165132930e-01 -7.648712254847538361e-01 -9.261742609716252517e-01 1.827257864717694580e-01 3.214109872903632703e-01 5.621062446555361580e-01 4.225574019483152033e-01 2.672379108804687209e-01 3.443407906420109521e-01 3.186437326462510655e-01 1.953736437153644478e-01 2.379689085809354454e-01 3.531114026563235697e-01 2.818457163780163088e-01 5.913731412446859848e-01 2.662692925681068301e-01 1.391939712713059774e-01 1.497355548671477354e-01 2.381173141301987650e-01 2.782415417865616303e-01 1.786339158294823204e-01 3.577684123614104372e-01 3.333995341126810841e-01 7.357449633970141178e-01 4.078705090872127847e-01 4.740899731676133655e-01 3.041464081992094615e-01 3.616661067524048478e-01 2.046814497435597013e-01 6.738000145386878748e-01 1.368200336359471470e+00 2.718150462822165325e-01 3.050019996684523726e-01 3.489549374950890459e-01 3.117317661039136767e-01 3.374253748011316612e-01 3.759154334867113034e-01 3.278996447527305347e-01 3.141591255072906375e-01 7.006037048824309554e-01 7.327965872997183050e-01 5.430809009634841589e-01 1.594869192617546227e+00 2.369303103131455979e-01 4.132545599646020307e-01 -1.068678993207220346e-01 -3.786319230882860820e-01 3.270403722572037819e-01 2.929068428117263534e-01 7.618652890677410916e-01 3.237135550974803988e-01 2.370921174956816257e-01 3.333723249296473012e-01 3.271348320665640741e-01 3.271197252585636428e-01 5.686461578398435135e-01 9.166213970072867312e-01 3.851217818116852154e-01 5.912889934469328646e-01 3.220919561892141569e-01 -4.148328738565786045e-02 3.406004601008439936e-01 3.577348737020377145e-01 -2.448376849865825100e-01 2.261252884458366530e-01 2.721011729841881777e-01 4.239814572985234342e-01 3.758970541313784164e-01 1.168403891783012405e+00 8.257937516280728918e-01 -7.569925866917666113e-01 -6.422121242519565620e-02 2.880439008366330600e-01 -2.742265079669999661e+00 1.432730134756949658e+00 2.931158865890443610e-01 4.249523992722131216e-01 3.156132494309168979e-01 7.170159088624850074e-01 3.199025998331888609e-01 3.457136917802160481e-01 -3.596034649145356532e-01 6.702223832812793658e-01 1.226991599677199063e-01 9.173350883359914221e-01 1.825122864159837377e+00 -3.738914238047404415e-01 -1.263903335033494946e+00 2.933611437388343735e-01 2.067138070558925955e-01 8.817211676197360681e-01 2.734273967108465375e-01 7.940175327419625173e-01 4.589263195374873594e-01 3.564387547173347159e-01 3.153899876413285841e-01 3.689174750849187889e-01 2.436890848500897488e-01 4.274617005459355190e-01 1.134320696811494944e+00 1.242288837463992657e+00 3.308527463754369902e-01 2.526206090131751236e-01 -2.180490936712363992e-01 -1.367285806693166461e-01 3.457295958253422397e-01 3.933150363181618925e-01 3.269158907707759854e-01 7.147395029917577025e-01 1.917055319103535549e-01 2.908946839986996658e-01 3.127666991156465293e-01 3.140256416131707029e-01 3.238090672776047230e-01 5.457174569354633631e-01 3.172340984040756262e-01 3.621224003838848793e-01 -6.941253623102681958e-02 4.519662475542532976e-01 4.684578791883052817e-01 9.664581017129336704e-01 1.031402225622478630e+00 8.754959369244208478e-01 3.284793933298844060e-01 3.570608716781957792e-01 2.029085854559887180e-03 2.633266460511949347e-01 -1.538560454312489112e+00 3.198791152437182039e-01 6.002376843177357202e-01 2.659422715571344575e-01 8.775069045206373985e-01 1.216515258263775046e+00 2.067552473728274109e-01 5.739087738817895412e-02 3.549184657526038289e-01 2.438875275694599165e-01 6.241044131607795808e-01 1.470076153478822589e-01 -4.334612178923579195e-01 5.047839008012598994e-01 4.565856649441380477e-01 3.414056122942395466e-01 3.390295700406783519e-01 3.489494188051701085e-01 4.116370888454965460e-01 2.986706593344752858e-01 3.424554284532652093e-01 3.997752464959116736e-01 8.439535459227505143e-01 3.448927804823188059e-01 -1.596071070557220917e-01 8.269904901379241391e-01 4.231966819339486596e-01 1.971465920288769380e-01 2.858222602132282630e-01 1.167585582976747860e+00 1.336926213277286613e-01 7.684693246182029425e-01 2.780921383133775904e-01 2.790904745659766317e-01 -1.325475085856727686e-01 1.346603662383542843e-01 6.624759247049399891e-01 3.193060232107068352e-01 7.864329229909421404e-01 3.445570643945317646e-01 2.846530905000908551e-01 7.607327331866493569e-01 7.304554952450767989e-03 -1.781022343102303784e+00 2.481963688807931889e-01 3.386773600467456458e-01 1.665186354123739387e-01 3.611194934470488005e-01 2.569098488095040711e-01 2.385127913047229431e-01 2.192062826907628381e-01 2.951998429965458359e-01 -3.024552044815842847e-02 -1.478831638727358122e+00 6.988674043828780880e-01 3.549138789090579560e-01 2.746964781146608026e-01 3.448257420002756035e-01 7.827990008246004106e-01 3.159202711933768448e-01 6.331402085046286543e-02 3.817916799153356910e-01 1.052083576510000062e+00 3.447217689357053860e-01 4.070210482633591087e-01 1.082003664275587473e+00 3.771093734809556897e-01 2.137582810508447562e+00 2.830902609475602349e-01 3.032153068725061962e-01 7.864619665775512969e-01 3.166862649976847632e-01 3.105238097317595813e-01 -1.384770328485296353e+00 2.743364250233008561e-01 2.963985541034145910e-01 4.806569408008815603e-01 2.486732761471161235e-01 4.016392644996868988e-01 -4.949989662751870245e-01 1.749558828373428687e+00 -4.955344667017438920e-01 6.643318697606629408e-01 3.103214601761095648e-01 1.139559961277472888e-01 2.736176070317239972e-01 2.813403886994524372e-01 1.151666080980569662e+00 -3.230082637019510150e-02 2.150371458224593080e-01 -7.766468664176060521e-01 3.848036445882748735e-01 4.792310863454168901e-01 -2.804663056734505222e+00 2.436342426416862939e+00 3.894598231768179875e-01 3.210950572440376960e-01 -1.214816181154554808e+00 3.634369235598511882e-01 -4.163841871987325471e-02 3.200285347290977578e-01 1.426671656898075013e-01 6.075150416829780964e-01 5.077262957124197840e-01 4.198738056742172264e-01 -6.422120936492412002e-02 -6.545816786767243156e-02 3.658330080096609538e-01 -1.031389370703174713e+00 2.822551164607173257e-01 -5.574476739570998207e-01 3.232357136717417534e-01 4.830159023065648261e-01 1.286942145069617516e-01 3.008862320330751294e-01 3.032695869091870944e-01 -1.247209362222984202e-01 2.717022454794660868e-01 3.654814729289128650e-01 3.791637139317357019e-01 3.127613685876994842e-01 3.293494457308759338e-01 -7.568250529533809834e-01 6.162614601203892928e-01 1.410884163320699436e+00 3.816607933819867425e-03 2.654596913775563727e-01 3.041379448377405925e-01 1.230557350838181740e+00 2.942149389548881500e-01 2.801952083363522528e-01 9.106970376539889056e-01 1.885483353823281805e-01 1.545890312143612944e+00 3.080643300461106682e-01 2.725465619664171335e-01 3.412162429427645360e-01 6.827151522929786331e-01 1.265482501934108051e+00 3.253450417403688788e-01 1.942810074694276690e-01 7.076264884003171662e-01 1.983894323334360887e-01 2.218862717288494144e-02 -1.448049431810913557e-01 3.014180207304651971e-01 2.646826381059189659e-01 1.463388565957007836e-01 5.081839745266564234e-01 -1.769359918799937037e-01 1.277963411929032622e+00 3.085370103296946054e-01 3.457370864366742236e-01 -2.402848659056350478e+00 1.865333119510016735e-01 3.053720193074304645e-01 2.703648822506876659e-01 -8.335651203332468395e-02 3.345943902311975804e-01 -6.449655440575513543e-01 2.081331327387465346e-01 2.898890392418583817e-01 3.386733044136696069e-01 1.124740024354446533e+00 2.911089069266826201e-01 3.264109332416476605e-01 -1.214388574383383768e+00 4.747959689691653162e-01 8.439727111424687456e-01 4.847320924063580616e-01 3.171391932365432709e-01 -8.656579115568489857e-02 8.040917871484730695e-01 -3.667811933762800403e-02 3.234187503182704981e-01 3.202310742508375774e-01 1.935135784841687523e-01 7.623293437228968461e-01 3.535206110027508397e-01 7.506520862574281860e-01 4.755964771515229783e-01 6.454567252962816193e-01 5.688679118193946949e-02 -1.420423716984875906e+00 3.305202950367911452e-01 1.407247347028388502e-02 3.904017751154112426e-01 3.835242111587438552e-01 1.725278970128074352e-01 4.078713525440532117e-01 3.215086199317060967e-01 2.421741652477169271e-01 3.166345197956861868e-01 3.293086832265695874e-01 2.458751546890817208e-01 3.171960772484703206e-01 -5.360171301132387045e-01 2.789913847728108243e-01 3.233693199740568236e-01 3.220332144754629589e-01 4.036698202080014064e-01 3.215463252687548179e-01 5.949425684625297972e-01 7.930330783733371969e-02 8.888432651472432111e-01 5.248400086108913065e-01 2.636820572363213211e-01 3.252901722022913944e-01 -1.795120078670618735e+00 2.808202778634877883e-01 2.853736127218216012e-01 2.346411276605966656e-01 4.078705106602318331e-01 3.036394672837562925e-01 4.574439968798535983e-01 4.380287368240103896e-01 3.212656604444104613e-01 2.809358272377818766e-01 4.401723486292493659e-01 2.875646084913207057e-01 3.929552090192302005e-01 3.169489034511872028e-01 2.653425803960189344e-01 2.860933731051537032e-01 -3.420351326946578785e-02 2.913925350220847865e-01 1.486381261811569876e-01 3.722570187399975583e-01 3.309364921829613393e-01 5.045982432059828438e-02 -2.434315559589688566e-02 -2.121928461824841572e-01 3.370005894915306666e+00 3.084485041530299898e-01 5.311997700247870213e-01 1.443304734450596150e-01 2.905320857010471602e-01 1.350625160121949220e+00 3.493415435908386324e-01 7.343307754483164862e-01 3.269344849808414888e-01
