# 
#                 ----------------------------------------------------
#                 Data from a 3D direct N-body simulation. 
# 
#                 rows are i-particle; 
#                 coumns are :mass, tag, x ,y, z, vx, vy, vz, ax, ay, az
# 
#                 NTHU, Computational Physics 
# 
#                 ----------------------------------------------------
#                 Time = 0.0
0.000000000000000000e+00 1.000000000000000000e+00 2.000000000000000000e+00 3.000000000000000000e+00 4.000000000000000000e+00 5.000000000000000000e+00 6.000000000000000000e+00 7.000000000000000000e+00 8.000000000000000000e+00 9.000000000000000000e+00 1.000000000000000000e+01 1.100000000000000000e+01 1.200000000000000000e+01 1.300000000000000000e+01 1.400000000000000000e+01 1.500000000000000000e+01 1.600000000000000000e+01 1.700000000000000000e+01 1.800000000000000000e+01 1.900000000000000000e+01 2.000000000000000000e+01 2.100000000000000000e+01 2.200000000000000000e+01 2.300000000000000000e+01 2.400000000000000000e+01 2.500000000000000000e+01 2.600000000000000000e+01 2.700000000000000000e+01 2.800000000000000000e+01 2.900000000000000000e+01 3.000000000000000000e+01 3.100000000000000000e+01 3.200000000000000000e+01 3.300000000000000000e+01 3.400000000000000000e+01 3.500000000000000000e+01 3.600000000000000000e+01 3.700000000000000000e+01 3.800000000000000000e+01 3.900000000000000000e+01 4.000000000000000000e+01 4.100000000000000000e+01 4.200000000000000000e+01 4.300000000000000000e+01 4.400000000000000000e+01 4.500000000000000000e+01 4.600000000000000000e+01 4.700000000000000000e+01 4.800000000000000000e+01 4.900000000000000000e+01 5.000000000000000000e+01 5.100000000000000000e+01 5.200000000000000000e+01 5.300000000000000000e+01 5.400000000000000000e+01 5.500000000000000000e+01 5.600000000000000000e+01 5.700000000000000000e+01 5.800000000000000000e+01 5.900000000000000000e+01 6.000000000000000000e+01 6.100000000000000000e+01 6.200000000000000000e+01 6.300000000000000000e+01 6.400000000000000000e+01 6.500000000000000000e+01 6.600000000000000000e+01 6.700000000000000000e+01 6.800000000000000000e+01 6.900000000000000000e+01 7.000000000000000000e+01 7.100000000000000000e+01 7.200000000000000000e+01 7.300000000000000000e+01 7.400000000000000000e+01 7.500000000000000000e+01 7.600000000000000000e+01 7.700000000000000000e+01 7.800000000000000000e+01 7.900000000000000000e+01 8.000000000000000000e+01 8.100000000000000000e+01 8.200000000000000000e+01 8.300000000000000000e+01 8.400000000000000000e+01 8.500000000000000000e+01 8.600000000000000000e+01 8.700000000000000000e+01 8.800000000000000000e+01 8.900000000000000000e+01 9.000000000000000000e+01 9.100000000000000000e+01 9.200000000000000000e+01 9.300000000000000000e+01 9.400000000000000000e+01 9.500000000000000000e+01 9.600000000000000000e+01 9.700000000000000000e+01 9.800000000000000000e+01 9.900000000000000000e+01 1.000000000000000000e+02 1.010000000000000000e+02 1.020000000000000000e+02 1.030000000000000000e+02 1.040000000000000000e+02 1.050000000000000000e+02 1.060000000000000000e+02 1.070000000000000000e+02 1.080000000000000000e+02 1.090000000000000000e+02 1.100000000000000000e+02 1.110000000000000000e+02 1.120000000000000000e+02 1.130000000000000000e+02 1.140000000000000000e+02 1.150000000000000000e+02 1.160000000000000000e+02 1.170000000000000000e+02 1.180000000000000000e+02 1.190000000000000000e+02 1.200000000000000000e+02 1.210000000000000000e+02 1.220000000000000000e+02 1.230000000000000000e+02 1.240000000000000000e+02 1.250000000000000000e+02 1.260000000000000000e+02 1.270000000000000000e+02 1.280000000000000000e+02 1.290000000000000000e+02 1.300000000000000000e+02 1.310000000000000000e+02 1.320000000000000000e+02 1.330000000000000000e+02 1.340000000000000000e+02 1.350000000000000000e+02 1.360000000000000000e+02 1.370000000000000000e+02 1.380000000000000000e+02 1.390000000000000000e+02 1.400000000000000000e+02 1.410000000000000000e+02 1.420000000000000000e+02 1.430000000000000000e+02 1.440000000000000000e+02 1.450000000000000000e+02 1.460000000000000000e+02 1.470000000000000000e+02 1.480000000000000000e+02 1.490000000000000000e+02 1.500000000000000000e+02 1.510000000000000000e+02 1.520000000000000000e+02 1.530000000000000000e+02 1.540000000000000000e+02 1.550000000000000000e+02 1.560000000000000000e+02 1.570000000000000000e+02 1.580000000000000000e+02 1.590000000000000000e+02 1.600000000000000000e+02 1.610000000000000000e+02 1.620000000000000000e+02 1.630000000000000000e+02 1.640000000000000000e+02 1.650000000000000000e+02 1.660000000000000000e+02 1.670000000000000000e+02 1.680000000000000000e+02 1.690000000000000000e+02 1.700000000000000000e+02 1.710000000000000000e+02 1.720000000000000000e+02 1.730000000000000000e+02 1.740000000000000000e+02 1.750000000000000000e+02 1.760000000000000000e+02 1.770000000000000000e+02 1.780000000000000000e+02 1.790000000000000000e+02 1.800000000000000000e+02 1.810000000000000000e+02 1.820000000000000000e+02 1.830000000000000000e+02 1.840000000000000000e+02 1.850000000000000000e+02 1.860000000000000000e+02 1.870000000000000000e+02 1.880000000000000000e+02 1.890000000000000000e+02 1.900000000000000000e+02 1.910000000000000000e+02 1.920000000000000000e+02 1.930000000000000000e+02 1.940000000000000000e+02 1.950000000000000000e+02 1.960000000000000000e+02 1.970000000000000000e+02 1.980000000000000000e+02 1.990000000000000000e+02 2.000000000000000000e+02 2.010000000000000000e+02 2.020000000000000000e+02 2.030000000000000000e+02 2.040000000000000000e+02 2.050000000000000000e+02 2.060000000000000000e+02 2.070000000000000000e+02 2.080000000000000000e+02 2.090000000000000000e+02 2.100000000000000000e+02 2.110000000000000000e+02 2.120000000000000000e+02 2.130000000000000000e+02 2.140000000000000000e+02 2.150000000000000000e+02 2.160000000000000000e+02 2.170000000000000000e+02 2.180000000000000000e+02 2.190000000000000000e+02 2.200000000000000000e+02 2.210000000000000000e+02 2.220000000000000000e+02 2.230000000000000000e+02 2.240000000000000000e+02 2.250000000000000000e+02 2.260000000000000000e+02 2.270000000000000000e+02 2.280000000000000000e+02 2.290000000000000000e+02 2.300000000000000000e+02 2.310000000000000000e+02 2.320000000000000000e+02 2.330000000000000000e+02 2.340000000000000000e+02 2.350000000000000000e+02 2.360000000000000000e+02 2.370000000000000000e+02 2.380000000000000000e+02 2.390000000000000000e+02 2.400000000000000000e+02 2.410000000000000000e+02 2.420000000000000000e+02 2.430000000000000000e+02 2.440000000000000000e+02 2.450000000000000000e+02 2.460000000000000000e+02 2.470000000000000000e+02 2.480000000000000000e+02 2.490000000000000000e+02 2.500000000000000000e+02 2.510000000000000000e+02 2.520000000000000000e+02 2.530000000000000000e+02 2.540000000000000000e+02 2.550000000000000000e+02 2.560000000000000000e+02 2.570000000000000000e+02 2.580000000000000000e+02 2.590000000000000000e+02 2.600000000000000000e+02 2.610000000000000000e+02 2.620000000000000000e+02 2.630000000000000000e+02 2.640000000000000000e+02 2.650000000000000000e+02 2.660000000000000000e+02 2.670000000000000000e+02 2.680000000000000000e+02 2.690000000000000000e+02 2.700000000000000000e+02 2.710000000000000000e+02 2.720000000000000000e+02 2.730000000000000000e+02 2.740000000000000000e+02 2.750000000000000000e+02 2.760000000000000000e+02 2.770000000000000000e+02 2.780000000000000000e+02 2.790000000000000000e+02 2.800000000000000000e+02 2.810000000000000000e+02 2.820000000000000000e+02 2.830000000000000000e+02 2.840000000000000000e+02 2.850000000000000000e+02 2.860000000000000000e+02 2.870000000000000000e+02 2.880000000000000000e+02 2.890000000000000000e+02 2.900000000000000000e+02 2.910000000000000000e+02 2.920000000000000000e+02 2.930000000000000000e+02 2.940000000000000000e+02 2.950000000000000000e+02 2.960000000000000000e+02 2.970000000000000000e+02 2.980000000000000000e+02 2.990000000000000000e+02 3.000000000000000000e+02 3.010000000000000000e+02 3.020000000000000000e+02 3.030000000000000000e+02 3.040000000000000000e+02 3.050000000000000000e+02 3.060000000000000000e+02 3.070000000000000000e+02 3.080000000000000000e+02 3.090000000000000000e+02 3.100000000000000000e+02 3.110000000000000000e+02 3.120000000000000000e+02 3.130000000000000000e+02 3.140000000000000000e+02 3.150000000000000000e+02 3.160000000000000000e+02 3.170000000000000000e+02 3.180000000000000000e+02 3.190000000000000000e+02 3.200000000000000000e+02 3.210000000000000000e+02 3.220000000000000000e+02 3.230000000000000000e+02 3.240000000000000000e+02 3.250000000000000000e+02 3.260000000000000000e+02 3.270000000000000000e+02 3.280000000000000000e+02 3.290000000000000000e+02 3.300000000000000000e+02 3.310000000000000000e+02 3.320000000000000000e+02 3.330000000000000000e+02 3.340000000000000000e+02 3.350000000000000000e+02 3.360000000000000000e+02 3.370000000000000000e+02 3.380000000000000000e+02 3.390000000000000000e+02 3.400000000000000000e+02 3.410000000000000000e+02 3.420000000000000000e+02 3.430000000000000000e+02 3.440000000000000000e+02 3.450000000000000000e+02 3.460000000000000000e+02 3.470000000000000000e+02 3.480000000000000000e+02 3.490000000000000000e+02 3.500000000000000000e+02 3.510000000000000000e+02 3.520000000000000000e+02 3.530000000000000000e+02 3.540000000000000000e+02 3.550000000000000000e+02 3.560000000000000000e+02 3.570000000000000000e+02 3.580000000000000000e+02 3.590000000000000000e+02 3.600000000000000000e+02 3.610000000000000000e+02 3.620000000000000000e+02 3.630000000000000000e+02 3.640000000000000000e+02 3.650000000000000000e+02 3.660000000000000000e+02 3.670000000000000000e+02 3.680000000000000000e+02 3.690000000000000000e+02 3.700000000000000000e+02 3.710000000000000000e+02 3.720000000000000000e+02 3.730000000000000000e+02 3.740000000000000000e+02 3.750000000000000000e+02 3.760000000000000000e+02 3.770000000000000000e+02 3.780000000000000000e+02 3.790000000000000000e+02 3.800000000000000000e+02 3.810000000000000000e+02 3.820000000000000000e+02 3.830000000000000000e+02 3.840000000000000000e+02 3.850000000000000000e+02 3.860000000000000000e+02 3.870000000000000000e+02 3.880000000000000000e+02 3.890000000000000000e+02 3.900000000000000000e+02 3.910000000000000000e+02 3.920000000000000000e+02 3.930000000000000000e+02 3.940000000000000000e+02 3.950000000000000000e+02 3.960000000000000000e+02 3.970000000000000000e+02 3.980000000000000000e+02 3.990000000000000000e+02 4.000000000000000000e+02 4.010000000000000000e+02 4.020000000000000000e+02 4.030000000000000000e+02 4.040000000000000000e+02 4.050000000000000000e+02 4.060000000000000000e+02 4.070000000000000000e+02 4.080000000000000000e+02 4.090000000000000000e+02 4.100000000000000000e+02 4.110000000000000000e+02 4.120000000000000000e+02 4.130000000000000000e+02 4.140000000000000000e+02 4.150000000000000000e+02 4.160000000000000000e+02 4.170000000000000000e+02 4.180000000000000000e+02 4.190000000000000000e+02 4.200000000000000000e+02 4.210000000000000000e+02 4.220000000000000000e+02 4.230000000000000000e+02 4.240000000000000000e+02 4.250000000000000000e+02 4.260000000000000000e+02 4.270000000000000000e+02 4.280000000000000000e+02 4.290000000000000000e+02 4.300000000000000000e+02 4.310000000000000000e+02 4.320000000000000000e+02 4.330000000000000000e+02 4.340000000000000000e+02 4.350000000000000000e+02 4.360000000000000000e+02 4.370000000000000000e+02 4.380000000000000000e+02 4.390000000000000000e+02 4.400000000000000000e+02 4.410000000000000000e+02 4.420000000000000000e+02 4.430000000000000000e+02 4.440000000000000000e+02 4.450000000000000000e+02 4.460000000000000000e+02 4.470000000000000000e+02 4.480000000000000000e+02 4.490000000000000000e+02 4.500000000000000000e+02 4.510000000000000000e+02 4.520000000000000000e+02 4.530000000000000000e+02 4.540000000000000000e+02 4.550000000000000000e+02 4.560000000000000000e+02 4.570000000000000000e+02 4.580000000000000000e+02 4.590000000000000000e+02 4.600000000000000000e+02 4.610000000000000000e+02 4.620000000000000000e+02 4.630000000000000000e+02 4.640000000000000000e+02 4.650000000000000000e+02 4.660000000000000000e+02 4.670000000000000000e+02 4.680000000000000000e+02 4.690000000000000000e+02 4.700000000000000000e+02 4.710000000000000000e+02 4.720000000000000000e+02 4.730000000000000000e+02 4.740000000000000000e+02 4.750000000000000000e+02 4.760000000000000000e+02 4.770000000000000000e+02 4.780000000000000000e+02 4.790000000000000000e+02 4.800000000000000000e+02 4.810000000000000000e+02 4.820000000000000000e+02 4.830000000000000000e+02 4.840000000000000000e+02 4.850000000000000000e+02 4.860000000000000000e+02 4.870000000000000000e+02 4.880000000000000000e+02 4.890000000000000000e+02 4.900000000000000000e+02 4.910000000000000000e+02 4.920000000000000000e+02 4.930000000000000000e+02 4.940000000000000000e+02 4.950000000000000000e+02 4.960000000000000000e+02 4.970000000000000000e+02 4.980000000000000000e+02 4.990000000000000000e+02 5.000000000000000000e+02 5.010000000000000000e+02 5.020000000000000000e+02 5.030000000000000000e+02 5.040000000000000000e+02 5.050000000000000000e+02 5.060000000000000000e+02 5.070000000000000000e+02 5.080000000000000000e+02 5.090000000000000000e+02 5.100000000000000000e+02 5.110000000000000000e+02 5.120000000000000000e+02 5.130000000000000000e+02 5.140000000000000000e+02 5.150000000000000000e+02 5.160000000000000000e+02 5.170000000000000000e+02 5.180000000000000000e+02 5.190000000000000000e+02 5.200000000000000000e+02 5.210000000000000000e+02 5.220000000000000000e+02 5.230000000000000000e+02 5.240000000000000000e+02 5.250000000000000000e+02 5.260000000000000000e+02 5.270000000000000000e+02 5.280000000000000000e+02 5.290000000000000000e+02 5.300000000000000000e+02 5.310000000000000000e+02 5.320000000000000000e+02 5.330000000000000000e+02 5.340000000000000000e+02 5.350000000000000000e+02 5.360000000000000000e+02 5.370000000000000000e+02 5.380000000000000000e+02 5.390000000000000000e+02 5.400000000000000000e+02 5.410000000000000000e+02 5.420000000000000000e+02 5.430000000000000000e+02 5.440000000000000000e+02 5.450000000000000000e+02 5.460000000000000000e+02 5.470000000000000000e+02 5.480000000000000000e+02 5.490000000000000000e+02 5.500000000000000000e+02 5.510000000000000000e+02 5.520000000000000000e+02 5.530000000000000000e+02 5.540000000000000000e+02 5.550000000000000000e+02 5.560000000000000000e+02 5.570000000000000000e+02 5.580000000000000000e+02 5.590000000000000000e+02 5.600000000000000000e+02 5.610000000000000000e+02 5.620000000000000000e+02 5.630000000000000000e+02 5.640000000000000000e+02 5.650000000000000000e+02 5.660000000000000000e+02 5.670000000000000000e+02 5.680000000000000000e+02 5.690000000000000000e+02 5.700000000000000000e+02 5.710000000000000000e+02 5.720000000000000000e+02 5.730000000000000000e+02 5.740000000000000000e+02 5.750000000000000000e+02 5.760000000000000000e+02 5.770000000000000000e+02 5.780000000000000000e+02 5.790000000000000000e+02 5.800000000000000000e+02 5.810000000000000000e+02 5.820000000000000000e+02 5.830000000000000000e+02 5.840000000000000000e+02 5.850000000000000000e+02 5.860000000000000000e+02 5.870000000000000000e+02 5.880000000000000000e+02 5.890000000000000000e+02 5.900000000000000000e+02 5.910000000000000000e+02 5.920000000000000000e+02 5.930000000000000000e+02 5.940000000000000000e+02 5.950000000000000000e+02 5.960000000000000000e+02 5.970000000000000000e+02 5.980000000000000000e+02 5.990000000000000000e+02 6.000000000000000000e+02 6.010000000000000000e+02 6.020000000000000000e+02 6.030000000000000000e+02 6.040000000000000000e+02 6.050000000000000000e+02 6.060000000000000000e+02 6.070000000000000000e+02 6.080000000000000000e+02 6.090000000000000000e+02 6.100000000000000000e+02 6.110000000000000000e+02 6.120000000000000000e+02 6.130000000000000000e+02 6.140000000000000000e+02 6.150000000000000000e+02 6.160000000000000000e+02 6.170000000000000000e+02 6.180000000000000000e+02 6.190000000000000000e+02 6.200000000000000000e+02 6.210000000000000000e+02 6.220000000000000000e+02 6.230000000000000000e+02 6.240000000000000000e+02 6.250000000000000000e+02 6.260000000000000000e+02 6.270000000000000000e+02 6.280000000000000000e+02 6.290000000000000000e+02 6.300000000000000000e+02 6.310000000000000000e+02 6.320000000000000000e+02 6.330000000000000000e+02 6.340000000000000000e+02 6.350000000000000000e+02 6.360000000000000000e+02 6.370000000000000000e+02 6.380000000000000000e+02 6.390000000000000000e+02 6.400000000000000000e+02 6.410000000000000000e+02 6.420000000000000000e+02 6.430000000000000000e+02 6.440000000000000000e+02 6.450000000000000000e+02 6.460000000000000000e+02 6.470000000000000000e+02 6.480000000000000000e+02 6.490000000000000000e+02 6.500000000000000000e+02 6.510000000000000000e+02 6.520000000000000000e+02 6.530000000000000000e+02 6.540000000000000000e+02 6.550000000000000000e+02 6.560000000000000000e+02 6.570000000000000000e+02 6.580000000000000000e+02 6.590000000000000000e+02 6.600000000000000000e+02 6.610000000000000000e+02 6.620000000000000000e+02 6.630000000000000000e+02 6.640000000000000000e+02 6.650000000000000000e+02 6.660000000000000000e+02 6.670000000000000000e+02 6.680000000000000000e+02 6.690000000000000000e+02 6.700000000000000000e+02 6.710000000000000000e+02 6.720000000000000000e+02 6.730000000000000000e+02 6.740000000000000000e+02 6.750000000000000000e+02 6.760000000000000000e+02 6.770000000000000000e+02 6.780000000000000000e+02 6.790000000000000000e+02 6.800000000000000000e+02 6.810000000000000000e+02 6.820000000000000000e+02 6.830000000000000000e+02 6.840000000000000000e+02 6.850000000000000000e+02 6.860000000000000000e+02 6.870000000000000000e+02 6.880000000000000000e+02 6.890000000000000000e+02 6.900000000000000000e+02 6.910000000000000000e+02 6.920000000000000000e+02 6.930000000000000000e+02 6.940000000000000000e+02 6.950000000000000000e+02 6.960000000000000000e+02 6.970000000000000000e+02 6.980000000000000000e+02 6.990000000000000000e+02 7.000000000000000000e+02 7.010000000000000000e+02 7.020000000000000000e+02 7.030000000000000000e+02 7.040000000000000000e+02 7.050000000000000000e+02 7.060000000000000000e+02 7.070000000000000000e+02 7.080000000000000000e+02 7.090000000000000000e+02 7.100000000000000000e+02 7.110000000000000000e+02 7.120000000000000000e+02 7.130000000000000000e+02 7.140000000000000000e+02 7.150000000000000000e+02 7.160000000000000000e+02 7.170000000000000000e+02 7.180000000000000000e+02 7.190000000000000000e+02 7.200000000000000000e+02 7.210000000000000000e+02 7.220000000000000000e+02 7.230000000000000000e+02 7.240000000000000000e+02 7.250000000000000000e+02 7.260000000000000000e+02 7.270000000000000000e+02 7.280000000000000000e+02 7.290000000000000000e+02 7.300000000000000000e+02 7.310000000000000000e+02 7.320000000000000000e+02 7.330000000000000000e+02 7.340000000000000000e+02 7.350000000000000000e+02 7.360000000000000000e+02 7.370000000000000000e+02 7.380000000000000000e+02 7.390000000000000000e+02 7.400000000000000000e+02 7.410000000000000000e+02 7.420000000000000000e+02 7.430000000000000000e+02 7.440000000000000000e+02 7.450000000000000000e+02 7.460000000000000000e+02 7.470000000000000000e+02 7.480000000000000000e+02 7.490000000000000000e+02 7.500000000000000000e+02 7.510000000000000000e+02 7.520000000000000000e+02 7.530000000000000000e+02 7.540000000000000000e+02 7.550000000000000000e+02 7.560000000000000000e+02 7.570000000000000000e+02 7.580000000000000000e+02 7.590000000000000000e+02 7.600000000000000000e+02 7.610000000000000000e+02 7.620000000000000000e+02 7.630000000000000000e+02 7.640000000000000000e+02 7.650000000000000000e+02 7.660000000000000000e+02 7.670000000000000000e+02 7.680000000000000000e+02 7.690000000000000000e+02 7.700000000000000000e+02 7.710000000000000000e+02 7.720000000000000000e+02 7.730000000000000000e+02 7.740000000000000000e+02 7.750000000000000000e+02 7.760000000000000000e+02 7.770000000000000000e+02 7.780000000000000000e+02 7.790000000000000000e+02 7.800000000000000000e+02 7.810000000000000000e+02 7.820000000000000000e+02 7.830000000000000000e+02 7.840000000000000000e+02 7.850000000000000000e+02 7.860000000000000000e+02 7.870000000000000000e+02 7.880000000000000000e+02 7.890000000000000000e+02 7.900000000000000000e+02 7.910000000000000000e+02 7.920000000000000000e+02 7.930000000000000000e+02 7.940000000000000000e+02 7.950000000000000000e+02 7.960000000000000000e+02 7.970000000000000000e+02 7.980000000000000000e+02 7.990000000000000000e+02 8.000000000000000000e+02 8.010000000000000000e+02 8.020000000000000000e+02 8.030000000000000000e+02 8.040000000000000000e+02 8.050000000000000000e+02 8.060000000000000000e+02 8.070000000000000000e+02 8.080000000000000000e+02 8.090000000000000000e+02 8.100000000000000000e+02 8.110000000000000000e+02 8.120000000000000000e+02 8.130000000000000000e+02 8.140000000000000000e+02 8.150000000000000000e+02 8.160000000000000000e+02 8.170000000000000000e+02 8.180000000000000000e+02 8.190000000000000000e+02 8.200000000000000000e+02 8.210000000000000000e+02 8.220000000000000000e+02 8.230000000000000000e+02 8.240000000000000000e+02 8.250000000000000000e+02 8.260000000000000000e+02 8.270000000000000000e+02 8.280000000000000000e+02 8.290000000000000000e+02 8.300000000000000000e+02 8.310000000000000000e+02 8.320000000000000000e+02 8.330000000000000000e+02 8.340000000000000000e+02 8.350000000000000000e+02 8.360000000000000000e+02 8.370000000000000000e+02 8.380000000000000000e+02 8.390000000000000000e+02 8.400000000000000000e+02 8.410000000000000000e+02 8.420000000000000000e+02 8.430000000000000000e+02 8.440000000000000000e+02 8.450000000000000000e+02 8.460000000000000000e+02 8.470000000000000000e+02 8.480000000000000000e+02 8.490000000000000000e+02 8.500000000000000000e+02 8.510000000000000000e+02 8.520000000000000000e+02 8.530000000000000000e+02 8.540000000000000000e+02 8.550000000000000000e+02 8.560000000000000000e+02 8.570000000000000000e+02 8.580000000000000000e+02 8.590000000000000000e+02 8.600000000000000000e+02 8.610000000000000000e+02 8.620000000000000000e+02 8.630000000000000000e+02 8.640000000000000000e+02 8.650000000000000000e+02 8.660000000000000000e+02 8.670000000000000000e+02 8.680000000000000000e+02 8.690000000000000000e+02 8.700000000000000000e+02 8.710000000000000000e+02 8.720000000000000000e+02 8.730000000000000000e+02 8.740000000000000000e+02 8.750000000000000000e+02 8.760000000000000000e+02 8.770000000000000000e+02 8.780000000000000000e+02 8.790000000000000000e+02 8.800000000000000000e+02 8.810000000000000000e+02 8.820000000000000000e+02 8.830000000000000000e+02 8.840000000000000000e+02 8.850000000000000000e+02 8.860000000000000000e+02 8.870000000000000000e+02 8.880000000000000000e+02 8.890000000000000000e+02 8.900000000000000000e+02 8.910000000000000000e+02 8.920000000000000000e+02 8.930000000000000000e+02 8.940000000000000000e+02 8.950000000000000000e+02 8.960000000000000000e+02 8.970000000000000000e+02 8.980000000000000000e+02 8.990000000000000000e+02 9.000000000000000000e+02 9.010000000000000000e+02 9.020000000000000000e+02 9.030000000000000000e+02 9.040000000000000000e+02 9.050000000000000000e+02 9.060000000000000000e+02 9.070000000000000000e+02 9.080000000000000000e+02 9.090000000000000000e+02 9.100000000000000000e+02 9.110000000000000000e+02 9.120000000000000000e+02 9.130000000000000000e+02 9.140000000000000000e+02 9.150000000000000000e+02 9.160000000000000000e+02 9.170000000000000000e+02 9.180000000000000000e+02 9.190000000000000000e+02 9.200000000000000000e+02 9.210000000000000000e+02 9.220000000000000000e+02 9.230000000000000000e+02 9.240000000000000000e+02 9.250000000000000000e+02 9.260000000000000000e+02 9.270000000000000000e+02 9.280000000000000000e+02 9.290000000000000000e+02 9.300000000000000000e+02 9.310000000000000000e+02 9.320000000000000000e+02 9.330000000000000000e+02 9.340000000000000000e+02 9.350000000000000000e+02 9.360000000000000000e+02 9.370000000000000000e+02 9.380000000000000000e+02 9.390000000000000000e+02 9.400000000000000000e+02 9.410000000000000000e+02 9.420000000000000000e+02 9.430000000000000000e+02 9.440000000000000000e+02 9.450000000000000000e+02 9.460000000000000000e+02 9.470000000000000000e+02 9.480000000000000000e+02 9.490000000000000000e+02 9.500000000000000000e+02 9.510000000000000000e+02 9.520000000000000000e+02 9.530000000000000000e+02 9.540000000000000000e+02 9.550000000000000000e+02 9.560000000000000000e+02 9.570000000000000000e+02 9.580000000000000000e+02 9.590000000000000000e+02 9.600000000000000000e+02 9.610000000000000000e+02 9.620000000000000000e+02 9.630000000000000000e+02 9.640000000000000000e+02 9.650000000000000000e+02 9.660000000000000000e+02 9.670000000000000000e+02 9.680000000000000000e+02 9.690000000000000000e+02 9.700000000000000000e+02 9.710000000000000000e+02 9.720000000000000000e+02 9.730000000000000000e+02 9.740000000000000000e+02 9.750000000000000000e+02 9.760000000000000000e+02 9.770000000000000000e+02 9.780000000000000000e+02 9.790000000000000000e+02 9.800000000000000000e+02 9.810000000000000000e+02 9.820000000000000000e+02 9.830000000000000000e+02 9.840000000000000000e+02 9.850000000000000000e+02 9.860000000000000000e+02 9.870000000000000000e+02 9.880000000000000000e+02 9.890000000000000000e+02 9.900000000000000000e+02 9.910000000000000000e+02 9.920000000000000000e+02 9.930000000000000000e+02 9.940000000000000000e+02 9.950000000000000000e+02 9.960000000000000000e+02 9.970000000000000000e+02 9.980000000000000000e+02 9.990000000000000000e+02
1.000000000000000000e+00 1.000000000000000000e+00 1.000000000000000000e+00 1.000000000000000000e+00 1.000000000000000000e+00 1.000000000000000000e+00 1.000000000000000000e+00 1.000000000000000000e+00 1.000000000000000000e+00 1.000000000000000000e+00 1.000000000000000000e+00 1.000000000000000000e+00 1.000000000000000000e+00 1.000000000000000000e+00 1.000000000000000000e+00 1.000000000000000000e+00 1.000000000000000000e+00 1.000000000000000000e+00 1.000000000000000000e+00 1.000000000000000000e+00 1.000000000000000000e+00 1.000000000000000000e+00 1.000000000000000000e+00 1.000000000000000000e+00 1.000000000000000000e+00 1.000000000000000000e+00 1.000000000000000000e+00 1.000000000000000000e+00 1.000000000000000000e+00 1.000000000000000000e+00 1.000000000000000000e+00 1.000000000000000000e+00 1.000000000000000000e+00 1.000000000000000000e+00 1.000000000000000000e+00 1.000000000000000000e+00 1.000000000000000000e+00 1.000000000000000000e+00 1.000000000000000000e+00 1.000000000000000000e+00 1.000000000000000000e+00 1.000000000000000000e+00 1.000000000000000000e+00 1.000000000000000000e+00 1.000000000000000000e+00 1.000000000000000000e+00 1.000000000000000000e+00 1.000000000000000000e+00 1.000000000000000000e+00 1.000000000000000000e+00 1.000000000000000000e+00 1.000000000000000000e+00 1.000000000000000000e+00 1.000000000000000000e+00 1.000000000000000000e+00 1.000000000000000000e+00 1.000000000000000000e+00 1.000000000000000000e+00 1.000000000000000000e+00 1.000000000000000000e+00 1.000000000000000000e+00 1.000000000000000000e+00 1.000000000000000000e+00 1.000000000000000000e+00 1.000000000000000000e+00 1.000000000000000000e+00 1.000000000000000000e+00 1.000000000000000000e+00 1.000000000000000000e+00 1.000000000000000000e+00 1.000000000000000000e+00 1.000000000000000000e+00 1.000000000000000000e+00 1.000000000000000000e+00 1.000000000000000000e+00 1.000000000000000000e+00 1.000000000000000000e+00 1.000000000000000000e+00 1.000000000000000000e+00 1.000000000000000000e+00 1.000000000000000000e+00 1.000000000000000000e+00 1.000000000000000000e+00 1.000000000000000000e+00 1.000000000000000000e+00 1.000000000000000000e+00 1.000000000000000000e+00 1.000000000000000000e+00 1.000000000000000000e+00 1.000000000000000000e+00 1.000000000000000000e+00 1.000000000000000000e+00 1.000000000000000000e+00 1.000000000000000000e+00 1.000000000000000000e+00 1.000000000000000000e+00 1.000000000000000000e+00 1.000000000000000000e+00 1.000000000000000000e+00 1.000000000000000000e+00 1.000000000000000000e+00 1.000000000000000000e+00 1.000000000000000000e+00 1.000000000000000000e+00 1.000000000000000000e+00 1.000000000000000000e+00 1.000000000000000000e+00 1.000000000000000000e+00 1.000000000000000000e+00 1.000000000000000000e+00 1.000000000000000000e+00 1.000000000000000000e+00 1.000000000000000000e+00 1.000000000000000000e+00 1.000000000000000000e+00 1.000000000000000000e+00 1.000000000000000000e+00 1.000000000000000000e+00 1.000000000000000000e+00 1.000000000000000000e+00 1.000000000000000000e+00 1.000000000000000000e+00 1.000000000000000000e+00 1.000000000000000000e+00 1.000000000000000000e+00 1.000000000000000000e+00 1.000000000000000000e+00 1.000000000000000000e+00 1.000000000000000000e+00 1.000000000000000000e+00 1.000000000000000000e+00 1.000000000000000000e+00 1.000000000000000000e+00 1.000000000000000000e+00 1.000000000000000000e+00 1.000000000000000000e+00 1.000000000000000000e+00 1.000000000000000000e+00 1.000000000000000000e+00 1.000000000000000000e+00 1.000000000000000000e+00 1.000000000000000000e+00 1.000000000000000000e+00 1.000000000000000000e+00 1.000000000000000000e+00 1.000000000000000000e+00 1.000000000000000000e+00 1.000000000000000000e+00 1.000000000000000000e+00 1.000000000000000000e+00 1.000000000000000000e+00 1.000000000000000000e+00 1.000000000000000000e+00 1.000000000000000000e+00 1.000000000000000000e+00 1.000000000000000000e+00 1.000000000000000000e+00 1.000000000000000000e+00 1.000000000000000000e+00 1.000000000000000000e+00 1.000000000000000000e+00 1.000000000000000000e+00 1.000000000000000000e+00 1.000000000000000000e+00 1.000000000000000000e+00 1.000000000000000000e+00 1.000000000000000000e+00 1.000000000000000000e+00 1.000000000000000000e+00 1.000000000000000000e+00 1.000000000000000000e+00 1.000000000000000000e+00 1.000000000000000000e+00 1.000000000000000000e+00 1.000000000000000000e+00 1.000000000000000000e+00 1.000000000000000000e+00 1.000000000000000000e+00 1.000000000000000000e+00 1.000000000000000000e+00 1.000000000000000000e+00 1.000000000000000000e+00 1.000000000000000000e+00 1.000000000000000000e+00 1.000000000000000000e+00 1.000000000000000000e+00 1.000000000000000000e+00 1.000000000000000000e+00 1.000000000000000000e+00 1.000000000000000000e+00 1.000000000000000000e+00 1.000000000000000000e+00 1.000000000000000000e+00 1.000000000000000000e+00 1.000000000000000000e+00 1.000000000000000000e+00 1.000000000000000000e+00 1.000000000000000000e+00 1.000000000000000000e+00 1.000000000000000000e+00 1.000000000000000000e+00 1.000000000000000000e+00 1.000000000000000000e+00 1.000000000000000000e+00 1.000000000000000000e+00 1.000000000000000000e+00 1.000000000000000000e+00 1.000000000000000000e+00 1.000000000000000000e+00 1.000000000000000000e+00 1.000000000000000000e+00 1.000000000000000000e+00 1.000000000000000000e+00 1.000000000000000000e+00 1.000000000000000000e+00 1.000000000000000000e+00 1.000000000000000000e+00 1.000000000000000000e+00 1.000000000000000000e+00 1.000000000000000000e+00 1.000000000000000000e+00 1.000000000000000000e+00 1.000000000000000000e+00 1.000000000000000000e+00 1.000000000000000000e+00 1.000000000000000000e+00 1.000000000000000000e+00 1.000000000000000000e+00 1.000000000000000000e+00 1.000000000000000000e+00 1.000000000000000000e+00 1.000000000000000000e+00 1.000000000000000000e+00 1.000000000000000000e+00 1.000000000000000000e+00 1.000000000000000000e+00 1.000000000000000000e+00 1.000000000000000000e+00 1.000000000000000000e+00 1.000000000000000000e+00 1.000000000000000000e+00 1.000000000000000000e+00 1.000000000000000000e+00 1.000000000000000000e+00 1.000000000000000000e+00 1.000000000000000000e+00 1.000000000000000000e+00 1.000000000000000000e+00 1.000000000000000000e+00 1.000000000000000000e+00 1.000000000000000000e+00 1.000000000000000000e+00 1.000000000000000000e+00 1.000000000000000000e+00 1.000000000000000000e+00 1.000000000000000000e+00 1.000000000000000000e+00 1.000000000000000000e+00 1.000000000000000000e+00 1.000000000000000000e+00 1.000000000000000000e+00 1.000000000000000000e+00 1.000000000000000000e+00 1.000000000000000000e+00 1.000000000000000000e+00 1.000000000000000000e+00 1.000000000000000000e+00 1.000000000000000000e+00 1.000000000000000000e+00 1.000000000000000000e+00 1.000000000000000000e+00 1.000000000000000000e+00 1.000000000000000000e+00 1.000000000000000000e+00 1.000000000000000000e+00 1.000000000000000000e+00 1.000000000000000000e+00 1.000000000000000000e+00 1.000000000000000000e+00 1.000000000000000000e+00 1.000000000000000000e+00 1.000000000000000000e+00 1.000000000000000000e+00 1.000000000000000000e+00 1.000000000000000000e+00 1.000000000000000000e+00 1.000000000000000000e+00 1.000000000000000000e+00 1.000000000000000000e+00 1.000000000000000000e+00 1.000000000000000000e+00 1.000000000000000000e+00 1.000000000000000000e+00 1.000000000000000000e+00 1.000000000000000000e+00 1.000000000000000000e+00 1.000000000000000000e+00 1.000000000000000000e+00 1.000000000000000000e+00 1.000000000000000000e+00 1.000000000000000000e+00 1.000000000000000000e+00 1.000000000000000000e+00 1.000000000000000000e+00 1.000000000000000000e+00 1.000000000000000000e+00 1.000000000000000000e+00 1.000000000000000000e+00 1.000000000000000000e+00 1.000000000000000000e+00 1.000000000000000000e+00 1.000000000000000000e+00 1.000000000000000000e+00 1.000000000000000000e+00 1.000000000000000000e+00 1.000000000000000000e+00 1.000000000000000000e+00 1.000000000000000000e+00 1.000000000000000000e+00 1.000000000000000000e+00 1.000000000000000000e+00 1.000000000000000000e+00 1.000000000000000000e+00 1.000000000000000000e+00 1.000000000000000000e+00 1.000000000000000000e+00 1.000000000000000000e+00 1.000000000000000000e+00 1.000000000000000000e+00 1.000000000000000000e+00 1.000000000000000000e+00 1.000000000000000000e+00 1.000000000000000000e+00 1.000000000000000000e+00 1.000000000000000000e+00 1.000000000000000000e+00 1.000000000000000000e+00 1.000000000000000000e+00 1.000000000000000000e+00 1.000000000000000000e+00 1.000000000000000000e+00 1.000000000000000000e+00 1.000000000000000000e+00 1.000000000000000000e+00 1.000000000000000000e+00 1.000000000000000000e+00 1.000000000000000000e+00 1.000000000000000000e+00 1.000000000000000000e+00 1.000000000000000000e+00 1.000000000000000000e+00 1.000000000000000000e+00 1.000000000000000000e+00 1.000000000000000000e+00 1.000000000000000000e+00 1.000000000000000000e+00 1.000000000000000000e+00 1.000000000000000000e+00 1.000000000000000000e+00 1.000000000000000000e+00 1.000000000000000000e+00 1.000000000000000000e+00 1.000000000000000000e+00 1.000000000000000000e+00 1.000000000000000000e+00 1.000000000000000000e+00 1.000000000000000000e+00 1.000000000000000000e+00 1.000000000000000000e+00 1.000000000000000000e+00 1.000000000000000000e+00 1.000000000000000000e+00 1.000000000000000000e+00 1.000000000000000000e+00 1.000000000000000000e+00 1.000000000000000000e+00 1.000000000000000000e+00 1.000000000000000000e+00 1.000000000000000000e+00 1.000000000000000000e+00 1.000000000000000000e+00 1.000000000000000000e+00 1.000000000000000000e+00 1.000000000000000000e+00 1.000000000000000000e+00 1.000000000000000000e+00 1.000000000000000000e+00 1.000000000000000000e+00 1.000000000000000000e+00 1.000000000000000000e+00 1.000000000000000000e+00 1.000000000000000000e+00 1.000000000000000000e+00 1.000000000000000000e+00 1.000000000000000000e+00 1.000000000000000000e+00 1.000000000000000000e+00 1.000000000000000000e+00 1.000000000000000000e+00 1.000000000000000000e+00 1.000000000000000000e+00 1.000000000000000000e+00 1.000000000000000000e+00 1.000000000000000000e+00 1.000000000000000000e+00 1.000000000000000000e+00 1.000000000000000000e+00 1.000000000000000000e+00 1.000000000000000000e+00 1.000000000000000000e+00 1.000000000000000000e+00 1.000000000000000000e+00 1.000000000000000000e+00 1.000000000000000000e+00 1.000000000000000000e+00 1.000000000000000000e+00 1.000000000000000000e+00 1.000000000000000000e+00 1.000000000000000000e+00 1.000000000000000000e+00 1.000000000000000000e+00 1.000000000000000000e+00 1.000000000000000000e+00 1.000000000000000000e+00 1.000000000000000000e+00 1.000000000000000000e+00 1.000000000000000000e+00 1.000000000000000000e+00 1.000000000000000000e+00 1.000000000000000000e+00 1.000000000000000000e+00 1.000000000000000000e+00 1.000000000000000000e+00 1.000000000000000000e+00 1.000000000000000000e+00 1.000000000000000000e+00 1.000000000000000000e+00 1.000000000000000000e+00 1.000000000000000000e+00 1.000000000000000000e+00 1.000000000000000000e+00 1.000000000000000000e+00 1.000000000000000000e+00 1.000000000000000000e+00 1.000000000000000000e+00 1.000000000000000000e+00 1.000000000000000000e+00 1.000000000000000000e+00 1.000000000000000000e+00 1.000000000000000000e+00 1.000000000000000000e+00 1.000000000000000000e+00 1.000000000000000000e+00 1.000000000000000000e+00 1.000000000000000000e+00 1.000000000000000000e+00 1.000000000000000000e+00 1.000000000000000000e+00 1.000000000000000000e+00 1.000000000000000000e+00 1.000000000000000000e+00 1.000000000000000000e+00 1.000000000000000000e+00 1.000000000000000000e+00 1.000000000000000000e+00 1.000000000000000000e+00 1.000000000000000000e+00 1.000000000000000000e+00 1.000000000000000000e+00 1.000000000000000000e+00 1.000000000000000000e+00 1.000000000000000000e+00 1.000000000000000000e+00 1.000000000000000000e+00 1.000000000000000000e+00 1.000000000000000000e+00 1.000000000000000000e+00 1.000000000000000000e+00 1.000000000000000000e+00 1.000000000000000000e+00 1.000000000000000000e+00 1.000000000000000000e+00 1.000000000000000000e+00 1.000000000000000000e+00 1.000000000000000000e+00 1.000000000000000000e+00 1.000000000000000000e+00 1.000000000000000000e+00 1.000000000000000000e+00 1.000000000000000000e+00 1.000000000000000000e+00 1.000000000000000000e+00 1.000000000000000000e+00 1.000000000000000000e+00 1.000000000000000000e+00 1.000000000000000000e+00 1.000000000000000000e+00 1.000000000000000000e+00 1.000000000000000000e+00 1.000000000000000000e+00 1.000000000000000000e+00 1.000000000000000000e+00 1.000000000000000000e+00 1.000000000000000000e+00 1.000000000000000000e+00 1.000000000000000000e+00 1.000000000000000000e+00 1.000000000000000000e+00 1.000000000000000000e+00 1.000000000000000000e+00 1.000000000000000000e+00 1.000000000000000000e+00 1.000000000000000000e+00 1.000000000000000000e+00 1.000000000000000000e+00 1.000000000000000000e+00 1.000000000000000000e+00 1.000000000000000000e+00 1.000000000000000000e+00 1.000000000000000000e+00 1.000000000000000000e+00 1.000000000000000000e+00 1.000000000000000000e+00 1.000000000000000000e+00 1.000000000000000000e+00 1.000000000000000000e+00 1.000000000000000000e+00 1.000000000000000000e+00 1.000000000000000000e+00 1.000000000000000000e+00 1.000000000000000000e+00 1.000000000000000000e+00 1.000000000000000000e+00 1.000000000000000000e+00 1.000000000000000000e+00 1.000000000000000000e+00 1.000000000000000000e+00 1.000000000000000000e+00 1.000000000000000000e+00 1.000000000000000000e+00 1.000000000000000000e+00 1.000000000000000000e+00 1.000000000000000000e+00 1.000000000000000000e+00 1.000000000000000000e+00 1.000000000000000000e+00 1.000000000000000000e+00 1.000000000000000000e+00 1.000000000000000000e+00 1.000000000000000000e+00 1.000000000000000000e+00 1.000000000000000000e+00 1.000000000000000000e+00 1.000000000000000000e+00 1.000000000000000000e+00 1.000000000000000000e+00 1.000000000000000000e+00 1.000000000000000000e+00 1.000000000000000000e+00 1.000000000000000000e+00 1.000000000000000000e+00 1.000000000000000000e+00 1.000000000000000000e+00 1.000000000000000000e+00 1.000000000000000000e+00 1.000000000000000000e+00 1.000000000000000000e+00 1.000000000000000000e+00 1.000000000000000000e+00 1.000000000000000000e+00 1.000000000000000000e+00 1.000000000000000000e+00 1.000000000000000000e+00 1.000000000000000000e+00 1.000000000000000000e+00 1.000000000000000000e+00 1.000000000000000000e+00 1.000000000000000000e+00 1.000000000000000000e+00 1.000000000000000000e+00 1.000000000000000000e+00 1.000000000000000000e+00 1.000000000000000000e+00 1.000000000000000000e+00 1.000000000000000000e+00 1.000000000000000000e+00 1.000000000000000000e+00 1.000000000000000000e+00 1.000000000000000000e+00 1.000000000000000000e+00 1.000000000000000000e+00 1.000000000000000000e+00 1.000000000000000000e+00 1.000000000000000000e+00 1.000000000000000000e+00 1.000000000000000000e+00 1.000000000000000000e+00 1.000000000000000000e+00 1.000000000000000000e+00 1.000000000000000000e+00 1.000000000000000000e+00 1.000000000000000000e+00 1.000000000000000000e+00 1.000000000000000000e+00 1.000000000000000000e+00 1.000000000000000000e+00 1.000000000000000000e+00 1.000000000000000000e+00 1.000000000000000000e+00 1.000000000000000000e+00 1.000000000000000000e+00 1.000000000000000000e+00 1.000000000000000000e+00 1.000000000000000000e+00 1.000000000000000000e+00 1.000000000000000000e+00 1.000000000000000000e+00 1.000000000000000000e+00 1.000000000000000000e+00 1.000000000000000000e+00 1.000000000000000000e+00 1.000000000000000000e+00 1.000000000000000000e+00 1.000000000000000000e+00 1.000000000000000000e+00 1.000000000000000000e+00 1.000000000000000000e+00 1.000000000000000000e+00 1.000000000000000000e+00 1.000000000000000000e+00 1.000000000000000000e+00 1.000000000000000000e+00 1.000000000000000000e+00 1.000000000000000000e+00 1.000000000000000000e+00 1.000000000000000000e+00 1.000000000000000000e+00 1.000000000000000000e+00 1.000000000000000000e+00 1.000000000000000000e+00 1.000000000000000000e+00 1.000000000000000000e+00 1.000000000000000000e+00 1.000000000000000000e+00 1.000000000000000000e+00 1.000000000000000000e+00 1.000000000000000000e+00 1.000000000000000000e+00 1.000000000000000000e+00 1.000000000000000000e+00 1.000000000000000000e+00 1.000000000000000000e+00 1.000000000000000000e+00 1.000000000000000000e+00 1.000000000000000000e+00 1.000000000000000000e+00 1.000000000000000000e+00 1.000000000000000000e+00 1.000000000000000000e+00 1.000000000000000000e+00 1.000000000000000000e+00 1.000000000000000000e+00 1.000000000000000000e+00 1.000000000000000000e+00 1.000000000000000000e+00 1.000000000000000000e+00 1.000000000000000000e+00 1.000000000000000000e+00 1.000000000000000000e+00 1.000000000000000000e+00 1.000000000000000000e+00 1.000000000000000000e+00 1.000000000000000000e+00 1.000000000000000000e+00 1.000000000000000000e+00 1.000000000000000000e+00 1.000000000000000000e+00 1.000000000000000000e+00 1.000000000000000000e+00 1.000000000000000000e+00 1.000000000000000000e+00 1.000000000000000000e+00 1.000000000000000000e+00 1.000000000000000000e+00 1.000000000000000000e+00 1.000000000000000000e+00 1.000000000000000000e+00 1.000000000000000000e+00 1.000000000000000000e+00 1.000000000000000000e+00 1.000000000000000000e+00 1.000000000000000000e+00 1.000000000000000000e+00 1.000000000000000000e+00 1.000000000000000000e+00 1.000000000000000000e+00 1.000000000000000000e+00 1.000000000000000000e+00 1.000000000000000000e+00 1.000000000000000000e+00 1.000000000000000000e+00 1.000000000000000000e+00 1.000000000000000000e+00 1.000000000000000000e+00 1.000000000000000000e+00 1.000000000000000000e+00 1.000000000000000000e+00 1.000000000000000000e+00 1.000000000000000000e+00 1.000000000000000000e+00 1.000000000000000000e+00 1.000000000000000000e+00 1.000000000000000000e+00 1.000000000000000000e+00 1.000000000000000000e+00 1.000000000000000000e+00 1.000000000000000000e+00 1.000000000000000000e+00 1.000000000000000000e+00 1.000000000000000000e+00 1.000000000000000000e+00 1.000000000000000000e+00 1.000000000000000000e+00 1.000000000000000000e+00 1.000000000000000000e+00 1.000000000000000000e+00 1.000000000000000000e+00 1.000000000000000000e+00 1.000000000000000000e+00 1.000000000000000000e+00 1.000000000000000000e+00 1.000000000000000000e+00 1.000000000000000000e+00 1.000000000000000000e+00 1.000000000000000000e+00 1.000000000000000000e+00 1.000000000000000000e+00 1.000000000000000000e+00 1.000000000000000000e+00 1.000000000000000000e+00 1.000000000000000000e+00 1.000000000000000000e+00 1.000000000000000000e+00 1.000000000000000000e+00 1.000000000000000000e+00 1.000000000000000000e+00 1.000000000000000000e+00 1.000000000000000000e+00 1.000000000000000000e+00 1.000000000000000000e+00 1.000000000000000000e+00 1.000000000000000000e+00 1.000000000000000000e+00 1.000000000000000000e+00 1.000000000000000000e+00 1.000000000000000000e+00 1.000000000000000000e+00 1.000000000000000000e+00 1.000000000000000000e+00 1.000000000000000000e+00 1.000000000000000000e+00 1.000000000000000000e+00 1.000000000000000000e+00 1.000000000000000000e+00 1.000000000000000000e+00 1.000000000000000000e+00 1.000000000000000000e+00 1.000000000000000000e+00 1.000000000000000000e+00 1.000000000000000000e+00 1.000000000000000000e+00 1.000000000000000000e+00 1.000000000000000000e+00 1.000000000000000000e+00 1.000000000000000000e+00 1.000000000000000000e+00 1.000000000000000000e+00 1.000000000000000000e+00 1.000000000000000000e+00 1.000000000000000000e+00 1.000000000000000000e+00 1.000000000000000000e+00 1.000000000000000000e+00 1.000000000000000000e+00 1.000000000000000000e+00 1.000000000000000000e+00 1.000000000000000000e+00 1.000000000000000000e+00 1.000000000000000000e+00 1.000000000000000000e+00 1.000000000000000000e+00 1.000000000000000000e+00 1.000000000000000000e+00 1.000000000000000000e+00 1.000000000000000000e+00 1.000000000000000000e+00 1.000000000000000000e+00 1.000000000000000000e+00 1.000000000000000000e+00 1.000000000000000000e+00 1.000000000000000000e+00 1.000000000000000000e+00 1.000000000000000000e+00 1.000000000000000000e+00 1.000000000000000000e+00 1.000000000000000000e+00 1.000000000000000000e+00 1.000000000000000000e+00 1.000000000000000000e+00 1.000000000000000000e+00 1.000000000000000000e+00 1.000000000000000000e+00 1.000000000000000000e+00 1.000000000000000000e+00 1.000000000000000000e+00 1.000000000000000000e+00 1.000000000000000000e+00 1.000000000000000000e+00 1.000000000000000000e+00 1.000000000000000000e+00 1.000000000000000000e+00 1.000000000000000000e+00 1.000000000000000000e+00 1.000000000000000000e+00 1.000000000000000000e+00 1.000000000000000000e+00 1.000000000000000000e+00 1.000000000000000000e+00 1.000000000000000000e+00 1.000000000000000000e+00 1.000000000000000000e+00 1.000000000000000000e+00 1.000000000000000000e+00 1.000000000000000000e+00 1.000000000000000000e+00 1.000000000000000000e+00 1.000000000000000000e+00 1.000000000000000000e+00 1.000000000000000000e+00 1.000000000000000000e+00 1.000000000000000000e+00 1.000000000000000000e+00 1.000000000000000000e+00 1.000000000000000000e+00 1.000000000000000000e+00 1.000000000000000000e+00 1.000000000000000000e+00 1.000000000000000000e+00 1.000000000000000000e+00 1.000000000000000000e+00 1.000000000000000000e+00 1.000000000000000000e+00 1.000000000000000000e+00 1.000000000000000000e+00 1.000000000000000000e+00 1.000000000000000000e+00 1.000000000000000000e+00 1.000000000000000000e+00 1.000000000000000000e+00 1.000000000000000000e+00 1.000000000000000000e+00 1.000000000000000000e+00 1.000000000000000000e+00 1.000000000000000000e+00 1.000000000000000000e+00 1.000000000000000000e+00 1.000000000000000000e+00 1.000000000000000000e+00 1.000000000000000000e+00 1.000000000000000000e+00 1.000000000000000000e+00 1.000000000000000000e+00 1.000000000000000000e+00 1.000000000000000000e+00 1.000000000000000000e+00 1.000000000000000000e+00 1.000000000000000000e+00 1.000000000000000000e+00 1.000000000000000000e+00 1.000000000000000000e+00 1.000000000000000000e+00 1.000000000000000000e+00 1.000000000000000000e+00 1.000000000000000000e+00 1.000000000000000000e+00 1.000000000000000000e+00 1.000000000000000000e+00 1.000000000000000000e+00 1.000000000000000000e+00 1.000000000000000000e+00 1.000000000000000000e+00 1.000000000000000000e+00 1.000000000000000000e+00 1.000000000000000000e+00 1.000000000000000000e+00 1.000000000000000000e+00 1.000000000000000000e+00 1.000000000000000000e+00 1.000000000000000000e+00 1.000000000000000000e+00 1.000000000000000000e+00 1.000000000000000000e+00 1.000000000000000000e+00 1.000000000000000000e+00 1.000000000000000000e+00 1.000000000000000000e+00 1.000000000000000000e+00 1.000000000000000000e+00 1.000000000000000000e+00 1.000000000000000000e+00 1.000000000000000000e+00 1.000000000000000000e+00 1.000000000000000000e+00 1.000000000000000000e+00 1.000000000000000000e+00 1.000000000000000000e+00 1.000000000000000000e+00 1.000000000000000000e+00 1.000000000000000000e+00 1.000000000000000000e+00 1.000000000000000000e+00 1.000000000000000000e+00 1.000000000000000000e+00 1.000000000000000000e+00 1.000000000000000000e+00 1.000000000000000000e+00 1.000000000000000000e+00 1.000000000000000000e+00 1.000000000000000000e+00 1.000000000000000000e+00 1.000000000000000000e+00 1.000000000000000000e+00 1.000000000000000000e+00 1.000000000000000000e+00 1.000000000000000000e+00 1.000000000000000000e+00 1.000000000000000000e+00 1.000000000000000000e+00 1.000000000000000000e+00 1.000000000000000000e+00 1.000000000000000000e+00 1.000000000000000000e+00 1.000000000000000000e+00 1.000000000000000000e+00 1.000000000000000000e+00 1.000000000000000000e+00 1.000000000000000000e+00 1.000000000000000000e+00 1.000000000000000000e+00 1.000000000000000000e+00 1.000000000000000000e+00 1.000000000000000000e+00 1.000000000000000000e+00 1.000000000000000000e+00 1.000000000000000000e+00 1.000000000000000000e+00 1.000000000000000000e+00 1.000000000000000000e+00 1.000000000000000000e+00 1.000000000000000000e+00 1.000000000000000000e+00 1.000000000000000000e+00 1.000000000000000000e+00 1.000000000000000000e+00 1.000000000000000000e+00 1.000000000000000000e+00 1.000000000000000000e+00 1.000000000000000000e+00 1.000000000000000000e+00 1.000000000000000000e+00 1.000000000000000000e+00 1.000000000000000000e+00 1.000000000000000000e+00 1.000000000000000000e+00 1.000000000000000000e+00 1.000000000000000000e+00 1.000000000000000000e+00 1.000000000000000000e+00 1.000000000000000000e+00 1.000000000000000000e+00 1.000000000000000000e+00 1.000000000000000000e+00 1.000000000000000000e+00 1.000000000000000000e+00 1.000000000000000000e+00 1.000000000000000000e+00 1.000000000000000000e+00 1.000000000000000000e+00 1.000000000000000000e+00 1.000000000000000000e+00 1.000000000000000000e+00 1.000000000000000000e+00 1.000000000000000000e+00 1.000000000000000000e+00 1.000000000000000000e+00 1.000000000000000000e+00 1.000000000000000000e+00 1.000000000000000000e+00 1.000000000000000000e+00 1.000000000000000000e+00
4.826939295039264777e-02 4.958652788548784107e-01 8.487423198784838085e-01 4.872412624429380279e-01 5.153623907698103856e-01 5.462850540230121954e-01 3.783658628114831002e-01 2.987325735679078886e-01 3.927590952481469500e-01 5.201615725125053880e-01 1.011413307935327577e+00 -2.864823628658784149e-01 1.149815998351779722e+00 5.027723742576275523e-01 4.994317830576492923e-01 4.355236447137434408e-01 9.541646620162840264e-01 6.664777526765068849e-01 3.315154100197716391e-01 4.993737444997803920e-01 3.611553713834558255e-01 8.638253493564783669e-01 3.000368662809214104e-01 5.425957628091988560e-01 7.009415524703019873e-01 7.831585053622660553e-01 5.015889550866066138e-01 4.845031097926650321e-01 4.972618844455733988e-01 9.214481080083323228e-01 4.858589200587029033e-01 4.232472184329670872e-01 8.243237767857936049e-01 5.254607248922640306e-01 7.405305126892343104e-01 5.303836283731288015e-01 6.592691857763055552e-01 9.147623330387579799e-01 1.172568227893207443e-01 5.108794886694344450e-01 5.591399685867229907e-01 -3.722005255691372416e-01 7.467775302243051527e-01 2.001575123604608653e-01 2.204597060646087403e-01 5.151988159959968172e-01 4.931825758058854259e-01 5.032334746331093012e-01 4.930611771247482844e-01 6.182909850607144070e-02 2.758133115758612877e-02 2.824149775418345887e-01 5.172246049396684864e-01 4.968095877933423887e-01 5.518926766641878423e-01 4.489675801421399992e-02 5.399077010038640934e-01 7.624345272481148905e-01 1.657072525815058150e-01 5.196060463375326011e-01 7.410694614430762828e-01 4.734808453333145817e-01 4.462574664695796445e-01 3.000349745442414395e-01 5.640531942812445632e-01 6.087795476243389459e-01 5.287600590245473686e-01 5.408694426901337060e-01 5.267157024901639728e-01 2.039315322815448729e-03 5.226202719746961822e-01 5.239122926055049811e-01 4.927943777550083948e-01 1.028234863973078242e-03 1.269280331658310113e+00 6.090078808175795055e-01 5.920875488369256034e-01 7.723727289497073212e-01 5.393801641168458616e-01 1.268936878381538680e+00 5.428930408746701630e-01 1.853366259040890307e-01 8.540006445205581276e-01 5.035355403310057820e-01 5.131528290862166219e-01 7.320357124553031891e-01 8.470981779620966323e-01 4.895198922184268997e-01 3.023208927932474199e-01 5.640612285398224346e-01 2.272505557089161410e-01 1.492237884495702493e+00 5.367488585438786597e-01 7.637555815016387750e-02 3.139521047306366164e-01 4.914673433873798514e-01 5.270505309121500392e-01 6.806509202811052983e-01 2.173245126805883332e-01 7.845586145615650597e-01 9.074120559422078625e-01 5.004101851160446257e-01 5.197981641524883623e-01 1.069442581285856120e+00 1.259137458844107604e-01 -1.152342672384732314e+00 -8.204994621380300446e-01 5.528938207630242907e-01 4.255240029241192934e-01 9.076625493956539392e-01 3.516685911308723433e-01 5.021975451507466603e-01 8.879734652087111213e-01 5.020090963376380166e-01 4.481747970851839846e-01 4.948618731962796113e-01 4.090946791831537865e-01 5.010052486788488801e-01 5.597061454878604625e-01 4.792927496890699302e-01 1.107892070192299183e+00 3.392894820402014844e-01 4.889987344530910551e-01 5.837337051969668789e-01 4.856783111137613074e-01 1.573217866891810868e+00 4.242579108760600737e-01 7.281904190107589825e-01 4.877027328264827988e-01 5.272366116113524903e-01 5.488120357896959511e-01 4.846080585289091469e-01 4.763410495405546174e-01 2.974036317718951605e-01 5.534141856595807818e-01 -1.862440654895730976e-02 8.895103126361005863e-01 -2.165314019165077986e-02 8.692929156211548491e-01 5.095602573253831258e-01 5.141476649610017269e-01 6.643071843421605172e-01 4.759068062900965734e-01 4.734037904210580128e-01 5.028427181862584749e-01 -3.753036239625238968e-02 5.336968272409963188e-01 5.304869410786761108e-01 4.423003822539358643e-01 -4.529796520503889812e-01 7.408658469001183633e-01 -7.779452808072039038e-02 5.152042884841832038e-01 4.895835125694281142e-01 8.060112523431056664e-01 4.349795313610851366e-01 8.181177729961316425e-01 5.746293805003531707e-01 7.983898610525150819e-01 7.944977197568787730e-01 3.486442811549749221e-01 4.425805560183210252e-01 4.955676725092443835e-01 4.786432316384097163e-01 1.133493551236250729e+00 -1.369001790210201130e-01 7.762108859261885874e-01 5.310687441201594750e-01 5.518391795851916859e-01 5.335659510666646010e-01 5.670655435991496240e-01 4.874062028537036739e-01 5.150435082664003295e-01 5.498055668036394561e-01 4.308663311062566614e-01 5.738956587870761711e-02 1.565690611030844948e-01 6.716182948252404084e-02 5.980519208179162494e-01 1.041094155558846435e+00 5.251828543567252927e-01 4.991094904475327221e-01 -2.344691460894868795e-01 7.677430825592506114e-01 5.543295954995890451e-01 5.067813593079376622e-01 5.010751187123203554e-01 5.267259357027661570e-01 1.798302519862129412e+00 8.017508911198955035e-01 4.853926337816205083e-01 -3.088350603830046781e-01 5.028455081716974862e-01 5.748657880751992799e-01 1.082576197435939636e-01 4.851785351557942327e-01 7.810997568590886120e-01 5.020443060806026869e-01 4.848288635697067250e-01 4.690707967428019431e-01 4.247780173020682115e-01 5.855881188902216650e-01 9.850784521879168976e-01 5.628217026333414141e-01 5.395454280683836812e-01 4.848287512970348989e-01 5.156181538897478545e-01 1.106964054559252508e+00 5.519197269974533970e-01 4.661876135550437894e-01 3.575073438761279254e-01 1.299007055973702141e-01 4.913577621127156458e-01 3.658357578695102807e-01 5.247246656930463216e-01 4.865012684459605885e-01 5.018188540063007741e-01 4.845212026897339208e-01 5.267000775854195904e-01 5.416259055510487253e-01 4.775606718818609653e-01 5.791025547888798419e-01 -3.813261363895978362e-01 6.029610204730261325e-01 7.598387418302874341e-01 4.482525507284709776e-01 5.927082212346634904e-01 6.544038441051528432e-01 7.919087058551802505e-01 8.270962632991655239e-01 -1.119609331242615163e-01 8.963241339431052834e-01 5.049119596944522392e-01 5.653132599379138146e-01 -6.078193486712286930e-02 6.215004511740914728e-01 3.946199889659754434e-01 4.273322590808485977e-01 -8.099087064308166037e-03 -1.235860812553658955e-01 5.481795779660109114e-01 5.386195010361897184e-01 6.376865745603715885e-02 4.383281812611793948e-01 4.821531732030740480e-01 1.065927577515912050e+00 -1.067222290034461202e-01 4.258224645637200823e-01 -1.090843524197604442e+00 5.146722666476143404e-01 4.695819095661075693e-01 4.707728026276866151e-01 5.391441224172713875e-01 3.000301633399894974e-01 5.093286223610824504e-01 4.914296554622310520e-01 4.490515973530578853e-01 5.348909217817847672e-01 6.314392451575309151e-01 1.445510208900353089e+00 4.704815398254719172e-01 4.547749363052008831e-01 2.616766848513775723e-01 5.610772685142892957e-01 7.472621041238227679e-01 4.943289038307412953e-01 1.850205332893812171e+00 4.921176341643441199e-01 3.839093534343954728e-01 9.112010612015410960e-01 5.368495333577931738e-01 7.504634380880685907e-01 4.989199186551734333e-01 4.922151212744149129e-01 5.443105336024244290e-01 4.773828141731930041e-01 1.352599934388261926e-01 8.818223483423466291e-01 8.549161514918469651e-01 -8.967683733243268784e-02 6.043900363277583399e-01 5.047805801187278396e-01 5.887885653916992146e-01 -3.584934666254674385e-01 3.448069133073133341e-01 8.013090250303757101e-01 5.293615753641703892e-01 5.021822623314607936e-01 4.948617520677674464e-01 6.128173538320794700e-01 4.959483577905594021e-01 3.901843699209188721e-01 4.456718403646031113e-01 5.432943873365699838e-01 -4.579063818044163195e-05 5.582625788901907082e-01 1.618361615454203761e+00 6.512138218683410917e-01 5.253093876642745963e-01 4.424027312584677407e-01 -2.232532967456592132e+00 5.148942518659344048e-01 1.121265793784391285e+00 4.914158732426699427e-01 5.230776881461411953e-01 -5.492502814447595139e-01 5.138602728618197890e-01 5.319259924853547705e-01 3.972230590595299815e-01 4.987181480506622244e-01 7.506082028326045430e-01 5.479166857028038295e-01 3.337040183465705412e-01 5.163935507800661018e-01 5.011548953849217503e-01 5.216748870530135695e-01 5.076326857885716803e-01 4.872535895174499032e-01 5.188554658063720959e-01 1.013718182166766679e+00 6.258829668778786992e-02 1.895571506919486726e+00 1.997834780112280662e+00 4.862204547023080137e-01 6.944913732584451216e-02 5.134490068768859938e-01 4.107985766965850383e-01 5.299027835882493820e-01 1.111739920065083931e+00 5.052881327297742420e-01 9.844373789385932882e-01 5.174734275667803862e-01 3.653005784835423597e-01 1.133099143130997133e+00 4.368784019352509040e-01 5.724092560912650285e-01 4.995471119096233092e-01 6.379615233163001831e-01 -2.071549132306444996e+00 1.283468437353442404e+00 4.902444650266588044e-01 6.469345961900150321e-01 5.473292233618040070e-01 9.147623347573864416e-01 4.353306843914709900e-01 4.631659781197832171e-01 3.080257295502712989e-01 4.723136013982798809e-01 1.366691891990011065e+00 2.833121499324768311e-01 4.848288338041042422e-01 4.383389391466842588e-01 5.628217026333418582e-01 4.182503956563271563e-01 4.397553219583690831e-01 7.703329593059319302e-01 5.046209330644251256e-01 5.119177224555420125e-01 4.611236840338650000e-01 6.059540807157755005e-01 5.134872048676255574e-01 3.755315550118075163e-01 4.631661987264366620e-01 6.086129886692688284e-01 5.173438629556301738e-01 5.994685227837792674e-01 1.036209681349893996e+00 8.376326510940194092e-01 5.080393303082657575e-01 6.227645291564796182e-01 7.382719030755935385e-01 -3.162238198419368117e-03 7.684762508063492925e-01 4.538551031055205187e-01 7.068837971481556348e-02 5.210525424687761920e-01 1.041763841233969146e+00 5.538822310596278609e-01 3.588894202424145474e-01 2.429340483669696626e-01 -2.194114834449619744e-01 -1.655196197420147675e+00 5.571547410888895158e-01 5.628217026640526255e-01 5.628217026334491058e-01 4.919103650905197189e-01 2.666993688170106180e-01 3.461329371999825877e-02 4.885649633197976516e-01 5.145258319204001340e-01 2.660036551316400932e-01 5.093973411164243181e-01 1.160055173178574428e+00 4.848287481217410377e-01 5.108382164662139679e-01 5.024020928800425612e-01 4.425505238119119000e-01 5.093771702389620071e-01 4.748721985860243078e-01 3.596913317022597534e-01 7.609601849670479812e-01 5.304072228923349952e-01 3.336165189930596908e-02 5.628216993250731992e-01 5.841471232986413797e-01 5.148093010314416240e-01 7.288463534295654966e-01 7.224069987067341936e-01 6.909233601203160768e-01 5.500955333315290519e-01 1.036971637034853400e+00 4.562891220284636673e-01 -1.443615306238577922e+00 4.869713000830346306e-01 1.211485827396900472e+00 5.578392513834844468e-01 -4.822038434768982085e-01 4.796713581438061813e-01 3.140338241603112257e-01 8.765149674653366363e-01 4.989224108576721939e-01 7.094482563090351857e-01 5.261606925706725502e-01 9.652208522203437058e-01 4.420674633359881756e-01 4.158230002137940362e-01 5.507942193939564524e-01 4.966741745887904291e-01 6.765157609307245190e-01 5.165263592079727406e-01 8.322273226035454829e-01 4.037658570151667764e-02 4.504311481959503705e-01 5.248251270252892731e-01 6.745810979092924375e-01 4.977809526858356648e-01 7.179819073318040035e-01 5.327976648493383260e-01 6.026948201920767634e-01 7.138334552284787415e-01 5.285859644054826667e-01 2.034193841685939530e-01 8.921155334367510126e-02 1.320914593773803714e-01 8.161704732688590536e-01 5.000217136266642548e-01 2.415565209733804952e+00 5.702931407281748299e-01 6.260675224161964536e-01 5.829684032248886316e-01 7.632832352758116556e-01 2.327009415274425980e-02 4.939806223316584033e-01 4.971327031399345731e-01 4.501576975284044546e-01 1.047025347227996006e+00 7.177222094502587746e-01 5.119167939856292815e-01 3.669483819716879980e-01 8.737274046110231618e-01 5.163124966134068350e-01 4.933922849374564601e-01 5.306648305773258301e-01 5.330181227926751308e-01 5.224554344273667494e-01 7.168769618423507239e-01 4.997755290982139331e-01 5.162847747075447469e-01 6.325910979233852205e-02 5.592138154392009008e-01 -2.098950761939046179e-03 5.228943438055912996e-01 5.570112064441360422e-01 5.149903245397086105e-01 6.825737269920268968e-01 4.862687359900941253e-01 5.042890798156548504e-01 2.011841723144398575e-01 5.018116502905511922e-01 4.592921278862054368e-01 4.054600758643747693e-01 5.233824817863885759e-02 5.501002523028735158e-01 5.891831936762279565e-01 5.452306501844497166e-01 5.245439172503687519e-01 6.511652047634043372e-01 3.616132196449526881e-01 4.847469665583292175e-01 4.687137716568066104e-01 5.022762180676747512e-01 5.646561600084224475e-01 8.574369556191657749e-01 6.661356926300292525e-01 4.574285284415656183e-01 5.770500430950011861e-01 1.521472961691685555e+00 5.395666041840975202e-01 4.857369337129645581e-01 6.435548519186389260e-01 4.458628191343103619e-01 2.441661894673908817e-01 4.339331786072522235e-01 -3.541870916223010535e-01 4.743781835301423833e-01 4.998552863669797897e-01 5.928815805903394631e-01 5.509694905518148778e-01 -1.650791969997188191e-01 4.273640454357494622e-01 5.428523541702835464e-01 4.745462601028033189e-01 5.765200584036020981e-01 5.290029010349007743e-01 5.249004160689068055e-01 5.498885333365173267e-01 -1.562569458525089328e-01 4.947969857789010217e-01 8.505311220440853193e-01 5.667600593740917958e-01 7.451167666629934794e-02 5.009416446860419647e-01 4.713720453878252892e-01 5.032173873252225871e-01 4.926276503861696243e-01 9.464857515850587655e-01 8.460707225667631892e-01 5.314673349533215463e-01 4.683358934464629808e-01 1.934621031804758806e-01 4.896615778907200678e-01 4.641570112506720469e-01 6.790426684991343054e-01 2.362360087192195979e-02 4.750061190420061807e-01 5.335084365124490580e-01 6.285654996402475492e-01 6.388257834289696735e-01 7.446513477705202222e-01 2.088440045850050719e-01 -7.300161742290839362e-02 -8.259338848734522343e-02 5.615628338111813278e-01 5.091675714609705805e-01 5.494407338155049558e-01 4.916696246502197387e-01 -4.332264302138404410e-01 2.381675836224102394e+00 3.653433125893932321e-01 4.675159313933888727e-01 1.028482460707526469e+00 5.137859694108207753e-01 5.202545737277831650e-01 5.505688642417804202e-01 5.535728745041673671e-01 4.608907848203175339e-01 5.070530608343581935e-01 3.655385531265195054e-01 3.638170375291266412e-01 5.168976101789418687e-01 4.983616470201828186e-01 4.160917983078651905e-01 5.909285276954995281e-01 4.922501702329312723e-01 4.405089390755426160e-01 7.403076024444402714e-01 1.835689716193096288e+00 5.036434026864454738e-01 4.910754466527915696e-01 5.516319404449379071e-01 3.196202016788476929e-01 3.892176351211804608e-01 4.966456460335172962e-01 4.993525104795410452e-01 5.767419221603895529e-01 5.039311564751155492e-01 5.518402444101863091e-01 4.902270454659416465e-01 4.701405418965353133e-01 5.693063506248619010e-01 1.015046329560123750e+00 9.563186799122732618e-01 2.738334278910498076e-01 7.444970460901279008e-01 4.958848770847564258e-01 4.324955009052727228e-01 1.714848033356569879e+00 2.312931406702389558e-01 4.904196187198268664e-01 4.995006930252968158e-01 3.169469259439434278e-02 5.800721006913938105e-01 1.216846006573200745e+00 4.676827994517167020e-01 8.838592482054633548e-01 5.148224590415949597e-01 5.222561434585449858e-01 4.993227441057052074e-01 5.335032767163057077e-01 5.023551515173637627e-01 5.142208428771311013e-01 5.157828021716791556e-01 6.302182151719865066e-01 3.034798393005705974e-01 5.413801364377499592e-01 4.342234217089401271e-01 4.887875002642301236e-01 4.426961416230174029e-01 7.443912028294389360e-01 6.813226956633575693e-01 4.771292770767722180e-01 7.996531502718263740e-01 -1.768321670487978392e-01 5.309051774704185434e-01 6.935081008542440806e-01 7.771647657782823071e-01 5.719348108985009560e-01 5.093664478744170943e-01 1.047493829762708162e-01 -1.042470497987583400e+00 3.912269181313951516e-01 5.727212728272376152e-01 6.989847792707239993e-01 5.066780804950170580e-01 4.939383814477455448e-01 5.434131534094284177e-01 -1.097805760025799271e-01 7.797422704933248960e-01 4.948618897703201402e-01 6.714285982477817827e-01 5.251746640794782151e-01 -1.275565918750490579e-01 -1.651363168535949777e-01 1.125137517793913799e+00 4.768285305842814847e-01 4.417406941225138217e-01 5.067739101754027420e-01 4.230136320586656007e-01 4.520483958012940784e-01 5.123388075836118327e-01 8.047323698567300232e-01 5.543348958544841443e-01 4.848572160744831216e-01 5.465187461547308390e-01 6.036095311544036335e-01 4.912245361609560157e-01 4.985594756584508236e-01 5.075665630533000572e-01 5.998514014527542848e-01 8.549338956794523270e-01 5.125279513491727279e-01 4.935381748571010530e-01 5.063757069497919483e-01 5.268245267755171657e-01 5.874612506567606918e-01 1.674263978538794925e-02 4.631659910292590387e-01 2.769942796275032260e-01 5.560980802049955152e-01 6.001007179091943922e-01 1.172557998238998200e+00 4.339709939807800398e-01 9.743973197118849239e-02 4.777995380188305163e-01 5.402948747132061413e-01 5.153850807803357359e-01 5.793516932354383364e-01 5.454695184062924307e-01 4.601877551139811340e-01 5.331108659157527407e-01 8.794104832506900449e-01 -3.987358539728612095e-01 1.496809324343008285e+00 7.729800419079054796e-01 7.597711268152549380e-01 2.202210883152599108e-01 3.929572281439955850e-01 5.054352247876638948e-01 1.674795388342718849e-01 5.612803808929798244e-01 5.048055514068997551e-01 3.148360015156488612e-02 4.980231811171104694e-01 4.446253471152080139e-01 5.233359030393426314e-01 9.935262548156513773e-01 4.790701752373147104e-01 3.156834009131533891e-01 2.491698031976298799e-01 4.627364783031446827e-01 3.699525835960598141e-01 5.110680756298243699e-01 4.945189228718117058e-01 5.513268637274919559e-01 -4.648637521218723090e-01 4.408945091595877219e-01 5.704509673058099084e-01 4.686913863641297695e-01 4.902498174995962854e-01 7.422128625190415052e-01 7.552763921721470375e-01 -3.121568488439845912e-01 1.012033897491000811e+00 9.147623208698240083e-01 4.915173076807721197e-01 4.649399749527459713e-01 9.198605768472932764e-01 4.932048654635918239e-01 4.874753039708528135e-01 4.823149956507941094e-01 1.000522978028207000e+00 5.116864902410607208e-01 4.383330948346309541e-01 1.152385445296501443e+00 -3.264699650807240811e-02 7.117755544006276747e-01 -4.772910164563615165e-02 -5.386810962729293717e-01 -1.648507008387123662e-01 6.766478283353127843e-01 5.224391138793363920e-01 4.181579343972323115e-01 -3.000880481602023475e-01 4.932810603747990741e-01 2.878576994907758313e-02 5.168338233559067740e-01 3.724060812060243086e-01 5.138698366575529253e-01 5.209327569449219153e-01 5.253416963164162512e-01 5.842472069852302496e-01 7.700830817388105709e-01 1.044800022567925063e-01 5.107099874337835965e-01 4.224934178455821976e-01 5.751534353033176394e-01 1.009823178193679283e+00 3.128904474091445120e-01 6.995323173662056915e-01 4.469766954786829061e-01 9.966333039622268797e-02 7.102110808455089908e-01 5.018300313784371802e-01 4.933650757741982473e-01 5.010753367214521026e-01 5.565209192610603983e-01 4.622209095038880000e-01 5.256194574883684689e-01 4.970126654661240484e-01 4.301281245558792876e-01 6.225430760967344268e-01 7.744010558776797115e-01 1.918344639865535273e+00 -1.022034223229200817e-01 5.831579011214228503e-01 4.940816044544829588e-01 4.913592071745903622e-01 7.154309088366356262e-01 3.094879060029644968e-01 -6.774388484923767884e-01 5.107170586200916462e-01 1.988017794049818709e+00 5.312081453201576986e-01 2.488199749501866231e-01 3.751883214964079616e-01 4.948618868676229465e-01 7.092995254984891806e-01 1.115119453708722119e+00 3.604817119687650506e-01 5.729548267994826610e-02 5.204783178756636763e-01 9.723792591753499526e-01 3.665490262656615483e-01 5.033110810694567672e-01 5.057364607221663810e-01 7.918390879973978835e-01 5.233413919204308318e-01 3.923393704605594445e-01 -1.227394573404499978e-02 4.688146613200501189e-01 5.324006045555518263e-01 -3.581590733011539851e-01 6.009498319038528713e-01 1.008088352994834347e+00 2.525332702766408532e-01 3.362002476405059892e-01 9.216257206019426995e-01 5.525785707320876039e-01 1.687802099873855655e+00 3.881349504574395093e-01 1.913501222981494471e-02 5.074524451271779091e-01 4.920723439113677822e-01 3.688761692500219791e-01 5.666945726108189030e-01 5.856990069790406206e-02 5.324520629861954069e-01 -7.715712324737628025e-02 5.307319914179469134e-01 5.461337048691484730e-01 7.680006335815502128e-02 -2.971709998274410514e-02 6.053193486114017974e-01 4.396400269110360970e-01 5.060502276609180061e-01 5.261177856456614732e-01 7.126911941099702830e-01 5.100085273005013908e-01 4.816251037442677019e-01 4.776155385356410932e-01 4.699523143179090701e-01 5.307398851083158231e-01 9.427239252429454597e-01 2.375917783070131684e+00 4.289141250389831295e-01 4.873508824538572703e-01 5.042430278927554355e-01 1.112956736380413397e-01 5.107522991815656166e-01 4.784205971746521846e-01 5.097905285360500027e-01 1.262295392518406612e+00 5.666721396810043831e-01 -3.348213992731164379e-01 8.683597341041467133e-02 6.105094725977178172e-01 5.756267727562973668e-01 4.873205890839102938e-01 4.813382356048084287e-01 6.594466948391271288e-02 5.039000970863615203e-01 5.217856642097169484e-01 -1.498518328020742363e+00 4.489723705233042983e-01 5.021206878839362675e-01 9.476016218525199486e-01 5.753670131582733216e-01 6.981561401103463238e-01 7.867630414233410807e-01 -4.809024067878027719e-01 -4.289699360133880646e-01 -9.810581675971043539e-03 5.046463413548960553e-01 4.866411429238575725e-01 1.094894164868588815e+00 5.230946761683826773e-01 -1.232746194742433965e-01 9.153087121748991750e-01 4.797802692500569566e-01 6.501080749381613622e-01 4.640804184721985526e-01 5.081290620551647264e-01 3.116989834299410123e-01 -3.251896812053237662e-01 5.677579651572525199e-01 5.127363342726266593e-01 2.761209982216716874e-01 6.099800718696349877e-01 3.792619081950107662e-01 5.030506213427652362e-01 5.017859376532117777e-01 4.855817391586744747e-01 4.525822916556777598e-01 5.087676600466113364e-01 9.147623301053144917e-01 5.178716910574701071e-01 5.098474321849725266e-01 1.128247313761793352e-01 4.949803402578872302e-01 5.288562987363232271e-01 5.187330912067780186e-01 3.244322465466536465e-01 2.438857138291468662e-01 6.716832865216746384e-01 2.923068972100693608e-01 4.588679174816642781e-01 4.883208018387109051e-01 4.426835893706697056e-01 4.998364636528879190e-01 4.896506233200445535e-01 5.105318751465988125e-01 1.011874457748387579e+00 6.190329135240855152e-01 -2.683060556238258121e-01 3.367470917795480356e-01 7.580401603353730255e-01 5.511478449566764581e-01 2.583171398684486753e-01 4.950901849663966736e-01 1.562730791523253837e-01 -2.087425796429373190e-02 8.340330877945708599e-01 3.884046075569997925e-01 5.158808361198541359e-01 5.421308723238164040e-01 4.994711488575913072e-01 4.204319390366416664e-01 1.211846891365589096e+00 4.971477455456035921e-01 4.019491621514910129e-01 2.433409632156440516e-01 2.335418482403892881e-01 1.047578348995838349e+00 3.493520365622045376e-01 4.677426872516248224e-01 3.569167690733331399e-01 -2.307269422723798313e-01 6.029552052366485837e-01 9.810752645571748642e-01 -6.517729973091431761e-01 5.621056056111553012e-01 5.008363860859111893e-01 -1.058816156125955560e-01 4.610395608832471570e-01 6.562015672305300251e-01 5.147432819051196429e-01 5.157495324697091155e-01 3.338941678727292972e-01 3.296185450305370579e-01 5.043796189931718521e-01 4.913086293354430589e-01 4.880750429155312764e-01 9.801760168610051949e-02 1.085905100857870398e+00 5.366893430114703101e-01 9.691233682735452826e-01 6.739120241256659760e-01 -3.593735102188773678e-01 7.082985945169044673e-01 5.165701931620412246e-01 3.160451891318052375e-01 2.177858899239385609e-02 5.270075960535789417e-01 5.265453083687781088e-01 5.230306799203752188e-01 3.469446209821963056e-01 5.793548539731113722e-02 5.078248103576132877e-01 3.829535032838243258e-01 4.979876475551912041e-01 1.719252870911639253e+00 8.092485144538746900e-01 3.364503305831195723e-01 5.113269928907241413e-01 1.439509563026158956e+00 2.440189294973721112e-01 5.080677804272258902e-01 8.220665153793392799e-01 4.631659597363252390e-01 5.146100870118024417e-01 4.054338486268509456e-01 5.642836531426522750e-01 5.410028336017650430e-01 4.195643939111640131e-01 5.151114302166879266e-01 -1.905224214974380464e-02 4.946289058288292351e-01 7.151646064853854901e-01 5.272376901241879743e-01 5.202102529254312158e-01 5.214917965287474422e-01 -1.860205001942196942e-02 3.265436438127750085e-01 -5.024978982423872198e-01 -2.076116151614380845e-01 4.480682483935597427e-01 5.259522407339853878e-01 5.878812604535140762e-01 4.960912677376544400e-01 5.414031303698950692e-01 4.329168214846846885e-01 4.631660021105353797e-01 5.300832616701797173e-01 6.076790270986491826e-01 4.473113085618871665e-01 5.127276087528103155e-01 1.004208560294017838e+00 5.031757554732538829e-01 5.018144409118010518e-01 1.419743257355222665e-01 5.180771750106821782e-01 5.079881951085823966e-01 4.975138814420477784e-01 6.620277021557497976e-01 4.962554017550225294e-01 8.077428813323758172e-01 7.626484002601108259e-01 5.159149557766071759e-01 4.141451892079947572e-01 1.902339251448076363e-01 6.999987111032465181e-01 1.550059945629117752e+00 5.013458283529901305e-01 2.494022260115726086e-01 5.586554574155031538e-01 5.103856063052288894e-01 9.974917662280453623e-01 4.274527089196619722e-01 8.013677570380500770e-01 5.301568155149201100e-01
7.213310288035684747e-01 3.352693399357057347e-01 6.123048339256836892e-01 4.288992595033030431e-01 3.025485978720796054e-01 2.600796644480642961e-01 2.563199542795243091e-01 5.175008621325629665e-01 3.970082232229628638e-01 2.851110444516391507e-01 1.603582551278068369e+00 1.395391774648125693e+00 -9.018697909388782019e-01 2.920832836801949828e-01 1.785855570666693981e-01 3.367280696369767123e-01 2.378134293953847733e-01 3.585586647387741244e-01 1.797206851255712667e-01 3.144507901705337893e-01 5.430594289638287497e-01 1.549127293056499433e+00 4.150137624301991068e-01 2.955902024328282973e-01 1.617378060668583639e-01 -6.054129253189385329e-01 3.718360470718435340e-01 3.707166617230777672e-01 3.299955913645694627e-01 -1.471064982608648875e-01 3.707473856270387391e-01 3.338953716181319309e-01 3.421570411349431629e-01 3.581970602347080423e-01 -1.891465366232888412e-01 2.789980778078933743e-01 1.935365784231956321e-01 1.775816409868993528e-01 -2.221912285248363705e+00 3.151545753198363720e-01 1.731746679452203508e-01 1.249140291629856764e-01 -5.967769882180598562e-02 6.878700266351073234e-01 9.043677617132489521e-01 3.100226623058787712e-01 4.303813079553648890e-01 3.005413138845094423e-01 3.383701193921205275e-01 7.864063881051212013e-01 7.969879548133712577e-01 4.403933483405148008e-01 -7.110078692960557500e-01 3.056601722412260469e-01 3.131508950704442462e-01 8.025243294767943070e-01 2.717424850829067706e-01 1.408108002034015038e-01 3.805874610106882439e-01 3.101168341513059756e-01 3.557085473293818967e-01 2.664938049845638202e-01 3.469439278802171067e-01 4.150143249824972957e-01 1.862781279250849686e-01 1.766897589793738066e-01 2.880437847965585663e-01 2.097475908959142710e-01 2.576379751644749527e-01 8.308296809268832517e-01 3.310069885771033116e-01 3.162527892782591721e-01 3.457718660042036762e-01 7.626259074405296046e-01 1.480803740203783470e+00 2.215197196690689152e-01 3.846781414899473894e-01 3.668753510983808752e-01 2.966027189778704387e-01 -9.297987688856443889e-01 3.325356549995153177e-01 9.325555077357859934e-01 1.139031898389374575e+00 3.523633470336261508e-01 2.919072708615993439e-01 -6.919115930658319424e-01 -4.111307793901834012e-02 3.324138908661099512e-01 -3.883818025882485592e-01 -4.374202077854327797e-01 8.988476172746553416e-01 1.034633192372162114e+00 1.777826098513914377e-01 7.204022085894919991e-01 5.598914171615048119e-01 3.391709827581199654e-01 1.725280829455735354e-01 2.353065593437927427e-01 7.752411812078131570e-01 -6.124104591181157575e-01 6.216257715872576528e-02 2.509596447068206948e-01 3.120167779042143374e-01 2.980993071629264302e-01 3.007154737001473399e-01 2.096149469703333157e+00 -1.455082448696584652e-01 -6.042815851586578191e-01 3.915246457445252792e-01 6.734185622575074026e-01 4.796249486277930352e-01 3.208533745607657917e-01 4.190551316850743557e-01 3.210255637928462469e-01 -5.593865743411347013e-01 3.485494720903967170e-01 4.878132524896487965e-01 3.830092028161496409e-01 -2.677211265061614220e-01 3.303560953821026436e-01 -1.054053741128877952e+00 2.812236366916101016e-01 3.307410576916405276e-01 3.869173514359179611e-02 3.462543488532025537e-01 1.595647304396465627e+00 4.679342075792039535e-01 3.478157316547393907e-01 4.639521302646147927e-01 2.832757688572492549e-01 3.099679570143622498e-01 3.507653981770569307e-01 2.697135122705235366e-01 1.514272443015122482e-01 2.439212318365117094e-01 9.225558857848706884e-01 7.416815352388600457e-02 8.174752523476515043e-01 -2.192847541034318726e-01 2.990316775972087782e-01 3.268955828636248562e-01 3.198360145612804128e-01 2.311207275376645220e-01 2.976519432970094470e-01 2.883565305728401085e-01 7.489441045242181128e-01 6.833130020283848527e-01 2.892051155034806031e-01 3.154832846431326332e-01 3.334502992700525414e-01 -5.430953159102489547e-01 7.976415721966576000e-02 3.100445058012962773e-01 3.377273801393569919e-01 4.621035889559821364e-01 4.049462976189981966e-01 -2.771089365844510155e-01 2.833838157231479138e-01 -4.670736610093236263e-01 -6.017155418569339886e-01 3.166843301466452654e-01 6.725758234653816947e-02 3.397104280573535751e-01 3.052366226255126547e-01 4.017548379406567054e-03 -1.239685574971614301e-01 3.568792579983455227e-01 4.789958656202606413e-01 2.680890498951690737e-01 2.165094096043075345e-01 7.417205269025538561e-01 4.285471603527939433e-01 3.103204680035028251e-01 2.603224176854547212e-01 -1.842790189783370502e+00 7.541773105978226699e-01 8.364637748784105042e-01 1.001588919081434215e+00 -3.116404339678398028e-01 1.025688985651546759e+00 2.757441474012769511e-01 3.163703738821561640e-01 9.743206854040327158e-01 2.334721766792274833e-01 2.250620569684471106e-01 3.039247258208968017e-01 3.179857888655965303e-01 2.971438688346328405e-01 -1.168565624655079627e-01 1.343906311825699973e-01 3.585888761203906983e-01 5.842816397213308477e-01 3.157242265107825796e-01 2.232924748875182441e-01 6.163847392261684321e-02 3.174669044429943021e-01 -8.873135476529391275e-01 2.747260775841007252e-01 4.205002200266530488e-01 3.880428379791542870e-01 3.061671469721348182e-01 1.787572693781250832e-01 1.948331065782606120e-01 4.721408385352934833e-02 -9.360475000714242322e-01 4.204998338014598880e-01 3.164013942840140925e-01 -3.312278101219806592e-01 3.273888419277981576e-01 1.478579536660186711e-01 5.390844721861081101e-01 -2.213796761970677096e+00 3.376082895669516581e-01 7.859062610129010640e-01 3.011718240073006925e-01 3.398159770896586052e-01 3.148180971690538454e-01 3.444773591944699787e-01 3.438853789351877244e-01 3.157146291251639592e-01 4.060863803995391486e-01 4.538422099244502905e-01 5.194313617874282141e-01 1.509683059499342672e-01 2.403957685848790438e-01 3.736879707030189568e-01 1.802200729475157137e-01 1.379002163979774764e-01 1.473945795856812735e+00 -6.902494978907122714e-02 1.028308226711185158e+00 -1.144447352204246648e+00 3.068688255016260857e-01 1.973182445208566116e-01 2.615316271063945486e-01 1.942796870146991095e-01 -1.893578839815784620e-01 4.651763161882468967e-01 2.100568644344757430e-01 5.398323554449772077e-01 4.985193039742799037e-01 2.728613765120096457e-01 -8.465513828812226693e-01 4.454051667702990658e-01 3.574982587523511390e-01 4.114078320081887563e-02 1.046165820772629873e+00 4.735490875372634911e-01 1.933078323083742722e+00 2.247071639984698777e-01 3.435367105149474409e-01 3.414583893018499627e-01 3.105295285505947356e-01 4.150163849165743324e-01 3.437468584468863497e-01 3.404586124454291318e-01 5.104579586760608911e-02 2.889090209981743929e-01 3.093614496746910913e-01 5.205331328800718582e-01 3.271801071513398829e-01 4.282074196870993554e-01 3.518345467779791513e-01 4.719031625040226441e-01 3.455667015616064597e-01 7.494207670519452413e-02 2.095834192782571215e+00 2.765338505929064716e-01 6.710142490220178946e-01 3.947989193531927649e-02 2.831234954814312865e-01 3.684148851808515812e-01 3.188771342698086264e-01 3.373591465398244060e-01 2.806577023234206880e-01 4.131897687542221420e-01 1.552344867279695229e-01 2.814147848379190409e-01 -3.338651920366984133e-02 8.799796802234562121e-02 1.181006077128351484e+00 2.768927512995676410e-01 4.840173072433510276e-03 1.687590703534508796e+00 3.445955047592541565e-01 7.276073453017505299e-01 2.898973641689688296e-01 2.872237116000749824e-01 3.485494803765034066e-01 -1.565034896319671409e+00 3.310714437008366873e-01 4.052932711873880600e-01 4.425227875155848256e-01 -4.795569402907289835e-01 7.684768563526732654e-01 2.955650631127637040e-01 -4.925029025877641908e-01 2.064673078935023998e-01 3.120249182559081680e-01 3.164302170122987312e-01 -1.787768846534829592e-01 3.451523347280993081e-01 -3.431812493350692161e-01 4.298210321782146570e-01 3.055259069185090604e-01 6.529597757109731893e-01 3.159734497640185324e-01 3.123851264029441355e-01 3.218354995593463719e-01 3.532049685860571553e-01 9.199668085091110281e-02 -5.420400837559291585e-01 8.859388606588511350e-02 2.962085329391910271e-01 3.048324835829827606e-01 2.721366736346060855e-01 3.077106891089343432e-01 4.282882419056030510e-01 3.250345141858745346e-01 1.793340280570930423e+00 7.858699893568453776e-01 2.419750752403556360e-01 -7.163754227837724198e-01 3.334178829484666373e-01 2.997348384911202590e+00 2.922542341452746273e-01 9.628733161372671212e-02 5.173023721517653328e-01 -3.784945375049421301e+00 3.189884000566365896e-01 1.054856800548025442e+00 3.072496269912149969e-01 5.606428940895132884e-01 -3.076274325200006321e-01 2.094647594228613574e-01 2.671932524484902927e-01 2.936180987904382644e-01 3.583685721976315186e-01 1.896728771538117142e+00 -2.066387511555158873e-01 3.384435927210073802e-01 -1.557716302838176858e+00 3.017194017770418180e-01 1.775816406141141057e-01 5.056605647826826200e-01 3.635066862670255916e-01 3.826393161375639673e-01 5.181821082949784607e-01 1.339316569808313817e+00 4.390440902183262439e-01 4.205004588896844586e-01 4.453917031767069545e-01 4.721408385352370701e-02 1.670089064492973896e-01 4.202843284212219310e-01 -4.274228504783961768e-01 3.186211797046226701e-01 5.386670325201935450e-01 4.268523003326459286e-01 2.226906445890715902e-01 3.087802796323337873e-01 2.117572265318108382e-01 3.635076832922736201e-01 4.809510901921566495e-01 2.914769956464468015e-01 3.015633490838578457e-01 7.481886500259410377e-01 1.778804864420750809e+00 3.161687872131851429e-01 3.388807291051080806e-01 3.504829084150330454e-01 9.094640365984824060e-01 3.381633492829346777e-01 3.738695441692885257e-01 7.818241266797275602e-01 1.801458732660415341e-01 1.913160630980734744e-01 2.335479596398974400e-01 4.815678770429036026e-01 9.194409200285095229e-01 5.855540239860123064e-01 6.874899593995711378e-01 2.862506624731082638e-01 4.721408379218251100e-02 4.721408386023869669e-02 3.393318875173774729e-01 3.250616903960165671e-01 1.091828127979743712e+00 -1.327431184936567754e-01 3.103573707523146763e-01 3.533006084591960860e-01 3.120651949717521689e-01 9.101345880331885851e-01 4.204997294090427884e-01 3.099329561344491002e-01 3.365775487663166810e-01 -3.538272445173126085e-03 -4.679702338194064448e-01 3.699441850672082754e-01 2.641252353497652861e-01 1.698071305897864702e-01 2.643107220777344835e-01 7.250552743288364299e-01 4.721409276414362949e-02 -3.786647715574248396e-01 3.184504770897064740e-01 5.696445952614899444e-02 -4.166719389500528892e-01 1.751946957764005663e-01 -2.412234245934197663e+00 9.773353817135329580e-01 2.609028400038803097e-01 -1.088108845959832038e-01 4.284642451806786601e-01 1.492021225274535068e+00 3.173782082911247304e-01 4.786113374772315021e-01 7.961116862594515009e-01 3.763414535394810634e-01 1.489689679968137226e-01 2.729869665875744311e-01 7.224471860054793027e-01 2.906114766854726583e-01 1.510622941465127544e+00 3.315088894577163936e-01 2.235510917425868327e-01 2.541238566647685548e-01 3.309221064472813723e-01 -1.088296395895620883e+00 2.992024553053154734e-01 7.011569769144523900e-02 3.827231449569928334e-01 4.448837482133995436e-01 3.092773780137103024e-01 2.555196760606499584e-01 3.294286824283849113e-01 -1.285515566161969381e-01 3.160534418360727016e-01 1.511027538237843526e-01 2.932761906497044491e-01 2.785306389083754275e-01 6.561716834257362851e-01 7.316543494419448512e-01 8.530324773337641941e-01 -8.201043072617850704e-01 4.821454530176590425e-01 3.095824626124174701e-03 -3.670790057192784839e-01 1.672117177515713426e-01 3.359639238316641796e-01 3.184017692100146180e-01 7.499106947540697954e-01 2.763377462459053469e-01 3.047104202703540543e-01 3.778226077951876705e-01 1.216777686441846001e-01 -1.276693790803711259e-01 3.174522073334692385e-01 5.062955848437872275e-01 4.087533743323330526e-01 3.549606081414773406e-01 3.413443372968274492e-01 3.212750833366635472e-01 3.745989600531548502e-01 3.097377929251937667e-01 4.094034190237707538e-01 3.434552710680620069e-01 2.975833849245859142e-01 7.964755104273882891e-01 2.491583566810149086e-01 7.509776357752765419e-01 1.396509076482821583e-02 3.015418647222605775e-01 3.010902091018724525e-01 -1.087921287714157081e+00 3.226926868567339679e-01 2.958765540712310904e-01 5.197468250021499703e-01 3.237626904508001946e-01 3.549529229862617985e-01 4.878947178033317122e-01 8.057325176499287034e-01 2.849804946405629091e-01 3.937324117753497332e-01 2.651322914022192223e-01 1.214851583090575116e-01 4.317208888313669446e-01 1.629465686939348956e-01 2.899329640440463374e-01 -1.844379644794083561e-02 3.118725759212968018e-01 2.085657135458073297e-01 1.139293374871398479e+00 2.474654015123876616e-01 3.123869562454171245e-01 2.705560318644027462e-01 -4.907198618037355020e-01 3.284249168277266762e-01 4.072638698013884562e-01 3.745353505957669804e-01 4.420987972516526865e-01 5.229039595747927427e-01 -2.753250336471314147e-02 8.025486961937231545e-01 5.414581684679841134e-01 3.818202249187706010e-01 2.424766218786510441e-01 2.986264116385779488e-01 6.541262189391379156e-01 2.182515255026022061e+00 2.922075224035652341e-01 3.434338508184108796e-01 5.771516442468134223e-01 3.507051960645099498e-01 3.238541377908524255e-01 2.780868788322703455e-01 7.095053919219411753e-01 3.320349414354069051e-01 -1.414798810796875743e-02 2.299023956944215019e-01 4.017044240091157542e-02 -4.639725438543534919e-02 3.462560369781050307e-01 3.083822287404523466e-01 4.145609869649763413e-01 1.373314457631308994e+00 4.656527868473682163e-01 2.694642302101486475e-01 5.604177136760861710e-01 2.900237065180039653e-01 4.296243344285040067e-01 2.652242847884352384e-01 2.078132754110716407e-01 7.523416547207708582e-01 3.488333241281515451e-01 4.081393170489241440e-01 2.350156197715914941e-01 2.772698659187671222e-01 1.231363802802575153e-01 4.294842536270804811e-01 9.287875577699055141e-01 3.819416493904135845e-01 3.336109565278213007e-01 3.578404118590402527e-01 3.993340235482440992e-01 2.765340975964907799e-01 5.194180519453577283e-01 6.000959988913049381e-01 4.238895084156548143e-01 3.503389344402190186e-01 4.579395324536467138e-01 3.044355192057025539e-01 3.046233925433975975e-01 2.116276325909305367e-01 2.764482324711977079e-01 3.725296504045256807e-01 3.164812708145212095e-01 3.693346026927663006e-01 4.911011707128827286e-01 1.961130164804127662e-01 3.219933970596285389e-01 1.147433010181914792e+00 2.056374455790437317e-01 3.407804570353139550e-01 3.735070205608087557e-01 7.946659847662342901e-01 9.265598598709400280e-01 1.617740079340833637e-01 -1.414909972664407101e-01 -1.288366204367151768e-01 4.920424449671501055e-01 4.416415758825983917e-01 2.774920267177646838e-01 3.282509382488096317e-01 3.071113893802840944e-01 3.174857453812633956e-01 3.366146294850725362e-01 4.296698126676364304e-01 3.901746613272555897e-01 4.396789908477304887e-01 8.032315423750305827e-01 -2.964914803151852754e-02 6.581087211790302982e-01 3.506101722853574021e-01 3.307537013169081774e-01 2.478203516583080569e-03 4.620972029879784615e-01 9.017349015702057491e-01 3.745924658202978152e-01 5.858885295754004963e-01 1.236266902369751897e+00 2.804446332829869104e-01 1.467034686784642217e+00 5.536327633822937244e-01 1.408652679038225330e-01 3.032622219756083704e-01 2.634565674413945069e-01 2.965262189019268746e-01 2.165089037661552251e-01 2.860349668034425363e-01 3.009112993726337781e-01 1.728680411544335216e-01 2.881559021093909045e-01 2.681766894970201709e-01 2.900831506460306297e-01 4.312698434263966263e-01 3.438149899058370873e-01 3.181188969996611160e-01 3.507895245635665460e-01 3.002113897522758479e-01 3.884658821622867242e-01 -2.634084641007434779e-01 1.462319981084081233e+00 3.105091135530400059e-01 1.549455356678712536e-02 3.069381438536873397e-01 2.087178109412140270e-01 3.169965950868686710e-01 -3.280080513087892058e+00 2.575110069626185716e+00 5.014374834980669382e-01 2.317431362613603940e-01 1.349225128132318929e-01 3.041328318765572081e-01 3.267614112597850284e-01 1.894484537683454040e+00 4.924888822906200447e-01 3.805508297728099620e-01 3.485488080288637880e-01 8.330119704913536705e-01 2.905741030763327459e-01 9.219645639836215878e-01 -3.328539878932981200e-01 -4.174577398229402103e-01 -6.406020592111043577e-01 1.315670070515661538e-01 3.120688843862359230e-01 4.269491401920817442e-01 3.216347754253966462e-01 3.229882098379727173e-01 1.519215625221009835e-01 2.336833927122983767e-01 3.490070001772466179e-01 3.456934180188960259e-01 1.271144597780908270e-01 3.398540774955540189e-01 3.384569760160748286e-01 2.825082519295785133e-01 3.199042539572876653e-01 1.074684715178916838e-01 3.177334519323287698e-01 3.406490842247940076e-01 3.029066587377666764e-01 2.981003624387439932e-01 2.617160337467524522e-01 8.279721724266567717e-01 3.635067903120544619e-01 3.812759344284846197e-01 3.128864843208956636e-01 1.736433571197547876e-01 1.913705822079879992e-01 -2.754658395326812365e-02 9.732465126632297014e-01 3.446271852326918128e-01 2.735182363560639263e-01 2.996846834160405426e-01 2.351953146432797792e-01 1.228642439722581747e-01 6.916002634046185260e-02 2.678179320284988507e-01 2.090354538303323129e-01 6.233248855485953310e-01 6.087893484049113901e-01 1.815178627429188118e-01 1.392826987658223992e+00 2.237321987178603200e-01 1.701198816486223508e-01 3.762595339368022818e-01 -3.986993195337207863e-01 2.919290593147149115e-01 3.555924166339347048e-01 7.745129778685750921e-01 3.251296070329084964e-01 3.844117488331543209e-01 3.055543693954233531e-01 2.488639757762031446e-01 3.496937018605953962e-01 6.821166180713743588e-01 5.987366162580106677e-01 4.479194195070008155e-01 3.868724329240231241e-01 3.115085085744164206e-01 3.533647254163457263e-01 1.418479979304057004e-01 3.419497171633851806e-01 -3.183914668763886957e-01 2.095451920614670727e-01 3.323344357748955757e-01 4.293782260253495298e-01 3.495554789996107581e-01 1.160692030323072776e+00 7.254880287954824647e-01 -7.078519087207107985e-01 1.775816825748179617e-01 3.619937411723221365e-01 -2.309987878331038136e+00 1.328782906904780292e+00 3.426434253033889821e-01 4.286742307164363996e-01 3.187239279257912949e-01 5.704966199163015173e-01 3.059553335421063558e-01 4.454045144881061957e-01 -3.282311624853506138e-01 7.518561117547611916e-01 -1.414258395961130906e-02 9.408939653317501817e-01 1.623788180158085570e+00 -3.332907170095286142e-01 -1.109042854300477332e+00 2.939991620384970195e-01 6.298298950562186693e-01 9.501055554717113827e-01 3.546681538956942825e-01 7.238423242178523287e-01 3.587344577682733959e-01 2.435524584666773351e-01 3.126249062522546418e-01 2.979197438262124464e-01 2.926518253355993582e-01 -1.834221560809765408e-03 9.250720160645263812e-01 9.288303124725091342e-01 3.140876821927698348e-01 4.393959403215083603e-01 -5.948910668568482829e-02 -3.886734818827176918e-02 5.091540725295431447e-01 2.094767719240659964e-01 4.035793801433156802e-01 7.271777645981553073e-01 7.219211953816275784e-01 3.292311626271892666e-01 2.770945813559440585e-01 3.441555842283570144e-01 3.079966128886714727e-01 9.949463359755729430e-02 2.978869431460898221e-01 3.306749530539299098e-01 2.326659244460236864e-01 2.213230599946928723e-01 4.801770345245146010e-01 8.475554257726339857e-01 9.625112583187959148e-01 5.567725534479528449e-01 2.630568929854465998e-01 3.555820172803247914e-01 -4.761886386041048330e-02 1.474526287930819080e-01 -1.092670225683569862e+00 3.045796053386451430e-01 5.581593048313054917e-01 2.823486258732760823e-01 6.152348549235926445e-01 1.067504059138497885e+00 3.485495107096193146e-01 8.240816824124345963e-02 3.383394253231110649e-01 2.578745353788763350e-01 7.349469423182016792e-01 3.697890803152046324e-01 -1.112765739804390808e-01 5.258513306287944111e-01 3.088670442546892492e-01 2.890780043125725784e-01 3.645623896246835693e-01 2.893788209287888047e-01 1.659810169254726520e-01 2.313975180801442766e-01 3.608728392337616775e-01 2.894804485286375240e-01 8.004693688161003129e-01 2.486835853325347900e-01 -1.205741342590131715e-01 7.422557620471206263e-01 3.489417847299307041e-01 2.503525550681684475e-01 2.795656739883956021e-01 1.072124781968141205e+00 -1.540888262442729507e-02 7.546442442281650065e-01 3.294307535323117708e-01 2.980101853613374430e-01 4.354695491582409872e-01 2.943038791527782250e-01 7.333906355996601123e-01 3.181643056132802405e-01 9.206523154283269283e-01 2.926069732608502227e-01 2.699633962686202038e-01 7.432282473580955617e-01 -1.646378933969966374e-02 -1.590544549886503178e+00 2.314119207357834274e-01 3.246865043272247897e-01 3.089437328228955559e-01 6.933722548810368203e-01 3.251501598943705162e-01 3.720840065454740220e-01 3.637406339985200798e-01 4.394622012517314658e-01 3.100780368430349210e-01 -1.347507175526857504e+00 6.367534741355030947e-01 3.308955530894175379e-01 3.385641150507157637e-01 3.168082019225513246e-01 6.974834611181087718e-01 3.095809521638663853e-01 4.055648402576109146e-01 3.221683334898300388e-01 9.825942916570189478e-01 4.359900248355341734e-01 4.010499759356596083e-01 1.080483135876721734e+00 4.104040633457710641e-01 1.650572180333368166e+00 3.030268481832196215e-01 3.572792234668208389e-01 7.615674941713330703e-01 3.196090028005155737e-01 2.394864498169183287e-01 -8.493651213272525036e-01 2.337016370779404772e-01 3.528987725848707346e-01 4.521619832257767757e-01 1.742349036139747842e-01 4.344171784894848010e-01 -5.971397998203363811e-01 1.522236006165702094e+00 -4.305570752733346440e-01 5.061960760994000941e-01 3.484285743587037243e-01 4.404678783616530757e-01 3.800449262474618339e-01 2.953968427070587377e-01 9.656188569681810607e-01 -7.828093288583046205e-02 3.539999537950927477e-01 -6.031983998980267048e-01 5.585031685318028183e-01 3.021688909333734019e-01 -1.947286692662137941e+00 2.039615813321786320e+00 3.130122690772235705e-01 3.136437059846289843e-01 -8.584415501877031840e-01 2.469627051298891873e-01 4.405045534993410478e-03 3.301625895306088410e-01 3.250193599277529932e-01 5.700164567418335437e-01 3.828703331656299058e-01 3.248485456494638601e-01 1.775816268944412635e-01 3.463530216286854202e-01 3.119099112273150953e-01 -8.772171191911420918e-01 3.443330499325845673e-01 -4.590065442473597046e-01 3.105076154015050105e-01 -1.026826269089319357e-02 3.219964471662630778e-01 2.755079853633253251e-01 4.282982828931220509e-01 4.011488659590493056e-01 3.219144514923301115e-01 3.025405250805119906e-01 3.488025112095446412e-01 2.772378740308454326e-01 3.047006824246072387e-01 -7.074495932982448609e-01 1.372335387494002246e-01 1.278068386738234974e+00 -2.356220391663235714e-03 2.791794578772051616e-01 2.752698976352916937e-01 1.207735188225707246e+00 3.428877536924593850e-01 2.522032255785157662e-01 9.258766590504005078e-01 1.525536659593312305e-01 1.245812172473781398e+00 3.414314313813726076e-01 3.055755153802446888e-01 3.233471459138457793e-01 4.734687740887605356e-01 1.192578438440340616e+00 3.927837708590976584e-01 3.144629995241474130e-01 4.871904133734593079e-01 4.607812415842849063e-01 7.883415283206525459e-02 -2.888569113909424946e-01 3.799875553242035298e-01 6.101043176996164830e-01 1.719528623957341795e-01 4.549421056609724290e-01 1.285440818774706562e-03 1.244249913940158159e+00 2.489456580314574619e-01 3.277000922053482368e-01 -1.809760178018714916e+00 3.469855778691028902e-01 3.024286556342550836e-01 3.651074573450943661e-01 -6.077938877603983325e-02 2.874518082816474585e-01 -2.179629821166926551e-01 1.421560091118255487e-01 3.466638640285200079e-01 3.006287398214096962e-01 1.096025073008420669e+00 1.501327727244994859e-01 2.924643174734470330e-01 -1.058277599963911575e+00 1.907952255384028906e-01 7.985580094296554909e-01 7.900506386443264528e-01 3.015955161578550148e-01 -2.297225613107001796e-01 7.720932075900867053e-01 4.025701009567320687e-01 2.998658411482691410e-01 3.008597429924880773e-01 6.267145207893122238e-01 7.823024288134300397e-01 3.168544425609915449e-01 4.775752663633630046e-01 3.131101269764128281e-01 6.094306987993678426e-01 5.069439842638671090e-01 -1.310185971827872331e+00 3.007749959579579802e-01 4.248430960184284427e-02 4.592960224338409336e-01 3.130635126926922251e-01 3.046253665573530056e-01 3.635067039302875003e-01 3.031562994404081723e-01 4.114690691496396546e-01 2.606969680332928974e-01 3.306610252205415823e-01 4.080555889018884219e-01 2.920417414154080626e-01 -2.603799247704180475e-01 3.399280174558956258e-01 2.907245459982987779e-01 3.572748018409122595e-01 2.412975048395977762e-01 2.827814925223315901e-01 4.038789552534304828e-01 3.633511524330929054e-01 7.180077537921870645e-01 4.604142096377554227e-01 3.675171687341663995e-01 3.168649113267660855e-01 -1.592572153510774635e+00 3.417449336061216258e-01 3.731248120783924871e-01 2.919726250988502469e-01 3.635066455151140796e-01 2.694331525812605488e-01 2.081131542025940750e-01 2.925921590271374773e-01 3.041461710295209619e-01 2.008549979390731322e-01 3.042050663971676006e-01 3.072169147820076329e-01 4.650385277965825015e-01 2.982617624916515386e-01 3.071493073625674586e-01 3.378850844639405548e-01 4.217961421825959789e-01 3.201511503067530628e-01 2.759649230434391143e-01 4.247559150799292554e-02 3.406822098825624257e-01 3.753021546803557706e-01 4.042223855481374972e-02 -3.920384769133592462e-01 2.555177748739450028e+00 3.678603053319473015e-01 7.083371711550233707e-01 2.166901693774694049e-01 3.098486496085288144e-01 1.190285471180155819e+00 5.305516818388366085e-01 7.597694318533373403e-01 3.016164185849962154e-01
