# 
#                 ----------------------------------------------------
#                 Data from a 3D direct N-body simulation. 
# 
#                 rows are i-particle; 
#                 coumns are :mass, tag, x ,y, z, vx, vy, vz, ax, ay, az
# 
#                 NTHU, Computational Physics 
# 
#                 ----------------------------------------------------
#                 Time = 0.0
0.000000000000000000e+00 1.000000000000000000e+00 2.000000000000000000e+00 3.000000000000000000e+00 4.000000000000000000e+00 5.000000000000000000e+00 6.000000000000000000e+00 7.000000000000000000e+00 8.000000000000000000e+00 9.000000000000000000e+00 1.000000000000000000e+01 1.100000000000000000e+01 1.200000000000000000e+01 1.300000000000000000e+01 1.400000000000000000e+01 1.500000000000000000e+01 1.600000000000000000e+01 1.700000000000000000e+01 1.800000000000000000e+01 1.900000000000000000e+01 2.000000000000000000e+01 2.100000000000000000e+01 2.200000000000000000e+01 2.300000000000000000e+01 2.400000000000000000e+01 2.500000000000000000e+01 2.600000000000000000e+01 2.700000000000000000e+01 2.800000000000000000e+01 2.900000000000000000e+01 3.000000000000000000e+01 3.100000000000000000e+01 3.200000000000000000e+01 3.300000000000000000e+01 3.400000000000000000e+01 3.500000000000000000e+01 3.600000000000000000e+01 3.700000000000000000e+01 3.800000000000000000e+01 3.900000000000000000e+01 4.000000000000000000e+01 4.100000000000000000e+01 4.200000000000000000e+01 4.300000000000000000e+01 4.400000000000000000e+01 4.500000000000000000e+01 4.600000000000000000e+01 4.700000000000000000e+01 4.800000000000000000e+01 4.900000000000000000e+01 5.000000000000000000e+01 5.100000000000000000e+01 5.200000000000000000e+01 5.300000000000000000e+01 5.400000000000000000e+01 5.500000000000000000e+01 5.600000000000000000e+01 5.700000000000000000e+01 5.800000000000000000e+01 5.900000000000000000e+01 6.000000000000000000e+01 6.100000000000000000e+01 6.200000000000000000e+01 6.300000000000000000e+01 6.400000000000000000e+01 6.500000000000000000e+01 6.600000000000000000e+01 6.700000000000000000e+01 6.800000000000000000e+01 6.900000000000000000e+01 7.000000000000000000e+01 7.100000000000000000e+01 7.200000000000000000e+01 7.300000000000000000e+01 7.400000000000000000e+01 7.500000000000000000e+01 7.600000000000000000e+01 7.700000000000000000e+01 7.800000000000000000e+01 7.900000000000000000e+01 8.000000000000000000e+01 8.100000000000000000e+01 8.200000000000000000e+01 8.300000000000000000e+01 8.400000000000000000e+01 8.500000000000000000e+01 8.600000000000000000e+01 8.700000000000000000e+01 8.800000000000000000e+01 8.900000000000000000e+01 9.000000000000000000e+01 9.100000000000000000e+01 9.200000000000000000e+01 9.300000000000000000e+01 9.400000000000000000e+01 9.500000000000000000e+01 9.600000000000000000e+01 9.700000000000000000e+01 9.800000000000000000e+01 9.900000000000000000e+01 1.000000000000000000e+02 1.010000000000000000e+02 1.020000000000000000e+02 1.030000000000000000e+02 1.040000000000000000e+02 1.050000000000000000e+02 1.060000000000000000e+02 1.070000000000000000e+02 1.080000000000000000e+02 1.090000000000000000e+02 1.100000000000000000e+02 1.110000000000000000e+02 1.120000000000000000e+02 1.130000000000000000e+02 1.140000000000000000e+02 1.150000000000000000e+02 1.160000000000000000e+02 1.170000000000000000e+02 1.180000000000000000e+02 1.190000000000000000e+02 1.200000000000000000e+02 1.210000000000000000e+02 1.220000000000000000e+02 1.230000000000000000e+02 1.240000000000000000e+02 1.250000000000000000e+02 1.260000000000000000e+02 1.270000000000000000e+02 1.280000000000000000e+02 1.290000000000000000e+02 1.300000000000000000e+02 1.310000000000000000e+02 1.320000000000000000e+02 1.330000000000000000e+02 1.340000000000000000e+02 1.350000000000000000e+02 1.360000000000000000e+02 1.370000000000000000e+02 1.380000000000000000e+02 1.390000000000000000e+02 1.400000000000000000e+02 1.410000000000000000e+02 1.420000000000000000e+02 1.430000000000000000e+02 1.440000000000000000e+02 1.450000000000000000e+02 1.460000000000000000e+02 1.470000000000000000e+02 1.480000000000000000e+02 1.490000000000000000e+02 1.500000000000000000e+02 1.510000000000000000e+02 1.520000000000000000e+02 1.530000000000000000e+02 1.540000000000000000e+02 1.550000000000000000e+02 1.560000000000000000e+02 1.570000000000000000e+02 1.580000000000000000e+02 1.590000000000000000e+02 1.600000000000000000e+02 1.610000000000000000e+02 1.620000000000000000e+02 1.630000000000000000e+02 1.640000000000000000e+02 1.650000000000000000e+02 1.660000000000000000e+02 1.670000000000000000e+02 1.680000000000000000e+02 1.690000000000000000e+02 1.700000000000000000e+02 1.710000000000000000e+02 1.720000000000000000e+02 1.730000000000000000e+02 1.740000000000000000e+02 1.750000000000000000e+02 1.760000000000000000e+02 1.770000000000000000e+02 1.780000000000000000e+02 1.790000000000000000e+02 1.800000000000000000e+02 1.810000000000000000e+02 1.820000000000000000e+02 1.830000000000000000e+02 1.840000000000000000e+02 1.850000000000000000e+02 1.860000000000000000e+02 1.870000000000000000e+02 1.880000000000000000e+02 1.890000000000000000e+02 1.900000000000000000e+02 1.910000000000000000e+02 1.920000000000000000e+02 1.930000000000000000e+02 1.940000000000000000e+02 1.950000000000000000e+02 1.960000000000000000e+02 1.970000000000000000e+02 1.980000000000000000e+02 1.990000000000000000e+02 2.000000000000000000e+02 2.010000000000000000e+02 2.020000000000000000e+02 2.030000000000000000e+02 2.040000000000000000e+02 2.050000000000000000e+02 2.060000000000000000e+02 2.070000000000000000e+02 2.080000000000000000e+02 2.090000000000000000e+02 2.100000000000000000e+02 2.110000000000000000e+02 2.120000000000000000e+02 2.130000000000000000e+02 2.140000000000000000e+02 2.150000000000000000e+02 2.160000000000000000e+02 2.170000000000000000e+02 2.180000000000000000e+02 2.190000000000000000e+02 2.200000000000000000e+02 2.210000000000000000e+02 2.220000000000000000e+02 2.230000000000000000e+02 2.240000000000000000e+02 2.250000000000000000e+02 2.260000000000000000e+02 2.270000000000000000e+02 2.280000000000000000e+02 2.290000000000000000e+02 2.300000000000000000e+02 2.310000000000000000e+02 2.320000000000000000e+02 2.330000000000000000e+02 2.340000000000000000e+02 2.350000000000000000e+02 2.360000000000000000e+02 2.370000000000000000e+02 2.380000000000000000e+02 2.390000000000000000e+02 2.400000000000000000e+02 2.410000000000000000e+02 2.420000000000000000e+02 2.430000000000000000e+02 2.440000000000000000e+02 2.450000000000000000e+02 2.460000000000000000e+02 2.470000000000000000e+02 2.480000000000000000e+02 2.490000000000000000e+02 2.500000000000000000e+02 2.510000000000000000e+02 2.520000000000000000e+02 2.530000000000000000e+02 2.540000000000000000e+02 2.550000000000000000e+02 2.560000000000000000e+02 2.570000000000000000e+02 2.580000000000000000e+02 2.590000000000000000e+02 2.600000000000000000e+02 2.610000000000000000e+02 2.620000000000000000e+02 2.630000000000000000e+02 2.640000000000000000e+02 2.650000000000000000e+02 2.660000000000000000e+02 2.670000000000000000e+02 2.680000000000000000e+02 2.690000000000000000e+02 2.700000000000000000e+02 2.710000000000000000e+02 2.720000000000000000e+02 2.730000000000000000e+02 2.740000000000000000e+02 2.750000000000000000e+02 2.760000000000000000e+02 2.770000000000000000e+02 2.780000000000000000e+02 2.790000000000000000e+02 2.800000000000000000e+02 2.810000000000000000e+02 2.820000000000000000e+02 2.830000000000000000e+02 2.840000000000000000e+02 2.850000000000000000e+02 2.860000000000000000e+02 2.870000000000000000e+02 2.880000000000000000e+02 2.890000000000000000e+02 2.900000000000000000e+02 2.910000000000000000e+02 2.920000000000000000e+02 2.930000000000000000e+02 2.940000000000000000e+02 2.950000000000000000e+02 2.960000000000000000e+02 2.970000000000000000e+02 2.980000000000000000e+02 2.990000000000000000e+02 3.000000000000000000e+02 3.010000000000000000e+02 3.020000000000000000e+02 3.030000000000000000e+02 3.040000000000000000e+02 3.050000000000000000e+02 3.060000000000000000e+02 3.070000000000000000e+02 3.080000000000000000e+02 3.090000000000000000e+02 3.100000000000000000e+02 3.110000000000000000e+02 3.120000000000000000e+02 3.130000000000000000e+02 3.140000000000000000e+02 3.150000000000000000e+02 3.160000000000000000e+02 3.170000000000000000e+02 3.180000000000000000e+02 3.190000000000000000e+02 3.200000000000000000e+02 3.210000000000000000e+02 3.220000000000000000e+02 3.230000000000000000e+02 3.240000000000000000e+02 3.250000000000000000e+02 3.260000000000000000e+02 3.270000000000000000e+02 3.280000000000000000e+02 3.290000000000000000e+02 3.300000000000000000e+02 3.310000000000000000e+02 3.320000000000000000e+02 3.330000000000000000e+02 3.340000000000000000e+02 3.350000000000000000e+02 3.360000000000000000e+02 3.370000000000000000e+02 3.380000000000000000e+02 3.390000000000000000e+02 3.400000000000000000e+02 3.410000000000000000e+02 3.420000000000000000e+02 3.430000000000000000e+02 3.440000000000000000e+02 3.450000000000000000e+02 3.460000000000000000e+02 3.470000000000000000e+02 3.480000000000000000e+02 3.490000000000000000e+02 3.500000000000000000e+02 3.510000000000000000e+02 3.520000000000000000e+02 3.530000000000000000e+02 3.540000000000000000e+02 3.550000000000000000e+02 3.560000000000000000e+02 3.570000000000000000e+02 3.580000000000000000e+02 3.590000000000000000e+02 3.600000000000000000e+02 3.610000000000000000e+02 3.620000000000000000e+02 3.630000000000000000e+02 3.640000000000000000e+02 3.650000000000000000e+02 3.660000000000000000e+02 3.670000000000000000e+02 3.680000000000000000e+02 3.690000000000000000e+02 3.700000000000000000e+02 3.710000000000000000e+02 3.720000000000000000e+02 3.730000000000000000e+02 3.740000000000000000e+02 3.750000000000000000e+02 3.760000000000000000e+02 3.770000000000000000e+02 3.780000000000000000e+02 3.790000000000000000e+02 3.800000000000000000e+02 3.810000000000000000e+02 3.820000000000000000e+02 3.830000000000000000e+02 3.840000000000000000e+02 3.850000000000000000e+02 3.860000000000000000e+02 3.870000000000000000e+02 3.880000000000000000e+02 3.890000000000000000e+02 3.900000000000000000e+02 3.910000000000000000e+02 3.920000000000000000e+02 3.930000000000000000e+02 3.940000000000000000e+02 3.950000000000000000e+02 3.960000000000000000e+02 3.970000000000000000e+02 3.980000000000000000e+02 3.990000000000000000e+02 4.000000000000000000e+02 4.010000000000000000e+02 4.020000000000000000e+02 4.030000000000000000e+02 4.040000000000000000e+02 4.050000000000000000e+02 4.060000000000000000e+02 4.070000000000000000e+02 4.080000000000000000e+02 4.090000000000000000e+02 4.100000000000000000e+02 4.110000000000000000e+02 4.120000000000000000e+02 4.130000000000000000e+02 4.140000000000000000e+02 4.150000000000000000e+02 4.160000000000000000e+02 4.170000000000000000e+02 4.180000000000000000e+02 4.190000000000000000e+02 4.200000000000000000e+02 4.210000000000000000e+02 4.220000000000000000e+02 4.230000000000000000e+02 4.240000000000000000e+02 4.250000000000000000e+02 4.260000000000000000e+02 4.270000000000000000e+02 4.280000000000000000e+02 4.290000000000000000e+02 4.300000000000000000e+02 4.310000000000000000e+02 4.320000000000000000e+02 4.330000000000000000e+02 4.340000000000000000e+02 4.350000000000000000e+02 4.360000000000000000e+02 4.370000000000000000e+02 4.380000000000000000e+02 4.390000000000000000e+02 4.400000000000000000e+02 4.410000000000000000e+02 4.420000000000000000e+02 4.430000000000000000e+02 4.440000000000000000e+02 4.450000000000000000e+02 4.460000000000000000e+02 4.470000000000000000e+02 4.480000000000000000e+02 4.490000000000000000e+02 4.500000000000000000e+02 4.510000000000000000e+02 4.520000000000000000e+02 4.530000000000000000e+02 4.540000000000000000e+02 4.550000000000000000e+02 4.560000000000000000e+02 4.570000000000000000e+02 4.580000000000000000e+02 4.590000000000000000e+02 4.600000000000000000e+02 4.610000000000000000e+02 4.620000000000000000e+02 4.630000000000000000e+02 4.640000000000000000e+02 4.650000000000000000e+02 4.660000000000000000e+02 4.670000000000000000e+02 4.680000000000000000e+02 4.690000000000000000e+02 4.700000000000000000e+02 4.710000000000000000e+02 4.720000000000000000e+02 4.730000000000000000e+02 4.740000000000000000e+02 4.750000000000000000e+02 4.760000000000000000e+02 4.770000000000000000e+02 4.780000000000000000e+02 4.790000000000000000e+02 4.800000000000000000e+02 4.810000000000000000e+02 4.820000000000000000e+02 4.830000000000000000e+02 4.840000000000000000e+02 4.850000000000000000e+02 4.860000000000000000e+02 4.870000000000000000e+02 4.880000000000000000e+02 4.890000000000000000e+02 4.900000000000000000e+02 4.910000000000000000e+02 4.920000000000000000e+02 4.930000000000000000e+02 4.940000000000000000e+02 4.950000000000000000e+02 4.960000000000000000e+02 4.970000000000000000e+02 4.980000000000000000e+02 4.990000000000000000e+02 5.000000000000000000e+02 5.010000000000000000e+02 5.020000000000000000e+02 5.030000000000000000e+02 5.040000000000000000e+02 5.050000000000000000e+02 5.060000000000000000e+02 5.070000000000000000e+02 5.080000000000000000e+02 5.090000000000000000e+02 5.100000000000000000e+02 5.110000000000000000e+02 5.120000000000000000e+02 5.130000000000000000e+02 5.140000000000000000e+02 5.150000000000000000e+02 5.160000000000000000e+02 5.170000000000000000e+02 5.180000000000000000e+02 5.190000000000000000e+02 5.200000000000000000e+02 5.210000000000000000e+02 5.220000000000000000e+02 5.230000000000000000e+02 5.240000000000000000e+02 5.250000000000000000e+02 5.260000000000000000e+02 5.270000000000000000e+02 5.280000000000000000e+02 5.290000000000000000e+02 5.300000000000000000e+02 5.310000000000000000e+02 5.320000000000000000e+02 5.330000000000000000e+02 5.340000000000000000e+02 5.350000000000000000e+02 5.360000000000000000e+02 5.370000000000000000e+02 5.380000000000000000e+02 5.390000000000000000e+02 5.400000000000000000e+02 5.410000000000000000e+02 5.420000000000000000e+02 5.430000000000000000e+02 5.440000000000000000e+02 5.450000000000000000e+02 5.460000000000000000e+02 5.470000000000000000e+02 5.480000000000000000e+02 5.490000000000000000e+02 5.500000000000000000e+02 5.510000000000000000e+02 5.520000000000000000e+02 5.530000000000000000e+02 5.540000000000000000e+02 5.550000000000000000e+02 5.560000000000000000e+02 5.570000000000000000e+02 5.580000000000000000e+02 5.590000000000000000e+02 5.600000000000000000e+02 5.610000000000000000e+02 5.620000000000000000e+02 5.630000000000000000e+02 5.640000000000000000e+02 5.650000000000000000e+02 5.660000000000000000e+02 5.670000000000000000e+02 5.680000000000000000e+02 5.690000000000000000e+02 5.700000000000000000e+02 5.710000000000000000e+02 5.720000000000000000e+02 5.730000000000000000e+02 5.740000000000000000e+02 5.750000000000000000e+02 5.760000000000000000e+02 5.770000000000000000e+02 5.780000000000000000e+02 5.790000000000000000e+02 5.800000000000000000e+02 5.810000000000000000e+02 5.820000000000000000e+02 5.830000000000000000e+02 5.840000000000000000e+02 5.850000000000000000e+02 5.860000000000000000e+02 5.870000000000000000e+02 5.880000000000000000e+02 5.890000000000000000e+02 5.900000000000000000e+02 5.910000000000000000e+02 5.920000000000000000e+02 5.930000000000000000e+02 5.940000000000000000e+02 5.950000000000000000e+02 5.960000000000000000e+02 5.970000000000000000e+02 5.980000000000000000e+02 5.990000000000000000e+02 6.000000000000000000e+02 6.010000000000000000e+02 6.020000000000000000e+02 6.030000000000000000e+02 6.040000000000000000e+02 6.050000000000000000e+02 6.060000000000000000e+02 6.070000000000000000e+02 6.080000000000000000e+02 6.090000000000000000e+02 6.100000000000000000e+02 6.110000000000000000e+02 6.120000000000000000e+02 6.130000000000000000e+02 6.140000000000000000e+02 6.150000000000000000e+02 6.160000000000000000e+02 6.170000000000000000e+02 6.180000000000000000e+02 6.190000000000000000e+02 6.200000000000000000e+02 6.210000000000000000e+02 6.220000000000000000e+02 6.230000000000000000e+02 6.240000000000000000e+02 6.250000000000000000e+02 6.260000000000000000e+02 6.270000000000000000e+02 6.280000000000000000e+02 6.290000000000000000e+02 6.300000000000000000e+02 6.310000000000000000e+02 6.320000000000000000e+02 6.330000000000000000e+02 6.340000000000000000e+02 6.350000000000000000e+02 6.360000000000000000e+02 6.370000000000000000e+02 6.380000000000000000e+02 6.390000000000000000e+02 6.400000000000000000e+02 6.410000000000000000e+02 6.420000000000000000e+02 6.430000000000000000e+02 6.440000000000000000e+02 6.450000000000000000e+02 6.460000000000000000e+02 6.470000000000000000e+02 6.480000000000000000e+02 6.490000000000000000e+02 6.500000000000000000e+02 6.510000000000000000e+02 6.520000000000000000e+02 6.530000000000000000e+02 6.540000000000000000e+02 6.550000000000000000e+02 6.560000000000000000e+02 6.570000000000000000e+02 6.580000000000000000e+02 6.590000000000000000e+02 6.600000000000000000e+02 6.610000000000000000e+02 6.620000000000000000e+02 6.630000000000000000e+02 6.640000000000000000e+02 6.650000000000000000e+02 6.660000000000000000e+02 6.670000000000000000e+02 6.680000000000000000e+02 6.690000000000000000e+02 6.700000000000000000e+02 6.710000000000000000e+02 6.720000000000000000e+02 6.730000000000000000e+02 6.740000000000000000e+02 6.750000000000000000e+02 6.760000000000000000e+02 6.770000000000000000e+02 6.780000000000000000e+02 6.790000000000000000e+02 6.800000000000000000e+02 6.810000000000000000e+02 6.820000000000000000e+02 6.830000000000000000e+02 6.840000000000000000e+02 6.850000000000000000e+02 6.860000000000000000e+02 6.870000000000000000e+02 6.880000000000000000e+02 6.890000000000000000e+02 6.900000000000000000e+02 6.910000000000000000e+02 6.920000000000000000e+02 6.930000000000000000e+02 6.940000000000000000e+02 6.950000000000000000e+02 6.960000000000000000e+02 6.970000000000000000e+02 6.980000000000000000e+02 6.990000000000000000e+02 7.000000000000000000e+02 7.010000000000000000e+02 7.020000000000000000e+02 7.030000000000000000e+02 7.040000000000000000e+02 7.050000000000000000e+02 7.060000000000000000e+02 7.070000000000000000e+02 7.080000000000000000e+02 7.090000000000000000e+02 7.100000000000000000e+02 7.110000000000000000e+02 7.120000000000000000e+02 7.130000000000000000e+02 7.140000000000000000e+02 7.150000000000000000e+02 7.160000000000000000e+02 7.170000000000000000e+02 7.180000000000000000e+02 7.190000000000000000e+02 7.200000000000000000e+02 7.210000000000000000e+02 7.220000000000000000e+02 7.230000000000000000e+02 7.240000000000000000e+02 7.250000000000000000e+02 7.260000000000000000e+02 7.270000000000000000e+02 7.280000000000000000e+02 7.290000000000000000e+02 7.300000000000000000e+02 7.310000000000000000e+02 7.320000000000000000e+02 7.330000000000000000e+02 7.340000000000000000e+02 7.350000000000000000e+02 7.360000000000000000e+02 7.370000000000000000e+02 7.380000000000000000e+02 7.390000000000000000e+02 7.400000000000000000e+02 7.410000000000000000e+02 7.420000000000000000e+02 7.430000000000000000e+02 7.440000000000000000e+02 7.450000000000000000e+02 7.460000000000000000e+02 7.470000000000000000e+02 7.480000000000000000e+02 7.490000000000000000e+02 7.500000000000000000e+02 7.510000000000000000e+02 7.520000000000000000e+02 7.530000000000000000e+02 7.540000000000000000e+02 7.550000000000000000e+02 7.560000000000000000e+02 7.570000000000000000e+02 7.580000000000000000e+02 7.590000000000000000e+02 7.600000000000000000e+02 7.610000000000000000e+02 7.620000000000000000e+02 7.630000000000000000e+02 7.640000000000000000e+02 7.650000000000000000e+02 7.660000000000000000e+02 7.670000000000000000e+02 7.680000000000000000e+02 7.690000000000000000e+02 7.700000000000000000e+02 7.710000000000000000e+02 7.720000000000000000e+02 7.730000000000000000e+02 7.740000000000000000e+02 7.750000000000000000e+02 7.760000000000000000e+02 7.770000000000000000e+02 7.780000000000000000e+02 7.790000000000000000e+02 7.800000000000000000e+02 7.810000000000000000e+02 7.820000000000000000e+02 7.830000000000000000e+02 7.840000000000000000e+02 7.850000000000000000e+02 7.860000000000000000e+02 7.870000000000000000e+02 7.880000000000000000e+02 7.890000000000000000e+02 7.900000000000000000e+02 7.910000000000000000e+02 7.920000000000000000e+02 7.930000000000000000e+02 7.940000000000000000e+02 7.950000000000000000e+02 7.960000000000000000e+02 7.970000000000000000e+02 7.980000000000000000e+02 7.990000000000000000e+02 8.000000000000000000e+02 8.010000000000000000e+02 8.020000000000000000e+02 8.030000000000000000e+02 8.040000000000000000e+02 8.050000000000000000e+02 8.060000000000000000e+02 8.070000000000000000e+02 8.080000000000000000e+02 8.090000000000000000e+02 8.100000000000000000e+02 8.110000000000000000e+02 8.120000000000000000e+02 8.130000000000000000e+02 8.140000000000000000e+02 8.150000000000000000e+02 8.160000000000000000e+02 8.170000000000000000e+02 8.180000000000000000e+02 8.190000000000000000e+02 8.200000000000000000e+02 8.210000000000000000e+02 8.220000000000000000e+02 8.230000000000000000e+02 8.240000000000000000e+02 8.250000000000000000e+02 8.260000000000000000e+02 8.270000000000000000e+02 8.280000000000000000e+02 8.290000000000000000e+02 8.300000000000000000e+02 8.310000000000000000e+02 8.320000000000000000e+02 8.330000000000000000e+02 8.340000000000000000e+02 8.350000000000000000e+02 8.360000000000000000e+02 8.370000000000000000e+02 8.380000000000000000e+02 8.390000000000000000e+02 8.400000000000000000e+02 8.410000000000000000e+02 8.420000000000000000e+02 8.430000000000000000e+02 8.440000000000000000e+02 8.450000000000000000e+02 8.460000000000000000e+02 8.470000000000000000e+02 8.480000000000000000e+02 8.490000000000000000e+02 8.500000000000000000e+02 8.510000000000000000e+02 8.520000000000000000e+02 8.530000000000000000e+02 8.540000000000000000e+02 8.550000000000000000e+02 8.560000000000000000e+02 8.570000000000000000e+02 8.580000000000000000e+02 8.590000000000000000e+02 8.600000000000000000e+02 8.610000000000000000e+02 8.620000000000000000e+02 8.630000000000000000e+02 8.640000000000000000e+02 8.650000000000000000e+02 8.660000000000000000e+02 8.670000000000000000e+02 8.680000000000000000e+02 8.690000000000000000e+02 8.700000000000000000e+02 8.710000000000000000e+02 8.720000000000000000e+02 8.730000000000000000e+02 8.740000000000000000e+02 8.750000000000000000e+02 8.760000000000000000e+02 8.770000000000000000e+02 8.780000000000000000e+02 8.790000000000000000e+02 8.800000000000000000e+02 8.810000000000000000e+02 8.820000000000000000e+02 8.830000000000000000e+02 8.840000000000000000e+02 8.850000000000000000e+02 8.860000000000000000e+02 8.870000000000000000e+02 8.880000000000000000e+02 8.890000000000000000e+02 8.900000000000000000e+02 8.910000000000000000e+02 8.920000000000000000e+02 8.930000000000000000e+02 8.940000000000000000e+02 8.950000000000000000e+02 8.960000000000000000e+02 8.970000000000000000e+02 8.980000000000000000e+02 8.990000000000000000e+02 9.000000000000000000e+02 9.010000000000000000e+02 9.020000000000000000e+02 9.030000000000000000e+02 9.040000000000000000e+02 9.050000000000000000e+02 9.060000000000000000e+02 9.070000000000000000e+02 9.080000000000000000e+02 9.090000000000000000e+02 9.100000000000000000e+02 9.110000000000000000e+02 9.120000000000000000e+02 9.130000000000000000e+02 9.140000000000000000e+02 9.150000000000000000e+02 9.160000000000000000e+02 9.170000000000000000e+02 9.180000000000000000e+02 9.190000000000000000e+02 9.200000000000000000e+02 9.210000000000000000e+02 9.220000000000000000e+02 9.230000000000000000e+02 9.240000000000000000e+02 9.250000000000000000e+02 9.260000000000000000e+02 9.270000000000000000e+02 9.280000000000000000e+02 9.290000000000000000e+02 9.300000000000000000e+02 9.310000000000000000e+02 9.320000000000000000e+02 9.330000000000000000e+02 9.340000000000000000e+02 9.350000000000000000e+02 9.360000000000000000e+02 9.370000000000000000e+02 9.380000000000000000e+02 9.390000000000000000e+02 9.400000000000000000e+02 9.410000000000000000e+02 9.420000000000000000e+02 9.430000000000000000e+02 9.440000000000000000e+02 9.450000000000000000e+02 9.460000000000000000e+02 9.470000000000000000e+02 9.480000000000000000e+02 9.490000000000000000e+02 9.500000000000000000e+02 9.510000000000000000e+02 9.520000000000000000e+02 9.530000000000000000e+02 9.540000000000000000e+02 9.550000000000000000e+02 9.560000000000000000e+02 9.570000000000000000e+02 9.580000000000000000e+02 9.590000000000000000e+02 9.600000000000000000e+02 9.610000000000000000e+02 9.620000000000000000e+02 9.630000000000000000e+02 9.640000000000000000e+02 9.650000000000000000e+02 9.660000000000000000e+02 9.670000000000000000e+02 9.680000000000000000e+02 9.690000000000000000e+02 9.700000000000000000e+02 9.710000000000000000e+02 9.720000000000000000e+02 9.730000000000000000e+02 9.740000000000000000e+02 9.750000000000000000e+02 9.760000000000000000e+02 9.770000000000000000e+02 9.780000000000000000e+02 9.790000000000000000e+02 9.800000000000000000e+02 9.810000000000000000e+02 9.820000000000000000e+02 9.830000000000000000e+02 9.840000000000000000e+02 9.850000000000000000e+02 9.860000000000000000e+02 9.870000000000000000e+02 9.880000000000000000e+02 9.890000000000000000e+02 9.900000000000000000e+02 9.910000000000000000e+02 9.920000000000000000e+02 9.930000000000000000e+02 9.940000000000000000e+02 9.950000000000000000e+02 9.960000000000000000e+02 9.970000000000000000e+02 9.980000000000000000e+02 9.990000000000000000e+02
1.000000000000000000e+00 1.000000000000000000e+00 1.000000000000000000e+00 1.000000000000000000e+00 1.000000000000000000e+00 1.000000000000000000e+00 1.000000000000000000e+00 1.000000000000000000e+00 1.000000000000000000e+00 1.000000000000000000e+00 1.000000000000000000e+00 1.000000000000000000e+00 1.000000000000000000e+00 1.000000000000000000e+00 1.000000000000000000e+00 1.000000000000000000e+00 1.000000000000000000e+00 1.000000000000000000e+00 1.000000000000000000e+00 1.000000000000000000e+00 1.000000000000000000e+00 1.000000000000000000e+00 1.000000000000000000e+00 1.000000000000000000e+00 1.000000000000000000e+00 1.000000000000000000e+00 1.000000000000000000e+00 1.000000000000000000e+00 1.000000000000000000e+00 1.000000000000000000e+00 1.000000000000000000e+00 1.000000000000000000e+00 1.000000000000000000e+00 1.000000000000000000e+00 1.000000000000000000e+00 1.000000000000000000e+00 1.000000000000000000e+00 1.000000000000000000e+00 1.000000000000000000e+00 1.000000000000000000e+00 1.000000000000000000e+00 1.000000000000000000e+00 1.000000000000000000e+00 1.000000000000000000e+00 1.000000000000000000e+00 1.000000000000000000e+00 1.000000000000000000e+00 1.000000000000000000e+00 1.000000000000000000e+00 1.000000000000000000e+00 1.000000000000000000e+00 1.000000000000000000e+00 1.000000000000000000e+00 1.000000000000000000e+00 1.000000000000000000e+00 1.000000000000000000e+00 1.000000000000000000e+00 1.000000000000000000e+00 1.000000000000000000e+00 1.000000000000000000e+00 1.000000000000000000e+00 1.000000000000000000e+00 1.000000000000000000e+00 1.000000000000000000e+00 1.000000000000000000e+00 1.000000000000000000e+00 1.000000000000000000e+00 1.000000000000000000e+00 1.000000000000000000e+00 1.000000000000000000e+00 1.000000000000000000e+00 1.000000000000000000e+00 1.000000000000000000e+00 1.000000000000000000e+00 1.000000000000000000e+00 1.000000000000000000e+00 1.000000000000000000e+00 1.000000000000000000e+00 1.000000000000000000e+00 1.000000000000000000e+00 1.000000000000000000e+00 1.000000000000000000e+00 1.000000000000000000e+00 1.000000000000000000e+00 1.000000000000000000e+00 1.000000000000000000e+00 1.000000000000000000e+00 1.000000000000000000e+00 1.000000000000000000e+00 1.000000000000000000e+00 1.000000000000000000e+00 1.000000000000000000e+00 1.000000000000000000e+00 1.000000000000000000e+00 1.000000000000000000e+00 1.000000000000000000e+00 1.000000000000000000e+00 1.000000000000000000e+00 1.000000000000000000e+00 1.000000000000000000e+00 1.000000000000000000e+00 1.000000000000000000e+00 1.000000000000000000e+00 1.000000000000000000e+00 1.000000000000000000e+00 1.000000000000000000e+00 1.000000000000000000e+00 1.000000000000000000e+00 1.000000000000000000e+00 1.000000000000000000e+00 1.000000000000000000e+00 1.000000000000000000e+00 1.000000000000000000e+00 1.000000000000000000e+00 1.000000000000000000e+00 1.000000000000000000e+00 1.000000000000000000e+00 1.000000000000000000e+00 1.000000000000000000e+00 1.000000000000000000e+00 1.000000000000000000e+00 1.000000000000000000e+00 1.000000000000000000e+00 1.000000000000000000e+00 1.000000000000000000e+00 1.000000000000000000e+00 1.000000000000000000e+00 1.000000000000000000e+00 1.000000000000000000e+00 1.000000000000000000e+00 1.000000000000000000e+00 1.000000000000000000e+00 1.000000000000000000e+00 1.000000000000000000e+00 1.000000000000000000e+00 1.000000000000000000e+00 1.000000000000000000e+00 1.000000000000000000e+00 1.000000000000000000e+00 1.000000000000000000e+00 1.000000000000000000e+00 1.000000000000000000e+00 1.000000000000000000e+00 1.000000000000000000e+00 1.000000000000000000e+00 1.000000000000000000e+00 1.000000000000000000e+00 1.000000000000000000e+00 1.000000000000000000e+00 1.000000000000000000e+00 1.000000000000000000e+00 1.000000000000000000e+00 1.000000000000000000e+00 1.000000000000000000e+00 1.000000000000000000e+00 1.000000000000000000e+00 1.000000000000000000e+00 1.000000000000000000e+00 1.000000000000000000e+00 1.000000000000000000e+00 1.000000000000000000e+00 1.000000000000000000e+00 1.000000000000000000e+00 1.000000000000000000e+00 1.000000000000000000e+00 1.000000000000000000e+00 1.000000000000000000e+00 1.000000000000000000e+00 1.000000000000000000e+00 1.000000000000000000e+00 1.000000000000000000e+00 1.000000000000000000e+00 1.000000000000000000e+00 1.000000000000000000e+00 1.000000000000000000e+00 1.000000000000000000e+00 1.000000000000000000e+00 1.000000000000000000e+00 1.000000000000000000e+00 1.000000000000000000e+00 1.000000000000000000e+00 1.000000000000000000e+00 1.000000000000000000e+00 1.000000000000000000e+00 1.000000000000000000e+00 1.000000000000000000e+00 1.000000000000000000e+00 1.000000000000000000e+00 1.000000000000000000e+00 1.000000000000000000e+00 1.000000000000000000e+00 1.000000000000000000e+00 1.000000000000000000e+00 1.000000000000000000e+00 1.000000000000000000e+00 1.000000000000000000e+00 1.000000000000000000e+00 1.000000000000000000e+00 1.000000000000000000e+00 1.000000000000000000e+00 1.000000000000000000e+00 1.000000000000000000e+00 1.000000000000000000e+00 1.000000000000000000e+00 1.000000000000000000e+00 1.000000000000000000e+00 1.000000000000000000e+00 1.000000000000000000e+00 1.000000000000000000e+00 1.000000000000000000e+00 1.000000000000000000e+00 1.000000000000000000e+00 1.000000000000000000e+00 1.000000000000000000e+00 1.000000000000000000e+00 1.000000000000000000e+00 1.000000000000000000e+00 1.000000000000000000e+00 1.000000000000000000e+00 1.000000000000000000e+00 1.000000000000000000e+00 1.000000000000000000e+00 1.000000000000000000e+00 1.000000000000000000e+00 1.000000000000000000e+00 1.000000000000000000e+00 1.000000000000000000e+00 1.000000000000000000e+00 1.000000000000000000e+00 1.000000000000000000e+00 1.000000000000000000e+00 1.000000000000000000e+00 1.000000000000000000e+00 1.000000000000000000e+00 1.000000000000000000e+00 1.000000000000000000e+00 1.000000000000000000e+00 1.000000000000000000e+00 1.000000000000000000e+00 1.000000000000000000e+00 1.000000000000000000e+00 1.000000000000000000e+00 1.000000000000000000e+00 1.000000000000000000e+00 1.000000000000000000e+00 1.000000000000000000e+00 1.000000000000000000e+00 1.000000000000000000e+00 1.000000000000000000e+00 1.000000000000000000e+00 1.000000000000000000e+00 1.000000000000000000e+00 1.000000000000000000e+00 1.000000000000000000e+00 1.000000000000000000e+00 1.000000000000000000e+00 1.000000000000000000e+00 1.000000000000000000e+00 1.000000000000000000e+00 1.000000000000000000e+00 1.000000000000000000e+00 1.000000000000000000e+00 1.000000000000000000e+00 1.000000000000000000e+00 1.000000000000000000e+00 1.000000000000000000e+00 1.000000000000000000e+00 1.000000000000000000e+00 1.000000000000000000e+00 1.000000000000000000e+00 1.000000000000000000e+00 1.000000000000000000e+00 1.000000000000000000e+00 1.000000000000000000e+00 1.000000000000000000e+00 1.000000000000000000e+00 1.000000000000000000e+00 1.000000000000000000e+00 1.000000000000000000e+00 1.000000000000000000e+00 1.000000000000000000e+00 1.000000000000000000e+00 1.000000000000000000e+00 1.000000000000000000e+00 1.000000000000000000e+00 1.000000000000000000e+00 1.000000000000000000e+00 1.000000000000000000e+00 1.000000000000000000e+00 1.000000000000000000e+00 1.000000000000000000e+00 1.000000000000000000e+00 1.000000000000000000e+00 1.000000000000000000e+00 1.000000000000000000e+00 1.000000000000000000e+00 1.000000000000000000e+00 1.000000000000000000e+00 1.000000000000000000e+00 1.000000000000000000e+00 1.000000000000000000e+00 1.000000000000000000e+00 1.000000000000000000e+00 1.000000000000000000e+00 1.000000000000000000e+00 1.000000000000000000e+00 1.000000000000000000e+00 1.000000000000000000e+00 1.000000000000000000e+00 1.000000000000000000e+00 1.000000000000000000e+00 1.000000000000000000e+00 1.000000000000000000e+00 1.000000000000000000e+00 1.000000000000000000e+00 1.000000000000000000e+00 1.000000000000000000e+00 1.000000000000000000e+00 1.000000000000000000e+00 1.000000000000000000e+00 1.000000000000000000e+00 1.000000000000000000e+00 1.000000000000000000e+00 1.000000000000000000e+00 1.000000000000000000e+00 1.000000000000000000e+00 1.000000000000000000e+00 1.000000000000000000e+00 1.000000000000000000e+00 1.000000000000000000e+00 1.000000000000000000e+00 1.000000000000000000e+00 1.000000000000000000e+00 1.000000000000000000e+00 1.000000000000000000e+00 1.000000000000000000e+00 1.000000000000000000e+00 1.000000000000000000e+00 1.000000000000000000e+00 1.000000000000000000e+00 1.000000000000000000e+00 1.000000000000000000e+00 1.000000000000000000e+00 1.000000000000000000e+00 1.000000000000000000e+00 1.000000000000000000e+00 1.000000000000000000e+00 1.000000000000000000e+00 1.000000000000000000e+00 1.000000000000000000e+00 1.000000000000000000e+00 1.000000000000000000e+00 1.000000000000000000e+00 1.000000000000000000e+00 1.000000000000000000e+00 1.000000000000000000e+00 1.000000000000000000e+00 1.000000000000000000e+00 1.000000000000000000e+00 1.000000000000000000e+00 1.000000000000000000e+00 1.000000000000000000e+00 1.000000000000000000e+00 1.000000000000000000e+00 1.000000000000000000e+00 1.000000000000000000e+00 1.000000000000000000e+00 1.000000000000000000e+00 1.000000000000000000e+00 1.000000000000000000e+00 1.000000000000000000e+00 1.000000000000000000e+00 1.000000000000000000e+00 1.000000000000000000e+00 1.000000000000000000e+00 1.000000000000000000e+00 1.000000000000000000e+00 1.000000000000000000e+00 1.000000000000000000e+00 1.000000000000000000e+00 1.000000000000000000e+00 1.000000000000000000e+00 1.000000000000000000e+00 1.000000000000000000e+00 1.000000000000000000e+00 1.000000000000000000e+00 1.000000000000000000e+00 1.000000000000000000e+00 1.000000000000000000e+00 1.000000000000000000e+00 1.000000000000000000e+00 1.000000000000000000e+00 1.000000000000000000e+00 1.000000000000000000e+00 1.000000000000000000e+00 1.000000000000000000e+00 1.000000000000000000e+00 1.000000000000000000e+00 1.000000000000000000e+00 1.000000000000000000e+00 1.000000000000000000e+00 1.000000000000000000e+00 1.000000000000000000e+00 1.000000000000000000e+00 1.000000000000000000e+00 1.000000000000000000e+00 1.000000000000000000e+00 1.000000000000000000e+00 1.000000000000000000e+00 1.000000000000000000e+00 1.000000000000000000e+00 1.000000000000000000e+00 1.000000000000000000e+00 1.000000000000000000e+00 1.000000000000000000e+00 1.000000000000000000e+00 1.000000000000000000e+00 1.000000000000000000e+00 1.000000000000000000e+00 1.000000000000000000e+00 1.000000000000000000e+00 1.000000000000000000e+00 1.000000000000000000e+00 1.000000000000000000e+00 1.000000000000000000e+00 1.000000000000000000e+00 1.000000000000000000e+00 1.000000000000000000e+00 1.000000000000000000e+00 1.000000000000000000e+00 1.000000000000000000e+00 1.000000000000000000e+00 1.000000000000000000e+00 1.000000000000000000e+00 1.000000000000000000e+00 1.000000000000000000e+00 1.000000000000000000e+00 1.000000000000000000e+00 1.000000000000000000e+00 1.000000000000000000e+00 1.000000000000000000e+00 1.000000000000000000e+00 1.000000000000000000e+00 1.000000000000000000e+00 1.000000000000000000e+00 1.000000000000000000e+00 1.000000000000000000e+00 1.000000000000000000e+00 1.000000000000000000e+00 1.000000000000000000e+00 1.000000000000000000e+00 1.000000000000000000e+00 1.000000000000000000e+00 1.000000000000000000e+00 1.000000000000000000e+00 1.000000000000000000e+00 1.000000000000000000e+00 1.000000000000000000e+00 1.000000000000000000e+00 1.000000000000000000e+00 1.000000000000000000e+00 1.000000000000000000e+00 1.000000000000000000e+00 1.000000000000000000e+00 1.000000000000000000e+00 1.000000000000000000e+00 1.000000000000000000e+00 1.000000000000000000e+00 1.000000000000000000e+00 1.000000000000000000e+00 1.000000000000000000e+00 1.000000000000000000e+00 1.000000000000000000e+00 1.000000000000000000e+00 1.000000000000000000e+00 1.000000000000000000e+00 1.000000000000000000e+00 1.000000000000000000e+00 1.000000000000000000e+00 1.000000000000000000e+00 1.000000000000000000e+00 1.000000000000000000e+00 1.000000000000000000e+00 1.000000000000000000e+00 1.000000000000000000e+00 1.000000000000000000e+00 1.000000000000000000e+00 1.000000000000000000e+00 1.000000000000000000e+00 1.000000000000000000e+00 1.000000000000000000e+00 1.000000000000000000e+00 1.000000000000000000e+00 1.000000000000000000e+00 1.000000000000000000e+00 1.000000000000000000e+00 1.000000000000000000e+00 1.000000000000000000e+00 1.000000000000000000e+00 1.000000000000000000e+00 1.000000000000000000e+00 1.000000000000000000e+00 1.000000000000000000e+00 1.000000000000000000e+00 1.000000000000000000e+00 1.000000000000000000e+00 1.000000000000000000e+00 1.000000000000000000e+00 1.000000000000000000e+00 1.000000000000000000e+00 1.000000000000000000e+00 1.000000000000000000e+00 1.000000000000000000e+00 1.000000000000000000e+00 1.000000000000000000e+00 1.000000000000000000e+00 1.000000000000000000e+00 1.000000000000000000e+00 1.000000000000000000e+00 1.000000000000000000e+00 1.000000000000000000e+00 1.000000000000000000e+00 1.000000000000000000e+00 1.000000000000000000e+00 1.000000000000000000e+00 1.000000000000000000e+00 1.000000000000000000e+00 1.000000000000000000e+00 1.000000000000000000e+00 1.000000000000000000e+00 1.000000000000000000e+00 1.000000000000000000e+00 1.000000000000000000e+00 1.000000000000000000e+00 1.000000000000000000e+00 1.000000000000000000e+00 1.000000000000000000e+00 1.000000000000000000e+00 1.000000000000000000e+00 1.000000000000000000e+00 1.000000000000000000e+00 1.000000000000000000e+00 1.000000000000000000e+00 1.000000000000000000e+00 1.000000000000000000e+00 1.000000000000000000e+00 1.000000000000000000e+00 1.000000000000000000e+00 1.000000000000000000e+00 1.000000000000000000e+00 1.000000000000000000e+00 1.000000000000000000e+00 1.000000000000000000e+00 1.000000000000000000e+00 1.000000000000000000e+00 1.000000000000000000e+00 1.000000000000000000e+00 1.000000000000000000e+00 1.000000000000000000e+00 1.000000000000000000e+00 1.000000000000000000e+00 1.000000000000000000e+00 1.000000000000000000e+00 1.000000000000000000e+00 1.000000000000000000e+00 1.000000000000000000e+00 1.000000000000000000e+00 1.000000000000000000e+00 1.000000000000000000e+00 1.000000000000000000e+00 1.000000000000000000e+00 1.000000000000000000e+00 1.000000000000000000e+00 1.000000000000000000e+00 1.000000000000000000e+00 1.000000000000000000e+00 1.000000000000000000e+00 1.000000000000000000e+00 1.000000000000000000e+00 1.000000000000000000e+00 1.000000000000000000e+00 1.000000000000000000e+00 1.000000000000000000e+00 1.000000000000000000e+00 1.000000000000000000e+00 1.000000000000000000e+00 1.000000000000000000e+00 1.000000000000000000e+00 1.000000000000000000e+00 1.000000000000000000e+00 1.000000000000000000e+00 1.000000000000000000e+00 1.000000000000000000e+00 1.000000000000000000e+00 1.000000000000000000e+00 1.000000000000000000e+00 1.000000000000000000e+00 1.000000000000000000e+00 1.000000000000000000e+00 1.000000000000000000e+00 1.000000000000000000e+00 1.000000000000000000e+00 1.000000000000000000e+00 1.000000000000000000e+00 1.000000000000000000e+00 1.000000000000000000e+00 1.000000000000000000e+00 1.000000000000000000e+00 1.000000000000000000e+00 1.000000000000000000e+00 1.000000000000000000e+00 1.000000000000000000e+00 1.000000000000000000e+00 1.000000000000000000e+00 1.000000000000000000e+00 1.000000000000000000e+00 1.000000000000000000e+00 1.000000000000000000e+00 1.000000000000000000e+00 1.000000000000000000e+00 1.000000000000000000e+00 1.000000000000000000e+00 1.000000000000000000e+00 1.000000000000000000e+00 1.000000000000000000e+00 1.000000000000000000e+00 1.000000000000000000e+00 1.000000000000000000e+00 1.000000000000000000e+00 1.000000000000000000e+00 1.000000000000000000e+00 1.000000000000000000e+00 1.000000000000000000e+00 1.000000000000000000e+00 1.000000000000000000e+00 1.000000000000000000e+00 1.000000000000000000e+00 1.000000000000000000e+00 1.000000000000000000e+00 1.000000000000000000e+00 1.000000000000000000e+00 1.000000000000000000e+00 1.000000000000000000e+00 1.000000000000000000e+00 1.000000000000000000e+00 1.000000000000000000e+00 1.000000000000000000e+00 1.000000000000000000e+00 1.000000000000000000e+00 1.000000000000000000e+00 1.000000000000000000e+00 1.000000000000000000e+00 1.000000000000000000e+00 1.000000000000000000e+00 1.000000000000000000e+00 1.000000000000000000e+00 1.000000000000000000e+00 1.000000000000000000e+00 1.000000000000000000e+00 1.000000000000000000e+00 1.000000000000000000e+00 1.000000000000000000e+00 1.000000000000000000e+00 1.000000000000000000e+00 1.000000000000000000e+00 1.000000000000000000e+00 1.000000000000000000e+00 1.000000000000000000e+00 1.000000000000000000e+00 1.000000000000000000e+00 1.000000000000000000e+00 1.000000000000000000e+00 1.000000000000000000e+00 1.000000000000000000e+00 1.000000000000000000e+00 1.000000000000000000e+00 1.000000000000000000e+00 1.000000000000000000e+00 1.000000000000000000e+00 1.000000000000000000e+00 1.000000000000000000e+00 1.000000000000000000e+00 1.000000000000000000e+00 1.000000000000000000e+00 1.000000000000000000e+00 1.000000000000000000e+00 1.000000000000000000e+00 1.000000000000000000e+00 1.000000000000000000e+00 1.000000000000000000e+00 1.000000000000000000e+00 1.000000000000000000e+00 1.000000000000000000e+00 1.000000000000000000e+00 1.000000000000000000e+00 1.000000000000000000e+00 1.000000000000000000e+00 1.000000000000000000e+00 1.000000000000000000e+00 1.000000000000000000e+00 1.000000000000000000e+00 1.000000000000000000e+00 1.000000000000000000e+00 1.000000000000000000e+00 1.000000000000000000e+00 1.000000000000000000e+00 1.000000000000000000e+00 1.000000000000000000e+00 1.000000000000000000e+00 1.000000000000000000e+00 1.000000000000000000e+00 1.000000000000000000e+00 1.000000000000000000e+00 1.000000000000000000e+00 1.000000000000000000e+00 1.000000000000000000e+00 1.000000000000000000e+00 1.000000000000000000e+00 1.000000000000000000e+00 1.000000000000000000e+00 1.000000000000000000e+00 1.000000000000000000e+00 1.000000000000000000e+00 1.000000000000000000e+00 1.000000000000000000e+00 1.000000000000000000e+00 1.000000000000000000e+00 1.000000000000000000e+00 1.000000000000000000e+00 1.000000000000000000e+00 1.000000000000000000e+00 1.000000000000000000e+00 1.000000000000000000e+00 1.000000000000000000e+00 1.000000000000000000e+00 1.000000000000000000e+00 1.000000000000000000e+00 1.000000000000000000e+00 1.000000000000000000e+00 1.000000000000000000e+00 1.000000000000000000e+00 1.000000000000000000e+00 1.000000000000000000e+00 1.000000000000000000e+00 1.000000000000000000e+00 1.000000000000000000e+00 1.000000000000000000e+00 1.000000000000000000e+00 1.000000000000000000e+00 1.000000000000000000e+00 1.000000000000000000e+00 1.000000000000000000e+00 1.000000000000000000e+00 1.000000000000000000e+00 1.000000000000000000e+00 1.000000000000000000e+00 1.000000000000000000e+00 1.000000000000000000e+00 1.000000000000000000e+00 1.000000000000000000e+00 1.000000000000000000e+00 1.000000000000000000e+00 1.000000000000000000e+00 1.000000000000000000e+00 1.000000000000000000e+00 1.000000000000000000e+00 1.000000000000000000e+00 1.000000000000000000e+00 1.000000000000000000e+00 1.000000000000000000e+00 1.000000000000000000e+00 1.000000000000000000e+00 1.000000000000000000e+00 1.000000000000000000e+00 1.000000000000000000e+00 1.000000000000000000e+00 1.000000000000000000e+00 1.000000000000000000e+00 1.000000000000000000e+00 1.000000000000000000e+00 1.000000000000000000e+00 1.000000000000000000e+00 1.000000000000000000e+00 1.000000000000000000e+00 1.000000000000000000e+00 1.000000000000000000e+00 1.000000000000000000e+00 1.000000000000000000e+00 1.000000000000000000e+00 1.000000000000000000e+00 1.000000000000000000e+00 1.000000000000000000e+00 1.000000000000000000e+00 1.000000000000000000e+00 1.000000000000000000e+00 1.000000000000000000e+00 1.000000000000000000e+00 1.000000000000000000e+00 1.000000000000000000e+00 1.000000000000000000e+00 1.000000000000000000e+00 1.000000000000000000e+00 1.000000000000000000e+00 1.000000000000000000e+00 1.000000000000000000e+00 1.000000000000000000e+00 1.000000000000000000e+00 1.000000000000000000e+00 1.000000000000000000e+00 1.000000000000000000e+00 1.000000000000000000e+00 1.000000000000000000e+00 1.000000000000000000e+00 1.000000000000000000e+00 1.000000000000000000e+00 1.000000000000000000e+00 1.000000000000000000e+00 1.000000000000000000e+00 1.000000000000000000e+00 1.000000000000000000e+00 1.000000000000000000e+00 1.000000000000000000e+00 1.000000000000000000e+00 1.000000000000000000e+00 1.000000000000000000e+00 1.000000000000000000e+00 1.000000000000000000e+00 1.000000000000000000e+00 1.000000000000000000e+00 1.000000000000000000e+00 1.000000000000000000e+00 1.000000000000000000e+00 1.000000000000000000e+00 1.000000000000000000e+00 1.000000000000000000e+00 1.000000000000000000e+00 1.000000000000000000e+00 1.000000000000000000e+00 1.000000000000000000e+00 1.000000000000000000e+00 1.000000000000000000e+00 1.000000000000000000e+00 1.000000000000000000e+00 1.000000000000000000e+00 1.000000000000000000e+00 1.000000000000000000e+00 1.000000000000000000e+00 1.000000000000000000e+00 1.000000000000000000e+00 1.000000000000000000e+00 1.000000000000000000e+00 1.000000000000000000e+00 1.000000000000000000e+00 1.000000000000000000e+00 1.000000000000000000e+00 1.000000000000000000e+00 1.000000000000000000e+00 1.000000000000000000e+00 1.000000000000000000e+00 1.000000000000000000e+00 1.000000000000000000e+00 1.000000000000000000e+00 1.000000000000000000e+00 1.000000000000000000e+00 1.000000000000000000e+00 1.000000000000000000e+00 1.000000000000000000e+00 1.000000000000000000e+00 1.000000000000000000e+00 1.000000000000000000e+00 1.000000000000000000e+00 1.000000000000000000e+00 1.000000000000000000e+00 1.000000000000000000e+00 1.000000000000000000e+00 1.000000000000000000e+00 1.000000000000000000e+00 1.000000000000000000e+00 1.000000000000000000e+00 1.000000000000000000e+00 1.000000000000000000e+00 1.000000000000000000e+00 1.000000000000000000e+00 1.000000000000000000e+00 1.000000000000000000e+00 1.000000000000000000e+00 1.000000000000000000e+00 1.000000000000000000e+00 1.000000000000000000e+00 1.000000000000000000e+00 1.000000000000000000e+00 1.000000000000000000e+00 1.000000000000000000e+00 1.000000000000000000e+00 1.000000000000000000e+00 1.000000000000000000e+00 1.000000000000000000e+00 1.000000000000000000e+00 1.000000000000000000e+00 1.000000000000000000e+00 1.000000000000000000e+00 1.000000000000000000e+00 1.000000000000000000e+00 1.000000000000000000e+00 1.000000000000000000e+00 1.000000000000000000e+00 1.000000000000000000e+00 1.000000000000000000e+00 1.000000000000000000e+00 1.000000000000000000e+00 1.000000000000000000e+00 1.000000000000000000e+00 1.000000000000000000e+00 1.000000000000000000e+00 1.000000000000000000e+00 1.000000000000000000e+00 1.000000000000000000e+00 1.000000000000000000e+00 1.000000000000000000e+00 1.000000000000000000e+00 1.000000000000000000e+00 1.000000000000000000e+00 1.000000000000000000e+00 1.000000000000000000e+00 1.000000000000000000e+00 1.000000000000000000e+00 1.000000000000000000e+00 1.000000000000000000e+00 1.000000000000000000e+00 1.000000000000000000e+00 1.000000000000000000e+00 1.000000000000000000e+00 1.000000000000000000e+00 1.000000000000000000e+00 1.000000000000000000e+00 1.000000000000000000e+00 1.000000000000000000e+00 1.000000000000000000e+00 1.000000000000000000e+00 1.000000000000000000e+00 1.000000000000000000e+00 1.000000000000000000e+00 1.000000000000000000e+00 1.000000000000000000e+00 1.000000000000000000e+00 1.000000000000000000e+00 1.000000000000000000e+00 1.000000000000000000e+00 1.000000000000000000e+00 1.000000000000000000e+00 1.000000000000000000e+00 1.000000000000000000e+00 1.000000000000000000e+00 1.000000000000000000e+00 1.000000000000000000e+00 1.000000000000000000e+00 1.000000000000000000e+00 1.000000000000000000e+00 1.000000000000000000e+00 1.000000000000000000e+00 1.000000000000000000e+00 1.000000000000000000e+00 1.000000000000000000e+00 1.000000000000000000e+00 1.000000000000000000e+00 1.000000000000000000e+00 1.000000000000000000e+00 1.000000000000000000e+00 1.000000000000000000e+00 1.000000000000000000e+00 1.000000000000000000e+00 1.000000000000000000e+00 1.000000000000000000e+00 1.000000000000000000e+00 1.000000000000000000e+00 1.000000000000000000e+00 1.000000000000000000e+00 1.000000000000000000e+00 1.000000000000000000e+00 1.000000000000000000e+00 1.000000000000000000e+00 1.000000000000000000e+00 1.000000000000000000e+00 1.000000000000000000e+00 1.000000000000000000e+00 1.000000000000000000e+00 1.000000000000000000e+00 1.000000000000000000e+00 1.000000000000000000e+00 1.000000000000000000e+00 1.000000000000000000e+00 1.000000000000000000e+00 1.000000000000000000e+00 1.000000000000000000e+00 1.000000000000000000e+00 1.000000000000000000e+00 1.000000000000000000e+00 1.000000000000000000e+00 1.000000000000000000e+00 1.000000000000000000e+00
6.085507935784719574e-02 5.330003378552342630e-01 -2.940119204001893638e-01 7.803187881808926196e-01 5.208934892925429772e-01 5.569658554080840762e-01 5.660588780844683088e-01 4.098652251831902960e-01 5.671055462243851375e-01 5.222572367753934852e-01 1.087525428640913283e+00 -7.377671736492896759e-01 1.426586572456590485e+00 4.698846355481346992e-01 5.213428189320497008e-01 4.243108418354260003e-01 8.303895535632452862e-01 9.798335272404361529e-01 7.502639974012802471e-01 5.162030784803282035e-01 3.705396631554443987e-01 9.962756251105497896e-01 3.515784950359958638e-01 5.653669142630661781e-01 6.449425154177446107e-02 6.613915059485134806e-01 4.242743383272913893e-01 7.172552365237291339e-01 5.163239697823975849e-01 1.642247703252097013e+00 4.896434506824833832e-01 6.015789873805600374e-01 7.184532304039403794e-01 5.090570215757301842e-01 6.880489532240130490e-01 4.637051224969380159e-01 5.776997166972303033e-01 1.872001772501935335e+00 -9.681910362410689475e-02 5.083222925295979300e-01 -2.312248954959286451e-01 -5.622590257155916094e-01 7.455623830777704519e-01 2.318707398544188336e-01 3.304113252723397953e-01 4.944387141030229804e-01 7.799376820327004189e-01 5.465144470291956047e-01 6.826920841596013645e-01 9.245346002287024509e-03 3.817933920519624852e-02 7.495601943552897550e-01 6.839265775230124467e-01 4.159259640013376891e-01 4.672513891547036557e-01 2.370862900673970791e-02 5.727654751984107007e-01 5.041796491434205052e-01 2.018547371441489491e-01 5.471959022123614735e-01 9.304652901214105487e-01 4.501284487777543197e-01 4.941792514884825738e-01 3.515784220679741279e-01 6.744701624861700884e-01 6.652160234322255228e-01 5.158713147780271679e-01 4.478174275772322521e-01 5.477369217276343294e-01 5.014540727719919017e-02 4.745268145756234568e-01 5.943733740362077134e-01 5.244061481884410014e-01 1.666851712197309210e-02 1.530846816112113595e+00 5.254818531583644869e-01 6.393457862030607064e-01 7.135853639604938792e-01 5.202192627949254744e-01 1.389836097539568716e+00 5.403712931322757207e-01 3.653064709660912013e-01 1.457534145851022034e+00 7.702996306240440516e-01 5.232593430927906519e-01 7.502685793036745210e-01 7.959376382825749108e-01 5.121244143195324838e-01 4.276788906070794760e-01 5.768146868786809822e-01 3.339638810028716653e-01 2.247072247950080204e+00 7.902524113911624237e-01 6.734859071962444321e-02 4.819047586085294932e-01 5.240906539668983566e-01 5.592067556498452330e-01 4.857195005052152292e-01 1.904220654385602729e-01 6.586991546854732427e-01 1.652090855116151946e+00 6.871087433320927085e-01 5.030773919942814754e-01 5.552289849584128856e-01 8.527668885722092806e-01 -2.161690440223447141e+00 -1.257450891874398513e+00 5.074687226176587407e-01 6.285956930014160449e-01 9.671207123818250651e-01 5.912195349653035503e-01 4.181962951521852601e-01 1.880590759643266108e-01 5.137631203714103645e-01 5.294209966077174645e-01 5.081809694586025827e-01 4.517199156643530444e-01 4.853691188491753850e-01 1.014415088684245569e+00 5.101071626414883653e-01 1.321622967315032593e+00 5.346732959406265140e-01 6.501046878021135011e-01 -5.682617499142389450e-01 5.203269680451316770e-01 1.984922015278452134e+00 4.815156260065210359e-01 5.114945110401101225e-01 6.691376571920307770e-01 5.004355651516819714e-01 5.847850165104385711e-01 5.163611755984575113e-01 4.421078877709511135e-01 5.229803357856124268e-01 -4.002863948120218285e-01 -1.727206985627738056e-01 6.803244489618572866e-01 4.725741451929290488e-02 1.013280157139367255e+00 5.268523011083655616e-01 5.434073753898656101e-01 8.771347473672976847e-01 4.661417920825554062e-01 4.700706285189024114e-01 5.215345805096888165e-01 2.746464075443403804e-02 9.864809981888793544e-01 -1.931216313373363969e-01 4.182451161053322153e-01 -9.340932795302584468e-01 7.482218998245465658e-01 -2.816859076807615159e-01 4.944260701934085067e-01 5.190710265399139933e-01 5.619303721916713013e-01 5.260559522708589952e-01 2.059907661241697330e+00 -1.796399445169827025e-01 8.295548008030945164e-01 6.517561440372844350e-01 5.650929626133154304e-01 4.703057946575605053e-01 5.137487063128406417e-01 5.228901609601995792e-01 1.063228579613414659e+00 2.654697101996756903e-01 8.521153510048364854e-01 2.955223092825308706e-01 3.800169415988794430e-01 6.247463394894641198e-01 6.292296887945152406e-01 7.818079935579250739e-01 4.944585172429533659e-01 5.200984405190069992e-01 4.023862324479689501e-01 4.404769920957453400e-02 2.281909612065942949e-01 1.147372034747357050e-01 7.595697911952309367e-01 1.144441812113140777e+00 6.584110454013688551e-01 5.203732988175973073e-01 -1.639551186563395768e-01 4.492798500910021864e-01 4.244356112334762843e-01 5.138791104853575042e-01 5.328313351837906664e-01 5.028434489597002344e-01 2.887096528874818269e+00 4.760877812157141564e-01 5.738845497134404949e-01 -9.325899883504533694e-01 5.136170409448145291e-01 4.955610139090249611e-01 2.044571452676565149e-01 5.162559845058346530e-01 9.485667013421161808e-01 5.351620977786600841e-01 4.032689564819889605e-01 5.681413421421428467e-01 6.335949250440637837e-01 5.357730625817797021e-01 8.318274005480263966e-01 6.025848149744539306e-01 5.432048365653512345e-01 4.032689113224021127e-01 1.850644289653197716e-01 1.304465967504088164e+00 5.444490981540035524e-01 5.058476821504538368e-01 4.200041261469398823e-01 -9.844271402155697903e-02 5.020482854119182603e-01 1.540317645895251109e-01 5.200796941545612340e-01 5.260686457000844918e-01 5.254448519009039531e-01 5.264934502243033831e-01 5.232930437959849579e-01 5.208344105745761343e-01 4.436393937323911407e-01 5.504590882255981921e-01 -7.251742729976470292e-01 6.295219429623478691e-01 4.925217460526420954e-01 3.470416715289763032e-01 -8.309845074026770556e-03 1.348501992935906335e+00 9.756633784128154741e-01 4.889036916071564653e-01 -1.016504671784772829e-01 1.070384276774152044e+00 5.236994535970225240e-01 4.832714793876270454e-01 6.711016966929106431e-01 4.054235241828481051e-01 2.365953910865482290e-01 1.601002829150837692e-01 -1.682603964541305452e-01 -5.673503411935510582e-02 5.434658110687480281e-01 5.111390481792574825e-01 -1.224552853882603792e-01 4.462736619428026574e-01 5.255159808445426517e-01 5.318235249934589737e-01 -9.138108773780130589e-02 7.650378821116126105e-01 -2.398673866887722550e+00 6.159160003940826744e-01 -6.853227118646395555e-01 5.010260563331159211e-01 5.249644168349787421e-01 3.515773313428375846e-01 4.963903792672159643e-01 5.454034667809642967e-01 5.024325126131699015e-01 7.929097128119471094e-01 5.750099260676984070e-01 1.704538652496268458e+00 6.844936947428397200e-01 6.740097062187717647e-01 4.500600181566941083e-01 4.189785022133699077e-01 9.304653328141411217e-01 4.958311174437063373e-01 2.760027625191894707e+00 4.413371616692721155e-01 2.173190463811897066e-01 7.767729634823670182e-01 5.180489929335028165e-01 9.299368075063078054e-01 5.203862442164406410e-01 5.795570374255172297e-01 5.209396465764862816e-01 1.164045370244049638e+00 7.643292714437355251e-01 8.549551602858473931e-01 7.966794475008822651e-01 5.888088431356628405e-01 6.866419609001617186e-01 5.071387975770633716e-01 3.702708813262551302e-01 -7.549719070773410756e-01 3.922989689603041397e-01 4.147178895341169236e-01 5.372685096946504535e-01 4.909091840499915649e-01 5.081810021418496914e-01 6.129843201999330971e-01 5.099468913903667522e-01 -9.455379764175512181e-01 7.714221849418676502e-01 4.966639247822023373e-01 -1.603960179302800493e-02 4.535384063155202816e-01 1.862436071169634610e+00 5.071928411922025370e-01 5.193264174380588516e-01 4.182450562747344058e-01 -3.529784073344009787e+00 5.179808828972384260e-01 2.979181399243481909e+00 7.815884277549699499e-01 5.441277582890807762e-01 -5.682953804899042449e-01 5.246106266083028213e-01 5.217825354707462671e-01 4.578783447299741849e-01 4.495631336632563424e-01 3.326956365239960300e-01 6.533687532873048154e-01 3.137136673981914536e-01 5.260504138537013263e-01 5.197224909021006534e-01 3.593867299803302218e-01 5.230899970545472843e-01 7.812442260044080156e-01 5.225222997139884473e-01 1.217545029873013052e+00 4.794282384224930749e-02 2.246230487451365221e+00 2.696887509485414114e+00 4.804529008429513359e-01 -2.417563642363493581e-01 3.856881441872368477e-01 3.996682233937782214e-01 7.446599371128836964e-01 1.403224802184418918e+00 5.302319128220129851e-01 1.138666212855555582e+00 5.229910058990702160e-01 1.181993005963158649e-01 1.263468808876127225e+00 5.806546650763395601e-01 5.699013980924521050e-01 5.358688710233493468e-01 9.101734884208121379e-01 -3.879497265602085854e+00 1.667274002553116086e+00 5.350842315861683574e-01 6.345814441486169466e-01 5.308623047629291714e-01 1.872001774654154849e+00 2.937945988401592379e-01 5.672069141761019173e-01 4.697021523684163924e-01 6.290846366910828324e-01 1.368330991523951878e+00 5.150982541589859132e-01 4.032688702897142541e-01 4.462721611446139880e-01 6.025848192372439405e-01 4.008836645346395833e-01 5.704658218267034675e-01 9.050752364361501767e-01 5.220237314435965947e-01 3.811159317591086282e-01 1.363303646810460901e-01 6.525274820275527299e-01 5.257636036736911267e-01 2.704389293742098244e-01 5.672069373824834004e-01 6.144799031134955403e-01 5.174233938536023647e-01 1.052563844121198189e+00 9.239590756842762653e-01 1.165732171848761212e+00 5.244797686565251249e-01 2.114831103428215231e-01 9.304659093228837552e-01 -1.100337885048134068e-01 9.339673650632610569e-01 6.307363393006824026e-01 4.748392659073697591e-02 4.277191127164855500e-01 8.768807670514474628e-01 3.833731419913396499e-01 4.751028183708321806e-01 3.257147474921341379e-01 -3.425664668981593386e-01 -2.543060402409794030e+00 5.539980383798895902e-01 6.025848190858998921e-01 6.025848252375504144e-01 5.217301515489920494e-01 3.502625301851908790e-01 -2.432235794471962753e-01 2.767630016976518892e-01 5.263450851350218729e-01 7.114694335740416875e-01 5.204050020563110168e-01 1.016954767357514999e+00 4.032694718644066478e-01 5.205209014757340436e-01 5.002340468386220484e-01 2.983182213984258979e-01 6.630238381599509179e-01 5.180522491685128905e-01 5.254581002518731170e-01 4.890819143260546342e-01 3.244824993004003510e-01 2.290557772606818462e-02 6.025848186705774490e-01 6.638648131495978877e-01 5.221639588318776060e-01 3.888980239511483639e-01 8.602959757636021720e-01 7.691479308198397868e-01 5.648576588850462432e-01 1.936468441420105213e+00 4.848996384561122253e-01 -3.229698861903604445e+00 7.801166875827900693e-01 1.552953937489471858e+00 5.901281254544759047e-01 -1.125229060126221148e+00 8.600327606087515564e-01 4.341304903788892333e-01 5.350513204351361463e-01 5.440525127346231837e-01 -4.619218190001919133e-01 5.037592938336330484e-01 1.080273066532552839e+00 4.451115255088669009e-01 -4.189850899140524221e-01 5.110272395098519604e-01 5.367785862597648228e-01 7.962428568217363445e-01 5.175598407578533289e-01 6.149494527696790502e-01 -5.534848648409894656e-01 5.609643401769032200e-01 5.210569167639996779e-01 5.086401972042251529e-01 5.179551251834355607e-01 7.713731778919401538e-01 5.207926486239043973e-01 6.295307420397753262e-01 3.982025756720530274e-01 5.260239971673347226e-01 2.258126453965836333e-01 3.425014075583249218e-01 3.735948016649658365e-01 9.762955027065056690e-01 5.603038052672746350e-01 3.275202136048679158e+00 6.546509267432865098e-01 6.689748853622071723e-01 5.425834686118080619e-01 5.286497686046703892e-01 1.180705364256395655e-02 4.964783670385187198e-01 5.455665901113809779e-01 5.260398703441462320e-01 1.154588710675344521e+00 7.717003855369782839e-01 5.220840851354358048e-01 4.359752092545740587e-01 1.120215456005258403e+00 5.248187344536081600e-01 5.559879533015276154e-01 5.393549083119144605e-01 8.662912462150976767e-01 5.226737301053181461e-01 9.507026336665340693e-01 4.912393532023100473e-01 5.213127575871667752e-01 4.637354005042255284e-02 5.300106031199992573e-01 2.076350617047786895e-02 2.797761325278604327e-01 3.974575064958325021e-01 5.699180058132338189e-01 7.915781848702929668e-01 5.264362513418439082e-01 3.824870641013493056e-01 1.345690248630397878e-01 5.020772439891553196e-01 5.048084746038805637e-01 4.413917389724162921e-01 -1.363494903073941399e-03 5.205851871705039491e-01 2.728524910662036840e-01 5.201996618855783128e-01 4.082072030001308027e-01 1.264906276667364216e+00 7.459040874862213899e-01 5.142369341550133699e-01 2.439809549966767133e-01 8.271893191292063463e-01 4.556204435282421583e-01 1.005732230131829663e+00 5.657351527462857188e-01 6.226068510050956073e-01 7.115169535810389467e-01 2.039708077601477321e+00 5.154624057400921666e-01 5.779871087512029604e-01 5.276879879836811060e-01 7.713390507725113032e-01 6.133208896949373656e-01 8.766633956410935236e-01 -5.889645465046047246e-01 4.278339508315544548e-01 5.239251732461694955e-01 4.419008346931683207e-01 4.721674912907161681e-01 -6.450959341882559483e-01 3.842705112674181245e-01 5.191126284133266156e-01 7.195265191570746621e-01 6.706141793128669315e-01 1.574412026983800450e+00 5.186389666574831026e-01 5.298737690399769606e-01 -7.408444143560878326e-01 5.273680537110427835e-01 1.252979392589941732e+00 7.296123881208267381e-01 2.971188830868571329e-01 2.265967688194533425e-01 -1.886767688018104128e+00 5.656032155300130260e-01 1.974966609759498948e-01 1.112723067235682040e+00 8.311813619036521050e-01 5.524570890393236677e-01 5.671216671869618864e-01 5.291614864875310298e-01 7.803913087665993453e-01 4.152158272181903920e-01 5.513702460710320219e-01 9.960639907241344848e-03 6.116656926271976102e-01 4.915751300200317253e-01 3.728881324140485010e-01 5.161152890749751698e-01 4.295351766197884613e-01 1.243341461599039466e+00 -9.461024160450946796e-02 -2.492573711584844254e-01 4.099795336889472397e-01 5.056735797832276891e-01 5.255198255768634974e-01 5.181670955851939153e-01 -8.967449557220434908e-01 3.238874450198301336e+00 4.550319307189509832e-01 4.363789715471242947e-01 4.620234434231701992e-01 5.251730410346620026e-01 5.034013742888187037e-01 4.637232838059651696e-01 3.296445636246657096e-01 6.189737556452074019e-01 5.224254683728424276e-01 4.510788963919364347e-01 3.087846664105075578e-01 4.061519224404817052e-01 5.613264788826878293e-01 4.049645952075194288e-01 5.617816707533968001e-01 5.125974864751902116e-01 6.873141460934840685e-01 1.029725947032273936e+00 2.357117117683369401e+00 4.849795718256476040e-01 5.020463133522712340e-01 3.218709143084295676e-01 4.750130801394588098e-01 3.939644061696193078e-01 5.235281620111150724e-01 5.203569232129245936e-01 4.864501659616334295e-01 5.894356785803950283e-01 5.709237114942763425e-01 7.807565010690327156e-01 3.645691848650152167e-01 3.831907577381893359e-01 3.884401055625369414e-01 4.747544827880663121e-01 1.023030793424606483e-01 9.304653148029499166e-01 4.936935268143075595e-01 7.915041141390966040e-02 1.915180092927742050e+00 3.346018604983115874e-01 4.004205428778248033e-01 5.991134724040598769e-01 6.696448452163658582e-02 5.539579141177672916e-01 1.541134062979266695e+00 8.104135161530630072e-01 6.758528576771304364e-01 5.201715505346466983e-01 5.092592809241639484e-01 4.172920623385010797e-01 6.247349220321061214e-01 5.175020813574444656e-01 5.197939915572538094e-01 -2.884633458138274320e-01 4.607693164952228471e-01 -1.644346635321828565e+00 5.166761209538708322e-01 5.280529530842084096e-01 5.328764926868727603e-01 4.182378990466317781e-01 9.304653147604705632e-01 2.279647761609883416e-01 5.014263515409922434e-01 1.383014744073203683e+00 -5.916352959840734949e-01 5.225739138639229342e-01 1.164337976869842306e+00 1.576737120719452268e+00 5.982441658539203733e-01 5.235458418438261319e-01 -6.970008826989354533e-02 -1.737171063929996651e+00 2.655991755583764213e-01 8.566844172158406545e-01 5.386976381173302908e-01 5.229960967476704470e-01 6.181529711748725564e-01 4.789417060195342857e-01 -4.339930593803184022e-01 8.413274678917581628e-01 5.081816366574105626e-01 3.236940309626704648e-01 5.035147772419985568e-01 5.782676264581961857e-03 -1.622924675865837219e-01 1.847610138746064612e+00 4.097298835325149380e-01 4.941893161624297814e-01 5.183977598403801679e-01 3.181765806301927735e-01 4.755426505345951571e-01 -1.603345132463327161e-01 -1.387920731148820419e+00 5.252828922533551159e-01 4.781481000965113748e-01 4.952809125365476017e-01 5.220518605568607029e-01 5.340817389776023605e-01 5.472954515234281780e-01 5.168431322346991319e-01 5.541454061585292523e-01 1.042962661941046143e+00 7.077676638990131330e-01 5.343924933051888981e-01 6.415841225729672637e-01 5.546889751121253376e-01 5.759062397437381131e-01 6.213190857743314255e-02 5.672068792933780967e-01 4.257987897879387806e-01 5.817009119610818679e-01 7.461721122148801122e-01 8.151752264844227547e-01 8.766714632160623744e-01 -5.592915748516767982e-01 5.326479412018344517e-01 4.890057921256186213e-01 5.272008710649960239e-01 5.977858805262676878e-01 9.170029824718493039e-01 4.701323878630662700e-01 5.194477421480614421e-01 -3.220388398950480013e-01 -9.125176015411580188e-01 2.362309412930402086e+00 5.201528748811060643e-01 9.086237377743212607e-01 4.197970179413589853e-01 5.804679979916090860e-01 4.071503710492292982e-01 1.532551037574633179e-01 5.195383123522114843e-01 5.053569461384644912e-01 2.142936367983509349e-03 5.246080118843531315e-01 4.631944090804729908e-01 5.189515734330821806e-01 4.536846645596320227e-01 5.259780417882862213e-01 6.453420193290770879e-01 4.348418005950466236e-01 5.521308860977294231e-01 5.437714911483603197e-01 5.187625225099170567e-01 4.169817815714666476e-01 5.267882881961517549e-01 -2.414127938011263186e-01 5.192335541408914512e-01 6.411747152463687094e-01 5.453185353000434832e-01 7.800687646513747575e-01 9.304651420661611549e-01 7.236424208872100916e-01 -6.233883552735000055e-01 9.759457766119492561e-01 1.872001772480541559e+00 5.140704394507328301e-01 4.637317286310253528e-01 1.092226587264289117e+00 5.560152130856749197e-01 7.799561503965966036e-01 5.177340144885262951e-01 1.901680998952463675e+00 5.221922603903855764e-01 4.462730624279622194e-01 1.237598899467607927e+00 -6.945350565147404009e-02 5.032368930751847103e-01 -1.507819942513531353e-01 -9.983762152601898254e-01 -1.625639327122590239e-01 7.771201359965412836e-01 5.601468386113470643e-01 5.312682943535994573e-01 -3.153193942877500211e-01 5.447688533713865855e-01 4.556532829255048600e-02 -4.241587087267940648e-01 5.519888467616416161e-01 5.260424639273650893e-01 5.223174179626368652e-01 4.991755621903932183e-01 4.703989978477581269e-01 9.220786004517580459e-01 -4.555108823768199144e-01 5.204536587283251636e-01 4.992298815323008565e-01 5.672670011327143325e-01 1.179858876527077660e+00 4.771563074519309389e-01 7.022658541776991559e-01 5.199551216544583410e-01 4.912893401035806074e-02 -4.613994884216081616e-01 5.350975490649579891e-01 5.057777869484554323e-01 6.874797252285217430e-01 5.205432957482466483e-01 3.852009679606835379e-01 5.229609363026945790e-01 5.199551568004400215e-01 4.261340462503533932e-01 5.434930233009191980e-01 8.418175732456877336e-01 2.612157243781811466e+00 -2.535622806723537570e-01 6.543489576239335248e-01 3.560836282561106736e-01 1.974641196793478770e-01 6.469390446047386112e-01 -5.395120911003901260e-02 -1.612922139192245030e+00 5.032856778705721013e-01 2.675214335170897684e+00 5.920926366877596880e-01 1.742327200179294433e-01 1.507082896175006292e-01 5.081809718828137479e-01 5.945370123892108616e-01 1.595023752289573826e+00 5.263355688613853278e-01 1.258461891221609730e-01 4.097083178637733192e-01 1.756317396435204792e+00 5.908751065941630909e-01 8.035653019864325008e-01 5.131259628346789281e-01 7.376363762624607023e-01 4.677559337983207000e-01 5.852596110904977333e-01 2.915346113722431035e-02 5.258961750230933818e-01 5.951240434477194086e-01 -5.892216014160003290e-01 -1.151798076955793809e-01 1.185525630493212024e+00 2.413086201283667076e-01 4.775900961737110095e-01 7.271699234846242810e-01 5.073621590760807321e-01 2.030445487366943969e+00 6.516913003841577900e-01 1.379482670724935592e-02 3.927015246652877933e-01 4.004561090863029138e-01 1.151828478135023648e+00 5.033238911936085414e-01 -2.188504999105282678e-02 5.247966215074817420e-01 -4.146188376016290457e-03 5.022336819998521884e-01 5.181749396157449006e-01 1.682992132198007917e-02 -1.564043470958375107e-02 6.579255054295036764e-01 4.793600154501908017e-01 5.887078635925436787e-01 1.732564795679520930e-01 4.004783868585517492e-01 5.336422817210842995e-01 4.387665911225850923e-01 4.882761031783506844e-01 4.800839368105752625e-01 5.723533250181015442e-01 1.022635459088379939e+00 3.199410798245147181e+00 9.725153800038617291e-01 5.298649343175318993e-01 5.414473597639645197e-01 2.198817039116536531e-01 5.200743995152737886e-01 8.633054327477611700e-01 5.126791166083096707e-01 1.317288175774156356e+00 5.286169511251394004e-01 -5.986326306479665682e-01 -2.122322399417468988e-02 4.354045179369460117e-01 6.166546375465759011e-01 5.815594904484163719e-01 5.182138303997595452e-01 5.777496476399529568e-02 5.119313901658031352e-01 5.666780308982871661e-01 -3.886081541734054401e+00 4.780535623240208531e-01 5.330404102244508113e-01 1.143763645841485932e+00 5.210379188889796565e-01 3.996133573907166281e-01 6.657980776427143699e-01 -9.223256824901358009e-01 -4.973338817079199226e-01 2.020118474183878882e-02 5.230334297891625628e-01 6.225698966812097668e-01 2.088990467038244758e-01 5.098116234140650516e-01 -3.491627476892759097e-01 5.375815128541427956e-01 5.674397391465640927e-01 6.972013832825838531e-01 5.575364030180277597e-01 4.658019694683793177e-01 1.416913606564540185e-01 -7.941867762414807075e-01 6.542931029780841845e-01 5.618143189115061276e-01 1.530796952965664537e-01 5.185018499964495486e-01 5.071834594727494538e-01 5.163724748220155369e-01 6.637279859704552365e-01 5.831045942032652141e-01 5.521807780631879936e-01 5.052380258822273262e-01 1.872001778738614730e+00 3.470607627014585250e-01 5.270858314553202861e-01 -1.421809692963376670e-01 5.102873159333634057e-01 6.458140752347661939e-01 5.353535550157907386e-01 4.804558341880952876e-01 3.785922550119947827e-01 9.635860000513338797e-01 1.233256336555600630e+00 5.532391231173875434e-01 5.815651262897233442e-01 5.972161663269914822e-01 5.027876912447610813e-01 5.157955705027240656e-01 5.220475298023186106e-01 9.759600458012169799e-01 6.729656701633830451e-01 -4.678847807559678995e-01 4.685917148830773815e-01 8.989384352549768531e-01 5.127965352540052590e-01 -4.293972895563359649e-02 5.262252865918121136e-01 1.545430007104191983e+00 -1.379211942913578237e-01 6.677107181804550207e-01 2.323553352814226314e-01 4.771278805312045290e-01 8.790197469864541313e-01 5.228128078152430858e-01 3.752214882966447562e-01 1.415227026684645839e+00 4.703994290413952006e-01 5.138633076865301019e-01 -7.239626803938896682e-01 4.389837112349331272e-01 1.038637301518901213e+00 6.297667497224636035e-01 6.301134276876933782e-02 9.988873923145715761e-01 -1.128375415440201028e-02 7.516060382345686186e-01 1.668442531085628566e+00 -8.703625374200458786e-01 5.700519891308694076e-01 5.214185134222301121e-01 -4.875531914202980710e-01 3.010773108253829711e-01 5.549823789031531618e-01 5.235923319565494172e-01 4.690420595121376768e-01 4.457070927809314020e-01 2.625747265878251580e-01 3.508170064826776069e-01 5.708945100062376987e-01 5.265638546584566759e-01 9.582465938315387274e-03 -1.700065395866688922e-01 5.031403960292387678e-01 1.070442249363013465e+00 5.614104659001559749e-01 -5.887707601222892384e-01 4.310553169394895634e-01 5.208922291897825074e-01 5.684994985997783301e-01 4.836030374994362835e-02 3.232684769275274150e-01 5.214231476558197631e-01 5.168884304446219602e-01 4.542760921991112477e-01 -1.492250811947153782e-02 5.516708065414749340e-01 5.363382836614641880e-01 5.612397186050365194e-01 2.116260778898566119e+00 -1.766295560963209235e-02 3.904544477988853290e-01 5.702878887707467648e-01 1.864247474493704759e+00 4.839314601796889104e-01 5.669280847090298892e-01 3.030671360156801317e-02 5.672069336845508847e-01 5.254782125295555106e-01 4.781040617158325290e-01 4.069477199444902493e-01 5.358093210867168610e-01 4.437594102920441319e-01 5.296076503912224842e-01 -5.700921792382277475e-01 5.228779215567094241e-01 5.021288650838486856e-01 5.294437108720663199e-01 1.296758560502274227e+00 5.230487734599374994e-01 -2.505120365490586254e-01 1.140332438719825481e+00 -1.334305419271056392e+00 -5.509284504063173271e-01 5.309051700133738949e-01 5.212818343687797285e-01 6.695227173770048612e-01 5.234719665208232842e-01 5.317605632137611948e-01 4.987238975937796082e-01 5.672069223807627569e-01 5.193236115856693091e-01 5.342422089970323418e-01 6.068587320689718956e-01 5.229805981563597772e-01 3.256268861835446282e-01 5.269692552305859090e-01 5.388595274411295266e-01 4.144929512401561711e-01 5.152795908016131188e-01 5.174792393932683421e-01 5.105250170474845417e-01 6.536455113214287849e-01 5.235822835474287507e-01 7.277850961139151753e-01 5.205804600337305965e-01 5.337866395446433376e-01 5.361056368389255367e-01 4.319713426394953815e-01 3.481968217527289244e-01 2.495143570500224950e+00 5.292299944471878792e-01 6.348444370403675263e-01 2.966350716161325618e-01 5.772497230414829206e-01 1.123847228909194529e+00 4.169495051668313801e-01 6.866897087194691052e-01 5.229093083889070348e-01
7.178454503552793575e-01 2.918057366610029568e-01 4.557088872999728868e-01 -4.149272064824647416e-02 3.043701504468509511e-01 4.056086289663606292e-01 5.400774697645178701e-01 3.809014349984203296e-01 3.894692217385902211e-01 3.210327024767285486e-01 2.091459771737941953e+00 1.743221397142981521e+00 -1.484738959735727448e+00 5.755689031947477385e-01 3.085233133932627214e-01 4.671976195090193906e-01 1.376917186702116269e-01 4.517513218642061901e-01 3.985768479283347543e-01 3.207566744055161401e-01 4.006531305288060785e-01 2.165997907495432084e+00 3.447577485772183592e-01 3.374199893848941478e-01 7.585096263981058184e-01 -1.577381151848578911e-01 3.959474574362266130e-01 1.806926487801916725e-01 3.294258350967380622e-01 -9.438029251468598169e-01 4.597836481100601724e-01 -1.666785278362830358e-01 2.895075191241607837e-01 3.022586471950550191e-01 -4.068362858480860655e-01 5.068421574856419864e-01 3.334672311749448670e-01 -4.039240670427294844e-01 -3.331263024978306397e+00 3.200624267917367427e-01 1.213273046876658379e+00 1.475597311163532876e-01 -1.700142372041333338e-01 7.913639602785077498e-01 5.391693502097749668e-01 3.137095575279588711e-01 -4.103956777993594818e-02 3.193091617699597151e-01 1.190531115813274476e-01 6.550092904589692733e-01 6.955297534396711612e-01 5.112807705364061928e-01 -1.294495540127353350e-01 2.518223224665659399e-01 5.866154957243168155e-01 6.656552736642747936e-01 2.832011389212519825e-01 2.723500758044459791e-01 3.446457865301336132e-01 2.950419730487268688e-01 4.355048683971711188e-01 4.362422652224493547e-01 3.430209073120946695e-01 3.447577628423618701e-01 -3.398742790174721917e-01 1.137630085870867114e-01 3.160545542012832554e-01 3.047631316935769386e-01 2.644656569066703988e-01 6.970214331221635806e-01 1.790774574868962132e-01 2.516543896571258876e-01 3.047015500269573129e-01 7.184748400334564078e-01 1.956323366815952536e+00 3.903050997054057225e-01 4.800782370261100773e-01 4.831739694894516268e-01 3.057462177228033595e-01 -1.365578030813477950e+00 3.258400781997126683e-01 5.195302994684110054e-01 2.425023300501389922e+00 6.328489853397312181e-02 2.436486297341315110e-01 -3.399230673285336679e-01 1.467125892028400269e-01 3.529993624837196031e-01 -5.868188517806576243e-01 -9.198572574375544209e-01 5.392065079646842785e-01 1.624770471588161458e+00 4.882426624637874885e-02 6.818748558727897313e-01 3.727218277992930817e-01 3.543951810985995765e-01 2.795746362088130654e-01 7.934737215535461186e-01 7.361347624176037829e-01 -1.495769888393368996e-01 -1.846008751844386564e-01 5.686729814247398762e-02 3.428881627545931066e-01 2.220290113008890620e-01 -6.902768688288822563e-02 3.193603918487516680e+00 -2.982037247472983377e-01 3.856243187774739400e-01 6.878246496822196243e-02 8.127285092860984106e-01 2.877988643674098124e-01 5.385062799453936844e-01 1.618795829969312539e-01 3.372952351817465333e-01 -4.697031988976880790e-01 3.086613771061275102e-01 7.141020324165084365e-02 3.933322490130592985e-01 1.212810220543737882e+00 3.410902839908145912e-01 -1.484388128381764815e+00 1.074304286448363455e-01 5.971646385414378783e-02 1.507922049466673631e+00 3.155146301796775132e-01 2.218656240195707507e+00 4.025503904837450797e-01 1.997572109207178814e-01 3.163971215310086293e-01 3.111965542843689314e-01 3.440544409735452058e-01 3.020693637868812065e-01 6.689117345249430135e-01 4.053044135124878045e-01 1.570687247235126038e-01 8.521472456170654519e-01 7.322557736709833787e-01 7.011169568637095617e-01 -3.425631136204875804e-01 2.331340995676159655e-01 3.140717992602838904e-01 3.222384899664859081e-01 3.663431376709938014e-01 2.779834436306195533e-01 3.048608540180671733e-01 7.011026970378800849e-01 -1.904388862131433380e-01 3.194936390196678744e-01 4.133728005342240386e-01 4.050149986924217460e-01 -1.834491972566794360e-01 3.006508794451814848e-02 3.137218449657943053e-01 3.095897925242617199e-01 2.681686053263254710e-01 3.085700034723076746e-01 -2.541237122415169747e+00 4.731096792153657304e-01 -6.131237387540874328e-01 -1.515675064166214225e-01 1.297385583398651954e-01 4.063310089493640809e-01 3.129496089855490770e-01 3.064963801515098729e-01 1.334532001764623665e-01 1.292782972298154587e-01 3.212581226234553222e-01 4.983299875608593887e-01 4.776520492170276411e-01 2.644276576313784877e-01 2.449758093367393197e-01 -3.959600680866383338e-02 3.136124770997483768e-01 3.037737578018612772e-01 -2.551945336122767749e+00 6.658583783401976763e-01 5.632641179820204735e-01 9.263572644919362276e-01 -4.619636394921233791e-01 1.175646402609016095e+00 5.958699317155340819e-02 3.135359698253588068e-01 1.249822879961962840e+00 3.784501397978285442e-01 3.158389606323251941e-01 3.519989842174086059e-01 2.683434722693469054e-01 3.199130941567226438e-01 -5.079527404853109163e-01 3.516996036585468000e-01 3.536838663628018020e-01 8.285965343730655741e-01 3.453925163312058233e-01 3.718827574527680535e-01 2.538259323378876942e-01 3.075841701112863036e-01 -1.710006383050223455e+00 3.005780162410776057e-01 3.745690358134116660e-01 2.476526861721798367e-01 2.724152085092397535e-02 3.882263267424010955e-01 3.913651691666799048e-01 1.555657362074338579e-01 -7.502210852123473162e-01 3.745690564052436833e-01 4.988428911413972933e-01 -5.279047306054630573e-01 3.259674388108753651e-01 2.455566980094234242e-01 2.255085683823703779e-01 -3.330222674012697226e+00 4.109509560183153276e-01 9.082112973475064965e-01 2.913199510157810090e-01 3.036893001014788207e-01 3.046377086601471107e-01 3.360178703338259631e-01 3.098648056463191303e-01 3.038525155584954063e-01 3.821210921680733286e-01 8.302994435350248559e-02 6.746481007891838022e-01 1.095301597697839469e-01 4.270614130881718040e-01 5.364633315551576853e-01 4.144460506909266595e-01 -7.165948066074966372e-01 2.351266674797932943e+00 4.131695082345069880e-01 1.256661339675072986e+00 -1.406401602132436146e+00 3.100398099566449295e-01 2.859726871379401070e-01 3.433146473370188301e-01 1.201208884848987024e+00 5.322019264185411380e-01 8.410866638760853276e-01 2.901558434426997901e-01 6.654585983691819751e-01 2.164606070097121748e-01 2.899131566749222899e-01 -1.200457729728878986e+00 4.202627861332499104e-01 3.064517452189812752e-01 5.066366668335270385e-01 8.697500627044238986e-01 -3.886184487827977208e-01 3.249560316384862091e+00 4.997459631451464657e-01 1.320577605691009682e+00 -3.196049770318328820e-01 3.027701434240234191e-01 3.447560010731295921e-01 3.589939412374142935e-01 2.781044314333313006e-01 2.696017397494722134e-01 -1.646731685728890504e-01 8.362924138554730935e-02 5.630008411717817296e-01 2.312308695290004601e-01 1.065699548022740611e-01 2.404994781583939256e-01 4.993585940457992423e-01 4.355048374524294053e-01 2.574753829332953048e-01 3.323737149755675357e+00 3.355480684074246267e-01 6.502205954452857650e-01 5.171352118108069051e-01 2.753029821871604832e-01 4.358786794218166838e-01 3.079917055510097423e-01 2.999300262334001488e-01 3.053070504286805598e-01 -6.382703849426064613e-01 4.072774871767808058e-01 2.850769994814713604e-01 1.485047208600619173e-01 3.514705708859363620e-01 1.561496116016979796e+00 3.687761994580182057e-01 3.260977058805810680e-01 2.017108463418686437e+00 5.138081063015598193e-01 3.088279976460467924e-01 2.933823210540011939e-01 3.009973325165337110e-01 3.086611386175473482e-01 -2.080687655023508942e+00 3.432987787521467049e-01 1.614236326432289426e+00 -9.647952206237249417e-02 3.555005241699036311e-01 6.575272253441352133e-01 3.402476967740035163e-01 -7.346803934058077079e-01 3.547298737776338196e-01 3.115431170545690520e-01 4.133785152394642282e-01 -4.076677032392357347e-01 3.228590858817941833e-01 -2.390199284279371561e+00 -3.978215747419235060e-02 2.914590582390796381e-01 5.961203984693953517e-01 3.041020034024080609e-01 3.052896327577873659e-01 4.966477625421529263e-01 1.639701302080487921e-01 -7.339320057593139157e-02 -7.795695374741924422e-01 -5.006794172324590536e-03 6.881300477085745548e-01 2.953767492432459729e-01 4.967790915170704480e-01 2.893339273633820374e-01 -4.035800558748465355e-02 3.043812848955829153e-01 2.491431925618992516e+00 6.803197501288835713e-01 2.472820683423678501e-01 -1.190574371912469509e+00 2.447208682241678313e-01 4.816128395861348999e+00 4.151505386100515782e-01 -1.986143587596835292e-01 5.723429797834417299e-01 -5.724546092967893074e+00 5.361180756598438180e-01 1.589306046779558557e+00 3.051284797587417441e-01 5.221713598439053916e-01 -4.575002757954985677e-01 4.271651224375652700e-01 2.452190746924961806e-01 3.429962936130677154e-01 2.108929227213949265e-01 3.010799263402354153e+00 -3.856667248091257827e-01 3.047543254327584883e-01 -1.944173749219410663e+00 2.789460039362156030e-01 -4.039240656065049562e-01 7.612164506194253333e-01 4.902838173130805721e-01 2.595482134209362024e-01 2.849718435261034410e-01 1.261178281059799344e+00 1.603485661394504769e-01 3.745692302480461144e-01 4.202632808192087732e-01 1.555657315759499948e-01 3.839397926202650080e-01 3.848457108784801850e-01 -6.272297775799128283e-01 3.075249203019536637e-01 5.632097671845756048e-01 4.072672631807032206e-01 1.817068251367499054e-01 3.043427386934269285e-01 5.119036596710924147e-01 4.902838978172568418e-01 5.108977131395401328e-01 3.088832693025952425e-01 1.623195534822798047e-01 3.734957430043594484e-01 3.542665783269202784e+00 2.899430987560693285e-01 1.013132361633624495e-01 4.355040435002751065e-01 8.354380784605276444e-01 4.702843479918025760e-01 -1.931382335889831048e-01 6.892228283400045896e-01 3.489091868506985494e-01 1.286836552595986283e-01 4.257560129932208004e-01 6.822111004641679965e-01 5.229765457957383790e-01 7.996396559683592864e-01 8.245691378022844686e-01 2.315562800634141105e-01 1.555657363051752562e-01 1.555657249771608686e-01 2.705648871962499924e-01 2.279252601124164279e-01 1.119585505401761383e+00 3.854153341909812291e-01 3.090536565101349442e-01 2.638196684055977292e-01 3.019824691162290575e-01 7.431869080500091984e-01 3.745688250640903383e-01 3.069379646181932819e-01 4.170787340507732810e-01 1.955754133451534371e-01 -6.431111172100493212e-01 2.937973317737968548e-01 3.067279955151079873e-01 3.659995070840570408e-01 6.651779437518396954e-01 6.591219031027516495e-01 1.555657372314523945e-01 1.433679317555500710e-01 3.100354518969214435e-01 5.163251366361183425e-01 -5.963742528748895433e-01 1.717600781110412700e-01 -3.598011321945491670e+00 2.041357087044306962e+00 6.282837334088513526e-01 -4.886117948123177568e-01 -4.162106532556852923e-02 2.094581276937408365e+00 3.248944884909224506e-01 6.537581454918243162e-01 -6.636983088941755815e-02 4.031088567019582292e-01 3.930114442589331403e-01 3.198597541878658301e-01 -5.645143055364250095e-01 3.567964238036568370e-01 2.101236402888950305e+00 2.137260790894024987e-01 -4.685154668090566465e-01 2.915262196406064876e-01 3.084597738266336431e-01 -1.469407681047052439e+00 2.943433681846345240e-01 3.723195516296143870e-01 4.036158452189458901e-01 1.104195011910276414e-01 3.126257559146915499e-01 2.195395455791868122e-01 3.070678676917643068e-01 -1.614556907725976653e-01 3.098135228422322918e-01 1.094741088330885015e-01 3.008843795352938999e-01 3.048321193382240724e-01 1.186040352499228082e-02 3.703398350696140429e-01 4.926236739516709484e-01 -1.430933238866912038e+00 -6.828864024385739029e-01 -1.207613533447085830e-01 1.514253119147503379e-01 1.485731830338906656e-01 4.365161290488735468e-01 3.576743573161811351e-01 7.103587172831707930e-01 -1.432306209528089735e-01 3.347553505384039396e-01 3.020586871777077298e-01 9.629868387713161337e-02 -1.617021854644792034e-01 2.782466356119238093e-01 4.615232501148762712e-01 4.800999589528903155e-01 3.515384219323467452e-01 2.947528801626977946e-01 3.038346570345399900e-01 2.435632657736450379e-01 3.061833156700913827e-01 4.825909445818996613e-01 2.426867899449770549e-01 3.061333083592406301e-01 6.887822014376991930e-01 3.201099428028492677e-01 7.122661304192344778e-01 -2.771874278048188853e-02 5.811720437279408458e-01 3.011207060406801417e-01 -1.478192070118219181e+00 3.102793309574583547e-01 6.301629515392204173e-01 3.460276453874969183e-01 3.383255252831498527e-01 3.539433862953752508e-01 1.638210279989060214e-01 6.857074827172139342e-01 3.097744521495945369e-01 4.309935856257733344e-01 3.044005414639274210e-01 2.730357165993198554e-01 1.756816313538471508e-01 4.722874952926290337e-01 3.140197376993343892e-01 1.601882064330931443e-01 2.433707073410001920e-02 1.128475504214117575e-01 1.674526045668266017e+00 1.596724814320127084e-01 3.335575175043011265e-01 3.921376825409880751e-01 -8.715305752996255206e-01 2.980450007463134598e-01 2.226312870208334016e-01 2.620473259641623032e-01 -9.591313771075000993e-02 2.644602117500967631e-01 1.710349330651354416e+00 8.959194044127333223e-01 4.729423548559135715e-01 2.642975430929091485e-01 3.132147363385319738e-01 3.463658215361746229e-01 9.362785594378520981e-01 3.104004234155909092e+00 3.075155687143395489e-01 1.131425922201115611e-02 5.838154603593023184e-01 -2.458184673771846296e-01 3.021726775368977491e-01 2.998401486680252193e-01 1.090824803685635613e+00 3.034715950196730239e-01 -3.489473648385642557e-01 3.924520944449989002e-01 1.406930856499295501e-01 6.143626797636236869e-01 1.875121111974342725e+00 2.528911464384823171e-01 2.857584120703575148e-01 1.676618939651869145e+00 3.885721681223675561e-01 2.468810264123267595e-01 1.488416302540608027e-01 1.760836864647378208e-01 -4.107328184927732523e-02 5.252566420080165832e-01 2.461377864142836047e-01 7.114617056156247177e-01 2.822135950530262338e-01 2.003756391792126668e-01 3.329268477552239092e-01 3.480381136572264222e-01 4.418533545735551238e-01 2.647146101467905965e-01 8.761413733601285392e-01 5.190727985568691638e-01 5.146667808829958890e-01 3.326719934774554632e-01 2.397741950458733007e-01 3.040869107838921614e-01 5.939887823859335558e-01 7.814032268528499081e-01 3.730449823357330219e-01 3.313185870277011724e-01 6.064776381036260933e-01 3.058741087422947591e-01 6.917078277643556872e-01 3.428644290218287316e-01 4.834550006329437211e-01 -3.035603715637346101e-01 3.041786213321386323e-01 3.314640181898830251e-01 4.558662642093158635e-01 2.045175496341285204e-01 3.625256892641987028e-01 1.833153200744581435e+00 -3.211364198319565603e-03 3.525122079159383470e-01 -2.251958227756272746e-01 1.693731587693598106e+00 1.165679749242230612e+00 3.761929132868330888e-02 -4.385224433357496898e-01 4.482523125552715371e-01 2.687987624164027700e-01 4.813756281906630963e-01 3.076519729289164395e-01 2.996077588278147630e-01 2.353828819890805557e-01 3.323638415556974257e-01 2.631480405007884937e-01 -4.170327190359329750e-02 -2.378412040821483442e-01 3.055030127009108476e-01 2.228240652129137855e-01 2.553755947708256091e-01 8.846913936337136297e-01 4.355048517135546859e-01 3.224016917382991343e-01 8.614452140165788085e-01 4.751418905535720327e-01 5.388881995594494434e-01 4.514166339234766956e-01 7.006252779590592672e-01 1.486353947697582445e+00 3.999403744588406195e-01 2.132058027110640186e+00 -2.164137697239050181e-02 1.592250954101279981e-01 3.037407998894560146e-01 3.448161512442616816e-01 3.860724720854266656e-01 2.644371348689472101e-01 2.918892191165735062e-01 3.029563074174436710e-01 3.714453004705811634e-01 2.281440508581493165e-01 -3.614353864052417542e-01 3.048571453057090097e-01 -5.397504503691462341e-02 3.057996032726839064e-01 4.133946301551387759e-01 4.355048516364051769e-01 2.350721309321280317e-01 2.339541954220801800e-01 -1.306223256957637968e+00 1.992849688529351404e+00 3.028597797815830162e-01 -7.634281021599819139e-01 2.967945636100481344e-01 3.355612719265005928e-01 3.060490724897078629e-01 -4.878306251767401847e+00 3.597571221640094130e+00 6.360888251794589721e-01 1.755992255294936896e-02 3.285198425865029637e-01 3.073347707249910465e-01 2.527774705285485424e-01 2.668183265348818445e+00 6.325769465930852764e-01 3.191586693817364262e-01 3.086611844579355002e-01 3.119594815367628393e-01 3.411709502722479748e-01 8.542244936079527173e-01 -3.722551206940833413e-01 -1.237614020917288782e+00 -1.243526645717712320e+00 3.059280182158579664e-01 3.038054102106443888e-01 7.428816828285602636e-01 3.640624539516849612e-01 1.512428866845711095e+00 4.934092568904255294e-01 3.032243819562184250e-01 3.397117867420560988e-01 3.053636704769852606e-01 3.449223883113892164e-01 3.050822023008351036e-01 6.373537053312507972e-01 3.198285451412749558e-01 6.610515013548581287e-01 2.356053936576754382e-01 6.559159937629735482e-02 3.048865920289902109e-01 1.770143180028416197e-01 2.550450831073530766e-01 2.887781433612998105e-01 6.294387150694663591e-01 4.902838338027317722e-01 2.594642002278503834e-01 2.373316643626001421e-01 3.033117772048349869e-01 2.772442847603776572e-01 1.710369876627287011e+00 1.949207826951923295e+00 3.051194702297325145e-01 3.160577717099531947e-01 3.091340983835129674e-01 1.700700145831760823e-01 2.209797261583895112e-01 4.282108570327729513e-01 2.930974480012052408e-01 3.290245719714951500e-01 8.119089501248524243e-01 8.987145129082882988e-01 3.198906306585106996e-01 1.898483156889510859e+00 3.652787216521194980e-01 -2.814402123180579363e-01 -2.704434387106650073e-01 -3.021379027613663726e-01 3.027613672147949075e-01 3.468376764161309467e-01 7.100347576087148171e-01 3.038509113979475651e-01 4.407729537552647070e-01 2.793192011079754788e-01 3.116224002446582042e-01 2.670782082401570445e-01 -7.208912297214706277e-02 1.007404078031497230e+00 3.037488824775464447e-01 3.157309808619618852e-01 3.043990629780477519e-01 3.492061661791631133e-01 3.260622960663676073e-01 3.977797619033324183e-01 -7.692720417956866452e-02 2.221265051570811278e-01 2.796625427385408535e-01 -4.091442991993045342e-02 4.355049705628804557e-01 1.093738058311694461e+00 9.743207806263356474e-01 -7.183179078777843785e-01 -4.039240670732354155e-01 6.615553928673280071e-01 -3.390394478892967189e+00 1.586184481468944307e+00 2.939632126312390348e-01 -4.186684963708784540e-02 3.052062764684316809e-01 9.088348129276151433e-01 3.062947277405405067e-01 4.202626710769862273e-01 -4.387822705576385762e-01 8.140865224197394445e-01 3.120643201201452888e-01 8.568795856591291393e-01 2.119026784186170964e+00 -3.723597613251595773e-01 -1.490035678238804229e+00 2.577602569408148359e-01 3.039841493734779521e-01 7.468514146712770252e-01 2.775185841270719767e-01 6.982727678282291128e-01 4.690954355410995036e-01 3.369238851282804204e-01 3.121616008144040832e-01 3.104429458193984082e-01 3.189450511435933389e-01 3.125641023503298865e-01 1.440906824194110536e+00 1.674734590178286631e+00 3.057358445246201040e-01 3.486030643661766071e-01 2.572334366342667322e-01 -2.510827887487622201e-01 2.307709463839033304e-01 -6.072425610548149583e-02 3.063110660526492945e-01 7.043637538735117998e-01 -5.657228235197216959e-01 2.914733706728050988e-01 3.152976232905029819e-01 1.555382747224137996e-01 3.303304841918965895e-01 1.809917002244656181e-01 3.034850468512501065e-01 3.039007745027292873e-01 6.190928060728435184e-02 3.030208580060223533e-01 4.322972204401019369e-01 1.138186506885882299e+00 1.112156067964572559e+00 9.097663882898380239e-01 2.173584964941802644e-01 7.951019199954356687e-01 1.610502962937492566e-01 5.066171944300965624e-01 -2.194481892445685034e+00 2.959793287258731254e-01 6.639949898359099878e-01 2.985202041327733036e-01 9.442124599800818530e-01 1.383724360143104182e+00 3.086613841454549090e-01 2.396160206313789065e-01 3.762253708704750843e-01 4.184830915772320137e-01 5.475013210872300418e-01 9.686324527769383241e-01 -8.247010415903793801e-01 2.728880664442561721e-01 1.825793074727948342e-02 3.110558720496225393e-01 3.402841162492636351e-01 7.602423122599532013e-01 -2.790936059380399459e-01 4.127594591005074309e-01 2.996806286364647742e-01 3.604501396613148945e-01 8.960428064761565281e-01 4.347420073578157074e-01 -2.238958414212275649e-01 8.578403721814759075e-01 -3.413473211089491921e-02 5.586787487100762783e-01 3.425312286030730569e-01 1.300023635830727997e+00 6.023836677533704886e-01 7.100519841955008626e-01 4.324530406525139981e-01 4.818445031262964529e-01 -5.958033942717638753e-01 2.206989627421684086e-01 7.480004957713382030e-01 2.935910098746385422e-01 6.052636884521817029e-01 3.168589433965265934e-01 3.065778829514498871e-01 7.105538734914444987e-01 1.683028844545310099e-01 -2.076491585456966771e+00 2.103549671347137717e-01 2.498825748982961836e-01 9.444566795659260494e-01 3.320443963766295248e-01 3.380102003234051189e-01 3.810679961066518739e-01 3.091572742559072773e-01 4.062349342841322097e-01 1.143318275747567947e-01 -1.636907375014733379e+00 7.671478976888477241e-01 2.396719497097838658e-01 3.198893257301739235e-01 2.639816002354952729e-01 8.184892198349089654e-01 3.061270345664426906e-01 -1.589581406296108890e-01 3.545644531692264678e-01 1.127309829951929965e+00 3.060356422104242857e-01 4.167063422000700235e-01 1.037495883727606261e+00 4.291114214877795874e-01 2.862614141980910798e+00 3.193334109930643372e-01 3.302398955123669322e-01 7.151300195110475988e-01 2.877264640972752585e-01 3.327473979086615907e-01 -2.191128596270145668e+00 4.616598011653230138e-01 3.047201840508051984e-01 5.201934523523835674e-01 3.083635393226009103e-01 1.906005310018346055e-01 -1.633054102264656637e-01 2.090201056461693074e+00 -5.176767982043765093e-01 8.239960269582203845e-01 3.056491664162697686e-01 3.145080883138410277e-01 8.576410589754327463e-01 2.767545139907298668e-01 1.350213441056457908e+00 2.360885070872696667e-01 4.113680293434778257e-01 -8.881150926814042057e-01 -1.289059198576014975e-01 -6.230300402790984737e-01 -4.093195442171274401e+00 3.015796221130424559e+00 1.733931808931739663e-02 2.813703800931291465e-01 -1.675284818528698816e+00 3.003481047340971766e-01 4.541898602701892051e-01 3.231211854059494182e-01 1.890742655846978648e-01 6.434820350101173592e-01 6.052148996001897041e-01 1.108115309584973840e+00 -4.039240692961007517e-01 -2.397469709210968691e-01 2.652971512231550588e-01 -1.200923878945743262e+00 3.529983436125146423e-01 -6.615565937410142761e-01 3.016266365577279229e-01 4.393159187497387985e-01 1.238967321750311240e-01 4.614172009109060446e-01 2.612097032131230345e-01 -4.777407176366182950e-03 2.676290906691647375e-01 2.809772739468818781e-01 3.675110315786615511e-01 3.097280642864181366e-01 3.030534304363575182e-01 -7.181295850491729027e-01 4.556514697471994446e-01 1.550406256253857418e+00 7.919882679628707789e-02 2.346720875516146720e-01 2.405473330369550244e-01 1.202335359988663921e+00 3.303816559208763715e-01 8.413158444804461067e-02 8.824718236618062095e-01 2.235871333734027466e-01 1.896036433987154490e+00 2.942612280433709593e-01 1.381777441080481061e+00 2.920137485214143735e-01 7.335718208197443690e-01 1.360148943464571936e+00 4.088659916110797821e-01 2.583018979022875805e-01 9.548269913678847365e-01 -1.823869608098986073e-01 -6.937848118158689015e-02 2.572982388845923007e-01 3.072295692328056438e-01 3.659812757960332896e-01 1.462521850558500536e-01 1.014083499503480867e-01 -3.909402936476584767e-01 1.292077162677838675e+00 2.990423822484613026e-01 3.020049576487571774e-01 -3.278216251792305691e+00 5.675366718839690572e-01 2.112031970174683970e-01 3.350243330357402516e-01 3.600925204939139368e-01 4.149562403362293539e-01 -1.132908037829276848e+00 6.363567228325970326e-01 2.978153355162067029e-01 2.977969558730683697e-01 1.017174384984058211e+00 4.708197154010795860e-01 3.180539765274330577e-01 -1.423924495586742722e+00 3.431100723353983084e-01 8.961770611861986646e-01 3.736260275715071466e-01 3.161973606567589079e-01 2.802565182662004606e-01 7.099301220315418215e-01 -4.116734465020730621e-02 3.018887300352068315e-01 3.148958434312573162e-01 1.042392248987753095e-01 6.661328769129098992e-01 2.414892880566571198e-01 6.821054570200406619e-01 1.913905803168454989e-01 6.948279644748928119e-01 -2.525179776151618150e-01 -1.513596354333643923e+00 2.808168060783882702e-01 -2.186223917591427826e-02 2.641494067565678394e-01 3.455413678808911260e-01 5.635197280297095379e-02 4.902839186408063932e-01 3.032434311462792742e-01 8.460116596404999856e-02 4.183462939303306816e-01 3.342764073030609073e-01 2.808702562423719407e-01 3.500752401382979939e-01 -8.709663882861133910e-01 3.016540582473752341e-01 3.310294360231268440e-01 2.789850394876127737e-01 -3.574514055897293208e-01 3.095371314717064171e-01 8.433824812418427852e-01 -6.307198966039074817e-01 1.143361855061221233e+00 6.225597690536134321e-01 3.322791834277760703e-01 3.053757059164167731e-01 -2.076048410221333462e+00 3.046441269323649781e-01 2.744701497421904168e-01 3.287610008562653063e-01 4.902837953195795517e-01 3.068994768368329962e-01 3.478466837162417225e-01 5.219599206431634053e-02 3.037695830226058158e-01 4.325600955947729309e-01 2.851949387647615963e-01 2.382001854557983800e-01 2.804957337227836911e-01 3.110604000921229351e-01 3.118004192145739095e-01 3.522320321749215499e-01 1.489783745296498207e-01 3.117010137845609430e-01 6.308804942403758442e-01 1.519876359805724109e-01 3.129148970299470145e-01 -1.526099540169719992e-01 2.045947259312645150e-01 6.576009622091143481e-01 4.601927792134438810e+00 3.248006503023725400e-01 6.052998545902267546e-02 5.735556973074066311e-01 1.737548723449702515e-01 1.576674019236317781e+00 3.222752979512641391e-01 6.291328231670867410e-01 3.067927894170492387e-01
