# 
#                 ----------------------------------------------------
#                 Data from a 3D direct N-body simulation. 
# 
#                 rows are i-particle; 
#                 coumns are :mass, tag, x ,y, z, vx, vy, vz, ax, ay, az
# 
#                 NTHU, Computational Physics 
# 
#                 ----------------------------------------------------
#                 Time = 0.0
0.000000000000000000e+00 1.000000000000000000e+00 2.000000000000000000e+00 3.000000000000000000e+00 4.000000000000000000e+00 5.000000000000000000e+00 6.000000000000000000e+00 7.000000000000000000e+00 8.000000000000000000e+00 9.000000000000000000e+00 1.000000000000000000e+01 1.100000000000000000e+01 1.200000000000000000e+01 1.300000000000000000e+01 1.400000000000000000e+01 1.500000000000000000e+01 1.600000000000000000e+01 1.700000000000000000e+01 1.800000000000000000e+01 1.900000000000000000e+01 2.000000000000000000e+01 2.100000000000000000e+01 2.200000000000000000e+01 2.300000000000000000e+01 2.400000000000000000e+01 2.500000000000000000e+01 2.600000000000000000e+01 2.700000000000000000e+01 2.800000000000000000e+01 2.900000000000000000e+01 3.000000000000000000e+01 3.100000000000000000e+01 3.200000000000000000e+01 3.300000000000000000e+01 3.400000000000000000e+01 3.500000000000000000e+01 3.600000000000000000e+01 3.700000000000000000e+01 3.800000000000000000e+01 3.900000000000000000e+01 4.000000000000000000e+01 4.100000000000000000e+01 4.200000000000000000e+01 4.300000000000000000e+01 4.400000000000000000e+01 4.500000000000000000e+01 4.600000000000000000e+01 4.700000000000000000e+01 4.800000000000000000e+01 4.900000000000000000e+01 5.000000000000000000e+01 5.100000000000000000e+01 5.200000000000000000e+01 5.300000000000000000e+01 5.400000000000000000e+01 5.500000000000000000e+01 5.600000000000000000e+01 5.700000000000000000e+01 5.800000000000000000e+01 5.900000000000000000e+01 6.000000000000000000e+01 6.100000000000000000e+01 6.200000000000000000e+01 6.300000000000000000e+01 6.400000000000000000e+01 6.500000000000000000e+01 6.600000000000000000e+01 6.700000000000000000e+01 6.800000000000000000e+01 6.900000000000000000e+01 7.000000000000000000e+01 7.100000000000000000e+01 7.200000000000000000e+01 7.300000000000000000e+01 7.400000000000000000e+01 7.500000000000000000e+01 7.600000000000000000e+01 7.700000000000000000e+01 7.800000000000000000e+01 7.900000000000000000e+01 8.000000000000000000e+01 8.100000000000000000e+01 8.200000000000000000e+01 8.300000000000000000e+01 8.400000000000000000e+01 8.500000000000000000e+01 8.600000000000000000e+01 8.700000000000000000e+01 8.800000000000000000e+01 8.900000000000000000e+01 9.000000000000000000e+01 9.100000000000000000e+01 9.200000000000000000e+01 9.300000000000000000e+01 9.400000000000000000e+01 9.500000000000000000e+01 9.600000000000000000e+01 9.700000000000000000e+01 9.800000000000000000e+01 9.900000000000000000e+01 1.000000000000000000e+02 1.010000000000000000e+02 1.020000000000000000e+02 1.030000000000000000e+02 1.040000000000000000e+02 1.050000000000000000e+02 1.060000000000000000e+02 1.070000000000000000e+02 1.080000000000000000e+02 1.090000000000000000e+02 1.100000000000000000e+02 1.110000000000000000e+02 1.120000000000000000e+02 1.130000000000000000e+02 1.140000000000000000e+02 1.150000000000000000e+02 1.160000000000000000e+02 1.170000000000000000e+02 1.180000000000000000e+02 1.190000000000000000e+02 1.200000000000000000e+02 1.210000000000000000e+02 1.220000000000000000e+02 1.230000000000000000e+02 1.240000000000000000e+02 1.250000000000000000e+02 1.260000000000000000e+02 1.270000000000000000e+02 1.280000000000000000e+02 1.290000000000000000e+02 1.300000000000000000e+02 1.310000000000000000e+02 1.320000000000000000e+02 1.330000000000000000e+02 1.340000000000000000e+02 1.350000000000000000e+02 1.360000000000000000e+02 1.370000000000000000e+02 1.380000000000000000e+02 1.390000000000000000e+02 1.400000000000000000e+02 1.410000000000000000e+02 1.420000000000000000e+02 1.430000000000000000e+02 1.440000000000000000e+02 1.450000000000000000e+02 1.460000000000000000e+02 1.470000000000000000e+02 1.480000000000000000e+02 1.490000000000000000e+02 1.500000000000000000e+02 1.510000000000000000e+02 1.520000000000000000e+02 1.530000000000000000e+02 1.540000000000000000e+02 1.550000000000000000e+02 1.560000000000000000e+02 1.570000000000000000e+02 1.580000000000000000e+02 1.590000000000000000e+02 1.600000000000000000e+02 1.610000000000000000e+02 1.620000000000000000e+02 1.630000000000000000e+02 1.640000000000000000e+02 1.650000000000000000e+02 1.660000000000000000e+02 1.670000000000000000e+02 1.680000000000000000e+02 1.690000000000000000e+02 1.700000000000000000e+02 1.710000000000000000e+02 1.720000000000000000e+02 1.730000000000000000e+02 1.740000000000000000e+02 1.750000000000000000e+02 1.760000000000000000e+02 1.770000000000000000e+02 1.780000000000000000e+02 1.790000000000000000e+02 1.800000000000000000e+02 1.810000000000000000e+02 1.820000000000000000e+02 1.830000000000000000e+02 1.840000000000000000e+02 1.850000000000000000e+02 1.860000000000000000e+02 1.870000000000000000e+02 1.880000000000000000e+02 1.890000000000000000e+02 1.900000000000000000e+02 1.910000000000000000e+02 1.920000000000000000e+02 1.930000000000000000e+02 1.940000000000000000e+02 1.950000000000000000e+02 1.960000000000000000e+02 1.970000000000000000e+02 1.980000000000000000e+02 1.990000000000000000e+02 2.000000000000000000e+02 2.010000000000000000e+02 2.020000000000000000e+02 2.030000000000000000e+02 2.040000000000000000e+02 2.050000000000000000e+02 2.060000000000000000e+02 2.070000000000000000e+02 2.080000000000000000e+02 2.090000000000000000e+02 2.100000000000000000e+02 2.110000000000000000e+02 2.120000000000000000e+02 2.130000000000000000e+02 2.140000000000000000e+02 2.150000000000000000e+02 2.160000000000000000e+02 2.170000000000000000e+02 2.180000000000000000e+02 2.190000000000000000e+02 2.200000000000000000e+02 2.210000000000000000e+02 2.220000000000000000e+02 2.230000000000000000e+02 2.240000000000000000e+02 2.250000000000000000e+02 2.260000000000000000e+02 2.270000000000000000e+02 2.280000000000000000e+02 2.290000000000000000e+02 2.300000000000000000e+02 2.310000000000000000e+02 2.320000000000000000e+02 2.330000000000000000e+02 2.340000000000000000e+02 2.350000000000000000e+02 2.360000000000000000e+02 2.370000000000000000e+02 2.380000000000000000e+02 2.390000000000000000e+02 2.400000000000000000e+02 2.410000000000000000e+02 2.420000000000000000e+02 2.430000000000000000e+02 2.440000000000000000e+02 2.450000000000000000e+02 2.460000000000000000e+02 2.470000000000000000e+02 2.480000000000000000e+02 2.490000000000000000e+02 2.500000000000000000e+02 2.510000000000000000e+02 2.520000000000000000e+02 2.530000000000000000e+02 2.540000000000000000e+02 2.550000000000000000e+02 2.560000000000000000e+02 2.570000000000000000e+02 2.580000000000000000e+02 2.590000000000000000e+02 2.600000000000000000e+02 2.610000000000000000e+02 2.620000000000000000e+02 2.630000000000000000e+02 2.640000000000000000e+02 2.650000000000000000e+02 2.660000000000000000e+02 2.670000000000000000e+02 2.680000000000000000e+02 2.690000000000000000e+02 2.700000000000000000e+02 2.710000000000000000e+02 2.720000000000000000e+02 2.730000000000000000e+02 2.740000000000000000e+02 2.750000000000000000e+02 2.760000000000000000e+02 2.770000000000000000e+02 2.780000000000000000e+02 2.790000000000000000e+02 2.800000000000000000e+02 2.810000000000000000e+02 2.820000000000000000e+02 2.830000000000000000e+02 2.840000000000000000e+02 2.850000000000000000e+02 2.860000000000000000e+02 2.870000000000000000e+02 2.880000000000000000e+02 2.890000000000000000e+02 2.900000000000000000e+02 2.910000000000000000e+02 2.920000000000000000e+02 2.930000000000000000e+02 2.940000000000000000e+02 2.950000000000000000e+02 2.960000000000000000e+02 2.970000000000000000e+02 2.980000000000000000e+02 2.990000000000000000e+02 3.000000000000000000e+02 3.010000000000000000e+02 3.020000000000000000e+02 3.030000000000000000e+02 3.040000000000000000e+02 3.050000000000000000e+02 3.060000000000000000e+02 3.070000000000000000e+02 3.080000000000000000e+02 3.090000000000000000e+02 3.100000000000000000e+02 3.110000000000000000e+02 3.120000000000000000e+02 3.130000000000000000e+02 3.140000000000000000e+02 3.150000000000000000e+02 3.160000000000000000e+02 3.170000000000000000e+02 3.180000000000000000e+02 3.190000000000000000e+02 3.200000000000000000e+02 3.210000000000000000e+02 3.220000000000000000e+02 3.230000000000000000e+02 3.240000000000000000e+02 3.250000000000000000e+02 3.260000000000000000e+02 3.270000000000000000e+02 3.280000000000000000e+02 3.290000000000000000e+02 3.300000000000000000e+02 3.310000000000000000e+02 3.320000000000000000e+02 3.330000000000000000e+02 3.340000000000000000e+02 3.350000000000000000e+02 3.360000000000000000e+02 3.370000000000000000e+02 3.380000000000000000e+02 3.390000000000000000e+02 3.400000000000000000e+02 3.410000000000000000e+02 3.420000000000000000e+02 3.430000000000000000e+02 3.440000000000000000e+02 3.450000000000000000e+02 3.460000000000000000e+02 3.470000000000000000e+02 3.480000000000000000e+02 3.490000000000000000e+02 3.500000000000000000e+02 3.510000000000000000e+02 3.520000000000000000e+02 3.530000000000000000e+02 3.540000000000000000e+02 3.550000000000000000e+02 3.560000000000000000e+02 3.570000000000000000e+02 3.580000000000000000e+02 3.590000000000000000e+02 3.600000000000000000e+02 3.610000000000000000e+02 3.620000000000000000e+02 3.630000000000000000e+02 3.640000000000000000e+02 3.650000000000000000e+02 3.660000000000000000e+02 3.670000000000000000e+02 3.680000000000000000e+02 3.690000000000000000e+02 3.700000000000000000e+02 3.710000000000000000e+02 3.720000000000000000e+02 3.730000000000000000e+02 3.740000000000000000e+02 3.750000000000000000e+02 3.760000000000000000e+02 3.770000000000000000e+02 3.780000000000000000e+02 3.790000000000000000e+02 3.800000000000000000e+02 3.810000000000000000e+02 3.820000000000000000e+02 3.830000000000000000e+02 3.840000000000000000e+02 3.850000000000000000e+02 3.860000000000000000e+02 3.870000000000000000e+02 3.880000000000000000e+02 3.890000000000000000e+02 3.900000000000000000e+02 3.910000000000000000e+02 3.920000000000000000e+02 3.930000000000000000e+02 3.940000000000000000e+02 3.950000000000000000e+02 3.960000000000000000e+02 3.970000000000000000e+02 3.980000000000000000e+02 3.990000000000000000e+02 4.000000000000000000e+02 4.010000000000000000e+02 4.020000000000000000e+02 4.030000000000000000e+02 4.040000000000000000e+02 4.050000000000000000e+02 4.060000000000000000e+02 4.070000000000000000e+02 4.080000000000000000e+02 4.090000000000000000e+02 4.100000000000000000e+02 4.110000000000000000e+02 4.120000000000000000e+02 4.130000000000000000e+02 4.140000000000000000e+02 4.150000000000000000e+02 4.160000000000000000e+02 4.170000000000000000e+02 4.180000000000000000e+02 4.190000000000000000e+02 4.200000000000000000e+02 4.210000000000000000e+02 4.220000000000000000e+02 4.230000000000000000e+02 4.240000000000000000e+02 4.250000000000000000e+02 4.260000000000000000e+02 4.270000000000000000e+02 4.280000000000000000e+02 4.290000000000000000e+02 4.300000000000000000e+02 4.310000000000000000e+02 4.320000000000000000e+02 4.330000000000000000e+02 4.340000000000000000e+02 4.350000000000000000e+02 4.360000000000000000e+02 4.370000000000000000e+02 4.380000000000000000e+02 4.390000000000000000e+02 4.400000000000000000e+02 4.410000000000000000e+02 4.420000000000000000e+02 4.430000000000000000e+02 4.440000000000000000e+02 4.450000000000000000e+02 4.460000000000000000e+02 4.470000000000000000e+02 4.480000000000000000e+02 4.490000000000000000e+02 4.500000000000000000e+02 4.510000000000000000e+02 4.520000000000000000e+02 4.530000000000000000e+02 4.540000000000000000e+02 4.550000000000000000e+02 4.560000000000000000e+02 4.570000000000000000e+02 4.580000000000000000e+02 4.590000000000000000e+02 4.600000000000000000e+02 4.610000000000000000e+02 4.620000000000000000e+02 4.630000000000000000e+02 4.640000000000000000e+02 4.650000000000000000e+02 4.660000000000000000e+02 4.670000000000000000e+02 4.680000000000000000e+02 4.690000000000000000e+02 4.700000000000000000e+02 4.710000000000000000e+02 4.720000000000000000e+02 4.730000000000000000e+02 4.740000000000000000e+02 4.750000000000000000e+02 4.760000000000000000e+02 4.770000000000000000e+02 4.780000000000000000e+02 4.790000000000000000e+02 4.800000000000000000e+02 4.810000000000000000e+02 4.820000000000000000e+02 4.830000000000000000e+02 4.840000000000000000e+02 4.850000000000000000e+02 4.860000000000000000e+02 4.870000000000000000e+02 4.880000000000000000e+02 4.890000000000000000e+02 4.900000000000000000e+02 4.910000000000000000e+02 4.920000000000000000e+02 4.930000000000000000e+02 4.940000000000000000e+02 4.950000000000000000e+02 4.960000000000000000e+02 4.970000000000000000e+02 4.980000000000000000e+02 4.990000000000000000e+02 5.000000000000000000e+02 5.010000000000000000e+02 5.020000000000000000e+02 5.030000000000000000e+02 5.040000000000000000e+02 5.050000000000000000e+02 5.060000000000000000e+02 5.070000000000000000e+02 5.080000000000000000e+02 5.090000000000000000e+02 5.100000000000000000e+02 5.110000000000000000e+02 5.120000000000000000e+02 5.130000000000000000e+02 5.140000000000000000e+02 5.150000000000000000e+02 5.160000000000000000e+02 5.170000000000000000e+02 5.180000000000000000e+02 5.190000000000000000e+02 5.200000000000000000e+02 5.210000000000000000e+02 5.220000000000000000e+02 5.230000000000000000e+02 5.240000000000000000e+02 5.250000000000000000e+02 5.260000000000000000e+02 5.270000000000000000e+02 5.280000000000000000e+02 5.290000000000000000e+02 5.300000000000000000e+02 5.310000000000000000e+02 5.320000000000000000e+02 5.330000000000000000e+02 5.340000000000000000e+02 5.350000000000000000e+02 5.360000000000000000e+02 5.370000000000000000e+02 5.380000000000000000e+02 5.390000000000000000e+02 5.400000000000000000e+02 5.410000000000000000e+02 5.420000000000000000e+02 5.430000000000000000e+02 5.440000000000000000e+02 5.450000000000000000e+02 5.460000000000000000e+02 5.470000000000000000e+02 5.480000000000000000e+02 5.490000000000000000e+02 5.500000000000000000e+02 5.510000000000000000e+02 5.520000000000000000e+02 5.530000000000000000e+02 5.540000000000000000e+02 5.550000000000000000e+02 5.560000000000000000e+02 5.570000000000000000e+02 5.580000000000000000e+02 5.590000000000000000e+02 5.600000000000000000e+02 5.610000000000000000e+02 5.620000000000000000e+02 5.630000000000000000e+02 5.640000000000000000e+02 5.650000000000000000e+02 5.660000000000000000e+02 5.670000000000000000e+02 5.680000000000000000e+02 5.690000000000000000e+02 5.700000000000000000e+02 5.710000000000000000e+02 5.720000000000000000e+02 5.730000000000000000e+02 5.740000000000000000e+02 5.750000000000000000e+02 5.760000000000000000e+02 5.770000000000000000e+02 5.780000000000000000e+02 5.790000000000000000e+02 5.800000000000000000e+02 5.810000000000000000e+02 5.820000000000000000e+02 5.830000000000000000e+02 5.840000000000000000e+02 5.850000000000000000e+02 5.860000000000000000e+02 5.870000000000000000e+02 5.880000000000000000e+02 5.890000000000000000e+02 5.900000000000000000e+02 5.910000000000000000e+02 5.920000000000000000e+02 5.930000000000000000e+02 5.940000000000000000e+02 5.950000000000000000e+02 5.960000000000000000e+02 5.970000000000000000e+02 5.980000000000000000e+02 5.990000000000000000e+02 6.000000000000000000e+02 6.010000000000000000e+02 6.020000000000000000e+02 6.030000000000000000e+02 6.040000000000000000e+02 6.050000000000000000e+02 6.060000000000000000e+02 6.070000000000000000e+02 6.080000000000000000e+02 6.090000000000000000e+02 6.100000000000000000e+02 6.110000000000000000e+02 6.120000000000000000e+02 6.130000000000000000e+02 6.140000000000000000e+02 6.150000000000000000e+02 6.160000000000000000e+02 6.170000000000000000e+02 6.180000000000000000e+02 6.190000000000000000e+02 6.200000000000000000e+02 6.210000000000000000e+02 6.220000000000000000e+02 6.230000000000000000e+02 6.240000000000000000e+02 6.250000000000000000e+02 6.260000000000000000e+02 6.270000000000000000e+02 6.280000000000000000e+02 6.290000000000000000e+02 6.300000000000000000e+02 6.310000000000000000e+02 6.320000000000000000e+02 6.330000000000000000e+02 6.340000000000000000e+02 6.350000000000000000e+02 6.360000000000000000e+02 6.370000000000000000e+02 6.380000000000000000e+02 6.390000000000000000e+02 6.400000000000000000e+02 6.410000000000000000e+02 6.420000000000000000e+02 6.430000000000000000e+02 6.440000000000000000e+02 6.450000000000000000e+02 6.460000000000000000e+02 6.470000000000000000e+02 6.480000000000000000e+02 6.490000000000000000e+02 6.500000000000000000e+02 6.510000000000000000e+02 6.520000000000000000e+02 6.530000000000000000e+02 6.540000000000000000e+02 6.550000000000000000e+02 6.560000000000000000e+02 6.570000000000000000e+02 6.580000000000000000e+02 6.590000000000000000e+02 6.600000000000000000e+02 6.610000000000000000e+02 6.620000000000000000e+02 6.630000000000000000e+02 6.640000000000000000e+02 6.650000000000000000e+02 6.660000000000000000e+02 6.670000000000000000e+02 6.680000000000000000e+02 6.690000000000000000e+02 6.700000000000000000e+02 6.710000000000000000e+02 6.720000000000000000e+02 6.730000000000000000e+02 6.740000000000000000e+02 6.750000000000000000e+02 6.760000000000000000e+02 6.770000000000000000e+02 6.780000000000000000e+02 6.790000000000000000e+02 6.800000000000000000e+02 6.810000000000000000e+02 6.820000000000000000e+02 6.830000000000000000e+02 6.840000000000000000e+02 6.850000000000000000e+02 6.860000000000000000e+02 6.870000000000000000e+02 6.880000000000000000e+02 6.890000000000000000e+02 6.900000000000000000e+02 6.910000000000000000e+02 6.920000000000000000e+02 6.930000000000000000e+02 6.940000000000000000e+02 6.950000000000000000e+02 6.960000000000000000e+02 6.970000000000000000e+02 6.980000000000000000e+02 6.990000000000000000e+02 7.000000000000000000e+02 7.010000000000000000e+02 7.020000000000000000e+02 7.030000000000000000e+02 7.040000000000000000e+02 7.050000000000000000e+02 7.060000000000000000e+02 7.070000000000000000e+02 7.080000000000000000e+02 7.090000000000000000e+02 7.100000000000000000e+02 7.110000000000000000e+02 7.120000000000000000e+02 7.130000000000000000e+02 7.140000000000000000e+02 7.150000000000000000e+02 7.160000000000000000e+02 7.170000000000000000e+02 7.180000000000000000e+02 7.190000000000000000e+02 7.200000000000000000e+02 7.210000000000000000e+02 7.220000000000000000e+02 7.230000000000000000e+02 7.240000000000000000e+02 7.250000000000000000e+02 7.260000000000000000e+02 7.270000000000000000e+02 7.280000000000000000e+02 7.290000000000000000e+02 7.300000000000000000e+02 7.310000000000000000e+02 7.320000000000000000e+02 7.330000000000000000e+02 7.340000000000000000e+02 7.350000000000000000e+02 7.360000000000000000e+02 7.370000000000000000e+02 7.380000000000000000e+02 7.390000000000000000e+02 7.400000000000000000e+02 7.410000000000000000e+02 7.420000000000000000e+02 7.430000000000000000e+02 7.440000000000000000e+02 7.450000000000000000e+02 7.460000000000000000e+02 7.470000000000000000e+02 7.480000000000000000e+02 7.490000000000000000e+02 7.500000000000000000e+02 7.510000000000000000e+02 7.520000000000000000e+02 7.530000000000000000e+02 7.540000000000000000e+02 7.550000000000000000e+02 7.560000000000000000e+02 7.570000000000000000e+02 7.580000000000000000e+02 7.590000000000000000e+02 7.600000000000000000e+02 7.610000000000000000e+02 7.620000000000000000e+02 7.630000000000000000e+02 7.640000000000000000e+02 7.650000000000000000e+02 7.660000000000000000e+02 7.670000000000000000e+02 7.680000000000000000e+02 7.690000000000000000e+02 7.700000000000000000e+02 7.710000000000000000e+02 7.720000000000000000e+02 7.730000000000000000e+02 7.740000000000000000e+02 7.750000000000000000e+02 7.760000000000000000e+02 7.770000000000000000e+02 7.780000000000000000e+02 7.790000000000000000e+02 7.800000000000000000e+02 7.810000000000000000e+02 7.820000000000000000e+02 7.830000000000000000e+02 7.840000000000000000e+02 7.850000000000000000e+02 7.860000000000000000e+02 7.870000000000000000e+02 7.880000000000000000e+02 7.890000000000000000e+02 7.900000000000000000e+02 7.910000000000000000e+02 7.920000000000000000e+02 7.930000000000000000e+02 7.940000000000000000e+02 7.950000000000000000e+02 7.960000000000000000e+02 7.970000000000000000e+02 7.980000000000000000e+02 7.990000000000000000e+02 8.000000000000000000e+02 8.010000000000000000e+02 8.020000000000000000e+02 8.030000000000000000e+02 8.040000000000000000e+02 8.050000000000000000e+02 8.060000000000000000e+02 8.070000000000000000e+02 8.080000000000000000e+02 8.090000000000000000e+02 8.100000000000000000e+02 8.110000000000000000e+02 8.120000000000000000e+02 8.130000000000000000e+02 8.140000000000000000e+02 8.150000000000000000e+02 8.160000000000000000e+02 8.170000000000000000e+02 8.180000000000000000e+02 8.190000000000000000e+02 8.200000000000000000e+02 8.210000000000000000e+02 8.220000000000000000e+02 8.230000000000000000e+02 8.240000000000000000e+02 8.250000000000000000e+02 8.260000000000000000e+02 8.270000000000000000e+02 8.280000000000000000e+02 8.290000000000000000e+02 8.300000000000000000e+02 8.310000000000000000e+02 8.320000000000000000e+02 8.330000000000000000e+02 8.340000000000000000e+02 8.350000000000000000e+02 8.360000000000000000e+02 8.370000000000000000e+02 8.380000000000000000e+02 8.390000000000000000e+02 8.400000000000000000e+02 8.410000000000000000e+02 8.420000000000000000e+02 8.430000000000000000e+02 8.440000000000000000e+02 8.450000000000000000e+02 8.460000000000000000e+02 8.470000000000000000e+02 8.480000000000000000e+02 8.490000000000000000e+02 8.500000000000000000e+02 8.510000000000000000e+02 8.520000000000000000e+02 8.530000000000000000e+02 8.540000000000000000e+02 8.550000000000000000e+02 8.560000000000000000e+02 8.570000000000000000e+02 8.580000000000000000e+02 8.590000000000000000e+02 8.600000000000000000e+02 8.610000000000000000e+02 8.620000000000000000e+02 8.630000000000000000e+02 8.640000000000000000e+02 8.650000000000000000e+02 8.660000000000000000e+02 8.670000000000000000e+02 8.680000000000000000e+02 8.690000000000000000e+02 8.700000000000000000e+02 8.710000000000000000e+02 8.720000000000000000e+02 8.730000000000000000e+02 8.740000000000000000e+02 8.750000000000000000e+02 8.760000000000000000e+02 8.770000000000000000e+02 8.780000000000000000e+02 8.790000000000000000e+02 8.800000000000000000e+02 8.810000000000000000e+02 8.820000000000000000e+02 8.830000000000000000e+02 8.840000000000000000e+02 8.850000000000000000e+02 8.860000000000000000e+02 8.870000000000000000e+02 8.880000000000000000e+02 8.890000000000000000e+02 8.900000000000000000e+02 8.910000000000000000e+02 8.920000000000000000e+02 8.930000000000000000e+02 8.940000000000000000e+02 8.950000000000000000e+02 8.960000000000000000e+02 8.970000000000000000e+02 8.980000000000000000e+02 8.990000000000000000e+02 9.000000000000000000e+02 9.010000000000000000e+02 9.020000000000000000e+02 9.030000000000000000e+02 9.040000000000000000e+02 9.050000000000000000e+02 9.060000000000000000e+02 9.070000000000000000e+02 9.080000000000000000e+02 9.090000000000000000e+02 9.100000000000000000e+02 9.110000000000000000e+02 9.120000000000000000e+02 9.130000000000000000e+02 9.140000000000000000e+02 9.150000000000000000e+02 9.160000000000000000e+02 9.170000000000000000e+02 9.180000000000000000e+02 9.190000000000000000e+02 9.200000000000000000e+02 9.210000000000000000e+02 9.220000000000000000e+02 9.230000000000000000e+02 9.240000000000000000e+02 9.250000000000000000e+02 9.260000000000000000e+02 9.270000000000000000e+02 9.280000000000000000e+02 9.290000000000000000e+02 9.300000000000000000e+02 9.310000000000000000e+02 9.320000000000000000e+02 9.330000000000000000e+02 9.340000000000000000e+02 9.350000000000000000e+02 9.360000000000000000e+02 9.370000000000000000e+02 9.380000000000000000e+02 9.390000000000000000e+02 9.400000000000000000e+02 9.410000000000000000e+02 9.420000000000000000e+02 9.430000000000000000e+02 9.440000000000000000e+02 9.450000000000000000e+02 9.460000000000000000e+02 9.470000000000000000e+02 9.480000000000000000e+02 9.490000000000000000e+02 9.500000000000000000e+02 9.510000000000000000e+02 9.520000000000000000e+02 9.530000000000000000e+02 9.540000000000000000e+02 9.550000000000000000e+02 9.560000000000000000e+02 9.570000000000000000e+02 9.580000000000000000e+02 9.590000000000000000e+02 9.600000000000000000e+02 9.610000000000000000e+02 9.620000000000000000e+02 9.630000000000000000e+02 9.640000000000000000e+02 9.650000000000000000e+02 9.660000000000000000e+02 9.670000000000000000e+02 9.680000000000000000e+02 9.690000000000000000e+02 9.700000000000000000e+02 9.710000000000000000e+02 9.720000000000000000e+02 9.730000000000000000e+02 9.740000000000000000e+02 9.750000000000000000e+02 9.760000000000000000e+02 9.770000000000000000e+02 9.780000000000000000e+02 9.790000000000000000e+02 9.800000000000000000e+02 9.810000000000000000e+02 9.820000000000000000e+02 9.830000000000000000e+02 9.840000000000000000e+02 9.850000000000000000e+02 9.860000000000000000e+02 9.870000000000000000e+02 9.880000000000000000e+02 9.890000000000000000e+02 9.900000000000000000e+02 9.910000000000000000e+02 9.920000000000000000e+02 9.930000000000000000e+02 9.940000000000000000e+02 9.950000000000000000e+02 9.960000000000000000e+02 9.970000000000000000e+02 9.980000000000000000e+02 9.990000000000000000e+02
1.000000000000000000e+00 1.000000000000000000e+00 1.000000000000000000e+00 1.000000000000000000e+00 1.000000000000000000e+00 1.000000000000000000e+00 1.000000000000000000e+00 1.000000000000000000e+00 1.000000000000000000e+00 1.000000000000000000e+00 1.000000000000000000e+00 1.000000000000000000e+00 1.000000000000000000e+00 1.000000000000000000e+00 1.000000000000000000e+00 1.000000000000000000e+00 1.000000000000000000e+00 1.000000000000000000e+00 1.000000000000000000e+00 1.000000000000000000e+00 1.000000000000000000e+00 1.000000000000000000e+00 1.000000000000000000e+00 1.000000000000000000e+00 1.000000000000000000e+00 1.000000000000000000e+00 1.000000000000000000e+00 1.000000000000000000e+00 1.000000000000000000e+00 1.000000000000000000e+00 1.000000000000000000e+00 1.000000000000000000e+00 1.000000000000000000e+00 1.000000000000000000e+00 1.000000000000000000e+00 1.000000000000000000e+00 1.000000000000000000e+00 1.000000000000000000e+00 1.000000000000000000e+00 1.000000000000000000e+00 1.000000000000000000e+00 1.000000000000000000e+00 1.000000000000000000e+00 1.000000000000000000e+00 1.000000000000000000e+00 1.000000000000000000e+00 1.000000000000000000e+00 1.000000000000000000e+00 1.000000000000000000e+00 1.000000000000000000e+00 1.000000000000000000e+00 1.000000000000000000e+00 1.000000000000000000e+00 1.000000000000000000e+00 1.000000000000000000e+00 1.000000000000000000e+00 1.000000000000000000e+00 1.000000000000000000e+00 1.000000000000000000e+00 1.000000000000000000e+00 1.000000000000000000e+00 1.000000000000000000e+00 1.000000000000000000e+00 1.000000000000000000e+00 1.000000000000000000e+00 1.000000000000000000e+00 1.000000000000000000e+00 1.000000000000000000e+00 1.000000000000000000e+00 1.000000000000000000e+00 1.000000000000000000e+00 1.000000000000000000e+00 1.000000000000000000e+00 1.000000000000000000e+00 1.000000000000000000e+00 1.000000000000000000e+00 1.000000000000000000e+00 1.000000000000000000e+00 1.000000000000000000e+00 1.000000000000000000e+00 1.000000000000000000e+00 1.000000000000000000e+00 1.000000000000000000e+00 1.000000000000000000e+00 1.000000000000000000e+00 1.000000000000000000e+00 1.000000000000000000e+00 1.000000000000000000e+00 1.000000000000000000e+00 1.000000000000000000e+00 1.000000000000000000e+00 1.000000000000000000e+00 1.000000000000000000e+00 1.000000000000000000e+00 1.000000000000000000e+00 1.000000000000000000e+00 1.000000000000000000e+00 1.000000000000000000e+00 1.000000000000000000e+00 1.000000000000000000e+00 1.000000000000000000e+00 1.000000000000000000e+00 1.000000000000000000e+00 1.000000000000000000e+00 1.000000000000000000e+00 1.000000000000000000e+00 1.000000000000000000e+00 1.000000000000000000e+00 1.000000000000000000e+00 1.000000000000000000e+00 1.000000000000000000e+00 1.000000000000000000e+00 1.000000000000000000e+00 1.000000000000000000e+00 1.000000000000000000e+00 1.000000000000000000e+00 1.000000000000000000e+00 1.000000000000000000e+00 1.000000000000000000e+00 1.000000000000000000e+00 1.000000000000000000e+00 1.000000000000000000e+00 1.000000000000000000e+00 1.000000000000000000e+00 1.000000000000000000e+00 1.000000000000000000e+00 1.000000000000000000e+00 1.000000000000000000e+00 1.000000000000000000e+00 1.000000000000000000e+00 1.000000000000000000e+00 1.000000000000000000e+00 1.000000000000000000e+00 1.000000000000000000e+00 1.000000000000000000e+00 1.000000000000000000e+00 1.000000000000000000e+00 1.000000000000000000e+00 1.000000000000000000e+00 1.000000000000000000e+00 1.000000000000000000e+00 1.000000000000000000e+00 1.000000000000000000e+00 1.000000000000000000e+00 1.000000000000000000e+00 1.000000000000000000e+00 1.000000000000000000e+00 1.000000000000000000e+00 1.000000000000000000e+00 1.000000000000000000e+00 1.000000000000000000e+00 1.000000000000000000e+00 1.000000000000000000e+00 1.000000000000000000e+00 1.000000000000000000e+00 1.000000000000000000e+00 1.000000000000000000e+00 1.000000000000000000e+00 1.000000000000000000e+00 1.000000000000000000e+00 1.000000000000000000e+00 1.000000000000000000e+00 1.000000000000000000e+00 1.000000000000000000e+00 1.000000000000000000e+00 1.000000000000000000e+00 1.000000000000000000e+00 1.000000000000000000e+00 1.000000000000000000e+00 1.000000000000000000e+00 1.000000000000000000e+00 1.000000000000000000e+00 1.000000000000000000e+00 1.000000000000000000e+00 1.000000000000000000e+00 1.000000000000000000e+00 1.000000000000000000e+00 1.000000000000000000e+00 1.000000000000000000e+00 1.000000000000000000e+00 1.000000000000000000e+00 1.000000000000000000e+00 1.000000000000000000e+00 1.000000000000000000e+00 1.000000000000000000e+00 1.000000000000000000e+00 1.000000000000000000e+00 1.000000000000000000e+00 1.000000000000000000e+00 1.000000000000000000e+00 1.000000000000000000e+00 1.000000000000000000e+00 1.000000000000000000e+00 1.000000000000000000e+00 1.000000000000000000e+00 1.000000000000000000e+00 1.000000000000000000e+00 1.000000000000000000e+00 1.000000000000000000e+00 1.000000000000000000e+00 1.000000000000000000e+00 1.000000000000000000e+00 1.000000000000000000e+00 1.000000000000000000e+00 1.000000000000000000e+00 1.000000000000000000e+00 1.000000000000000000e+00 1.000000000000000000e+00 1.000000000000000000e+00 1.000000000000000000e+00 1.000000000000000000e+00 1.000000000000000000e+00 1.000000000000000000e+00 1.000000000000000000e+00 1.000000000000000000e+00 1.000000000000000000e+00 1.000000000000000000e+00 1.000000000000000000e+00 1.000000000000000000e+00 1.000000000000000000e+00 1.000000000000000000e+00 1.000000000000000000e+00 1.000000000000000000e+00 1.000000000000000000e+00 1.000000000000000000e+00 1.000000000000000000e+00 1.000000000000000000e+00 1.000000000000000000e+00 1.000000000000000000e+00 1.000000000000000000e+00 1.000000000000000000e+00 1.000000000000000000e+00 1.000000000000000000e+00 1.000000000000000000e+00 1.000000000000000000e+00 1.000000000000000000e+00 1.000000000000000000e+00 1.000000000000000000e+00 1.000000000000000000e+00 1.000000000000000000e+00 1.000000000000000000e+00 1.000000000000000000e+00 1.000000000000000000e+00 1.000000000000000000e+00 1.000000000000000000e+00 1.000000000000000000e+00 1.000000000000000000e+00 1.000000000000000000e+00 1.000000000000000000e+00 1.000000000000000000e+00 1.000000000000000000e+00 1.000000000000000000e+00 1.000000000000000000e+00 1.000000000000000000e+00 1.000000000000000000e+00 1.000000000000000000e+00 1.000000000000000000e+00 1.000000000000000000e+00 1.000000000000000000e+00 1.000000000000000000e+00 1.000000000000000000e+00 1.000000000000000000e+00 1.000000000000000000e+00 1.000000000000000000e+00 1.000000000000000000e+00 1.000000000000000000e+00 1.000000000000000000e+00 1.000000000000000000e+00 1.000000000000000000e+00 1.000000000000000000e+00 1.000000000000000000e+00 1.000000000000000000e+00 1.000000000000000000e+00 1.000000000000000000e+00 1.000000000000000000e+00 1.000000000000000000e+00 1.000000000000000000e+00 1.000000000000000000e+00 1.000000000000000000e+00 1.000000000000000000e+00 1.000000000000000000e+00 1.000000000000000000e+00 1.000000000000000000e+00 1.000000000000000000e+00 1.000000000000000000e+00 1.000000000000000000e+00 1.000000000000000000e+00 1.000000000000000000e+00 1.000000000000000000e+00 1.000000000000000000e+00 1.000000000000000000e+00 1.000000000000000000e+00 1.000000000000000000e+00 1.000000000000000000e+00 1.000000000000000000e+00 1.000000000000000000e+00 1.000000000000000000e+00 1.000000000000000000e+00 1.000000000000000000e+00 1.000000000000000000e+00 1.000000000000000000e+00 1.000000000000000000e+00 1.000000000000000000e+00 1.000000000000000000e+00 1.000000000000000000e+00 1.000000000000000000e+00 1.000000000000000000e+00 1.000000000000000000e+00 1.000000000000000000e+00 1.000000000000000000e+00 1.000000000000000000e+00 1.000000000000000000e+00 1.000000000000000000e+00 1.000000000000000000e+00 1.000000000000000000e+00 1.000000000000000000e+00 1.000000000000000000e+00 1.000000000000000000e+00 1.000000000000000000e+00 1.000000000000000000e+00 1.000000000000000000e+00 1.000000000000000000e+00 1.000000000000000000e+00 1.000000000000000000e+00 1.000000000000000000e+00 1.000000000000000000e+00 1.000000000000000000e+00 1.000000000000000000e+00 1.000000000000000000e+00 1.000000000000000000e+00 1.000000000000000000e+00 1.000000000000000000e+00 1.000000000000000000e+00 1.000000000000000000e+00 1.000000000000000000e+00 1.000000000000000000e+00 1.000000000000000000e+00 1.000000000000000000e+00 1.000000000000000000e+00 1.000000000000000000e+00 1.000000000000000000e+00 1.000000000000000000e+00 1.000000000000000000e+00 1.000000000000000000e+00 1.000000000000000000e+00 1.000000000000000000e+00 1.000000000000000000e+00 1.000000000000000000e+00 1.000000000000000000e+00 1.000000000000000000e+00 1.000000000000000000e+00 1.000000000000000000e+00 1.000000000000000000e+00 1.000000000000000000e+00 1.000000000000000000e+00 1.000000000000000000e+00 1.000000000000000000e+00 1.000000000000000000e+00 1.000000000000000000e+00 1.000000000000000000e+00 1.000000000000000000e+00 1.000000000000000000e+00 1.000000000000000000e+00 1.000000000000000000e+00 1.000000000000000000e+00 1.000000000000000000e+00 1.000000000000000000e+00 1.000000000000000000e+00 1.000000000000000000e+00 1.000000000000000000e+00 1.000000000000000000e+00 1.000000000000000000e+00 1.000000000000000000e+00 1.000000000000000000e+00 1.000000000000000000e+00 1.000000000000000000e+00 1.000000000000000000e+00 1.000000000000000000e+00 1.000000000000000000e+00 1.000000000000000000e+00 1.000000000000000000e+00 1.000000000000000000e+00 1.000000000000000000e+00 1.000000000000000000e+00 1.000000000000000000e+00 1.000000000000000000e+00 1.000000000000000000e+00 1.000000000000000000e+00 1.000000000000000000e+00 1.000000000000000000e+00 1.000000000000000000e+00 1.000000000000000000e+00 1.000000000000000000e+00 1.000000000000000000e+00 1.000000000000000000e+00 1.000000000000000000e+00 1.000000000000000000e+00 1.000000000000000000e+00 1.000000000000000000e+00 1.000000000000000000e+00 1.000000000000000000e+00 1.000000000000000000e+00 1.000000000000000000e+00 1.000000000000000000e+00 1.000000000000000000e+00 1.000000000000000000e+00 1.000000000000000000e+00 1.000000000000000000e+00 1.000000000000000000e+00 1.000000000000000000e+00 1.000000000000000000e+00 1.000000000000000000e+00 1.000000000000000000e+00 1.000000000000000000e+00 1.000000000000000000e+00 1.000000000000000000e+00 1.000000000000000000e+00 1.000000000000000000e+00 1.000000000000000000e+00 1.000000000000000000e+00 1.000000000000000000e+00 1.000000000000000000e+00 1.000000000000000000e+00 1.000000000000000000e+00 1.000000000000000000e+00 1.000000000000000000e+00 1.000000000000000000e+00 1.000000000000000000e+00 1.000000000000000000e+00 1.000000000000000000e+00 1.000000000000000000e+00 1.000000000000000000e+00 1.000000000000000000e+00 1.000000000000000000e+00 1.000000000000000000e+00 1.000000000000000000e+00 1.000000000000000000e+00 1.000000000000000000e+00 1.000000000000000000e+00 1.000000000000000000e+00 1.000000000000000000e+00 1.000000000000000000e+00 1.000000000000000000e+00 1.000000000000000000e+00 1.000000000000000000e+00 1.000000000000000000e+00 1.000000000000000000e+00 1.000000000000000000e+00 1.000000000000000000e+00 1.000000000000000000e+00 1.000000000000000000e+00 1.000000000000000000e+00 1.000000000000000000e+00 1.000000000000000000e+00 1.000000000000000000e+00 1.000000000000000000e+00 1.000000000000000000e+00 1.000000000000000000e+00 1.000000000000000000e+00 1.000000000000000000e+00 1.000000000000000000e+00 1.000000000000000000e+00 1.000000000000000000e+00 1.000000000000000000e+00 1.000000000000000000e+00 1.000000000000000000e+00 1.000000000000000000e+00 1.000000000000000000e+00 1.000000000000000000e+00 1.000000000000000000e+00 1.000000000000000000e+00 1.000000000000000000e+00 1.000000000000000000e+00 1.000000000000000000e+00 1.000000000000000000e+00 1.000000000000000000e+00 1.000000000000000000e+00 1.000000000000000000e+00 1.000000000000000000e+00 1.000000000000000000e+00 1.000000000000000000e+00 1.000000000000000000e+00 1.000000000000000000e+00 1.000000000000000000e+00 1.000000000000000000e+00 1.000000000000000000e+00 1.000000000000000000e+00 1.000000000000000000e+00 1.000000000000000000e+00 1.000000000000000000e+00 1.000000000000000000e+00 1.000000000000000000e+00 1.000000000000000000e+00 1.000000000000000000e+00 1.000000000000000000e+00 1.000000000000000000e+00 1.000000000000000000e+00 1.000000000000000000e+00 1.000000000000000000e+00 1.000000000000000000e+00 1.000000000000000000e+00 1.000000000000000000e+00 1.000000000000000000e+00 1.000000000000000000e+00 1.000000000000000000e+00 1.000000000000000000e+00 1.000000000000000000e+00 1.000000000000000000e+00 1.000000000000000000e+00 1.000000000000000000e+00 1.000000000000000000e+00 1.000000000000000000e+00 1.000000000000000000e+00 1.000000000000000000e+00 1.000000000000000000e+00 1.000000000000000000e+00 1.000000000000000000e+00 1.000000000000000000e+00 1.000000000000000000e+00 1.000000000000000000e+00 1.000000000000000000e+00 1.000000000000000000e+00 1.000000000000000000e+00 1.000000000000000000e+00 1.000000000000000000e+00 1.000000000000000000e+00 1.000000000000000000e+00 1.000000000000000000e+00 1.000000000000000000e+00 1.000000000000000000e+00 1.000000000000000000e+00 1.000000000000000000e+00 1.000000000000000000e+00 1.000000000000000000e+00 1.000000000000000000e+00 1.000000000000000000e+00 1.000000000000000000e+00 1.000000000000000000e+00 1.000000000000000000e+00 1.000000000000000000e+00 1.000000000000000000e+00 1.000000000000000000e+00 1.000000000000000000e+00 1.000000000000000000e+00 1.000000000000000000e+00 1.000000000000000000e+00 1.000000000000000000e+00 1.000000000000000000e+00 1.000000000000000000e+00 1.000000000000000000e+00 1.000000000000000000e+00 1.000000000000000000e+00 1.000000000000000000e+00 1.000000000000000000e+00 1.000000000000000000e+00 1.000000000000000000e+00 1.000000000000000000e+00 1.000000000000000000e+00 1.000000000000000000e+00 1.000000000000000000e+00 1.000000000000000000e+00 1.000000000000000000e+00 1.000000000000000000e+00 1.000000000000000000e+00 1.000000000000000000e+00 1.000000000000000000e+00 1.000000000000000000e+00 1.000000000000000000e+00 1.000000000000000000e+00 1.000000000000000000e+00 1.000000000000000000e+00 1.000000000000000000e+00 1.000000000000000000e+00 1.000000000000000000e+00 1.000000000000000000e+00 1.000000000000000000e+00 1.000000000000000000e+00 1.000000000000000000e+00 1.000000000000000000e+00 1.000000000000000000e+00 1.000000000000000000e+00 1.000000000000000000e+00 1.000000000000000000e+00 1.000000000000000000e+00 1.000000000000000000e+00 1.000000000000000000e+00 1.000000000000000000e+00 1.000000000000000000e+00 1.000000000000000000e+00 1.000000000000000000e+00 1.000000000000000000e+00 1.000000000000000000e+00 1.000000000000000000e+00 1.000000000000000000e+00 1.000000000000000000e+00 1.000000000000000000e+00 1.000000000000000000e+00 1.000000000000000000e+00 1.000000000000000000e+00 1.000000000000000000e+00 1.000000000000000000e+00 1.000000000000000000e+00 1.000000000000000000e+00 1.000000000000000000e+00 1.000000000000000000e+00 1.000000000000000000e+00 1.000000000000000000e+00 1.000000000000000000e+00 1.000000000000000000e+00 1.000000000000000000e+00 1.000000000000000000e+00 1.000000000000000000e+00 1.000000000000000000e+00 1.000000000000000000e+00 1.000000000000000000e+00 1.000000000000000000e+00 1.000000000000000000e+00 1.000000000000000000e+00 1.000000000000000000e+00 1.000000000000000000e+00 1.000000000000000000e+00 1.000000000000000000e+00 1.000000000000000000e+00 1.000000000000000000e+00 1.000000000000000000e+00 1.000000000000000000e+00 1.000000000000000000e+00 1.000000000000000000e+00 1.000000000000000000e+00 1.000000000000000000e+00 1.000000000000000000e+00 1.000000000000000000e+00 1.000000000000000000e+00 1.000000000000000000e+00 1.000000000000000000e+00 1.000000000000000000e+00 1.000000000000000000e+00 1.000000000000000000e+00 1.000000000000000000e+00 1.000000000000000000e+00 1.000000000000000000e+00 1.000000000000000000e+00 1.000000000000000000e+00 1.000000000000000000e+00 1.000000000000000000e+00 1.000000000000000000e+00 1.000000000000000000e+00 1.000000000000000000e+00 1.000000000000000000e+00 1.000000000000000000e+00 1.000000000000000000e+00 1.000000000000000000e+00 1.000000000000000000e+00 1.000000000000000000e+00 1.000000000000000000e+00 1.000000000000000000e+00 1.000000000000000000e+00 1.000000000000000000e+00 1.000000000000000000e+00 1.000000000000000000e+00 1.000000000000000000e+00 1.000000000000000000e+00 1.000000000000000000e+00 1.000000000000000000e+00 1.000000000000000000e+00 1.000000000000000000e+00 1.000000000000000000e+00 1.000000000000000000e+00 1.000000000000000000e+00 1.000000000000000000e+00 1.000000000000000000e+00 1.000000000000000000e+00 1.000000000000000000e+00 1.000000000000000000e+00 1.000000000000000000e+00 1.000000000000000000e+00 1.000000000000000000e+00 1.000000000000000000e+00 1.000000000000000000e+00 1.000000000000000000e+00 1.000000000000000000e+00 1.000000000000000000e+00 1.000000000000000000e+00 1.000000000000000000e+00 1.000000000000000000e+00 1.000000000000000000e+00 1.000000000000000000e+00 1.000000000000000000e+00 1.000000000000000000e+00 1.000000000000000000e+00 1.000000000000000000e+00 1.000000000000000000e+00 1.000000000000000000e+00 1.000000000000000000e+00 1.000000000000000000e+00 1.000000000000000000e+00 1.000000000000000000e+00 1.000000000000000000e+00 1.000000000000000000e+00 1.000000000000000000e+00 1.000000000000000000e+00 1.000000000000000000e+00 1.000000000000000000e+00 1.000000000000000000e+00 1.000000000000000000e+00 1.000000000000000000e+00 1.000000000000000000e+00 1.000000000000000000e+00 1.000000000000000000e+00 1.000000000000000000e+00 1.000000000000000000e+00 1.000000000000000000e+00 1.000000000000000000e+00 1.000000000000000000e+00 1.000000000000000000e+00 1.000000000000000000e+00 1.000000000000000000e+00 1.000000000000000000e+00 1.000000000000000000e+00 1.000000000000000000e+00 1.000000000000000000e+00 1.000000000000000000e+00 1.000000000000000000e+00 1.000000000000000000e+00 1.000000000000000000e+00 1.000000000000000000e+00 1.000000000000000000e+00 1.000000000000000000e+00 1.000000000000000000e+00 1.000000000000000000e+00 1.000000000000000000e+00 1.000000000000000000e+00 1.000000000000000000e+00 1.000000000000000000e+00 1.000000000000000000e+00 1.000000000000000000e+00 1.000000000000000000e+00 1.000000000000000000e+00 1.000000000000000000e+00 1.000000000000000000e+00 1.000000000000000000e+00 1.000000000000000000e+00 1.000000000000000000e+00 1.000000000000000000e+00 1.000000000000000000e+00 1.000000000000000000e+00 1.000000000000000000e+00 1.000000000000000000e+00 1.000000000000000000e+00 1.000000000000000000e+00 1.000000000000000000e+00 1.000000000000000000e+00 1.000000000000000000e+00 1.000000000000000000e+00 1.000000000000000000e+00 1.000000000000000000e+00 1.000000000000000000e+00 1.000000000000000000e+00 1.000000000000000000e+00 1.000000000000000000e+00 1.000000000000000000e+00 1.000000000000000000e+00 1.000000000000000000e+00 1.000000000000000000e+00 1.000000000000000000e+00 1.000000000000000000e+00 1.000000000000000000e+00 1.000000000000000000e+00 1.000000000000000000e+00 1.000000000000000000e+00 1.000000000000000000e+00 1.000000000000000000e+00 1.000000000000000000e+00 1.000000000000000000e+00 1.000000000000000000e+00 1.000000000000000000e+00 1.000000000000000000e+00 1.000000000000000000e+00 1.000000000000000000e+00 1.000000000000000000e+00 1.000000000000000000e+00 1.000000000000000000e+00 1.000000000000000000e+00 1.000000000000000000e+00 1.000000000000000000e+00 1.000000000000000000e+00 1.000000000000000000e+00 1.000000000000000000e+00 1.000000000000000000e+00 1.000000000000000000e+00 1.000000000000000000e+00 1.000000000000000000e+00 1.000000000000000000e+00 1.000000000000000000e+00 1.000000000000000000e+00 1.000000000000000000e+00 1.000000000000000000e+00 1.000000000000000000e+00 1.000000000000000000e+00 1.000000000000000000e+00 1.000000000000000000e+00 1.000000000000000000e+00 1.000000000000000000e+00 1.000000000000000000e+00 1.000000000000000000e+00 1.000000000000000000e+00 1.000000000000000000e+00 1.000000000000000000e+00 1.000000000000000000e+00 1.000000000000000000e+00 1.000000000000000000e+00 1.000000000000000000e+00 1.000000000000000000e+00 1.000000000000000000e+00 1.000000000000000000e+00 1.000000000000000000e+00 1.000000000000000000e+00 1.000000000000000000e+00 1.000000000000000000e+00 1.000000000000000000e+00 1.000000000000000000e+00 1.000000000000000000e+00 1.000000000000000000e+00 1.000000000000000000e+00 1.000000000000000000e+00 1.000000000000000000e+00 1.000000000000000000e+00 1.000000000000000000e+00 1.000000000000000000e+00 1.000000000000000000e+00 1.000000000000000000e+00 1.000000000000000000e+00 1.000000000000000000e+00 1.000000000000000000e+00 1.000000000000000000e+00 1.000000000000000000e+00 1.000000000000000000e+00 1.000000000000000000e+00 1.000000000000000000e+00 1.000000000000000000e+00 1.000000000000000000e+00 1.000000000000000000e+00 1.000000000000000000e+00 1.000000000000000000e+00 1.000000000000000000e+00 1.000000000000000000e+00 1.000000000000000000e+00 1.000000000000000000e+00 1.000000000000000000e+00 1.000000000000000000e+00 1.000000000000000000e+00 1.000000000000000000e+00 1.000000000000000000e+00 1.000000000000000000e+00 1.000000000000000000e+00 1.000000000000000000e+00 1.000000000000000000e+00 1.000000000000000000e+00 1.000000000000000000e+00 1.000000000000000000e+00 1.000000000000000000e+00 1.000000000000000000e+00 1.000000000000000000e+00 1.000000000000000000e+00 1.000000000000000000e+00 1.000000000000000000e+00 1.000000000000000000e+00 1.000000000000000000e+00 1.000000000000000000e+00 1.000000000000000000e+00 1.000000000000000000e+00 1.000000000000000000e+00 1.000000000000000000e+00 1.000000000000000000e+00 1.000000000000000000e+00 1.000000000000000000e+00 1.000000000000000000e+00 1.000000000000000000e+00 1.000000000000000000e+00 1.000000000000000000e+00 1.000000000000000000e+00 1.000000000000000000e+00 1.000000000000000000e+00 1.000000000000000000e+00 1.000000000000000000e+00 1.000000000000000000e+00 1.000000000000000000e+00 1.000000000000000000e+00 1.000000000000000000e+00 1.000000000000000000e+00 1.000000000000000000e+00 1.000000000000000000e+00 1.000000000000000000e+00 1.000000000000000000e+00 1.000000000000000000e+00 1.000000000000000000e+00 1.000000000000000000e+00 1.000000000000000000e+00 1.000000000000000000e+00 1.000000000000000000e+00 1.000000000000000000e+00 1.000000000000000000e+00 1.000000000000000000e+00 1.000000000000000000e+00 1.000000000000000000e+00 1.000000000000000000e+00 1.000000000000000000e+00 1.000000000000000000e+00 1.000000000000000000e+00 1.000000000000000000e+00 1.000000000000000000e+00 1.000000000000000000e+00 1.000000000000000000e+00 1.000000000000000000e+00 1.000000000000000000e+00 1.000000000000000000e+00 1.000000000000000000e+00 1.000000000000000000e+00 1.000000000000000000e+00 1.000000000000000000e+00 1.000000000000000000e+00 1.000000000000000000e+00 1.000000000000000000e+00 1.000000000000000000e+00 1.000000000000000000e+00 1.000000000000000000e+00 1.000000000000000000e+00 1.000000000000000000e+00 1.000000000000000000e+00 1.000000000000000000e+00 1.000000000000000000e+00 1.000000000000000000e+00 1.000000000000000000e+00 1.000000000000000000e+00 1.000000000000000000e+00 1.000000000000000000e+00 1.000000000000000000e+00 1.000000000000000000e+00 1.000000000000000000e+00 1.000000000000000000e+00 1.000000000000000000e+00 1.000000000000000000e+00 1.000000000000000000e+00 1.000000000000000000e+00 1.000000000000000000e+00 1.000000000000000000e+00 1.000000000000000000e+00 1.000000000000000000e+00 1.000000000000000000e+00 1.000000000000000000e+00 1.000000000000000000e+00 1.000000000000000000e+00 1.000000000000000000e+00 1.000000000000000000e+00 1.000000000000000000e+00 1.000000000000000000e+00 1.000000000000000000e+00 1.000000000000000000e+00 1.000000000000000000e+00 1.000000000000000000e+00 1.000000000000000000e+00 1.000000000000000000e+00 1.000000000000000000e+00 1.000000000000000000e+00 1.000000000000000000e+00 1.000000000000000000e+00 1.000000000000000000e+00 1.000000000000000000e+00 1.000000000000000000e+00 1.000000000000000000e+00 1.000000000000000000e+00 1.000000000000000000e+00 1.000000000000000000e+00 1.000000000000000000e+00 1.000000000000000000e+00 1.000000000000000000e+00 1.000000000000000000e+00 1.000000000000000000e+00 1.000000000000000000e+00 1.000000000000000000e+00 1.000000000000000000e+00 1.000000000000000000e+00 1.000000000000000000e+00 1.000000000000000000e+00 1.000000000000000000e+00 1.000000000000000000e+00 1.000000000000000000e+00 1.000000000000000000e+00 1.000000000000000000e+00 1.000000000000000000e+00 1.000000000000000000e+00 1.000000000000000000e+00 1.000000000000000000e+00 1.000000000000000000e+00 1.000000000000000000e+00 1.000000000000000000e+00 1.000000000000000000e+00 1.000000000000000000e+00 1.000000000000000000e+00 1.000000000000000000e+00
4.339609863100837156e-02 4.965821821879105036e-01 2.463910887163677649e-02 4.778259414323091647e-01 5.290613887991937325e-01 6.222945323966263542e-01 7.402743070966566474e-01 1.813739350947947415e-01 4.415355025474351214e-01 5.199517650438740812e-01 1.057578653280560221e+00 -5.576532628225601140e-01 1.326728669021228768e+00 4.552536252127420413e-01 5.267315469976751041e-01 7.658087595046233487e-01 9.882319583009189223e-01 8.757650347771754884e-01 3.436332304519968961e-01 5.170854920005147903e-01 6.203819141575122043e-01 9.425817779701132215e-01 7.271099182124926008e-01 6.461609053076678988e-01 2.580293818088537638e-01 7.241021081386412872e-01 3.450455160540020771e-01 5.205775693750991362e-01 4.851251787052753839e-01 1.362688727175587644e+00 5.072973588476810125e-01 5.841213373703352252e-01 7.367970741067798590e-01 5.232876738903901037e-01 7.438147369624765748e-01 6.042951628138705233e-01 6.058638566329402897e-01 1.512901801702279947e+00 -5.590028184313520533e-03 5.134266813424507303e-01 2.767038806385698976e-02 -5.343367735227637638e-01 7.563534200645776195e-01 2.082921546782583733e-01 2.417166815962195903e-01 5.306439065251131737e-01 4.780664171485027314e-01 5.064046336193804843e-01 4.719212523738319787e-01 3.731383986309346271e-03 9.410151841619163529e-03 8.378255715323565944e-01 6.288471136261000183e-01 4.583239576261737835e-01 4.484317415783458660e-01 1.367335522947872757e-02 5.313413747181219282e-01 5.606072332725542395e-01 1.653866595654426563e-01 5.215380854401845401e-01 8.727825940025700779e-01 5.017201295008129058e-01 5.167833475189559378e-01 7.271098438519225660e-01 6.820789239772244716e-01 3.933778597495376506e-01 5.327100713587826775e-01 3.446970912974194889e-01 4.961105516975657381e-01 3.037832666781994234e-02 5.501062405493312157e-01 5.886054254662008711e-01 5.488432746467288847e-01 9.012365274426916567e-03 1.427862406033585163e+00 5.361008494722322437e-01 6.200420000956285982e-01 7.753305614156846826e-01 5.268017302900482868e-01 1.355765916096508095e+00 5.731478504081292114e-01 1.900780034282764930e-01 1.221830221594160548e+00 4.401520344026029763e-01 5.620733279836874763e-01 7.586293856252740442e-01 8.376172810425457360e-01 5.689651888805934421e-01 3.676793506806002587e-01 5.728005880325037769e-01 2.352337225677879895e-01 1.948969497163251852e+00 4.613620247894696935e-01 -1.033955484764122745e-01 4.751352721913048027e-01 5.070296726432118595e-01 5.737972394241728225e-01 4.532128174743450533e-01 1.952503088012347010e-01 7.270934909692911008e-01 1.428325037086975557e+00 6.541849510545283408e-01 5.506836976743307854e-01 9.678676859917181297e-01 7.719360259505219091e-01 -1.755244276142703841e+00 -1.084594709177371108e+00 5.670746332827955039e-01 4.665500306145046738e-01 9.718397638698117458e-01 4.502949439455631864e-01 5.359504794414416962e-01 2.822736199781242239e-01 4.348392690352456680e-01 4.976385489897556802e-01 4.526624459916842591e-01 4.448767474840841230e-01 4.425232149500739065e-01 5.896891459875730490e-01 5.118615343034229603e-01 1.239899497796461691e+00 5.472341098217097244e-01 4.575921607285288739e-01 1.121774146819187745e-03 5.029956362650759294e-01 1.819169177867988596e+00 5.080851880554316802e-01 5.434235784737717623e-01 5.006541637654723376e-01 5.275453911793542838e-01 6.503076617830670925e-01 5.068955342963544775e-01 3.887474626877167605e-01 9.832225697268842657e-02 1.385777028465392524e-01 -1.129675306995384654e-01 4.976382845420912471e-01 -9.316264695557406258e-03 9.559642997330168868e-01 6.607526844917909203e-01 5.344920411523017556e-01 8.177110331739052551e-01 5.976046210945569204e-01 5.415722070026346424e-01 5.278301661797949462e-01 -5.177693057463585158e-02 5.922975260370888506e-01 6.223822403234174905e-01 4.984329601594966186e-01 -7.399300579613713458e-01 7.833411920968088582e-01 -2.901419873423579099e-01 5.306401659097820245e-01 5.486497689430569480e-01 6.876382674622859570e-01 5.013492744128718037e-01 1.568934209415661751e+00 1.441372954708524390e-01 7.947258366267816454e-01 7.328928590293145584e-01 4.668758133119668696e-01 6.149570056051306688e-01 5.444713285809088532e-01 5.352825083703747211e-01 1.123537200756904664e+00 1.181149118602509845e-02 8.060313433504316949e-01 5.149534372834514429e-01 6.052557313750455137e-01 4.475886988967107127e-01 3.553638275932534119e-01 4.789009622482700568e-01 5.305602450102311352e-01 5.300336173173206822e-01 4.130557620036676147e-01 7.130706094515801979e-03 1.386838492320407457e-01 4.093467943648643886e-02 7.012938546893691116e-01 1.124272433767821600e+00 7.298349617797751376e-01 4.900607015246780107e-01 -2.151762570658706519e-01 4.662125354163659252e-01 5.566695360264310999e-01 5.024498554264417161e-01 5.243236707605732905e-01 5.164860441989936879e-01 2.465826109153021140e+00 4.887452492184456987e-01 4.471165285488745145e-01 -7.311000310716739836e-01 5.305845102120601009e-01 4.729354724667231835e-01 1.441795649867978202e-01 5.101374682557917595e-01 8.868841376140021993e-01 5.160077658486629248e-01 7.636663028106630557e-01 6.082938431842626059e-01 3.482283621342102675e-01 5.697504523114795827e-01 1.067496302249870244e+00 5.919954529118164333e-01 5.432903391830432582e-01 7.636662929359137042e-01 5.515936157464176315e-01 1.231399413547279664e+00 5.048666309331970581e-01 3.668428701878130305e-01 5.373899959020534967e-01 -1.160768147679667670e-02 5.455136654404537655e-01 2.001083342762184358e-01 5.249838509331660186e-01 5.437301342901247336e-01 5.222685261190825878e-01 5.583581625255077396e-01 5.559038533331962517e-01 5.169918006761723417e-01 5.327585268397311280e-01 3.097931443189824163e-01 -6.274535149956527169e-01 4.214776770066500089e-01 1.923290363613408271e-01 5.518063055104178716e-01 4.550902089767651648e-01 1.139447172032438838e+00 9.032729308760817366e-01 5.830543767462526006e-01 -1.085698229204609261e-01 1.003983249567346858e+00 5.300095758872405138e-01 4.326175825792923924e-01 1.587075423008079966e-01 4.399245710520930941e-01 5.657554122985103406e-01 2.665753112272460923e-01 -1.061325940766577602e-01 -1.844638143064696034e-01 2.239270641488403657e-01 5.129398024606963702e-01 -5.853464603503171632e-02 5.784651033699855782e-01 5.116057773849473911e-01 7.208652947601565941e-01 -1.179180629765721744e-01 6.752546803174638290e-01 -1.874589203746661825e+00 5.160630752306022417e-01 -3.023194436918513750e-01 4.811553743750895396e-01 5.454566412048643675e-01 7.271097713444409916e-01 5.306060925671282069e-01 5.471197396269343871e-01 4.395689907248427897e-01 5.430922482912585725e-01 5.530038660619701618e-01 1.631426273483820744e+00 6.224531573439592291e-01 6.747721669539762379e-01 4.890738160057147565e-01 6.336353050222527372e-01 8.727828241928968778e-01 3.231217956981939921e-01 2.395834748708451922e+00 4.947054196597070463e-01 2.851601634380366845e-01 4.190974246682309112e-01 5.297969258196494335e-01 8.769612899992211830e-01 4.870807556932481575e-01 5.476315097591170078e-01 5.267699950359777672e-01 8.726565092145808222e-01 6.039889922418825163e-01 8.813027347754435192e-01 8.308284463742741099e-01 8.905182394565239190e-02 6.535122736623129036e-01 5.043749301186516432e-01 4.493719032139479874e-01 -6.016892423444621940e-01 3.666780984671703658e-01 8.472426227066250926e-01 5.217893094767382944e-01 5.152383357632512872e-01 4.526624486265116709e-01 6.111732150095046112e-01 5.599682687178773044e-01 -4.597749716412863896e-01 5.080252290788304093e-01 5.077452254806716914e-01 -2.271615676639440751e-02 5.116153384862558440e-01 1.792880197434429723e+00 4.747229153307211402e-01 5.287605532124304286e-01 4.984240734870466483e-01 -3.011279217637157224e+00 5.241134037971837412e-01 2.237226044264448266e+00 4.782024625194874479e-01 4.946881168781431803e-01 -5.919177070370241767e-01 5.243826350122938740e-01 5.122739267416694942e-01 7.019739381736908035e-01 4.732831510921940987e-01 4.959484363743648094e-01 6.069866079583579044e-01 3.181853313729389732e-01 5.000245348722002214e-01 5.002030802672982057e-01 5.293377240656806926e-01 5.243660844845225988e-01 4.785632643370080763e-01 5.210451201821395539e-01 1.136028178661604660e+00 3.117124232979542973e-03 2.118036681559731793e+00 2.428358315891969710e+00 3.360422743125853762e-01 -1.164924875146631650e-01 5.101994095696361642e-01 4.375289644340665252e-01 6.724678260265745111e-01 1.285147512590411489e+00 5.512465576078824370e-01 1.078159778399931712e+00 5.125561441103714255e-01 1.684921856513664495e-01 1.210952180616012619e+00 5.490624842799046723e-01 4.979195049188222533e-01 5.421923411619642419e-01 6.140312566286848517e-01 -3.150894886182612709e+00 1.512774978473463428e+00 4.863644779982325694e-01 6.482093779163670133e-01 5.148948829778254854e-01 1.512901792398597012e+00 3.424668626389968940e-01 4.596075151732499364e-01 3.203945289959156950e-01 5.764683934297850643e-01 1.394995707005029173e+00 7.549607041032361243e-01 7.636663123682184695e-01 5.784648616605688742e-01 5.919954952603427856e-01 7.214709052875419859e-01 5.225767978589550555e-01 8.375154865746696764e-01 5.291037161141153300e-01 5.295995023159314474e-01 6.337761578856183631e-01 5.038469839242364356e-01 5.235583321722372396e-01 5.553603823818580310e-01 4.596073703425955781e-01 4.810607598945442764e-01 5.291228544863317840e-01 7.901303298228012917e-01 1.077824741988576918e+00 1.036060713320469340e+00 5.348381977685289224e-01 3.751591301762436381e-01 8.728382622840406002e-01 -1.173607947876240537e-01 9.228551390591571701e-01 6.065302223483011179e-01 7.545310769824847483e-03 4.531226256371524430e-01 1.116695956006970247e+00 4.280990455829248864e-01 6.094088383072273629e-01 2.507997912735805968e-01 -3.022719778463999196e-01 -2.189010592287695456e+00 4.500990754347035105e-01 5.919954546095529402e-01 5.919954528325369614e-01 5.405861320657805447e-01 6.912920059535633266e-01 -1.361833946747511848e-01 5.501313843839114037e-01 5.336292146735910347e-01 3.318101304491535841e-01 5.468922528844271103e-01 1.117543005683166335e+00 7.636662916026150105e-01 5.208583470228665968e-01 5.455218785511899426e-01 3.447837825571183346e-01 5.872393743652141174e-01 5.258477310715914399e-01 5.000470289967988702e-01 5.425331049637983627e-01 2.363517614025439639e-01 1.510313572190955314e-02 5.919954978122627942e-01 6.524751080023013516e-01 5.262786005428443659e-01 7.396455627598234051e-01 8.493464749148911253e-01 5.159205343298750579e-01 5.594587250941562839e-01 1.578748344593404962e+00 5.391570958678355563e-01 -2.513218401905354504e+00 4.779687567367765788e-01 1.408181559308443687e+00 5.132131302284970165e-01 -8.758141783356179211e-01 4.812513146510742912e-01 6.134460844145701586e-01 4.724667674996048672e-01 5.245807722741461232e-01 8.953134187714520409e-02 5.499351646020077533e-01 1.034082987248285512e+00 4.579424252413935581e-01 -1.359031606769909861e-01 4.840113703316626936e-01 4.709321086438128523e-01 7.512109558919604080e-01 5.795247422149939487e-01 6.572118511777220728e-01 -3.889089510137146433e-01 5.035598060888994976e-01 5.244753291478713164e-01 6.665032340968264357e-01 5.195081950590817454e-01 7.507351699114768184e-01 5.224471196793578631e-01 4.213618403075536367e-01 9.291646940767981366e-01 4.816906172277737874e-01 6.233477649538541332e-01 1.632073361575427095e-01 1.850102566407790250e-01 9.121991054249285469e-01 5.186352800458378098e-01 2.929243476806401514e+00 6.304150433177215795e-01 4.024929234596677508e-01 5.851218651452541053e-01 7.364040941033621612e-01 1.739987096682175244e-02 5.009184015797126799e-01 5.578924188425191666e-01 5.098535656945013539e-01 1.162934889416710638e+00 7.507170285722377656e-01 5.306644013128156701e-01 5.759179780790618652e-01 1.084641973516352609e+00 5.259184024199610175e-01 5.496974105856011761e-01 5.122273868851549006e-01 4.065214105847693160e-01 5.143348449868134775e-01 8.537424393240500287e-01 5.298158150626329777e-01 5.252833667545545593e-01 3.213676228157112506e-03 5.388286070714263243e-01 -2.304689690377061898e-03 5.504602502764989191e-01 5.496380677230007228e-01 5.218713516656985352e-01 7.496168243435555878e-01 5.038682531795664055e-01 4.989122164247802305e-01 -1.982271164407513678e-02 4.947903228593046321e-01 5.562576945584007948e-01 4.389191982118765267e-01 -1.306895012986516655e-02 4.892408811860067819e-01 3.698154892578233155e-01 5.327428764295651931e-01 6.225530189667691783e-01 1.179901434631670298e+00 7.627318129521072354e-01 5.770779281655810111e-01 4.237153262669379195e-01 3.576062805339367823e-01 4.190215691599790127e-01 9.493038354119590627e-01 4.026282047202717207e-01 3.505975822774709538e-01 6.399274025638784780e-01 1.830047463259203422e+00 5.292235177012299951e-01 3.964191614716507384e-01 5.106066340701651551e-01 5.084732782732628298e-01 5.212816986440726996e-01 7.177235053850654634e-01 -5.091984841281897989e-01 3.486029509992172315e-01 3.634269633408498401e-01 5.919114016333112405e-01 6.133751729189526047e-01 -4.962737454283989713e-01 4.015827664485965287e-01 5.352500002727912376e-01 6.767354552474058593e-01 6.458267010315634771e-01 1.106766015406563275e+00 5.263432760341172356e-01 5.062721678004634684e-01 -5.540394318784048755e-01 5.333045502896480716e-01 1.095289005025788187e+00 5.979678167287069135e-01 1.814816905648336254e-01 4.069131520616015019e-01 -9.823423540431832635e-01 5.233452655883750193e-01 3.840088593093389235e-01 1.051413113469918725e+00 8.114166520511300051e-01 5.154772078205936969e-01 4.621120387410229680e-01 3.492996831873246277e-01 4.780420152705421311e-01 6.149249148629322148e-01 5.938622875173807936e-01 1.414987134925334809e-02 5.498347882029377409e-01 3.365625665386576260e-01 7.344569430061668180e-01 6.091420055695647706e-01 5.169746949065499031e-01 1.006166075996255183e+00 -1.329040999629151898e-01 -1.845402712905472586e-01 5.783248754248194734e-01 4.875171492468941548e-01 3.719522118733613048e-01 4.785920147837618432e-01 -7.094788380807259820e-01 2.880540019761815618e+00 3.719500518360074892e-01 4.945054096371656049e-01 7.051557060328873527e-01 5.084916994573558391e-01 5.311793147966036299e-01 5.365775708228944785e-01 3.875519493839422180e-01 5.041485477040515972e-01 5.267534691225034260e-01 5.693298312544194939e-01 5.178603916119051132e-01 6.674536016750275413e-01 5.389574970704475998e-01 4.088683248000160031e-01 4.198966093010903511e-01 5.678340797902163839e-01 5.564047533772156218e-01 9.373365978728653847e-01 2.162083623590144388e+00 6.432507672764552487e-01 4.836424027702343476e-01 5.811824117339380313e-01 5.072964257532807109e-01 4.668796476999573231e-01 5.205052111324218744e-01 4.900558010726362435e-01 3.454577681954057455e-01 5.085583297336875308e-01 5.660760764310450721e-01 4.780627472875617623e-01 4.301038164548955378e-01 7.496230950244080482e-01 7.641670727835171428e-01 7.445155655276155526e-01 1.694163307081419656e-01 8.727824808298794146e-01 4.834408738865457189e-01 3.162534884285858605e-01 1.875648351387461776e+00 2.364484794764698250e-01 5.018113079525692299e-01 5.585637340897982028e-01 4.980248046053018657e-02 6.168993816865050439e-01 1.416668603042106955e+00 5.288044842635195586e-01 9.063865394066948911e-01 5.300044534432342136e-01 5.629757680108733453e-01 4.467211875641061147e-01 4.475602111786228798e-01 5.172987559072729224e-01 5.247736469468192722e-01 1.464318010140809034e-01 5.251606845072700480e-01 -8.736178226485165066e-01 5.452289967278534100e-01 4.660164297225126706e-01 4.908040148866532060e-01 4.984378121724828969e-01 8.727824802445381946e-01 3.313339312841110385e-01 3.826088328200425992e-01 1.172213204068007331e+00 -4.251632917338412088e-01 5.317142069168632190e-01 1.018200931728943770e+00 1.286135272071887270e+00 3.659999658531866706e-01 5.150208132606457490e-01 6.423754364624049973e-04 -1.459682635556354358e+00 3.161715702125502125e-01 4.806151593507252406e-01 5.214916501654881520e-01 5.298555082827091089e-01 4.608697414434789197e-01 5.051204743306987321e-01 -3.056490570682889873e-01 7.762591428656576698e-01 4.526624393187426709e-01 5.077939651399822063e-01 5.699821545766082798e-01 -7.323773833781703491e-02 -1.894339169978136450e-01 1.574807075694103276e+00 4.314912659156664443e-01 4.083587831382910482e-01 5.282518421781485785e-01 3.581085420763833183e-01 3.626287314260180361e-01 2.569037087477765158e-01 -2.760456157722683823e-01 5.311909332009908669e-01 5.792348180862194607e-01 4.801356805066563371e-01 5.389648016383578044e-01 4.829371056034791332e-01 5.129468635958365219e-01 4.939629896377227825e-01 5.412959992918029428e-01 9.837391406112065972e-01 6.834269051439443299e-01 4.869549510247941360e-01 4.733445576495188822e-01 5.850010902016866687e-01 4.849461902184999396e-01 2.291845475587931877e-02 4.596074397969930891e-01 7.451865309241295643e-01 5.443579568586086603e-01 5.238448911351316628e-01 1.131240250744649289e+00 7.177506777746964772e-01 -2.981817034210861306e-01 4.873639965233574345e-01 5.217900060331164269e-01 4.995143299455475638e-01 4.249106981609591105e-01 8.050377524552230213e-01 4.872093070161426787e-01 5.425840280212960165e-01 7.568749257069479208e-02 -7.044924409904158580e-01 2.036813533022048706e+00 5.391080804692953699e-01 8.485875261719287854e-01 7.109574961263578352e-01 5.395696854331257786e-01 2.992352421896838921e-01 1.461339353344515424e-01 5.333210538126796907e-01 5.628556491443643672e-01 2.189656084035072545e-02 5.268886106257658630e-01 5.441198825851977228e-01 5.317887222817292425e-01 9.780502313833164818e-01 5.230353624906133314e-01 4.998217644232646473e-01 3.110885584269977855e-01 6.168600365010473707e-01 1.778606978890541757e-01 5.259279767690756557e-01 6.465611158889071897e-01 5.266439604424322241e-01 -3.700738766700754079e-01 4.841055699077363994e-01 6.364192387594059808e-01 5.438621868345883126e-01 4.792181841216963112e-01 8.727622012938731633e-01 7.495894330699962582e-01 -4.997837252511586614e-01 1.014657193720233996e+00 1.512901801479635600e+00 4.489255312352692928e-01 4.641580141481716493e-01 1.023921548923543146e+00 5.490157818878584894e-01 4.791997005054409176e-01 5.330408668930616267e-01 1.559649486693272413e+00 5.186889258361093713e-01 5.784650994080841047e-01 1.220658034074113329e+00 2.255845887438376329e-02 5.008837820923712769e-01 -1.045147593253204499e-01 -8.158100871871593052e-01 -1.893367318496262386e-01 7.303709079143620997e-01 5.507864497302963347e-01 6.225279132704661933e-01 -3.523983730900644984e-01 4.663331965590445938e-01 -9.401268649220518442e-03 -1.855583206725861245e-01 4.177858315510564746e-01 5.172519337953584984e-01 4.960587930276902924e-01 4.163719088195397822e-01 4.931948718893710559e-01 8.628422939999689234e-01 -2.395311039784566998e-01 5.350283616559935451e-01 5.157722970214176916e-01 6.563100798982735018e-01 1.119723434712801780e+00 6.070378393347806156e-01 4.555807916746394404e-01 5.023296013603698595e-01 1.503152570327701172e-02 9.004138519330667778e-02 5.511538008306040570e-01 5.271760267020222379e-01 4.892893102943131067e-01 6.056494493302206905e-01 3.807639328933398182e-01 5.243583443496606655e-01 5.191541435287954087e-01 2.484093285706082954e-01 5.382020988075054690e-01 8.246021284954552222e-01 2.339888640752608939e+00 -1.999571652727362425e-01 6.746953267958639699e-01 4.701599079073288112e-01 3.135522189816793426e-01 7.277573777478801853e-01 -2.278878302799048836e-02 -1.240871585335551419e+00 5.472587965452351266e-01 2.398623801752012064e+00 5.023818655651974829e-01 1.225184736366980165e-01 2.381773922693932455e-01 4.526624458767000148e-01 5.158818890882276298e-01 1.420760490572298140e+00 5.542000157491159262e-01 1.189213151443950789e-01 5.370203376591534683e-01 1.479509568558712296e+00 5.515026913342031545e-01 4.317238891426398162e-01 4.620407180854547713e-01 7.725160675370764674e-01 4.398938407086969149e-01 5.300118480590901848e-01 -1.271316964486036115e-02 5.109572405912028437e-01 6.283030342060408335e-01 -5.082891260065999228e-01 1.671743020076617015e-01 1.126142214184805201e+00 2.296339843180965623e-01 5.432334585819021955e-01 4.745145719956593289e-01 5.683506567355687267e-01 1.900558348428061040e+00 6.889589102304793933e-01 1.888112097674957829e-02 2.427079894533128446e-01 5.243848199411669242e-01 9.688808954148880881e-01 4.821193358935280671e-01 4.038413302899070828e-02 5.315321530421200924e-01 -5.312716606044474987e-02 5.211826137821689020e-01 4.888492070495003561e-01 4.792247308729462307e-02 -1.240973285909589413e-01 6.348167663861228327e-01 3.895514275740666332e-01 5.387335101756279832e-01 5.695763969757887679e-01 4.974745207033749450e-01 6.115409329663095139e-01 4.972253557854402484e-01 5.050294911018988753e-01 5.123724486517593490e-01 7.281127270131787510e-01 9.939070845027346834e-01 2.880827333288071390e+00 5.787732930029616529e-01 5.506409859966369114e-01 6.210232096947948532e-01 1.950343308174183332e-01 5.249648603452400364e-01 7.562663613882939506e-01 5.761187826437033088e-01 1.307939281405083864e+00 5.816538548748969584e-01 -4.963372786326487596e-01 2.164554869632704867e-02 6.266270721466211668e-01 6.001526900725583369e-01 5.009332371748129731e-01 5.571930038023924503e-01 2.774406140959832096e-02 5.274421529592349112e-01 5.993282844759925121e-01 -2.923224575376696333e+00 5.112987330433440558e-01 5.431042270708620334e-01 1.067508250843801632e+00 5.284585291887489156e-01 4.999368249381100915e-01 7.337430782783496142e-01 -7.450213650609096572e-01 -5.078577820525548292e-01 8.452102840385974925e-02 5.506336885927762825e-01 4.835384195096316118e-01 3.133314709323455904e-01 5.084284529771979644e-01 -2.853603377865754909e-01 7.976529341018495645e-01 6.329653184500264596e-01 6.839231620459981231e-01 5.123101270377161676e-01 5.584846672582742810e-01 2.099951527776458549e-01 -6.081972842141313285e-01 4.071562226982710642e-01 5.254083264143343257e-01 1.941183749411648229e-01 5.219146519156803166e-01 5.279427950757371590e-01 5.308082206961878269e-01 6.153689350410304071e-01 5.376982213907115504e-01 5.056045736652712286e-01 4.824413956578531004e-01 1.512901802053496336e+00 4.223884198532573686e-01 5.295217013061447320e-01 -3.259332587685340177e-02 5.512988653914348003e-01 6.057110947460310202e-01 5.319939828644343338e-01 5.391155033480559133e-01 3.961628512706291683e-01 7.816984596444328526e-01 9.992381401113041850e-01 5.533383288715966186e-01 4.814043783014746447e-01 5.845533433231938636e-01 5.957257331327147076e-01 5.259079149176271173e-01 5.378370913057882730e-01 1.014582881061363295e+00 7.186728438457111734e-01 -4.043247240513311858e-01 4.016670487696597514e-01 9.234565640218146410e-01 5.440393113075202569e-01 7.751250958259499335e-02 5.409806129830710963e-01 4.656707727178949208e-01 -1.434088853395941998e-01 5.942090458260717023e-01 2.916362522289296377e-01 5.426563689175051275e-01 6.611399123566987779e-01 4.887644558647595838e-01 3.593496806368493002e-01 1.339348433534718108e+00 6.257166653904858711e-01 4.875828148032567699e-01 -3.926156379936815433e-01 5.272104449811145788e-01 1.051598311193869595e+00 4.970704670591575836e-01 3.220310120530329168e-01 7.873617656395692777e-01 -1.420618495930178748e-01 3.830366545485870411e-01 1.420666123547162929e+00 -8.015002064538832016e-01 5.648036347776036470e-01 5.284598542271530253e-01 -3.361428963617559829e-01 6.144225501245448307e-01 5.629627731189631445e-01 5.517572759001274640e-01 4.954595944642128380e-01 3.722572968745413990e-01 2.711433696133095927e-01 4.734347202585949543e-01 5.644052613724062084e-01 5.322776517247280736e-01 1.887249940409152157e-03 2.416061782079242659e-01 5.078874745077215369e-01 1.034190177132561894e+00 2.653417536326458381e-01 -5.084527044222205694e-01 4.606608135439497764e-01 5.301254202409055871e-01 3.744316781030672669e-01 1.769065329927075030e-03 4.246886814459090997e-01 5.153360193357968688e-01 5.322617513897006658e-01 4.865576393323344795e-01 9.340248863456270673e-03 5.471675615074109711e-01 4.444993499329031872e-01 5.386183352290861981e-01 1.963928075796995021e+00 1.356491931707745346e-01 3.657167142853838260e-01 4.952074499161307486e-01 1.701859418523809842e+00 3.798839832378430037e-01 4.605157943328449521e-01 6.455896164029020778e-02 4.596075113996494488e-01 5.265946791088127465e-01 4.507573388481005416e-01 5.175768787282489791e-01 5.329049623039572303e-01 5.177862165215338930e-01 5.605245005205947706e-01 -3.755194602663182168e-01 5.428766746774209562e-01 4.870876917191721556e-01 5.079911194980385458e-01 4.080264495926644863e-01 5.253407430297534209e-01 -2.045247996615843500e-01 8.518735367362364475e-01 -1.003271866574310112e+00 -4.130377881381386840e-01 5.143754240376933184e-01 5.289763903709384651e-01 6.349355541068171238e-01 5.488389202741780215e-01 2.632171425298648892e-01 6.761888153886012054e-01 4.596074584176857991e-01 5.108187638848586953e-01 4.766606854146941963e-01 4.357435586104015934e-01 5.223632049634908681e-01 3.631533186825645076e-01 5.975848623944626237e-01 5.357481242378374642e-01 2.765712952231851873e-01 5.308881684592505756e-01 5.437570927284416378e-01 5.695793282855012851e-01 5.356430148566433402e-01 5.459301419831575908e-01 4.293835416133576222e-01 4.173176258998331223e-01 5.494417943266954873e-01 5.636975516541595788e-01 1.964325882938205980e-01 6.083768605662589479e-01 2.113379430699245720e+00 4.942584273764684677e-01 4.205586427912335612e-01 6.125356318980683668e-01 4.713494853819394370e-01 1.071781703455788382e+00 5.397921387374756685e-01 7.553662483915329906e-01 5.297339092633444046e-01
7.862278680810702580e-01 4.128362732509679445e-01 3.068641355960724515e-01 3.431236969128253489e-01 3.077581117812244194e-01 1.481846164315502035e-01 4.775946404947387647e-01 5.173563634455883298e-01 4.461378227359730220e-01 3.062930228497824370e-01 1.898061533561448577e+00 1.605901596301982703e+00 -1.271548266057543453e+00 4.608458430774969861e-01 3.024192809351153310e-01 2.512384771065593325e-01 1.389281777964566367e-01 3.829985094611318974e-01 3.507720538404644484e-01 3.074425528919881856e-01 2.943302167277485060e-01 1.917714170605831381e+00 3.320734622027576299e-01 1.994698411035277785e-01 5.587123892862405627e-01 -4.080235401906024406e-01 5.001347594593863466e-01 2.535976290194447147e-01 3.361240491287137422e-01 -6.333735893732118649e-01 3.507205247710766804e-01 2.006718673863134850e-01 3.008678678763763714e-01 2.912124594179114623e-01 -4.180511107467601017e-01 2.190826876964330205e-01 3.676003060246683662e-01 -1.784050862771745238e-01 -2.880029272688470421e+00 3.091372449650067744e-01 9.077197182567636746e-01 1.269815851728278711e-01 -1.439427046177716440e-01 7.801323413752617730e-01 7.848109977274768667e-01 2.939473969917985596e-01 3.423036316894478293e-01 3.128397697151739099e-01 4.721213117137514903e-01 7.514428290843153668e-01 7.891237399060967439e-01 2.720643483610892810e-01 -4.774328813401486626e-01 4.160052450297423987e-01 4.678280929687023137e-01 7.978865092898459466e-01 3.040225845297133134e-01 4.429816432244058633e-01 3.554557680893521421e-01 3.040956080823454255e-01 3.998888054492367172e-01 3.860913243979046117e-01 3.276620684365855185e-01 3.320734765199068184e-01 -2.981022130993973285e-01 4.727036254923734360e-01 3.019254647533512470e-01 3.900698848932795948e-01 2.196662770996861136e-01 7.099226886126339675e-01 3.678026148757447822e-01 2.507824214789705075e-01 2.705276320769404164e-01 6.735338828792206689e-01 1.766888857574153926e+00 5.268710674983670961e-01 4.415662645979933076e-01 4.596097063783796677e-01 3.002610270959212846e-01 -1.213682474924714372e+00 2.621077676157649305e-01 8.024649813781836727e-01 1.923025131380200037e+00 4.839272041680153236e-01 2.679067527885573563e-01 -5.524482812706942303e-01 6.726540036682632229e-02 2.666822567728152626e-01 -5.280347590674714375e-01 -7.495569555538814654e-01 7.855775346413751414e-01 1.391849086714294970e+00 3.713847192753140236e-01 7.736428416326900370e-01 3.530555629227826175e-01 2.881767547845525690e-01 2.675032915976656156e-01 5.616603820489137755e-01 7.458248015906714379e-01 -4.132342554747407970e-01 -1.200728740991370558e-01 8.655990076409228462e-02 2.694520487361198313e-01 2.371665363982737029e-01 2.235373648970951643e-01 2.751559755363957471e+00 -2.379364801729725309e-01 -2.575515334639482679e-01 3.966843757832454465e-01 7.841591525203761570e-01 3.848921679628410364e-01 2.733715715194381946e-01 2.500150068887834753e-01 4.744856803595847161e-01 -5.296169355301880710e-01 3.724990222473804624e-01 5.367398775563632096e-01 3.221797565780319950e-01 4.336987910682507663e-01 2.913230006759284230e-01 -1.317957027437908879e+00 4.621903920890467754e-01 3.924305434797705217e-01 8.811767665814204120e-01 3.421615555164121414e-01 1.967007388194519368e+00 2.777056464773775546e-01 2.985079800015499329e-01 2.849701234530405691e-01 2.979409614157013664e-01 2.378791200988127630e-01 3.275294052397951239e-01 5.969444092438486171e-01 2.890440676480263149e-01 2.440978566684285922e-01 9.100150129864708060e-01 5.485565367472767795e-01 7.300897091985807386e-01 -2.982903355649090815e-01 2.086159595914801601e-01 3.116519515748457647e-01 3.196311886540771363e-01 1.360483943168236953e-01 2.409527317605257013e-01 3.175861003896998658e-01 7.643540773850865389e-01 1.358488246457816018e-01 2.436871418784171128e-01 1.134418096240884938e-01 3.756757631518223839e-01 -4.284180625912517582e-01 1.726281411381633268e-02 2.939444420608382513e-01 2.781142514132765031e-01 4.804065050994269503e-01 3.436323052102747688e-01 -1.645396135208149868e+00 3.924371693836158914e-01 -5.297408328595677451e-01 -4.122609109832565122e-01 3.300892730303625622e-01 1.703797464344342927e-01 2.726755926393578111e-01 3.154402487992237769e-01 6.564860681349832250e-02 -3.670009269401755536e-02 3.206023731482766093e-01 1.965735569227681778e-01 1.883939518956867509e-01 1.718300879442105911e-01 4.355730202244944005e-01 3.437274172740465983e-01 2.940199642570942018e-01 3.064591089012745351e-01 -2.279659931382551630e+00 6.747005237878808126e-01 7.331664453321309338e-01 1.043898964425408860e+00 -4.250608914917556325e-01 1.142630160921903837e+00 -3.816434652995628896e-02 3.157469944580243992e-01 1.168616379453015997e+00 3.780217703497765203e-01 2.955402366303824246e-01 2.635587944269530691e-01 3.081756337495646370e-01 2.864171190284777735e-01 -3.555937193086931569e-01 3.242187855050166490e-01 1.226594030085767922e-01 7.447091011654441983e-01 2.956986771814790749e-01 4.072088254276081121e-01 1.668428616328210268e-01 3.086251686284566254e-01 -1.406596478071774126e+00 3.103128330619822628e-01 3.526591537729524550e-02 2.332905603163476504e-01 4.413325469185510053e-01 2.948304744369387720e-01 3.227506446447716004e-01 8.530755057019732968e-02 -8.792547468271667555e-01 3.526593244509269170e-02 2.875196877812842833e-01 -4.520895127032323879e-01 3.418824764988301346e-01 2.307930474501553308e-01 2.871966134917038338e-01 -2.882896930862087093e+00 2.693999450722333044e-01 9.524497438386677617e-01 3.021788950284876041e-01 2.783684440958116291e-01 2.946056348231460009e-01 2.716297712746259529e-01 2.674067499113969015e-01 3.133345432343180303e-01 2.766714587255948432e-01 3.547554925132956338e-01 6.197601844655801218e-01 4.456207433755984271e-01 5.258721729960317282e-01 2.862684693196426156e-01 3.144334047507461039e-01 -4.531449043335257221e-01 2.003242298585679926e+00 1.573655624674985543e-01 1.167919890688349893e+00 -1.313382347750552626e+00 2.998993293283293560e-01 3.405633971942096383e-01 3.074818138248263666e-01 9.883961610192064651e-01 1.930968839579407653e-02 6.919711361500718860e-01 2.553527403640890037e-01 6.577824469449238265e-01 5.332523817593276538e-01 2.819387516523315096e-01 -1.043649639420313857e+00 2.839741411132889470e-01 3.146278655363969889e-01 1.557612423263196877e-01 9.980069125638567629e-01 -1.952424192460265606e-01 2.721980805576513340e+00 2.021068742627704085e-01 9.931182627135481944e-01 3.586595991698687258e-01 2.983610171806397315e-01 3.320737197601539292e-01 3.054531133510321461e-01 2.770307645116272810e-01 2.108691669675420988e-01 2.567579635175301633e-01 4.084606400841110929e-01 5.531375223057536372e-01 3.775518267411905882e-01 1.282191436068615131e-01 2.925695301230683554e-01 1.541511636264147334e-01 3.998881030044240115e-01 3.300987902069771329e-01 2.831913932466020967e+00 2.805661210288580287e-01 6.644424388945979754e-01 3.493863832553910087e-01 2.900321025011370346e-01 3.963241552193164652e-01 3.338295817511187091e-01 2.792340399714297594e-01 2.996355788135289244e-01 -2.266622781569989920e-01 4.785333677460615887e-01 2.855454662158393164e-01 6.092030455726957228e-02 1.354447723800182024e-01 1.411019955672809578e+00 3.130117139984792685e-01 1.878334557001507532e-01 1.894535223789149292e+00 4.452913640427342834e-01 5.583215275442393599e-01 3.296309351276178745e-01 2.989143373209945942e-01 3.724990132569191426e-01 -1.942708306591769185e+00 2.693006512086676962e-01 1.172113250920014060e+00 3.281688487634129014e-01 -1.132112117264932188e-01 7.567232441518366715e-01 3.078478474217699601e-01 -6.565266776996788733e-01 4.271733756216987143e-01 2.979341546000158769e-01 1.135124926454725014e-01 -3.162279565765923617e-01 3.114488494042598754e-01 -1.571794976979650871e+00 3.437059341058913420e-01 3.324813824797194783e-01 6.258447336795678329e-01 2.977419264727521053e-01 3.155340002137524413e-01 2.183523039691589174e-01 4.336116600912475194e-01 -1.513927383281906680e-01 -6.917702007689039423e-01 2.889258033415045140e-02 5.945611493079449028e-01 3.254984344073305058e-01 2.954468156742062757e-01 3.035172642508029428e-01 3.428753567367833766e-01 2.984386213550643263e-01 2.211383747376756581e+00 7.806483886239206083e-01 2.449677463045356607e-01 -1.007794644642213244e+00 4.666762734635274690e-01 4.084794604626390324e+00 2.848635670686873733e-01 1.297829369695638335e-01 5.555890792416386947e-01 -4.938852216330190004e+00 4.268572618215645265e-01 1.365984126737414206e+00 3.135299749231655886e-01 5.716052728577357689e-01 -4.104414419803843472e-01 1.523578782069693327e-01 1.397822770209388443e-01 3.381418976067476767e-01 3.270103493583824128e-01 2.561720697707770000e+00 -3.139998472312637845e-01 4.153665184360382789e-01 -1.783588765745249605e+00 3.164735336156732637e-01 -1.784050629719959313e-01 6.873212680612065251e-01 5.631622277164576307e-01 4.652769149259649017e-01 3.834666797312992204e-01 1.323100228025114955e+00 1.384100246583555016e-01 3.526590635002188612e-02 2.839750533239487895e-01 8.530746571310895976e-02 1.481757748583860945e-01 4.125439666407406114e-01 -5.395067870575310787e-01 2.997401088079872378e-01 2.925314262351665362e-01 3.092833108793358599e-01 4.154654010149476662e-01 2.995187423696125673e-01 1.063163849016497547e-01 5.631625715502396323e-01 1.043689782591887688e-01 3.014630066666921238e-01 2.931162439079087467e-01 5.862543770881029070e-01 2.842038766120177140e+00 2.860289775853395722e-01 3.294997522442992821e-01 3.998404581046435258e-01 9.039426675194823790e-01 4.367398000638034739e-01 -1.207880881459459377e-01 7.811082610974474649e-01 2.924971907282002959e-01 1.092705902546382279e-01 3.138029026749032946e-01 4.983891141529009361e-01 7.961551400543811496e-01 7.153415968213858722e-01 7.698536279103360691e-01 3.427406485589500340e-01 8.530754894441369696e-02 8.530755081788157779e-02 2.691372677272605429e-01 1.714795208159035078e-01 1.117602465241141152e+00 2.926776198224030345e-01 2.995350809742611253e-01 4.750781856723114149e-01 2.671566890934831684e-01 8.480465959861025471e-01 3.526593758693768316e-02 3.000510184098161837e-01 2.659911680795238875e-01 4.881891184693138430e-01 -5.798864538893433451e-01 3.392381340521381516e-01 3.356315695700929913e-01 3.175864679035256266e-01 6.870925822893078072e-01 7.297535018217282676e-01 8.530746929331362027e-02 -1.239730587110932092e-01 3.030415406317012450e-01 4.340113089193810975e-02 -5.666215992192457085e-01 4.476532001273983985e-01 -3.119565004770624483e+00 1.617867390182900156e+00 3.132098774152798915e-01 -3.363806393966579655e-01 3.423747650017895383e-01 1.862376517705462531e+00 3.237855113443716126e-01 5.831143199654645892e-01 5.547812941593234237e-01 2.702465549657220301e-01 5.345445560604725754e-01 2.977971185100334317e-01 -9.103246430552147661e-02 2.614458488134089320e-01 1.862698184303969828e+00 3.418169631768477323e-01 -2.392473313599853546e-01 3.180168923251224800e-01 3.675467182455066650e-01 -1.339019451326014520e+00 2.560475317274566454e-01 4.912232654792952902e-02 4.002073736222824807e-01 4.424875545599502580e-01 2.941318384840684863e-01 3.799565343735817335e-01 3.181163014355334329e-01 -1.548323378676208506e-01 2.995316724643831696e-01 4.456722144289572141e-01 3.710621203011329472e-01 4.167538256793158480e-01 3.148125385301273060e-01 5.694567204974757546e-01 7.851756560968131682e-01 -1.186248187510787311e+00 -5.860897709878875456e-02 -7.124546618409707821e-02 -1.231237601639178364e-01 5.192362526301664838e-01 3.959959780106542815e-01 3.534824025853613438e-01 6.749866977758790521e-01 1.799591246288576585e-01 3.379455481603564904e-01 3.440046585793130607e-01 8.975226656433371586e-02 -1.545024394240979981e-01 3.052519234040380613e-01 2.834958482074897423e-01 4.700672527888792862e-01 3.060620684383795753e-01 2.732402006005343331e-01 3.103644862636442681e-01 3.234347787587621981e-01 3.123388586307968562e-01 5.288888574306962465e-01 2.806785382724583111e-01 2.964552163103634785e-01 7.804760514108449732e-01 2.805454731009915936e-01 6.686771169009508853e-01 3.862227371957297484e-01 2.671188973956456492e-01 3.021754656318036969e-01 -1.324954874415724237e+00 3.588897482716768006e-01 4.486081696078335623e-01 4.655041687872746858e-01 3.537825962691550363e-01 2.679249749595156160e-01 5.540527458000218397e-01 7.471058447562225480e-01 3.246143728279127227e-01 2.195932856274882827e-01 2.981270625974452027e-01 1.584443605919040876e-01 3.107777768354686443e-01 5.326500964915868996e-01 2.555954740356464749e-01 4.682538253561071007e-01 3.941253902297899292e-01 1.042415965488662638e-02 1.466426937062835112e+00 5.445480782592561075e-01 3.477815042771472132e-01 3.366469290643738788e-01 -7.175398034315459972e-01 2.665600244857073142e-01 4.691298293852976808e-01 6.229979757473361746e-01 3.281027626494493199e-01 3.011883526118913079e-01 1.048170137916489830e+00 8.625126766565357483e-01 1.779610470421454094e-01 3.740034416453087984e-01 1.166809496771337579e-01 2.404582887074579733e-01 8.425950115163449716e-01 2.731036521114550197e+00 3.015974734909925847e-01 2.096643264379423888e-01 6.070361032133704260e-01 1.399963430988683186e-02 2.976480000194364761e-01 3.179448331595301491e-01 9.652054482884477871e-01 3.613643594731998920e-01 -2.188966065498318403e-01 3.219373287800745831e-01 7.231411432508134951e-02 6.768691545987286506e-01 1.289311562506047393e+00 2.806940396798203730e-01 2.042671001387093288e-01 1.568627218157110148e+00 4.583823552275725355e-01 3.089111979332134217e-01 2.186997626252870086e-01 4.917602611511174837e-01 3.437121312225937531e-01 1.112435719090534847e-01 2.137116482219205693e-01 6.763156231986229283e-01 4.685780140581476405e-01 3.279273701067492164e-01 2.990059018216469910e-01 1.400486395060484279e-01 3.121024816678988900e-01 2.332599536354724723e-01 9.809096506409665794e-01 4.647878456353037868e-01 3.011675572211565122e-01 3.854384989761932556e-01 2.692593801930647235e-01 3.184266979045276558e-01 5.616976362231801412e-01 7.163012606737024779e-01 2.203874123664379125e-01 3.368414042029515554e-01 2.057235819013770450e-01 3.224349405449494221e-01 7.476080494162403722e-01 3.016392425956931911e-01 3.300437232132127918e-01 -2.723095555505585241e-01 2.973572919568292505e-01 1.205066992574199553e-01 2.872215562905379160e-01 1.691798694305965967e-01 2.825549240110263316e-01 1.560954251560895178e+00 4.811608354188679493e-01 2.677838751205998680e-01 5.602206708075874869e-02 1.386146672260067270e+00 1.076198982399819259e+00 3.632124237546777157e-01 -4.562000249207612823e-01 -6.894999373771279472e-02 5.919834282819082250e-02 3.445960664561767972e-01 3.150743002163491346e-01 3.286601921038344587e-01 4.665304767786740969e-01 3.472867646090226357e-01 2.636225152702968977e-01 3.432837573467466541e-01 8.139709482261239804e-02 2.807119771978627831e-01 5.978269771458766257e-01 9.571186558714894765e-02 7.967104419853687780e-01 3.998885117125738908e-01 4.190009689726664210e-01 6.749974951615518304e-01 4.759453446341745386e-01 7.860766367199754079e-01 1.212953123035648145e-01 6.540047223990943515e-01 1.395295700604766820e+00 1.817508617991662190e-01 1.851248475652586212e+00 2.056378680949497162e-01 1.028673593111370244e-01 3.095987968825891223e-01 2.693867312295588068e-01 3.442050310847954431e-01 1.718162675281066087e-01 3.174423459387728519e-01 2.992810075399939262e-01 3.151523081355918077e-01 3.203555145086330325e-01 -1.135132382407177121e-01 2.639028462730158564e-01 4.501827814505455355e-02 4.125070962798287888e-01 1.136114066854354010e-01 3.998885107863628940e-01 1.696547870723854323e-01 4.916788484108300938e-01 -9.297936220747659020e-01 1.780799346469340350e+00 2.992643861345972711e-01 -5.234129229877518830e-01 3.009969335485542796e-01 3.336480187440922229e-01 2.957433335823479448e-01 -4.233349352803513099e+00 3.189400956882261440e+00 5.822010116568171467e-01 4.606267299815476335e-01 4.569571405241077966e-01 3.000120000761101191e-01 4.586561568300753233e-01 2.354904926853865543e+00 5.764358991448718106e-01 3.316371766018187950e-01 3.724990213205773837e-01 2.087056712598566177e-01 2.651549026448940527e-01 9.108663009239555963e-01 -3.815917152743478202e-01 -9.255165675645785628e-01 -1.043555426666142649e+00 3.803645188573789304e-01 2.974778359235473735e-01 6.231353876780035828e-01 3.312597274387619750e-01 7.449908961334537061e-01 3.963103440570822644e-01 2.912316365860405654e-01 2.462686014616770613e-01 3.114979510178505495e-01 3.479470998615841193e-01 4.142822816694586296e-01 6.410527311459416344e-01 3.402662717638363366e-01 3.458331676157606616e-01 1.760525526379857486e-01 4.168679007184242225e-02 4.144209072270518823e-01 3.530253519952700758e-01 2.611541386241612583e-01 2.198456449041915062e-01 7.744324227414691730e-01 5.631623635343151468e-01 5.524072363746393988e-01 2.827180606332131974e-01 3.392817347362249158e-01 2.202557108722106305e-01 1.048151728690696283e+00 1.560625584814176348e+00 4.158729483502311419e-01 2.847136244537493144e-01 3.281786027009039319e-01 4.974686031324869750e-01 2.897020239625265337e-01 2.793685729461771183e-01 2.812237903566076058e-01 3.121689605001012335e-01 7.378553449508460371e-01 7.896174959574562280e-01 4.857999920003159833e-01 1.694921181812765854e+00 1.085296205044613826e-01 1.928770437716649244e-01 -2.110592336627706012e-01 -3.595834282801184667e-01 2.933463430706957364e-01 2.692274362209475247e-01 7.079266627588642891e-01 2.993148598733866295e-01 2.804909862856836966e-01 3.032099158489751090e-01 3.608186027974353838e-01 2.968653008298509088e-01 3.938348856667285847e-01 9.918548919788772178e-01 2.396172291262340104e-01 5.966539649595191674e-01 2.990468430989310922e-01 2.836885800336746283e-02 3.289556032652811712e-01 3.680527464373608559e-01 -1.970621017723974133e-01 2.277177741542940059e-01 2.856667145969074562e-01 3.423833882845295773e-01 3.999085174752395333e-01 1.155963005243307418e+00 8.750020547530014126e-01 -7.592210017205341943e-01 -1.784050862650838343e-01 4.775801285328464263e-01 -2.956028667040618618e+00 1.483412284111712776e+00 2.787198353897640257e-01 3.428983431754846212e-01 2.896615507202572326e-01 7.826330158096486134e-01 3.012847847908265986e-01 2.839751404929571343e-01 -3.939702596524664036e-01 7.701451008272423016e-01 3.659298351790663539e-01 9.141593886477327180e-01 1.923014670379285418e+00 -3.818108249744275318e-01 -1.336047152459295617e+00 2.779187641332031000e-01 1.272525714605486635e-01 8.409531266925893700e-01 3.625001082148843201e-01 7.514034992386254830e-01 4.659279178284461698e-01 1.212236662884483424e-01 3.140518587897917491e-01 3.322818244306723345e-01 3.939425134364847869e-01 4.446156436010171853e-01 1.236092124193802766e+00 1.388713873614802141e+00 2.924575563139403256e-01 3.159162619542008610e-01 -1.776754345968079851e-01 -1.806654786805963753e-01 1.820404745826794957e-01 2.790012837822655190e-01 3.563979867038547522e-01 7.120073862681318699e-01 -9.112972220348436458e-02 2.747000177296131107e-01 3.003291939354221785e-01 4.116591952020946521e-01 3.175447348102271583e-01 4.741963882032670941e-01 3.004138825835567794e-01 3.047404230954801618e-01 -9.586566626775901157e-02 3.491884720733534619e-01 4.587561272319274353e-01 1.023821173586326294e+00 1.060600078686595227e+00 9.349238089879656766e-01 2.857432621660371264e-01 6.155668809224943416e-01 4.615343541144364264e-02 3.433330394317115619e-01 -1.756145119842258184e+00 3.201049213028183127e-01 6.211901107022854696e-01 3.118583586694409493e-01 9.368949887383533071e-01 1.279266867544084363e+00 3.724990238769227968e-01 1.551823332539732092e-01 3.624172505468335470e-01 5.905999229987025922e-02 5.895084932347353091e-01 2.537651431530821844e-01 -5.709857747169150288e-01 4.113292003445773171e-01 4.031515560352197936e-01 3.334318022478055532e-01 3.504922993804094888e-01 6.492979824241393860e-01 1.850631096971466494e-01 3.352604977876567638e-01 3.180728663780835741e-01 2.210850850077934193e-01 8.631594551239982760e-01 3.875445077989793652e-01 -1.774428297393529919e-01 8.482960405351742672e-01 1.071977648676231132e-01 4.243690762528349869e-01 2.670230340773885880e-01 1.212492007567274710e+00 3.127984650802141386e-01 6.734763777579668709e-01 3.547991563734511078e-01 3.406646369048058620e-01 -3.126626664317079252e-01 3.800994570864761890e-01 7.086637320109296923e-01 3.036346345918590206e-01 7.267358401107550936e-01 2.997477088081429986e-01 3.224420578161311668e-01 7.288935896516117730e-01 4.668764826302476689e-02 -1.891752627410772769e+00 2.955680558359374266e-01 2.795005251735001028e-01 2.034801002236985012e-01 1.152104603758131313e-01 2.202085435256233847e-01 3.551928420838857958e-01 3.310220744627189737e-01 2.840362628865940042e-01 -4.981451954318666386e-02 -1.535772661032042352e+00 7.069067675355954483e-01 3.287906420629088666e-01 2.683395861425832973e-01 1.896719164307742733e-01 8.106813689367564635e-01 2.967035525388658779e-01 -3.739677394878994365e-02 2.316866013373015398e-01 1.080751976775108814e+00 3.881332391308232599e-01 4.101025754606412166e-01 1.075117295065852074e+00 3.355888142856460199e-01 2.377086423078689670e+00 3.489233472881866360e-01 2.638314784031751126e-01 8.033699568036101191e-01 3.005517471255094719e-01 2.616072589772941437e-01 -1.650128582933114707e+00 3.064630554016984365e-01 2.828478975210949042e-01 4.941096894756729641e-01 3.143204868371741179e-01 5.368741456228453002e-01 -3.939656632660575308e-01 1.861936970046569106e+00 -5.126975594592422247e-01 7.555260840442804549e-01 3.152292039452521122e-01 4.218708673522161834e-01 4.810537192377052351e-01 3.451299767669193663e-01 1.226809261484903768e+00 3.066570223913281032e-02 1.495245307367328857e-01 -8.313783795176391545e-01 1.669942798780353621e-02 4.286604613572265188e-01 -3.229025901845515190e+00 2.629114017570112871e+00 4.099740596366003853e-01 2.893771358465396237e-01 -1.374834923220221494e+00 3.024203754386071696e-01 -1.459916876429697384e-02 3.013352220963411154e-01 9.238814495096134283e-02 6.218859213099792171e-01 5.512911799603302798e-01 6.981206134402635488e-01 -1.784050862235366242e-01 -1.403479193461615870e-01 3.086873016005207138e-01 -1.096777749199241203e+00 2.712528696516068316e-01 -5.805445698014870537e-01 3.009856995140460789e-01 5.256124272822569887e-01 1.593522933499628286e-02 3.392154112666814214e-01 2.957042610007398209e-01 -1.763803561383781859e-01 4.164138703178181800e-01 3.452475883065024842e-01 1.695896976984600513e-01 3.029614507858918726e-01 2.982079754887606016e-01 -7.590228390596979180e-01 6.651540659802043232e-01 1.464149969699903631e+00 1.903827524450352540e-02 2.562832913869016460e-01 2.670235385492851221e-01 1.229175497208400802e+00 2.834129070882817070e-01 3.153421167847162976e-01 9.085063075619898010e-01 2.498588816018844916e-01 1.672480539644853881e+00 3.261831109940800943e-01 7.295741155766459762e-01 3.313782808783750644e-01 7.200564855368062345e-01 1.298504591357387605e+00 3.580128472159159747e-01 1.674921407701843445e-01 7.956936161703883625e-01 -6.565749782637504695e-02 -7.033031270976483791e-03 -3.601669887235914302e-02 2.843706586455384544e-01 2.913483679565233575e-01 1.403597950536180083e-01 4.848568607683986231e-01 -2.522283774614204610e-01 1.287230597124873643e+00 2.671730213382882968e-01 2.999272234968491380e-01 -2.692986452709206446e+00 2.284204578788166240e-01 2.236675755888595796e-01 2.740982735085546462e-01 9.620660844994027849e-02 4.467744295284693523e-01 -8.202139443685751985e-01 3.419406240460043378e-01 2.674258714633178657e-01 3.002746770586632308e-01 1.108960314991339402e+00 3.686116587030883185e-01 3.110669387036466560e-01 -1.286479746814931602e+00 5.380502023789467403e-01 8.631881825891051241e-01 2.278526189382475975e-01 2.971218392449178625e-01 3.806193649364921633e-02 7.419190748719188822e-01 -9.885292655400709783e-02 3.128921182624052055e-01 3.002468537448572672e-01 7.783320841446580984e-02 7.553053945968195571e-01 2.930088205462093587e-01 7.798446454913562365e-01 2.737886597367632513e-01 6.623321608714096698e-01 -8.040374724751377100e-02 -1.460344833691901822e+00 3.497115139739467859e-01 1.409934066180592964e-03 3.185221682701426804e-01 3.318205621213422551e-01 9.868502249263988446e-02 5.631623168187254169e-01 3.010833706861968384e-01 1.392149490259732836e-01 3.095259553588735058e-01 2.837759153647272936e-01 2.702750942529071887e-01 2.682487952396192532e-01 -6.545954383707995872e-01 2.783673307742728364e-01 3.078531626915721464e-01 3.132887056969837491e-01 3.711726804062133178e-01 3.063794101778791190e-01 6.819447956527916466e-01 -1.776363761984715017e-01 9.729265979956600585e-01 5.569463556689643324e-01 3.195275506711385827e-01 2.966443635725927730e-01 -1.877698863889598613e+00 2.695391318607721631e-01 2.125662304847922845e-01 1.894124588937357023e-01 5.631622706925569766e-01 3.230508149161452347e-01 3.939352976904651471e-01 4.122316858014304364e-01 3.040450507195965324e-01 3.642326906524219199e-01 2.619312623045062516e-01 2.892788124173344966e-01 3.543671889988456725e-01 2.939172791642143956e-01 2.979921463155134620e-01 2.673384717926698961e-01 -8.415871655008119734e-02 2.778412910457712659e-01 2.743445446229471618e-01 3.731267855342575990e-01 2.751981670960162996e-01 -3.462376453366868001e-02 1.418091751840659664e-02 -3.365839604551435632e-02 3.774999488451842300e+00 3.546118241538125937e-01 3.735241385817266169e-01 2.249968911292521134e-01 4.703498708534141759e-01 1.427557534457911226e+00 2.096918004032640170e-01 7.101620966475685748e-01 3.027800976735927074e-01
