# 
#                 ----------------------------------------------------
#                 Data from a 3D direct N-body simulation. 
# 
#                 rows are i-particle; 
#                 coumns are :mass, tag, x ,y, z, vx, vy, vz, ax, ay, az
# 
#                 NTHU, Computational Physics 
# 
#                 ----------------------------------------------------
#                 Time = 0.0
0.000000000000000000e+00 1.000000000000000000e+00 2.000000000000000000e+00 3.000000000000000000e+00 4.000000000000000000e+00 5.000000000000000000e+00 6.000000000000000000e+00 7.000000000000000000e+00 8.000000000000000000e+00 9.000000000000000000e+00 1.000000000000000000e+01 1.100000000000000000e+01 1.200000000000000000e+01 1.300000000000000000e+01 1.400000000000000000e+01 1.500000000000000000e+01 1.600000000000000000e+01 1.700000000000000000e+01 1.800000000000000000e+01 1.900000000000000000e+01 2.000000000000000000e+01 2.100000000000000000e+01 2.200000000000000000e+01 2.300000000000000000e+01 2.400000000000000000e+01 2.500000000000000000e+01 2.600000000000000000e+01 2.700000000000000000e+01 2.800000000000000000e+01 2.900000000000000000e+01 3.000000000000000000e+01 3.100000000000000000e+01 3.200000000000000000e+01 3.300000000000000000e+01 3.400000000000000000e+01 3.500000000000000000e+01 3.600000000000000000e+01 3.700000000000000000e+01 3.800000000000000000e+01 3.900000000000000000e+01 4.000000000000000000e+01 4.100000000000000000e+01 4.200000000000000000e+01 4.300000000000000000e+01 4.400000000000000000e+01 4.500000000000000000e+01 4.600000000000000000e+01 4.700000000000000000e+01 4.800000000000000000e+01 4.900000000000000000e+01 5.000000000000000000e+01 5.100000000000000000e+01 5.200000000000000000e+01 5.300000000000000000e+01 5.400000000000000000e+01 5.500000000000000000e+01 5.600000000000000000e+01 5.700000000000000000e+01 5.800000000000000000e+01 5.900000000000000000e+01 6.000000000000000000e+01 6.100000000000000000e+01 6.200000000000000000e+01 6.300000000000000000e+01 6.400000000000000000e+01 6.500000000000000000e+01 6.600000000000000000e+01 6.700000000000000000e+01 6.800000000000000000e+01 6.900000000000000000e+01 7.000000000000000000e+01 7.100000000000000000e+01 7.200000000000000000e+01 7.300000000000000000e+01 7.400000000000000000e+01 7.500000000000000000e+01 7.600000000000000000e+01 7.700000000000000000e+01 7.800000000000000000e+01 7.900000000000000000e+01 8.000000000000000000e+01 8.100000000000000000e+01 8.200000000000000000e+01 8.300000000000000000e+01 8.400000000000000000e+01 8.500000000000000000e+01 8.600000000000000000e+01 8.700000000000000000e+01 8.800000000000000000e+01 8.900000000000000000e+01 9.000000000000000000e+01 9.100000000000000000e+01 9.200000000000000000e+01 9.300000000000000000e+01 9.400000000000000000e+01 9.500000000000000000e+01 9.600000000000000000e+01 9.700000000000000000e+01 9.800000000000000000e+01 9.900000000000000000e+01 1.000000000000000000e+02 1.010000000000000000e+02 1.020000000000000000e+02 1.030000000000000000e+02 1.040000000000000000e+02 1.050000000000000000e+02 1.060000000000000000e+02 1.070000000000000000e+02 1.080000000000000000e+02 1.090000000000000000e+02 1.100000000000000000e+02 1.110000000000000000e+02 1.120000000000000000e+02 1.130000000000000000e+02 1.140000000000000000e+02 1.150000000000000000e+02 1.160000000000000000e+02 1.170000000000000000e+02 1.180000000000000000e+02 1.190000000000000000e+02 1.200000000000000000e+02 1.210000000000000000e+02 1.220000000000000000e+02 1.230000000000000000e+02 1.240000000000000000e+02 1.250000000000000000e+02 1.260000000000000000e+02 1.270000000000000000e+02 1.280000000000000000e+02 1.290000000000000000e+02 1.300000000000000000e+02 1.310000000000000000e+02 1.320000000000000000e+02 1.330000000000000000e+02 1.340000000000000000e+02 1.350000000000000000e+02 1.360000000000000000e+02 1.370000000000000000e+02 1.380000000000000000e+02 1.390000000000000000e+02 1.400000000000000000e+02 1.410000000000000000e+02 1.420000000000000000e+02 1.430000000000000000e+02 1.440000000000000000e+02 1.450000000000000000e+02 1.460000000000000000e+02 1.470000000000000000e+02 1.480000000000000000e+02 1.490000000000000000e+02 1.500000000000000000e+02 1.510000000000000000e+02 1.520000000000000000e+02 1.530000000000000000e+02 1.540000000000000000e+02 1.550000000000000000e+02 1.560000000000000000e+02 1.570000000000000000e+02 1.580000000000000000e+02 1.590000000000000000e+02 1.600000000000000000e+02 1.610000000000000000e+02 1.620000000000000000e+02 1.630000000000000000e+02 1.640000000000000000e+02 1.650000000000000000e+02 1.660000000000000000e+02 1.670000000000000000e+02 1.680000000000000000e+02 1.690000000000000000e+02 1.700000000000000000e+02 1.710000000000000000e+02 1.720000000000000000e+02 1.730000000000000000e+02 1.740000000000000000e+02 1.750000000000000000e+02 1.760000000000000000e+02 1.770000000000000000e+02 1.780000000000000000e+02 1.790000000000000000e+02 1.800000000000000000e+02 1.810000000000000000e+02 1.820000000000000000e+02 1.830000000000000000e+02 1.840000000000000000e+02 1.850000000000000000e+02 1.860000000000000000e+02 1.870000000000000000e+02 1.880000000000000000e+02 1.890000000000000000e+02 1.900000000000000000e+02 1.910000000000000000e+02 1.920000000000000000e+02 1.930000000000000000e+02 1.940000000000000000e+02 1.950000000000000000e+02 1.960000000000000000e+02 1.970000000000000000e+02 1.980000000000000000e+02 1.990000000000000000e+02 2.000000000000000000e+02 2.010000000000000000e+02 2.020000000000000000e+02 2.030000000000000000e+02 2.040000000000000000e+02 2.050000000000000000e+02 2.060000000000000000e+02 2.070000000000000000e+02 2.080000000000000000e+02 2.090000000000000000e+02 2.100000000000000000e+02 2.110000000000000000e+02 2.120000000000000000e+02 2.130000000000000000e+02 2.140000000000000000e+02 2.150000000000000000e+02 2.160000000000000000e+02 2.170000000000000000e+02 2.180000000000000000e+02 2.190000000000000000e+02 2.200000000000000000e+02 2.210000000000000000e+02 2.220000000000000000e+02 2.230000000000000000e+02 2.240000000000000000e+02 2.250000000000000000e+02 2.260000000000000000e+02 2.270000000000000000e+02 2.280000000000000000e+02 2.290000000000000000e+02 2.300000000000000000e+02 2.310000000000000000e+02 2.320000000000000000e+02 2.330000000000000000e+02 2.340000000000000000e+02 2.350000000000000000e+02 2.360000000000000000e+02 2.370000000000000000e+02 2.380000000000000000e+02 2.390000000000000000e+02 2.400000000000000000e+02 2.410000000000000000e+02 2.420000000000000000e+02 2.430000000000000000e+02 2.440000000000000000e+02 2.450000000000000000e+02 2.460000000000000000e+02 2.470000000000000000e+02 2.480000000000000000e+02 2.490000000000000000e+02 2.500000000000000000e+02 2.510000000000000000e+02 2.520000000000000000e+02 2.530000000000000000e+02 2.540000000000000000e+02 2.550000000000000000e+02 2.560000000000000000e+02 2.570000000000000000e+02 2.580000000000000000e+02 2.590000000000000000e+02 2.600000000000000000e+02 2.610000000000000000e+02 2.620000000000000000e+02 2.630000000000000000e+02 2.640000000000000000e+02 2.650000000000000000e+02 2.660000000000000000e+02 2.670000000000000000e+02 2.680000000000000000e+02 2.690000000000000000e+02 2.700000000000000000e+02 2.710000000000000000e+02 2.720000000000000000e+02 2.730000000000000000e+02 2.740000000000000000e+02 2.750000000000000000e+02 2.760000000000000000e+02 2.770000000000000000e+02 2.780000000000000000e+02 2.790000000000000000e+02 2.800000000000000000e+02 2.810000000000000000e+02 2.820000000000000000e+02 2.830000000000000000e+02 2.840000000000000000e+02 2.850000000000000000e+02 2.860000000000000000e+02 2.870000000000000000e+02 2.880000000000000000e+02 2.890000000000000000e+02 2.900000000000000000e+02 2.910000000000000000e+02 2.920000000000000000e+02 2.930000000000000000e+02 2.940000000000000000e+02 2.950000000000000000e+02 2.960000000000000000e+02 2.970000000000000000e+02 2.980000000000000000e+02 2.990000000000000000e+02 3.000000000000000000e+02 3.010000000000000000e+02 3.020000000000000000e+02 3.030000000000000000e+02 3.040000000000000000e+02 3.050000000000000000e+02 3.060000000000000000e+02 3.070000000000000000e+02 3.080000000000000000e+02 3.090000000000000000e+02 3.100000000000000000e+02 3.110000000000000000e+02 3.120000000000000000e+02 3.130000000000000000e+02 3.140000000000000000e+02 3.150000000000000000e+02 3.160000000000000000e+02 3.170000000000000000e+02 3.180000000000000000e+02 3.190000000000000000e+02 3.200000000000000000e+02 3.210000000000000000e+02 3.220000000000000000e+02 3.230000000000000000e+02 3.240000000000000000e+02 3.250000000000000000e+02 3.260000000000000000e+02 3.270000000000000000e+02 3.280000000000000000e+02 3.290000000000000000e+02 3.300000000000000000e+02 3.310000000000000000e+02 3.320000000000000000e+02 3.330000000000000000e+02 3.340000000000000000e+02 3.350000000000000000e+02 3.360000000000000000e+02 3.370000000000000000e+02 3.380000000000000000e+02 3.390000000000000000e+02 3.400000000000000000e+02 3.410000000000000000e+02 3.420000000000000000e+02 3.430000000000000000e+02 3.440000000000000000e+02 3.450000000000000000e+02 3.460000000000000000e+02 3.470000000000000000e+02 3.480000000000000000e+02 3.490000000000000000e+02 3.500000000000000000e+02 3.510000000000000000e+02 3.520000000000000000e+02 3.530000000000000000e+02 3.540000000000000000e+02 3.550000000000000000e+02 3.560000000000000000e+02 3.570000000000000000e+02 3.580000000000000000e+02 3.590000000000000000e+02 3.600000000000000000e+02 3.610000000000000000e+02 3.620000000000000000e+02 3.630000000000000000e+02 3.640000000000000000e+02 3.650000000000000000e+02 3.660000000000000000e+02 3.670000000000000000e+02 3.680000000000000000e+02 3.690000000000000000e+02 3.700000000000000000e+02 3.710000000000000000e+02 3.720000000000000000e+02 3.730000000000000000e+02 3.740000000000000000e+02 3.750000000000000000e+02 3.760000000000000000e+02 3.770000000000000000e+02 3.780000000000000000e+02 3.790000000000000000e+02 3.800000000000000000e+02 3.810000000000000000e+02 3.820000000000000000e+02 3.830000000000000000e+02 3.840000000000000000e+02 3.850000000000000000e+02 3.860000000000000000e+02 3.870000000000000000e+02 3.880000000000000000e+02 3.890000000000000000e+02 3.900000000000000000e+02 3.910000000000000000e+02 3.920000000000000000e+02 3.930000000000000000e+02 3.940000000000000000e+02 3.950000000000000000e+02 3.960000000000000000e+02 3.970000000000000000e+02 3.980000000000000000e+02 3.990000000000000000e+02 4.000000000000000000e+02 4.010000000000000000e+02 4.020000000000000000e+02 4.030000000000000000e+02 4.040000000000000000e+02 4.050000000000000000e+02 4.060000000000000000e+02 4.070000000000000000e+02 4.080000000000000000e+02 4.090000000000000000e+02 4.100000000000000000e+02 4.110000000000000000e+02 4.120000000000000000e+02 4.130000000000000000e+02 4.140000000000000000e+02 4.150000000000000000e+02 4.160000000000000000e+02 4.170000000000000000e+02 4.180000000000000000e+02 4.190000000000000000e+02 4.200000000000000000e+02 4.210000000000000000e+02 4.220000000000000000e+02 4.230000000000000000e+02 4.240000000000000000e+02 4.250000000000000000e+02 4.260000000000000000e+02 4.270000000000000000e+02 4.280000000000000000e+02 4.290000000000000000e+02 4.300000000000000000e+02 4.310000000000000000e+02 4.320000000000000000e+02 4.330000000000000000e+02 4.340000000000000000e+02 4.350000000000000000e+02 4.360000000000000000e+02 4.370000000000000000e+02 4.380000000000000000e+02 4.390000000000000000e+02 4.400000000000000000e+02 4.410000000000000000e+02 4.420000000000000000e+02 4.430000000000000000e+02 4.440000000000000000e+02 4.450000000000000000e+02 4.460000000000000000e+02 4.470000000000000000e+02 4.480000000000000000e+02 4.490000000000000000e+02 4.500000000000000000e+02 4.510000000000000000e+02 4.520000000000000000e+02 4.530000000000000000e+02 4.540000000000000000e+02 4.550000000000000000e+02 4.560000000000000000e+02 4.570000000000000000e+02 4.580000000000000000e+02 4.590000000000000000e+02 4.600000000000000000e+02 4.610000000000000000e+02 4.620000000000000000e+02 4.630000000000000000e+02 4.640000000000000000e+02 4.650000000000000000e+02 4.660000000000000000e+02 4.670000000000000000e+02 4.680000000000000000e+02 4.690000000000000000e+02 4.700000000000000000e+02 4.710000000000000000e+02 4.720000000000000000e+02 4.730000000000000000e+02 4.740000000000000000e+02 4.750000000000000000e+02 4.760000000000000000e+02 4.770000000000000000e+02 4.780000000000000000e+02 4.790000000000000000e+02 4.800000000000000000e+02 4.810000000000000000e+02 4.820000000000000000e+02 4.830000000000000000e+02 4.840000000000000000e+02 4.850000000000000000e+02 4.860000000000000000e+02 4.870000000000000000e+02 4.880000000000000000e+02 4.890000000000000000e+02 4.900000000000000000e+02 4.910000000000000000e+02 4.920000000000000000e+02 4.930000000000000000e+02 4.940000000000000000e+02 4.950000000000000000e+02 4.960000000000000000e+02 4.970000000000000000e+02 4.980000000000000000e+02 4.990000000000000000e+02 5.000000000000000000e+02 5.010000000000000000e+02 5.020000000000000000e+02 5.030000000000000000e+02 5.040000000000000000e+02 5.050000000000000000e+02 5.060000000000000000e+02 5.070000000000000000e+02 5.080000000000000000e+02 5.090000000000000000e+02 5.100000000000000000e+02 5.110000000000000000e+02 5.120000000000000000e+02 5.130000000000000000e+02 5.140000000000000000e+02 5.150000000000000000e+02 5.160000000000000000e+02 5.170000000000000000e+02 5.180000000000000000e+02 5.190000000000000000e+02 5.200000000000000000e+02 5.210000000000000000e+02 5.220000000000000000e+02 5.230000000000000000e+02 5.240000000000000000e+02 5.250000000000000000e+02 5.260000000000000000e+02 5.270000000000000000e+02 5.280000000000000000e+02 5.290000000000000000e+02 5.300000000000000000e+02 5.310000000000000000e+02 5.320000000000000000e+02 5.330000000000000000e+02 5.340000000000000000e+02 5.350000000000000000e+02 5.360000000000000000e+02 5.370000000000000000e+02 5.380000000000000000e+02 5.390000000000000000e+02 5.400000000000000000e+02 5.410000000000000000e+02 5.420000000000000000e+02 5.430000000000000000e+02 5.440000000000000000e+02 5.450000000000000000e+02 5.460000000000000000e+02 5.470000000000000000e+02 5.480000000000000000e+02 5.490000000000000000e+02 5.500000000000000000e+02 5.510000000000000000e+02 5.520000000000000000e+02 5.530000000000000000e+02 5.540000000000000000e+02 5.550000000000000000e+02 5.560000000000000000e+02 5.570000000000000000e+02 5.580000000000000000e+02 5.590000000000000000e+02 5.600000000000000000e+02 5.610000000000000000e+02 5.620000000000000000e+02 5.630000000000000000e+02 5.640000000000000000e+02 5.650000000000000000e+02 5.660000000000000000e+02 5.670000000000000000e+02 5.680000000000000000e+02 5.690000000000000000e+02 5.700000000000000000e+02 5.710000000000000000e+02 5.720000000000000000e+02 5.730000000000000000e+02 5.740000000000000000e+02 5.750000000000000000e+02 5.760000000000000000e+02 5.770000000000000000e+02 5.780000000000000000e+02 5.790000000000000000e+02 5.800000000000000000e+02 5.810000000000000000e+02 5.820000000000000000e+02 5.830000000000000000e+02 5.840000000000000000e+02 5.850000000000000000e+02 5.860000000000000000e+02 5.870000000000000000e+02 5.880000000000000000e+02 5.890000000000000000e+02 5.900000000000000000e+02 5.910000000000000000e+02 5.920000000000000000e+02 5.930000000000000000e+02 5.940000000000000000e+02 5.950000000000000000e+02 5.960000000000000000e+02 5.970000000000000000e+02 5.980000000000000000e+02 5.990000000000000000e+02 6.000000000000000000e+02 6.010000000000000000e+02 6.020000000000000000e+02 6.030000000000000000e+02 6.040000000000000000e+02 6.050000000000000000e+02 6.060000000000000000e+02 6.070000000000000000e+02 6.080000000000000000e+02 6.090000000000000000e+02 6.100000000000000000e+02 6.110000000000000000e+02 6.120000000000000000e+02 6.130000000000000000e+02 6.140000000000000000e+02 6.150000000000000000e+02 6.160000000000000000e+02 6.170000000000000000e+02 6.180000000000000000e+02 6.190000000000000000e+02 6.200000000000000000e+02 6.210000000000000000e+02 6.220000000000000000e+02 6.230000000000000000e+02 6.240000000000000000e+02 6.250000000000000000e+02 6.260000000000000000e+02 6.270000000000000000e+02 6.280000000000000000e+02 6.290000000000000000e+02 6.300000000000000000e+02 6.310000000000000000e+02 6.320000000000000000e+02 6.330000000000000000e+02 6.340000000000000000e+02 6.350000000000000000e+02 6.360000000000000000e+02 6.370000000000000000e+02 6.380000000000000000e+02 6.390000000000000000e+02 6.400000000000000000e+02 6.410000000000000000e+02 6.420000000000000000e+02 6.430000000000000000e+02 6.440000000000000000e+02 6.450000000000000000e+02 6.460000000000000000e+02 6.470000000000000000e+02 6.480000000000000000e+02 6.490000000000000000e+02 6.500000000000000000e+02 6.510000000000000000e+02 6.520000000000000000e+02 6.530000000000000000e+02 6.540000000000000000e+02 6.550000000000000000e+02 6.560000000000000000e+02 6.570000000000000000e+02 6.580000000000000000e+02 6.590000000000000000e+02 6.600000000000000000e+02 6.610000000000000000e+02 6.620000000000000000e+02 6.630000000000000000e+02 6.640000000000000000e+02 6.650000000000000000e+02 6.660000000000000000e+02 6.670000000000000000e+02 6.680000000000000000e+02 6.690000000000000000e+02 6.700000000000000000e+02 6.710000000000000000e+02 6.720000000000000000e+02 6.730000000000000000e+02 6.740000000000000000e+02 6.750000000000000000e+02 6.760000000000000000e+02 6.770000000000000000e+02 6.780000000000000000e+02 6.790000000000000000e+02 6.800000000000000000e+02 6.810000000000000000e+02 6.820000000000000000e+02 6.830000000000000000e+02 6.840000000000000000e+02 6.850000000000000000e+02 6.860000000000000000e+02 6.870000000000000000e+02 6.880000000000000000e+02 6.890000000000000000e+02 6.900000000000000000e+02 6.910000000000000000e+02 6.920000000000000000e+02 6.930000000000000000e+02 6.940000000000000000e+02 6.950000000000000000e+02 6.960000000000000000e+02 6.970000000000000000e+02 6.980000000000000000e+02 6.990000000000000000e+02 7.000000000000000000e+02 7.010000000000000000e+02 7.020000000000000000e+02 7.030000000000000000e+02 7.040000000000000000e+02 7.050000000000000000e+02 7.060000000000000000e+02 7.070000000000000000e+02 7.080000000000000000e+02 7.090000000000000000e+02 7.100000000000000000e+02 7.110000000000000000e+02 7.120000000000000000e+02 7.130000000000000000e+02 7.140000000000000000e+02 7.150000000000000000e+02 7.160000000000000000e+02 7.170000000000000000e+02 7.180000000000000000e+02 7.190000000000000000e+02 7.200000000000000000e+02 7.210000000000000000e+02 7.220000000000000000e+02 7.230000000000000000e+02 7.240000000000000000e+02 7.250000000000000000e+02 7.260000000000000000e+02 7.270000000000000000e+02 7.280000000000000000e+02 7.290000000000000000e+02 7.300000000000000000e+02 7.310000000000000000e+02 7.320000000000000000e+02 7.330000000000000000e+02 7.340000000000000000e+02 7.350000000000000000e+02 7.360000000000000000e+02 7.370000000000000000e+02 7.380000000000000000e+02 7.390000000000000000e+02 7.400000000000000000e+02 7.410000000000000000e+02 7.420000000000000000e+02 7.430000000000000000e+02 7.440000000000000000e+02 7.450000000000000000e+02 7.460000000000000000e+02 7.470000000000000000e+02 7.480000000000000000e+02 7.490000000000000000e+02 7.500000000000000000e+02 7.510000000000000000e+02 7.520000000000000000e+02 7.530000000000000000e+02 7.540000000000000000e+02 7.550000000000000000e+02 7.560000000000000000e+02 7.570000000000000000e+02 7.580000000000000000e+02 7.590000000000000000e+02 7.600000000000000000e+02 7.610000000000000000e+02 7.620000000000000000e+02 7.630000000000000000e+02 7.640000000000000000e+02 7.650000000000000000e+02 7.660000000000000000e+02 7.670000000000000000e+02 7.680000000000000000e+02 7.690000000000000000e+02 7.700000000000000000e+02 7.710000000000000000e+02 7.720000000000000000e+02 7.730000000000000000e+02 7.740000000000000000e+02 7.750000000000000000e+02 7.760000000000000000e+02 7.770000000000000000e+02 7.780000000000000000e+02 7.790000000000000000e+02 7.800000000000000000e+02 7.810000000000000000e+02 7.820000000000000000e+02 7.830000000000000000e+02 7.840000000000000000e+02 7.850000000000000000e+02 7.860000000000000000e+02 7.870000000000000000e+02 7.880000000000000000e+02 7.890000000000000000e+02 7.900000000000000000e+02 7.910000000000000000e+02 7.920000000000000000e+02 7.930000000000000000e+02 7.940000000000000000e+02 7.950000000000000000e+02 7.960000000000000000e+02 7.970000000000000000e+02 7.980000000000000000e+02 7.990000000000000000e+02 8.000000000000000000e+02 8.010000000000000000e+02 8.020000000000000000e+02 8.030000000000000000e+02 8.040000000000000000e+02 8.050000000000000000e+02 8.060000000000000000e+02 8.070000000000000000e+02 8.080000000000000000e+02 8.090000000000000000e+02 8.100000000000000000e+02 8.110000000000000000e+02 8.120000000000000000e+02 8.130000000000000000e+02 8.140000000000000000e+02 8.150000000000000000e+02 8.160000000000000000e+02 8.170000000000000000e+02 8.180000000000000000e+02 8.190000000000000000e+02 8.200000000000000000e+02 8.210000000000000000e+02 8.220000000000000000e+02 8.230000000000000000e+02 8.240000000000000000e+02 8.250000000000000000e+02 8.260000000000000000e+02 8.270000000000000000e+02 8.280000000000000000e+02 8.290000000000000000e+02 8.300000000000000000e+02 8.310000000000000000e+02 8.320000000000000000e+02 8.330000000000000000e+02 8.340000000000000000e+02 8.350000000000000000e+02 8.360000000000000000e+02 8.370000000000000000e+02 8.380000000000000000e+02 8.390000000000000000e+02 8.400000000000000000e+02 8.410000000000000000e+02 8.420000000000000000e+02 8.430000000000000000e+02 8.440000000000000000e+02 8.450000000000000000e+02 8.460000000000000000e+02 8.470000000000000000e+02 8.480000000000000000e+02 8.490000000000000000e+02 8.500000000000000000e+02 8.510000000000000000e+02 8.520000000000000000e+02 8.530000000000000000e+02 8.540000000000000000e+02 8.550000000000000000e+02 8.560000000000000000e+02 8.570000000000000000e+02 8.580000000000000000e+02 8.590000000000000000e+02 8.600000000000000000e+02 8.610000000000000000e+02 8.620000000000000000e+02 8.630000000000000000e+02 8.640000000000000000e+02 8.650000000000000000e+02 8.660000000000000000e+02 8.670000000000000000e+02 8.680000000000000000e+02 8.690000000000000000e+02 8.700000000000000000e+02 8.710000000000000000e+02 8.720000000000000000e+02 8.730000000000000000e+02 8.740000000000000000e+02 8.750000000000000000e+02 8.760000000000000000e+02 8.770000000000000000e+02 8.780000000000000000e+02 8.790000000000000000e+02 8.800000000000000000e+02 8.810000000000000000e+02 8.820000000000000000e+02 8.830000000000000000e+02 8.840000000000000000e+02 8.850000000000000000e+02 8.860000000000000000e+02 8.870000000000000000e+02 8.880000000000000000e+02 8.890000000000000000e+02 8.900000000000000000e+02 8.910000000000000000e+02 8.920000000000000000e+02 8.930000000000000000e+02 8.940000000000000000e+02 8.950000000000000000e+02 8.960000000000000000e+02 8.970000000000000000e+02 8.980000000000000000e+02 8.990000000000000000e+02 9.000000000000000000e+02 9.010000000000000000e+02 9.020000000000000000e+02 9.030000000000000000e+02 9.040000000000000000e+02 9.050000000000000000e+02 9.060000000000000000e+02 9.070000000000000000e+02 9.080000000000000000e+02 9.090000000000000000e+02 9.100000000000000000e+02 9.110000000000000000e+02 9.120000000000000000e+02 9.130000000000000000e+02 9.140000000000000000e+02 9.150000000000000000e+02 9.160000000000000000e+02 9.170000000000000000e+02 9.180000000000000000e+02 9.190000000000000000e+02 9.200000000000000000e+02 9.210000000000000000e+02 9.220000000000000000e+02 9.230000000000000000e+02 9.240000000000000000e+02 9.250000000000000000e+02 9.260000000000000000e+02 9.270000000000000000e+02 9.280000000000000000e+02 9.290000000000000000e+02 9.300000000000000000e+02 9.310000000000000000e+02 9.320000000000000000e+02 9.330000000000000000e+02 9.340000000000000000e+02 9.350000000000000000e+02 9.360000000000000000e+02 9.370000000000000000e+02 9.380000000000000000e+02 9.390000000000000000e+02 9.400000000000000000e+02 9.410000000000000000e+02 9.420000000000000000e+02 9.430000000000000000e+02 9.440000000000000000e+02 9.450000000000000000e+02 9.460000000000000000e+02 9.470000000000000000e+02 9.480000000000000000e+02 9.490000000000000000e+02 9.500000000000000000e+02 9.510000000000000000e+02 9.520000000000000000e+02 9.530000000000000000e+02 9.540000000000000000e+02 9.550000000000000000e+02 9.560000000000000000e+02 9.570000000000000000e+02 9.580000000000000000e+02 9.590000000000000000e+02 9.600000000000000000e+02 9.610000000000000000e+02 9.620000000000000000e+02 9.630000000000000000e+02 9.640000000000000000e+02 9.650000000000000000e+02 9.660000000000000000e+02 9.670000000000000000e+02 9.680000000000000000e+02 9.690000000000000000e+02 9.700000000000000000e+02 9.710000000000000000e+02 9.720000000000000000e+02 9.730000000000000000e+02 9.740000000000000000e+02 9.750000000000000000e+02 9.760000000000000000e+02 9.770000000000000000e+02 9.780000000000000000e+02 9.790000000000000000e+02 9.800000000000000000e+02 9.810000000000000000e+02 9.820000000000000000e+02 9.830000000000000000e+02 9.840000000000000000e+02 9.850000000000000000e+02 9.860000000000000000e+02 9.870000000000000000e+02 9.880000000000000000e+02 9.890000000000000000e+02 9.900000000000000000e+02 9.910000000000000000e+02 9.920000000000000000e+02 9.930000000000000000e+02 9.940000000000000000e+02 9.950000000000000000e+02 9.960000000000000000e+02 9.970000000000000000e+02 9.980000000000000000e+02 9.990000000000000000e+02
1.000000000000000000e+00 1.000000000000000000e+00 1.000000000000000000e+00 1.000000000000000000e+00 1.000000000000000000e+00 1.000000000000000000e+00 1.000000000000000000e+00 1.000000000000000000e+00 1.000000000000000000e+00 1.000000000000000000e+00 1.000000000000000000e+00 1.000000000000000000e+00 1.000000000000000000e+00 1.000000000000000000e+00 1.000000000000000000e+00 1.000000000000000000e+00 1.000000000000000000e+00 1.000000000000000000e+00 1.000000000000000000e+00 1.000000000000000000e+00 1.000000000000000000e+00 1.000000000000000000e+00 1.000000000000000000e+00 1.000000000000000000e+00 1.000000000000000000e+00 1.000000000000000000e+00 1.000000000000000000e+00 1.000000000000000000e+00 1.000000000000000000e+00 1.000000000000000000e+00 1.000000000000000000e+00 1.000000000000000000e+00 1.000000000000000000e+00 1.000000000000000000e+00 1.000000000000000000e+00 1.000000000000000000e+00 1.000000000000000000e+00 1.000000000000000000e+00 1.000000000000000000e+00 1.000000000000000000e+00 1.000000000000000000e+00 1.000000000000000000e+00 1.000000000000000000e+00 1.000000000000000000e+00 1.000000000000000000e+00 1.000000000000000000e+00 1.000000000000000000e+00 1.000000000000000000e+00 1.000000000000000000e+00 1.000000000000000000e+00 1.000000000000000000e+00 1.000000000000000000e+00 1.000000000000000000e+00 1.000000000000000000e+00 1.000000000000000000e+00 1.000000000000000000e+00 1.000000000000000000e+00 1.000000000000000000e+00 1.000000000000000000e+00 1.000000000000000000e+00 1.000000000000000000e+00 1.000000000000000000e+00 1.000000000000000000e+00 1.000000000000000000e+00 1.000000000000000000e+00 1.000000000000000000e+00 1.000000000000000000e+00 1.000000000000000000e+00 1.000000000000000000e+00 1.000000000000000000e+00 1.000000000000000000e+00 1.000000000000000000e+00 1.000000000000000000e+00 1.000000000000000000e+00 1.000000000000000000e+00 1.000000000000000000e+00 1.000000000000000000e+00 1.000000000000000000e+00 1.000000000000000000e+00 1.000000000000000000e+00 1.000000000000000000e+00 1.000000000000000000e+00 1.000000000000000000e+00 1.000000000000000000e+00 1.000000000000000000e+00 1.000000000000000000e+00 1.000000000000000000e+00 1.000000000000000000e+00 1.000000000000000000e+00 1.000000000000000000e+00 1.000000000000000000e+00 1.000000000000000000e+00 1.000000000000000000e+00 1.000000000000000000e+00 1.000000000000000000e+00 1.000000000000000000e+00 1.000000000000000000e+00 1.000000000000000000e+00 1.000000000000000000e+00 1.000000000000000000e+00 1.000000000000000000e+00 1.000000000000000000e+00 1.000000000000000000e+00 1.000000000000000000e+00 1.000000000000000000e+00 1.000000000000000000e+00 1.000000000000000000e+00 1.000000000000000000e+00 1.000000000000000000e+00 1.000000000000000000e+00 1.000000000000000000e+00 1.000000000000000000e+00 1.000000000000000000e+00 1.000000000000000000e+00 1.000000000000000000e+00 1.000000000000000000e+00 1.000000000000000000e+00 1.000000000000000000e+00 1.000000000000000000e+00 1.000000000000000000e+00 1.000000000000000000e+00 1.000000000000000000e+00 1.000000000000000000e+00 1.000000000000000000e+00 1.000000000000000000e+00 1.000000000000000000e+00 1.000000000000000000e+00 1.000000000000000000e+00 1.000000000000000000e+00 1.000000000000000000e+00 1.000000000000000000e+00 1.000000000000000000e+00 1.000000000000000000e+00 1.000000000000000000e+00 1.000000000000000000e+00 1.000000000000000000e+00 1.000000000000000000e+00 1.000000000000000000e+00 1.000000000000000000e+00 1.000000000000000000e+00 1.000000000000000000e+00 1.000000000000000000e+00 1.000000000000000000e+00 1.000000000000000000e+00 1.000000000000000000e+00 1.000000000000000000e+00 1.000000000000000000e+00 1.000000000000000000e+00 1.000000000000000000e+00 1.000000000000000000e+00 1.000000000000000000e+00 1.000000000000000000e+00 1.000000000000000000e+00 1.000000000000000000e+00 1.000000000000000000e+00 1.000000000000000000e+00 1.000000000000000000e+00 1.000000000000000000e+00 1.000000000000000000e+00 1.000000000000000000e+00 1.000000000000000000e+00 1.000000000000000000e+00 1.000000000000000000e+00 1.000000000000000000e+00 1.000000000000000000e+00 1.000000000000000000e+00 1.000000000000000000e+00 1.000000000000000000e+00 1.000000000000000000e+00 1.000000000000000000e+00 1.000000000000000000e+00 1.000000000000000000e+00 1.000000000000000000e+00 1.000000000000000000e+00 1.000000000000000000e+00 1.000000000000000000e+00 1.000000000000000000e+00 1.000000000000000000e+00 1.000000000000000000e+00 1.000000000000000000e+00 1.000000000000000000e+00 1.000000000000000000e+00 1.000000000000000000e+00 1.000000000000000000e+00 1.000000000000000000e+00 1.000000000000000000e+00 1.000000000000000000e+00 1.000000000000000000e+00 1.000000000000000000e+00 1.000000000000000000e+00 1.000000000000000000e+00 1.000000000000000000e+00 1.000000000000000000e+00 1.000000000000000000e+00 1.000000000000000000e+00 1.000000000000000000e+00 1.000000000000000000e+00 1.000000000000000000e+00 1.000000000000000000e+00 1.000000000000000000e+00 1.000000000000000000e+00 1.000000000000000000e+00 1.000000000000000000e+00 1.000000000000000000e+00 1.000000000000000000e+00 1.000000000000000000e+00 1.000000000000000000e+00 1.000000000000000000e+00 1.000000000000000000e+00 1.000000000000000000e+00 1.000000000000000000e+00 1.000000000000000000e+00 1.000000000000000000e+00 1.000000000000000000e+00 1.000000000000000000e+00 1.000000000000000000e+00 1.000000000000000000e+00 1.000000000000000000e+00 1.000000000000000000e+00 1.000000000000000000e+00 1.000000000000000000e+00 1.000000000000000000e+00 1.000000000000000000e+00 1.000000000000000000e+00 1.000000000000000000e+00 1.000000000000000000e+00 1.000000000000000000e+00 1.000000000000000000e+00 1.000000000000000000e+00 1.000000000000000000e+00 1.000000000000000000e+00 1.000000000000000000e+00 1.000000000000000000e+00 1.000000000000000000e+00 1.000000000000000000e+00 1.000000000000000000e+00 1.000000000000000000e+00 1.000000000000000000e+00 1.000000000000000000e+00 1.000000000000000000e+00 1.000000000000000000e+00 1.000000000000000000e+00 1.000000000000000000e+00 1.000000000000000000e+00 1.000000000000000000e+00 1.000000000000000000e+00 1.000000000000000000e+00 1.000000000000000000e+00 1.000000000000000000e+00 1.000000000000000000e+00 1.000000000000000000e+00 1.000000000000000000e+00 1.000000000000000000e+00 1.000000000000000000e+00 1.000000000000000000e+00 1.000000000000000000e+00 1.000000000000000000e+00 1.000000000000000000e+00 1.000000000000000000e+00 1.000000000000000000e+00 1.000000000000000000e+00 1.000000000000000000e+00 1.000000000000000000e+00 1.000000000000000000e+00 1.000000000000000000e+00 1.000000000000000000e+00 1.000000000000000000e+00 1.000000000000000000e+00 1.000000000000000000e+00 1.000000000000000000e+00 1.000000000000000000e+00 1.000000000000000000e+00 1.000000000000000000e+00 1.000000000000000000e+00 1.000000000000000000e+00 1.000000000000000000e+00 1.000000000000000000e+00 1.000000000000000000e+00 1.000000000000000000e+00 1.000000000000000000e+00 1.000000000000000000e+00 1.000000000000000000e+00 1.000000000000000000e+00 1.000000000000000000e+00 1.000000000000000000e+00 1.000000000000000000e+00 1.000000000000000000e+00 1.000000000000000000e+00 1.000000000000000000e+00 1.000000000000000000e+00 1.000000000000000000e+00 1.000000000000000000e+00 1.000000000000000000e+00 1.000000000000000000e+00 1.000000000000000000e+00 1.000000000000000000e+00 1.000000000000000000e+00 1.000000000000000000e+00 1.000000000000000000e+00 1.000000000000000000e+00 1.000000000000000000e+00 1.000000000000000000e+00 1.000000000000000000e+00 1.000000000000000000e+00 1.000000000000000000e+00 1.000000000000000000e+00 1.000000000000000000e+00 1.000000000000000000e+00 1.000000000000000000e+00 1.000000000000000000e+00 1.000000000000000000e+00 1.000000000000000000e+00 1.000000000000000000e+00 1.000000000000000000e+00 1.000000000000000000e+00 1.000000000000000000e+00 1.000000000000000000e+00 1.000000000000000000e+00 1.000000000000000000e+00 1.000000000000000000e+00 1.000000000000000000e+00 1.000000000000000000e+00 1.000000000000000000e+00 1.000000000000000000e+00 1.000000000000000000e+00 1.000000000000000000e+00 1.000000000000000000e+00 1.000000000000000000e+00 1.000000000000000000e+00 1.000000000000000000e+00 1.000000000000000000e+00 1.000000000000000000e+00 1.000000000000000000e+00 1.000000000000000000e+00 1.000000000000000000e+00 1.000000000000000000e+00 1.000000000000000000e+00 1.000000000000000000e+00 1.000000000000000000e+00 1.000000000000000000e+00 1.000000000000000000e+00 1.000000000000000000e+00 1.000000000000000000e+00 1.000000000000000000e+00 1.000000000000000000e+00 1.000000000000000000e+00 1.000000000000000000e+00 1.000000000000000000e+00 1.000000000000000000e+00 1.000000000000000000e+00 1.000000000000000000e+00 1.000000000000000000e+00 1.000000000000000000e+00 1.000000000000000000e+00 1.000000000000000000e+00 1.000000000000000000e+00 1.000000000000000000e+00 1.000000000000000000e+00 1.000000000000000000e+00 1.000000000000000000e+00 1.000000000000000000e+00 1.000000000000000000e+00 1.000000000000000000e+00 1.000000000000000000e+00 1.000000000000000000e+00 1.000000000000000000e+00 1.000000000000000000e+00 1.000000000000000000e+00 1.000000000000000000e+00 1.000000000000000000e+00 1.000000000000000000e+00 1.000000000000000000e+00 1.000000000000000000e+00 1.000000000000000000e+00 1.000000000000000000e+00 1.000000000000000000e+00 1.000000000000000000e+00 1.000000000000000000e+00 1.000000000000000000e+00 1.000000000000000000e+00 1.000000000000000000e+00 1.000000000000000000e+00 1.000000000000000000e+00 1.000000000000000000e+00 1.000000000000000000e+00 1.000000000000000000e+00 1.000000000000000000e+00 1.000000000000000000e+00 1.000000000000000000e+00 1.000000000000000000e+00 1.000000000000000000e+00 1.000000000000000000e+00 1.000000000000000000e+00 1.000000000000000000e+00 1.000000000000000000e+00 1.000000000000000000e+00 1.000000000000000000e+00 1.000000000000000000e+00 1.000000000000000000e+00 1.000000000000000000e+00 1.000000000000000000e+00 1.000000000000000000e+00 1.000000000000000000e+00 1.000000000000000000e+00 1.000000000000000000e+00 1.000000000000000000e+00 1.000000000000000000e+00 1.000000000000000000e+00 1.000000000000000000e+00 1.000000000000000000e+00 1.000000000000000000e+00 1.000000000000000000e+00 1.000000000000000000e+00 1.000000000000000000e+00 1.000000000000000000e+00 1.000000000000000000e+00 1.000000000000000000e+00 1.000000000000000000e+00 1.000000000000000000e+00 1.000000000000000000e+00 1.000000000000000000e+00 1.000000000000000000e+00 1.000000000000000000e+00 1.000000000000000000e+00 1.000000000000000000e+00 1.000000000000000000e+00 1.000000000000000000e+00 1.000000000000000000e+00 1.000000000000000000e+00 1.000000000000000000e+00 1.000000000000000000e+00 1.000000000000000000e+00 1.000000000000000000e+00 1.000000000000000000e+00 1.000000000000000000e+00 1.000000000000000000e+00 1.000000000000000000e+00 1.000000000000000000e+00 1.000000000000000000e+00 1.000000000000000000e+00 1.000000000000000000e+00 1.000000000000000000e+00 1.000000000000000000e+00 1.000000000000000000e+00 1.000000000000000000e+00 1.000000000000000000e+00 1.000000000000000000e+00 1.000000000000000000e+00 1.000000000000000000e+00 1.000000000000000000e+00 1.000000000000000000e+00 1.000000000000000000e+00 1.000000000000000000e+00 1.000000000000000000e+00 1.000000000000000000e+00 1.000000000000000000e+00 1.000000000000000000e+00 1.000000000000000000e+00 1.000000000000000000e+00 1.000000000000000000e+00 1.000000000000000000e+00 1.000000000000000000e+00 1.000000000000000000e+00 1.000000000000000000e+00 1.000000000000000000e+00 1.000000000000000000e+00 1.000000000000000000e+00 1.000000000000000000e+00 1.000000000000000000e+00 1.000000000000000000e+00 1.000000000000000000e+00 1.000000000000000000e+00 1.000000000000000000e+00 1.000000000000000000e+00 1.000000000000000000e+00 1.000000000000000000e+00 1.000000000000000000e+00 1.000000000000000000e+00 1.000000000000000000e+00 1.000000000000000000e+00 1.000000000000000000e+00 1.000000000000000000e+00 1.000000000000000000e+00 1.000000000000000000e+00 1.000000000000000000e+00 1.000000000000000000e+00 1.000000000000000000e+00 1.000000000000000000e+00 1.000000000000000000e+00 1.000000000000000000e+00 1.000000000000000000e+00 1.000000000000000000e+00 1.000000000000000000e+00 1.000000000000000000e+00 1.000000000000000000e+00 1.000000000000000000e+00 1.000000000000000000e+00 1.000000000000000000e+00 1.000000000000000000e+00 1.000000000000000000e+00 1.000000000000000000e+00 1.000000000000000000e+00 1.000000000000000000e+00 1.000000000000000000e+00 1.000000000000000000e+00 1.000000000000000000e+00 1.000000000000000000e+00 1.000000000000000000e+00 1.000000000000000000e+00 1.000000000000000000e+00 1.000000000000000000e+00 1.000000000000000000e+00 1.000000000000000000e+00 1.000000000000000000e+00 1.000000000000000000e+00 1.000000000000000000e+00 1.000000000000000000e+00 1.000000000000000000e+00 1.000000000000000000e+00 1.000000000000000000e+00 1.000000000000000000e+00 1.000000000000000000e+00 1.000000000000000000e+00 1.000000000000000000e+00 1.000000000000000000e+00 1.000000000000000000e+00 1.000000000000000000e+00 1.000000000000000000e+00 1.000000000000000000e+00 1.000000000000000000e+00 1.000000000000000000e+00 1.000000000000000000e+00 1.000000000000000000e+00 1.000000000000000000e+00 1.000000000000000000e+00 1.000000000000000000e+00 1.000000000000000000e+00 1.000000000000000000e+00 1.000000000000000000e+00 1.000000000000000000e+00 1.000000000000000000e+00 1.000000000000000000e+00 1.000000000000000000e+00 1.000000000000000000e+00 1.000000000000000000e+00 1.000000000000000000e+00 1.000000000000000000e+00 1.000000000000000000e+00 1.000000000000000000e+00 1.000000000000000000e+00 1.000000000000000000e+00 1.000000000000000000e+00 1.000000000000000000e+00 1.000000000000000000e+00 1.000000000000000000e+00 1.000000000000000000e+00 1.000000000000000000e+00 1.000000000000000000e+00 1.000000000000000000e+00 1.000000000000000000e+00 1.000000000000000000e+00 1.000000000000000000e+00 1.000000000000000000e+00 1.000000000000000000e+00 1.000000000000000000e+00 1.000000000000000000e+00 1.000000000000000000e+00 1.000000000000000000e+00 1.000000000000000000e+00 1.000000000000000000e+00 1.000000000000000000e+00 1.000000000000000000e+00 1.000000000000000000e+00 1.000000000000000000e+00 1.000000000000000000e+00 1.000000000000000000e+00 1.000000000000000000e+00 1.000000000000000000e+00 1.000000000000000000e+00 1.000000000000000000e+00 1.000000000000000000e+00 1.000000000000000000e+00 1.000000000000000000e+00 1.000000000000000000e+00 1.000000000000000000e+00 1.000000000000000000e+00 1.000000000000000000e+00 1.000000000000000000e+00 1.000000000000000000e+00 1.000000000000000000e+00 1.000000000000000000e+00 1.000000000000000000e+00 1.000000000000000000e+00 1.000000000000000000e+00 1.000000000000000000e+00 1.000000000000000000e+00 1.000000000000000000e+00 1.000000000000000000e+00 1.000000000000000000e+00 1.000000000000000000e+00 1.000000000000000000e+00 1.000000000000000000e+00 1.000000000000000000e+00 1.000000000000000000e+00 1.000000000000000000e+00 1.000000000000000000e+00 1.000000000000000000e+00 1.000000000000000000e+00 1.000000000000000000e+00 1.000000000000000000e+00 1.000000000000000000e+00 1.000000000000000000e+00 1.000000000000000000e+00 1.000000000000000000e+00 1.000000000000000000e+00 1.000000000000000000e+00 1.000000000000000000e+00 1.000000000000000000e+00 1.000000000000000000e+00 1.000000000000000000e+00 1.000000000000000000e+00 1.000000000000000000e+00 1.000000000000000000e+00 1.000000000000000000e+00 1.000000000000000000e+00 1.000000000000000000e+00 1.000000000000000000e+00 1.000000000000000000e+00 1.000000000000000000e+00 1.000000000000000000e+00 1.000000000000000000e+00 1.000000000000000000e+00 1.000000000000000000e+00 1.000000000000000000e+00 1.000000000000000000e+00 1.000000000000000000e+00 1.000000000000000000e+00 1.000000000000000000e+00 1.000000000000000000e+00 1.000000000000000000e+00 1.000000000000000000e+00 1.000000000000000000e+00 1.000000000000000000e+00 1.000000000000000000e+00 1.000000000000000000e+00 1.000000000000000000e+00 1.000000000000000000e+00 1.000000000000000000e+00 1.000000000000000000e+00 1.000000000000000000e+00 1.000000000000000000e+00 1.000000000000000000e+00 1.000000000000000000e+00 1.000000000000000000e+00 1.000000000000000000e+00 1.000000000000000000e+00 1.000000000000000000e+00 1.000000000000000000e+00 1.000000000000000000e+00 1.000000000000000000e+00 1.000000000000000000e+00 1.000000000000000000e+00 1.000000000000000000e+00 1.000000000000000000e+00 1.000000000000000000e+00 1.000000000000000000e+00 1.000000000000000000e+00 1.000000000000000000e+00 1.000000000000000000e+00 1.000000000000000000e+00 1.000000000000000000e+00 1.000000000000000000e+00 1.000000000000000000e+00 1.000000000000000000e+00 1.000000000000000000e+00 1.000000000000000000e+00 1.000000000000000000e+00 1.000000000000000000e+00 1.000000000000000000e+00 1.000000000000000000e+00 1.000000000000000000e+00 1.000000000000000000e+00 1.000000000000000000e+00 1.000000000000000000e+00 1.000000000000000000e+00 1.000000000000000000e+00 1.000000000000000000e+00 1.000000000000000000e+00 1.000000000000000000e+00 1.000000000000000000e+00 1.000000000000000000e+00 1.000000000000000000e+00 1.000000000000000000e+00 1.000000000000000000e+00 1.000000000000000000e+00 1.000000000000000000e+00 1.000000000000000000e+00 1.000000000000000000e+00 1.000000000000000000e+00 1.000000000000000000e+00 1.000000000000000000e+00 1.000000000000000000e+00 1.000000000000000000e+00 1.000000000000000000e+00 1.000000000000000000e+00 1.000000000000000000e+00 1.000000000000000000e+00 1.000000000000000000e+00 1.000000000000000000e+00 1.000000000000000000e+00 1.000000000000000000e+00 1.000000000000000000e+00 1.000000000000000000e+00 1.000000000000000000e+00 1.000000000000000000e+00 1.000000000000000000e+00 1.000000000000000000e+00 1.000000000000000000e+00 1.000000000000000000e+00 1.000000000000000000e+00 1.000000000000000000e+00 1.000000000000000000e+00 1.000000000000000000e+00 1.000000000000000000e+00 1.000000000000000000e+00 1.000000000000000000e+00 1.000000000000000000e+00 1.000000000000000000e+00 1.000000000000000000e+00 1.000000000000000000e+00 1.000000000000000000e+00 1.000000000000000000e+00 1.000000000000000000e+00 1.000000000000000000e+00 1.000000000000000000e+00 1.000000000000000000e+00 1.000000000000000000e+00 1.000000000000000000e+00 1.000000000000000000e+00 1.000000000000000000e+00 1.000000000000000000e+00 1.000000000000000000e+00 1.000000000000000000e+00 1.000000000000000000e+00 1.000000000000000000e+00 1.000000000000000000e+00 1.000000000000000000e+00 1.000000000000000000e+00 1.000000000000000000e+00 1.000000000000000000e+00 1.000000000000000000e+00 1.000000000000000000e+00 1.000000000000000000e+00 1.000000000000000000e+00 1.000000000000000000e+00 1.000000000000000000e+00 1.000000000000000000e+00 1.000000000000000000e+00 1.000000000000000000e+00 1.000000000000000000e+00 1.000000000000000000e+00 1.000000000000000000e+00 1.000000000000000000e+00 1.000000000000000000e+00 1.000000000000000000e+00 1.000000000000000000e+00 1.000000000000000000e+00 1.000000000000000000e+00 1.000000000000000000e+00 1.000000000000000000e+00 1.000000000000000000e+00 1.000000000000000000e+00 1.000000000000000000e+00 1.000000000000000000e+00 1.000000000000000000e+00 1.000000000000000000e+00 1.000000000000000000e+00 1.000000000000000000e+00 1.000000000000000000e+00 1.000000000000000000e+00 1.000000000000000000e+00 1.000000000000000000e+00 1.000000000000000000e+00 1.000000000000000000e+00 1.000000000000000000e+00 1.000000000000000000e+00 1.000000000000000000e+00 1.000000000000000000e+00 1.000000000000000000e+00 1.000000000000000000e+00 1.000000000000000000e+00 1.000000000000000000e+00 1.000000000000000000e+00 1.000000000000000000e+00 1.000000000000000000e+00 1.000000000000000000e+00 1.000000000000000000e+00 1.000000000000000000e+00 1.000000000000000000e+00 1.000000000000000000e+00 1.000000000000000000e+00 1.000000000000000000e+00 1.000000000000000000e+00 1.000000000000000000e+00 1.000000000000000000e+00 1.000000000000000000e+00 1.000000000000000000e+00 1.000000000000000000e+00 1.000000000000000000e+00 1.000000000000000000e+00 1.000000000000000000e+00 1.000000000000000000e+00 1.000000000000000000e+00 1.000000000000000000e+00 1.000000000000000000e+00 1.000000000000000000e+00 1.000000000000000000e+00 1.000000000000000000e+00 1.000000000000000000e+00 1.000000000000000000e+00 1.000000000000000000e+00 1.000000000000000000e+00 1.000000000000000000e+00 1.000000000000000000e+00 1.000000000000000000e+00 1.000000000000000000e+00 1.000000000000000000e+00 1.000000000000000000e+00 1.000000000000000000e+00 1.000000000000000000e+00 1.000000000000000000e+00 1.000000000000000000e+00 1.000000000000000000e+00 1.000000000000000000e+00 1.000000000000000000e+00 1.000000000000000000e+00 1.000000000000000000e+00 1.000000000000000000e+00 1.000000000000000000e+00 1.000000000000000000e+00 1.000000000000000000e+00 1.000000000000000000e+00 1.000000000000000000e+00 1.000000000000000000e+00 1.000000000000000000e+00 1.000000000000000000e+00 1.000000000000000000e+00 1.000000000000000000e+00 1.000000000000000000e+00 1.000000000000000000e+00 1.000000000000000000e+00 1.000000000000000000e+00 1.000000000000000000e+00 1.000000000000000000e+00 1.000000000000000000e+00 1.000000000000000000e+00 1.000000000000000000e+00 1.000000000000000000e+00 1.000000000000000000e+00 1.000000000000000000e+00 1.000000000000000000e+00 1.000000000000000000e+00 1.000000000000000000e+00 1.000000000000000000e+00 1.000000000000000000e+00 1.000000000000000000e+00 1.000000000000000000e+00 1.000000000000000000e+00 1.000000000000000000e+00 1.000000000000000000e+00 1.000000000000000000e+00 1.000000000000000000e+00 1.000000000000000000e+00 1.000000000000000000e+00 1.000000000000000000e+00 1.000000000000000000e+00 1.000000000000000000e+00 1.000000000000000000e+00 1.000000000000000000e+00 1.000000000000000000e+00 1.000000000000000000e+00 1.000000000000000000e+00 1.000000000000000000e+00 1.000000000000000000e+00 1.000000000000000000e+00 1.000000000000000000e+00 1.000000000000000000e+00 1.000000000000000000e+00 1.000000000000000000e+00 1.000000000000000000e+00 1.000000000000000000e+00 1.000000000000000000e+00 1.000000000000000000e+00 1.000000000000000000e+00 1.000000000000000000e+00 1.000000000000000000e+00 1.000000000000000000e+00 1.000000000000000000e+00 1.000000000000000000e+00 1.000000000000000000e+00 1.000000000000000000e+00 1.000000000000000000e+00 1.000000000000000000e+00 1.000000000000000000e+00 1.000000000000000000e+00 1.000000000000000000e+00 1.000000000000000000e+00 1.000000000000000000e+00 1.000000000000000000e+00 1.000000000000000000e+00 1.000000000000000000e+00 1.000000000000000000e+00 1.000000000000000000e+00 1.000000000000000000e+00 1.000000000000000000e+00 1.000000000000000000e+00 1.000000000000000000e+00 1.000000000000000000e+00 1.000000000000000000e+00 1.000000000000000000e+00 1.000000000000000000e+00 1.000000000000000000e+00 1.000000000000000000e+00 1.000000000000000000e+00 1.000000000000000000e+00 1.000000000000000000e+00 1.000000000000000000e+00 1.000000000000000000e+00 1.000000000000000000e+00 1.000000000000000000e+00 1.000000000000000000e+00 1.000000000000000000e+00 1.000000000000000000e+00 1.000000000000000000e+00 1.000000000000000000e+00 1.000000000000000000e+00 1.000000000000000000e+00 1.000000000000000000e+00 1.000000000000000000e+00 1.000000000000000000e+00 1.000000000000000000e+00 1.000000000000000000e+00 1.000000000000000000e+00 1.000000000000000000e+00 1.000000000000000000e+00 1.000000000000000000e+00 1.000000000000000000e+00 1.000000000000000000e+00 1.000000000000000000e+00 1.000000000000000000e+00 1.000000000000000000e+00 1.000000000000000000e+00 1.000000000000000000e+00 1.000000000000000000e+00 1.000000000000000000e+00 1.000000000000000000e+00 1.000000000000000000e+00 1.000000000000000000e+00 1.000000000000000000e+00 1.000000000000000000e+00 1.000000000000000000e+00 1.000000000000000000e+00 1.000000000000000000e+00 1.000000000000000000e+00 1.000000000000000000e+00 1.000000000000000000e+00 1.000000000000000000e+00 1.000000000000000000e+00 1.000000000000000000e+00 1.000000000000000000e+00 1.000000000000000000e+00 1.000000000000000000e+00 1.000000000000000000e+00 1.000000000000000000e+00 1.000000000000000000e+00 1.000000000000000000e+00 1.000000000000000000e+00 1.000000000000000000e+00 1.000000000000000000e+00 1.000000000000000000e+00 1.000000000000000000e+00 1.000000000000000000e+00 1.000000000000000000e+00 1.000000000000000000e+00 1.000000000000000000e+00 1.000000000000000000e+00 1.000000000000000000e+00 1.000000000000000000e+00 1.000000000000000000e+00 1.000000000000000000e+00 1.000000000000000000e+00 1.000000000000000000e+00 1.000000000000000000e+00 1.000000000000000000e+00 1.000000000000000000e+00 1.000000000000000000e+00 1.000000000000000000e+00 1.000000000000000000e+00 1.000000000000000000e+00 1.000000000000000000e+00
4.545085467844163507e-03 5.625413565453036835e-01 -2.111731286409609110e-01 7.324629616942937016e-01 5.127123863209270827e-01 5.594936303915076792e-01 6.322372208575512964e-01 2.696927835793248573e-01 5.203550419479208156e-01 5.221249222967619952e-01 1.077655285199806023e+00 -6.781291847093314784e-01 1.394864211128491460e+00 4.479646812254985400e-01 5.117524018892631865e-01 3.954970148477794933e-01 9.031385465790059408e-01 9.730770464663399677e-01 6.780775315243325885e-01 5.178884026122346773e-01 4.178507232504133362e-01 9.783883054403856860e-01 4.627070870124369573e-01 4.651141170086547927e-01 1.069371264498943097e-01 6.788986786965877096e-01 3.656769252813738547e-01 6.163499553399268693e-01 5.345912125694758377e-01 1.550308380997267088e+00 5.292139197318576072e-01 6.128676814327945754e-01 7.203637012105318371e-01 4.882322574543614402e-01 7.112599947463483785e-01 4.501178698998030692e-01 5.464939310984164855e-01 1.754702624509300035e+00 -6.433218746240454422e-02 5.171301478075391866e-01 -1.474206442613458512e-01 -5.596925343785785767e-01 7.504603646338774414e-01 2.242839603940781912e-01 2.652150681593382076e-01 5.240028553026945257e-01 7.320782010435291642e-01 5.171119388488263358e-01 5.912671081991207611e-01 2.449973861387125598e-02 1.276973090506175728e-03 8.366549380046608420e-01 6.714523471740482252e-01 4.639961391413572334e-01 4.534257389265573535e-01 1.837788433502208357e-02 4.752158182606407988e-01 5.403511642979960117e-01 1.872121082150308424e-01 4.621599481362728690e-01 9.107287916147371876e-01 5.452024941707068750e-01 5.055782104883226324e-01 4.627069288147215853e-01 6.822658526725227102e-01 5.429078247519454337e-01 5.121979412959719591e-01 2.942859002588738560e-01 5.448209215578362352e-01 -6.105438060795677878e-03 4.116267200407993654e-01 4.940054973283686257e-01 5.231506654654938249e-01 3.287207618302230572e-02 1.496905090921752279e+00 5.579660500407552792e-01 6.328856197022139085e-01 7.395905816822339052e-01 5.156523803585967292e-01 1.380357201891343921e+00 5.314721056249854803e-01 2.971200847156764691e-01 1.379808140022281471e+00 6.894649328543089872e-01 4.872924213444412844e-01 7.572103489270018972e-01 8.135005931653452871e-01 5.474319475530854406e-01 4.068027804093938271e-01 5.755875266584455918e-01 2.700928108354543333e-01 2.148604133577435071e+00 7.252091332949723856e-01 -4.364715540267410931e-02 5.601594578323129126e-01 5.492968299644075403e-01 5.423610435875819702e-01 4.735116761338249436e-01 1.894742054561498190e-01 6.806071220952042422e-01 1.585680377255778595e+00 6.880254654798200198e-01 5.452043254953510276e-01 7.529542770412945840e-01 8.596190874944481530e-01 -2.026586618090580494e+00 -1.200393880872356211e+00 5.458708048576557115e-01 5.688003471493394692e-01 9.725305451814378888e-01 5.354812082632005588e-01 4.566545743406912328e-01 1.657981938833058277e-01 4.780519002210852353e-01 5.188217521535241072e-01 5.086325508074200918e-01 5.191860445079319319e-01 5.520777265456138228e-01 8.870765104864613004e-01 5.114243463478452822e-01 1.295026407397644741e+00 5.595482125445468968e-01 5.564697240720335447e-01 -3.823040531873274639e-01 5.187219153218036727e-01 1.929836333940321946e+00 5.560939604229637734e-01 5.089899943876092792e-01 6.872625483186884932e-01 5.137349451992370142e-01 5.172918891949772613e-01 5.169055185137798603e-01 4.139727697429111397e-01 2.884939330147547887e-01 -2.395931838665587843e-01 -1.574945188733111734e-01 6.266636286659719168e-01 4.384474667836909395e-02 9.941241284049006088e-01 6.646292262783569660e-01 5.249476831191323134e-01 8.591324731034725160e-01 6.375670237483135327e-01 5.964887069969113664e-01 5.141806977347965768e-01 4.144427161506625268e-02 8.851540604613177265e-01 6.573424750848574916e-02 4.664306301725776316e-01 -8.695104897619715389e-01 7.763443267515821589e-01 -2.978140708667011971e-01 5.240036972992755393e-01 5.417676220740292869e-01 4.784205203045009402e-01 5.111039857862947899e-01 1.897180725054880002e+00 -7.342409556482128175e-02 8.099514942107117754e-01 6.979284497028654943e-01 5.182925047649474815e-01 4.176217619430809824e-01 5.112494200095225594e-01 5.138676934155692599e-01 1.087352603076267021e+00 1.615000778920709923e-01 8.464198956384662020e-01 4.124931052915918883e-01 5.724104717020175315e-01 6.307523775076129269e-01 4.553595116462886838e-01 7.342130307734060501e-01 5.240187457441793928e-01 5.080525625621072905e-01 4.058192748571242126e-01 2.989467808475147065e-02 1.820419156436441366e-01 8.088996668247708244e-02 7.412738883498820597e-01 1.140702550110044955e+00 7.115668300662275625e-01 5.066864090750018423e-01 -1.833958117695155265e-01 4.553749458952326967e-01 6.650521762743324405e-01 5.257259645982467200e-01 5.216348596915492131e-01 5.153593476082959368e-01 2.748941184967399476e+00 5.458893719462101224e-01 5.203392165520750456e-01 -8.713275785759496683e-01 5.130423815041529334e-01 5.723424376005589176e-01 1.814792578152394087e-01 5.107115717772895414e-01 9.287141300816019740e-01 5.231369602184379186e-01 6.613466337547344587e-01 4.192843253121668612e-01 6.205235922835755646e-01 5.484404446088005924e-01 9.504571586543683059e-01 6.000094510292660610e-01 5.432437923496713506e-01 6.613466866453251436e-01 2.727891583357531791e-01 1.281017962267739119e+00 5.161533042226814638e-01 3.680213926773653332e-01 4.408304578821077291e-01 -7.176575264481481475e-02 4.746281139754955913e-01 1.618811309913313901e-01 4.951619726395870003e-01 5.124975121194479399e-01 5.098570635955887997e-01 5.165350570568684185e-01 5.186997588506908619e-01 5.095833185515578068e-01 4.440716015981963638e-01 6.099252277222111385e-01 -6.981974678249004418e-01 5.771326296618219942e-01 3.365739721994157607e-01 3.922976749763271709e-01 1.358546385501760434e-01 1.284517952887830550e+00 9.517621519163320665e-01 5.005804368890819367e-01 -1.042653809831494000e-01 1.048849652385568820e+00 5.158521316626409892e-01 4.466291297478839906e-01 5.080706173981826002e-01 4.160219787281809189e-01 3.877301541500089432e-01 1.953442168494843034e-01 -1.478998246624066149e-01 -1.144990560362914855e-01 3.316652252726849937e-01 5.079391759876606960e-01 -1.007164456710986228e-01 4.561021677651000972e-01 5.134796534379881816e-01 4.614694438375746555e-01 -1.032539068388554498e-01 7.462316893687943598e-01 -2.224728061393990597e+00 5.973506087509566909e-01 -5.620278665762046266e-01 4.963933271286301019e-01 5.108197010775121782e-01 4.627066469517891467e-01 4.733297921397544572e-01 5.435263126696121549e-01 5.269618370519201234e-01 7.415767879633547999e-01 5.430927066015279747e-01 1.684371996431877738e+00 6.740513972979319535e-01 6.961306040213290913e-01 4.995975236371654749e-01 3.467132740600537000e-01 9.107287824435149615e-01 3.863453047630591719e-01 2.639211532791386094e+00 5.427210590847710847e-01 2.397797177043505534e-01 6.953494189146258719e-01 5.197013598857623817e-01 9.111595897450477377e-01 5.136097379079398451e-01 5.418226089509312615e-01 5.145068701036613623e-01 1.069999035716616698e+00 7.650255187506965759e-01 8.658591597800809891e-01 8.094143075838984291e-01 3.765220261301335247e-01 6.756309285643309348e-01 5.489673249443012271e-01 3.931685330514247401e-01 -7.049264687273049113e-01 3.828304962699801695e-01 6.703641158563655722e-01 5.541213602098341573e-01 5.405366275093236306e-01 5.086325503314483854e-01 6.065719118875083637e-01 5.485073254556708244e-01 -7.869348820839383585e-01 6.979982635403353397e-01 5.210802499379959540e-01 4.892570629037103214e-02 5.466014199007019903e-01 1.843254015346207808e+00 4.966924630901172755e-01 5.143513418832422746e-01 4.664408702179100308e-01 -3.357938686081100688e+00 5.101521600228415831e-01 2.732758724719865473e+00 7.337733317174329750e-01 5.086985832390861217e-01 -5.805634295374717535e-01 5.138064601621699090e-01 5.149628653399298539e-01 4.328707083611280093e-01 4.585015497650179461e-01 3.773924704176041534e-01 6.374110633475453813e-01 3.147464679247006236e-01 5.178604828411431660e-01 5.152913331832730259e-01 3.620129380609626302e-01 5.138630386958168428e-01 7.334147160122667097e-01 5.131139509984452562e-01 1.190531463240740218e+00 7.373156847293465058e-03 2.205427272968522701e+00 2.609240296635614964e+00 5.382989817803089938e-01 -2.001247824735416514e-01 4.483247957054680710e-01 4.041981085896992898e-01 7.241061115227906964e-01 1.363895570833794313e+00 5.378774222725138943e-01 1.119510278421368188e+00 5.146098876200155825e-01 1.276727789960594162e-01 1.246265564614745136e+00 4.022390360974392731e-01 5.140591153778969469e-01 5.243732019393970711e-01 8.787225765963854185e-01 -3.637229606193288944e+00 1.615932905852226265e+00 5.552576739564317743e-01 6.392160090166908448e-01 5.118211895618399732e-01 1.754702631164334337e+00 3.089461404205668948e-01 5.398970058991370280e-01 5.118317514855906802e-01 4.271171105233260712e-01 1.381593446555659188e+00 6.106670223369033978e-01 6.613468959787638379e-01 4.560985801857439514e-01 6.000094514030323012e-01 6.271681007194295221e-01 5.620936892243443284e-01 8.910358984499087143e-01 5.130208995428297003e-01 3.931638176577413324e-01 2.197001762487832410e-01 6.484293011366381032e-01 5.112069451033720568e-01 4.361922650211910168e-01 5.398970005307981435e-01 6.623819781931457040e-01 5.089211707710016297e-01 9.989595496183432122e-01 9.962882609983835236e-01 1.122850309380238665e+00 5.128233487814595204e-01 2.402666717699585286e-01 9.107283716390448536e-01 -1.087703405777270677e-01 9.331531688415228842e-01 6.275535293379926882e-01 8.717265793963771547e-03 5.710887545106358987e-01 9.891148346537294023e-01 3.912561786650202156e-01 5.254901398925462264e-01 2.730830633038971444e-01 -3.304491060736577390e-01 -2.425846545083306882e+00 4.723850489956979981e-01 6.000094511058001734e-01 6.000094599619801849e-01 5.221291603959153926e-01 4.464035126097741224e-01 -2.083603603902504098e-01 3.311477719185317858e-01 5.201814160324038649e-01 6.553299033096804393e-01 5.094093560029230305e-01 1.058511957504831846e+00 6.613466385620935251e-01 5.142218324279147490e-01 4.767296847979725638e-01 2.667910634602381204e-01 6.492902434009332202e-01 5.079757123353112469e-01 5.119671296572133601e-01 5.558757183106803890e-01 2.737610724138754836e-01 2.405200378986943957e-02 6.000094517277992923e-01 6.567021206455907478e-01 5.113347791727171909e-01 4.332464330798455610e-01 8.574295694245752664e-01 6.743879524210194543e-01 5.631297600693195848e-01 1.817900326545740519e+00 5.205210858515697536e-01 -2.991784086680409072e+00 7.321515122393897901e-01 1.504962611180540089e+00 4.961273352007350423e-01 -1.043338956746879820e+00 7.207225782791065738e-01 4.660155174237093356e-01 5.168337717635674844e-01 4.964720640899448756e-01 -2.851860063083349051e-01 5.078053738109961079e-01 1.064935192254699237e+00 6.146030842671714733e-01 -3.276754365794195545e-01 5.099495959093645059e-01 5.200225422563123923e-01 7.684791867225054807e-01 5.393046845378688392e-01 5.037633953650657581e-01 -5.069834516511274591e-01 5.626513469882434837e-01 5.187853587879505124e-01 6.998240139644469338e-01 4.869688020371755188e-01 7.646030595606199132e-01 5.046125484010445250e-01 5.771062402087892007e-01 7.027327019941750352e-01 5.486733514701206404e-01 3.281479826872714112e-01 2.714883308079958923e-01 3.157185456197604267e-01 9.550326359476222216e-01 5.462918366402944592e-01 3.160254021801327973e+00 6.605246523369274758e-01 6.086136036284494066e-01 5.587491163661523208e-01 6.258482696370613052e-01 2.771011336564514066e-02 4.836952407181243085e-01 5.835274689376985791e-01 5.251687214791153080e-01 1.165009918060017302e+00 7.648934184109499324e-01 5.197046118651489355e-01 4.502903725293249670e-01 1.114850707719686085e+00 5.096201452832745948e-01 5.393111561012209343e-01 4.923770669600964212e-01 7.315976882830330652e-01 5.063875411882168276e-01 9.206707022640502336e-01 4.879016695566302797e-01 5.138959313836299891e-01 7.027895667510133254e-03 5.230004491911288689e-01 2.539561517989053635e-02 3.560467903936076484e-01 4.163210443611766176e-01 5.573882426653992139e-01 7.718655248935608615e-01 5.138653221221365364e-01 3.986736028202317317e-01 5.212190148446887994e-02 5.473311992364018330e-01 5.474211933936751207e-01 5.048807348534645190e-01 4.844167831400995883e-02 5.091047844659530863e-01 2.460778773107730744e-01 5.158429229052544640e-01 4.272069020099167336e-01 1.251423528135826579e+00 7.891492851926327212e-01 5.273625057669377725e-01 2.735864290233194773e-01 6.475161018391716317e-01 4.203452810834097386e-01 9.873580674370058263e-01 5.890591261175203153e-01 5.451145371380657911e-01 6.858243607899116023e-01 1.969907179790289398e+00 4.542502708857202309e-01 4.244159812400389864e-01 5.139119535542152617e-01 6.980729911632139739e-01 4.419158032945431636e-01 8.262326888306404937e-01 -5.642652131788131742e-01 3.226290910001757828e-01 5.348570674623528420e-01 4.324238769672802962e-01 3.701472840850131840e-01 -6.012070215799962813e-01 3.900192203306980243e-01 5.121688630756057181e-01 7.388929695932096031e-01 6.644804692436596660e-01 1.429684763581805740e+00 5.105158048106294144e-01 5.098496788444391026e-01 -6.840287553066464188e-01 5.088051539576713411e-01 1.200974917085912974e+00 6.962257147878320174e-01 2.552191888410937359e-01 2.789988789210213205e-01 -1.587359131331854467e+00 4.865105535524972269e-01 1.900110967447073418e-01 1.093074487068697920e+00 8.127328739470175423e-01 5.145514812648258607e-01 5.065860855581456601e-01 6.254797485826242287e-01 7.324001407488014426e-01 4.643433518266337212e-01 5.641544402820615201e-01 2.503436481132273808e-02 4.980791581757996744e-01 6.274637031404386445e-01 6.369728681646751323e-01 4.998124155599639185e-01 5.815128634734249014e-01 1.189515594113133679e+00 -1.086506727105250453e-01 -2.280598255073798264e-01 4.433939149814168923e-01 5.423362041520688459e-01 5.586930552947166895e-01 5.164761437572151781e-01 -8.344039386072131803e-01 3.125321371534976134e+00 5.870800136041093298e-01 4.561871913666794565e-01 4.127198575785429591e-01 5.177120567466788614e-01 5.155596488587949056e-01 6.272010426304888142e-01 3.267012862799835160e-01 5.803850162055900208e-01 5.161970244300332356e-01 6.443808452042175672e-01 3.693028117522128007e-01 4.918382425625383858e-01 5.292262159684055778e-01 4.061828635659362474e-01 4.763205461372836957e-01 5.476482284638847231e-01 6.463274224342819840e-01 1.001183616021328771e+00 2.294157557289635552e+00 5.682464586859301559e-01 4.944359983593411556e-01 5.231013009538034719e-01 5.365423297176796780e-01 3.639204080132559249e-01 5.129584917615794826e-01 5.203653079432941642e-01 5.408221527118893812e-01 4.799594435927582170e-01 4.810987530412794144e-01 7.328461239530343896e-01 3.687333285795061921e-01 5.481522073425904029e-01 5.112270854171988566e-01 5.711496495292894826e-01 1.243888326920317561e-01 9.107287906514799358e-01 5.485943786513544085e-01 1.416534361672553144e-01 1.907833753395695942e+00 2.706878718737558698e-01 4.546501574310379823e-01 5.855860276180512303e-01 6.086063653757357167e-02 5.159838940594733137e-01 1.499504302838104541e+00 7.554831079003313521e-01 7.806127563002510650e-01 5.119522637561364498e-01 5.482186760877698628e-01 4.962733966393768070e-01 6.307377503123858808e-01 4.985916164061202083e-01 5.110857265605973643e-01 -1.681179185151930600e-01 5.777297979588067456e-01 -1.388472513238313777e+00 5.268823229740114966e-01 4.941255229501501645e-01 5.561676044278028863e-01 4.664474302417007667e-01 9.107287906810798139e-01 2.250263010359616067e-01 5.639640868155872955e-01 1.315172824691927644e+00 -5.363912376471132726e-01 5.084446728338701815e-01 1.119565604823473004e+00 1.482411222354887759e+00 4.034367896207286530e-01 5.082068932839783892e-01 -4.631134057181462982e-02 -1.645227071723367240e+00 2.823268251488640912e-01 7.444145067122779347e-01 5.258314988464192208e-01 5.170796604089431536e-01 4.886708473920792217e-01 4.876678199574042694e-01 -3.916253942221988860e-01 8.105168018586953460e-01 5.086325457648385173e-01 3.409879491343855151e-01 5.523707140483347100e-01 -2.112449676301765902e-02 -1.750971853236708009e-01 1.758653978349636215e+00 4.164524043964904498e-01 4.533588593343449435e-01 5.096413039492824204e-01 3.313521168040723941e-01 6.189106887555666514e-01 -2.704516203783143696e-02 -1.023782608606117916e+00 5.163478378090612386e-01 5.070946235703263083e-01 5.164051201769132016e-01 6.039921267893656465e-01 5.557140477908234510e-01 5.423706973971524903e-01 5.356172042362875585e-01 5.801599022620348434e-01 1.025325271898793522e+00 7.278794189884499888e-01 5.554339840361077751e-01 5.556846616749430146e-01 4.592978486812414052e-01 4.224795301163501993e-01 8.368505476524139633e-03 5.398969975569521962e-01 5.403111611095593458e-01 4.609611589464616688e-01 7.474636192757301290e-01 9.602194509814105938e-01 8.262492187636254481e-01 -4.727427247794011578e-01 5.560597251211051306e-01 5.045564210694071239e-01 5.213391270040855785e-01 5.772569462604200119e-01 8.984689345969798513e-01 5.547329773721174639e-01 5.023210787331127136e-01 -2.118640443046228561e-01 -8.432702977334852745e-01 2.256618902150544059e+00 5.198660308101520355e-01 8.886597399247063711e-01 4.720900134700102835e-01 5.690502031270350258e-01 3.641512692103426874e-01 1.490935881487245596e-01 5.111136987929288944e-01 5.470886092724435157e-01 1.413021918502625936e-03 5.068418445467406386e-01 4.243113941169551762e-01 5.025315620475132583e-01 7.282581400548316930e-01 5.079908830420492016e-01 5.911580616696927581e-01 3.907025863851813496e-01 5.068245964998845388e-01 3.636728689870890041e-01 5.175412245266177713e-01 4.385755080113143967e-01 5.140532998381404095e-01 -2.897340434648340013e-01 5.073247885454154060e-01 6.429976222448889889e-01 5.261265458151828112e-01 7.322410121258612348e-01 9.107290521390001281e-01 7.344561607038777584e-01 -5.825229681522526848e-01 9.923338805608413749e-01 1.754702624521261800e+00 4.788110720957017841e-01 4.638671844947456768e-01 1.069684321903270119e+00 5.394593705755328372e-01 7.321145954343050155e-01 5.098911011340003796e-01 1.789836530315016327e+00 5.095605149343108708e-01 4.561010898691352788e-01 1.233887550428652835e+00 -5.355994746538362411e-02 5.514444397819021626e-01 -1.678849909969692134e-01 -9.380280928246044203e-01 -1.753065130107920033e-01 7.799771254116825148e-01 5.398104826610252704e-01 5.639829061715848635e-01 -3.339129196111489950e-01 5.244836511890161868e-01 2.325638944655982615e-02 -3.527745115502360362e-01 4.673487772323111078e-01 5.160479873535288586e-01 5.151127058801167058e-01 5.674695485018355079e-01 5.629932080066782918e-01 9.025717414678984252e-01 -3.846353248093498656e-01 5.118763129319396921e-01 5.702218707464516978e-01 6.252387129436727253e-01 1.159138962883329960e+00 5.138657640132927584e-01 6.161403354481878036e-01 5.106223556871116731e-01 2.695930378128086335e-02 -2.844713046500926823e-01 5.208236112157257347e-01 5.007484421517589546e-01 6.646805912553900297e-01 5.289244184048845776e-01 3.363567830541480119e-01 5.088268472216980198e-01 5.092312323654206718e-01 3.406968353624001411e-01 5.112457059772351764e-01 8.374202897496857423e-01 2.522504231236918582e+00 -2.366401684616525058e-01 6.673357285151120255e-01 3.366664972839165659e-01 2.202893438028827311e-01 6.831927369604243738e-01 -5.690555816428338742e-02 -1.489754967276760045e+00 5.165745474553350425e-01 2.583312315033874373e+00 5.000553410507224683e-01 1.476662183295357755e-01 1.790981703878256337e-01 5.086325506583346812e-01 5.615986665555180446e-01 1.539191002602317671e+00 4.875871531408616510e-01 1.257334461990185503e-01 4.426297059412374058e-01 1.668125972612393371e+00 5.763568166465872222e-01 7.187672723839831912e-01 5.411670297712807276e-01 7.416450079642104010e-01 4.539484805707786896e-01 5.616446339138267962e-01 1.151035519872697054e-02 5.150624676787036726e-01 5.246080448571193156e-01 -5.642802824873786038e-01 -3.604792872651774865e-02 1.169150433572154313e+00 2.351939763825986740e-01 4.914704514900576360e-01 6.770309144156776426e-01 5.472694597065046462e-01 1.988266557741946272e+00 7.049524692243552826e-01 2.924023411627579838e-02 2.659476473385909423e-01 4.039213969396199810e-01 1.097857833170619468e+00 5.346990429921587573e-01 -2.229702115505724502e-02 5.133521083723852074e-01 -2.267195974932744926e-02 5.152608767718708238e-01 5.144591337947865828e-01 7.812633780780217641e-03 -6.813284085571964799e-02 6.661014001425834552e-01 6.213939880406268434e-01 5.308539370921487865e-01 2.973609721661522043e-01 5.117603216426046542e-01 4.843114909654966382e-01 5.680151828971246042e-01 5.542489423698560014e-01 4.812083255481944266e-01 6.361689762523691227e-01 1.013510474046861454e+00 3.087982874401896005e+00 8.989047620928163340e-01 5.187661410120242289e-01 6.508462422353850085e-01 2.112930317462057561e-01 5.099948705882049182e-01 8.368027938195958804e-01 4.849368420467753404e-01 1.315974003926570379e+00 4.809819337893031510e-01 -5.651285419955621725e-01 -1.252467896221703438e-02 4.134611429346894407e-01 6.111629673052924039e-01 5.224369162657005461e-01 5.169234502288262423e-01 5.226139751788662011e-03 5.333208391142908456e-01 3.927373258788653954e-01 -3.565760499111029436e+00 4.883126333807114583e-01 5.201929766695362334e-01 1.118772694316365834e+00 5.155699912797087059e-01 5.856303468591445016e-01 6.801984370117641898e-01 -8.634555753501650388e-01 -5.063989659302459145e-01 5.333328946675293392e-02 5.112747073304382273e-01 4.108803124600519663e-01 2.241975497853636035e-01 4.888332293162208075e-01 -3.310872262940642297e-01 6.469797379017629968e-01 5.361251854311589460e-01 6.935645306352669071e-01 5.361042841850480745e-01 4.762726929319435198e-01 1.643905764811377790e-01 -7.327028916237242617e-01 6.505094651184839538e-01 5.074272742410171899e-01 1.657402124874780835e-01 5.136381367804687681e-01 5.865701658558601927e-01 4.995201486270537949e-01 6.698125026660080028e-01 5.672545633505168272e-01 5.375949738345583429e-01 4.982066023972224200e-01 1.754702624942540590e+00 3.704196604522018155e-01 5.514616989940800407e-01 -1.068482880658019607e-01 5.418930627532037025e-01 6.201980223129071046e-01 5.115044034783460258e-01 5.011856413351605255e-01 3.477401861595222909e-01 9.034581856275628597e-01 1.180991996410160949e+00 5.575605254193409799e-01 5.596763805417617199e-01 5.953679565805586327e-01 4.626775152349164588e-01 5.123322291302527809e-01 5.123032509789193778e-01 9.923207237988582730e-01 7.296883318163188692e-01 -4.489213187718190667e-01 4.446817785514902699e-01 9.192180938923344424e-01 4.900957076279281455e-01 -3.477471448875393660e-03 5.250449939329466797e-01 1.208531155972381921e+00 -1.383107488118519857e-01 5.472663771310187775e-01 2.515773743954987096e-01 5.466637055780294574e-01 8.125706409128947705e-01 5.193459450583255421e-01 3.669137816424041798e-01 1.390803269515306750e+00 5.031092477458700696e-01 5.233998019832447612e-01 -6.187310182331533515e-01 4.596570011242342435e-01 1.043802867757844366e+00 5.867078819655909827e-01 1.020083103186736062e-01 9.481455632205236794e-01 -6.074647797342208611e-02 5.663515730488949407e-01 1.588991402690605570e+00 -8.502752100489022746e-01 5.359456560461242081e-01 5.125136636443459182e-01 -4.374670203115964551e-01 3.324225112771504453e-01 5.714601262846984442e-01 4.673316426329660045e-01 5.289133515939500318e-01 3.520446970430248790e-01 2.640185966979065046e-01 3.464152038399573308e-01 5.372324687530296572e-01 5.121754601542036767e-01 4.435425658181974852e-03 -6.453894133400484012e-02 4.977745724368823899e-01 1.058947870046974327e+00 4.055517196559119686e-01 -5.638084660765766420e-01 5.624415944203789985e-01 5.063309144934898809e-01 4.847048374400932391e-01 2.880639682417435871e-02 3.405192005670030220e-01 5.114355461918412837e-01 5.087846885010165465e-01 4.547977430085887729e-01 4.373176702689654527e-02 4.462314056458810962e-01 5.062194083914034470e-01 6.565575009606430257e-01 2.066650313483330503e+00 2.290357612964715947e-02 3.818877788538693197e-01 4.710184850082577146e-01 1.811490848680957999e+00 5.555521267009291275e-01 4.804481354235183299e-01 1.421414666561565503e-02 5.398970052775019512e-01 5.186940511240867302e-01 4.710466200721514229e-01 3.808095576925917825e-01 5.214175579339075384e-01 5.706495113208270853e-01 5.525342761641692801e-01 -5.084102335292346453e-01 5.155088083691526935e-01 5.220001556942702736e-01 4.969298158616015648e-01 9.822297193652167469e-01 5.106725343403157868e-01 -2.397564517269317463e-01 1.048431285183657691e+00 -1.224644272071963913e+00 -5.051462550993910394e-01 5.157691380548301563e-01 5.117489407453100769e-01 6.482910257446636848e-01 5.239894904816534416e-01 3.687191204426999436e-01 6.212043415845134309e-01 5.398970066483862462e-01 5.114618453154220479e-01 5.919881342009014613e-01 5.752657837860267742e-01 5.110764388729474028e-01 2.841532781037695021e-01 4.934579754862493117e-01 4.564922592346530861e-01 3.648049831658064512e-01 5.113804837984846641e-01 5.086246874849175148e-01 5.468211196295854615e-01 6.365616106643480210e-01 5.115143830897008748e-01 6.586966474323064924e-01 4.771902449759824472e-01 5.136668071709380445e-01 5.460281745752175731e-01 3.375776022619926264e-01 4.438913943284809593e-01 2.368087229385965387e+00 5.600090309891206930e-01 5.674642432976202411e-01 3.205250550168505241e-01 5.807096557418446325e-01 1.105636562623341534e+00 5.504339841866277006e-01 7.130514050094853840e-01 5.149913391289931974e-01
6.822857684538856660e-01 2.555492888062904089e-01 4.108862739132020936e-01 3.846434744035460290e-02 3.176398376133088286e-01 2.977614552335731690e-01 5.276242786148540587e-01 4.507756298783388571e-01 2.198741346401698049e-01 3.380060326125755021e-01 2.027575619791439632e+00 1.697928521775697641e+00 -1.416602608516922546e+00 6.233271837562591733e-01 3.157439578269422564e-01 3.940970533741112170e-01 1.285707117351166662e-01 4.238821095400932548e-01 4.473708163996835685e-01 3.182636762732934943e-01 4.721999223567650006e-01 2.083500863358099142e+00 4.005553098747304808e-01 3.689623967897665557e-01 7.091337140908308134e-01 -2.549250418301117205e-01 4.648020457449260623e-01 2.506117668589099012e-01 2.833192276090496509e-01 -8.415793024380779919e-01 2.419594782126170962e-01 -1.047273294771132734e-01 2.893162388877711377e-01 2.534046390739792542e-01 -4.282111773739323834e-01 4.341654459175405822e-01 3.056602708663586632e-01 -3.297875587855897406e-01 -3.178409609263279645e+00 3.200652710338135476e-01 1.114507854743351789e+00 1.392541330349413853e-01 -1.636108669639580182e-01 7.915376997784057123e-01 6.481549864981270836e-01 2.793943911810265468e-01 3.890419992906005153e-02 3.019857084110036949e-01 2.618886584042167676e-01 7.058400922858952820e-01 6.887177808239202115e-01 4.563016818998307245e-01 -2.708836463463256683e-01 1.993671293031992198e-01 6.051958878744428949e-01 6.755841997022957734e-01 3.499724460242951141e-01 2.732911059747908378e-01 3.477931845795413368e-01 3.453298855722854444e-01 4.233270623148898126e-01 3.569713499450195560e-01 3.146626665926315902e-01 4.005553278296941078e-01 -3.461617404757183492e-01 2.087120494951826555e-01 3.375652602743487440e-01 3.382263383595943140e-01 2.380721476080960020e-01 7.307499023824860496e-01 1.171042549275292805e-01 3.171146414433006488e-01 2.987748343710873722e-01 7.158833477568684600e-01 1.893639804329444676e+00 5.107213890583701676e-01 4.672713502313146083e-01 4.789535256416856956e-01 3.150422837819553123e-01 -1.318240293868829571e+00 2.931955247456897173e-01 6.363139294418275194e-01 2.259501977863638267e+00 1.224639503105715566e-01 2.819704878358461619e-01 -4.248928527373030950e-01 1.209636778135697033e-01 2.790868663395819071e-01 -5.700728763812102917e-01 -8.660745421150100043e-01 6.479544765830892450e-01 1.547879619656388872e+00 1.000751593925054694e-01 7.040922064537606939e-01 2.886356605068831072e-01 3.032742693256211819e-01 2.751148191998632475e-01 7.280783327743320932e-01 7.387909379374330010e-01 -2.582801941792475242e-01 -1.663029014424953766e-01 5.610156363933286455e-02 2.850600375500170758e-01 2.165411850678762296e-01 1.052351089352539411e-02 3.046653361082990230e+00 -2.783280043033303786e-01 8.213946853446607577e-02 1.912808054054744022e-01 8.070502158705279427e-01 2.308898872294560534e-01 4.121646814502761824e-01 1.697669910790199632e-01 4.745070307200435766e-01 -4.927031289217779775e-01 2.033963706059103704e-01 3.107672694570577931e-01 3.962405961152990486e-01 9.759215731708401620e-01 3.245063759588510677e-01 -1.429983843894586215e+00 2.587306531667880605e-01 2.096489653556896371e-01 1.303742658120650155e+00 2.992858380193365586e-01 2.134926665206623664e+00 1.801729931194241130e-01 3.750898468610773251e-01 2.935372666773418682e-01 3.283512961770870819e-01 2.623480865596933276e-01 3.198852856819937585e-01 6.727954894622669713e-01 4.038662307115457595e-01 1.827955542487517404e-01 8.806948617461329842e-01 6.968315195556109565e-01 7.251105025188738784e-01 -3.286427303997769278e-01 1.979152600779406079e-01 3.465544456557351216e-01 3.213675148125512693e-01 2.406128603349352302e-01 3.192207341189032266e-01 3.037162528709165810e-01 6.942811562442955386e-01 -1.180037726803593173e-01 3.185232528486877102e-01 4.494327198479016183e-01 3.952046823116270313e-01 -2.815445235915050026e-01 2.056130691797823651e-02 2.793974676184515782e-01 2.747705899960505849e-01 3.640536615692154809e-01 3.182693802016284823e-01 -2.244263485939261393e+00 4.454767580874287036e-01 -5.845777980014202901e-01 -2.571512509999580587e-01 3.432943413081619988e-01 2.024230967981378582e-01 3.348899443470173543e-01 3.142863025020888323e-01 1.090886194245880292e-01 6.065749934210564603e-02 3.140720949279733332e-01 4.069677390617685298e-01 2.647874395800271508e-01 3.654567686337626964e-01 1.839038734234516581e-01 4.069585993118441519e-02 2.794080521090332447e-01 3.160171695791668678e-01 -2.463199226575728762e+00 7.165579869706650840e-01 6.330717813647568359e-01 9.799667653785122390e-01 -4.524634027970197425e-01 1.168372794772561507e+00 -1.927802382115090252e-02 3.276001012112275124e-01 1.226784508537916318e+00 2.608742749612591449e-01 3.039158980947934130e-01 2.580180996288352624e-01 2.733242945766892196e-01 3.017267200718637410e-01 -4.578734896032359281e-01 3.600611783631955665e-01 2.077517184185564969e-01 8.024731039793743248e-01 3.039780972614480881e-01 2.285178183462145129e-01 2.227143860462294511e-01 3.093561735351339492e-01 -1.612335354841467172e+00 3.100473039896311511e-01 1.925279117227276515e-01 3.507055059005025344e-01 1.156446617928149206e-01 2.857456104904024796e-01 3.766979818309755812e-01 1.283098904251480377e-01 -8.019774884699177875e-01 1.925278868495931273e-01 4.496430035388863100e-01 -5.031401367798187252e-01 3.458000735152366167e-01 1.543974272527682823e-01 2.644933819837070876e-01 -3.184168385872231166e+00 4.373305440298655977e-01 9.370902997202070761e-01 3.182781906407454731e-01 3.212729918725753531e-01 3.187279185113006674e-01 3.016952235856333320e-01 3.050407956993086422e-01 3.164378136105551187e-01 3.222452421767565411e-01 1.809102200871988975e-01 6.575374300012613027e-01 1.409048855399328559e-01 5.250647931627676623e-01 4.470576933953537280e-01 3.816281531090235379e-01 -6.350353023151493748e-01 2.236141513815890658e+00 3.795038751177917113e-01 1.227578598529078358e+00 -1.377125250422244873e+00 3.173697499529258281e-01 2.035189536802701205e-01 3.478025948291359470e-01 1.144424904105733720e+00 4.778883682336333427e-01 7.916869904984787931e-01 2.782766211656245159e-01 6.704624940675502076e-01 3.327490744355617314e-01 2.907177491685372650e-01 -1.144936648168747517e+00 3.517679089470033271e-01 3.147240622126353249e-01 4.679252735541161168e-01 9.160087043063285250e-01 -3.381612387035724532e-01 3.074449032030172724e+00 4.642707805652328545e-01 1.215201879151902808e+00 -1.005793117922682001e-01 3.301745092286639260e-01 4.005554852970659163e-01 3.061376083391174618e-01 2.868579428193132053e-01 3.510297053518204868e-01 -8.926796638991099653e-02 1.568688821167722180e-01 5.606781179919172464e-01 2.860521137352730614e-01 9.111277004386166001e-02 2.714507543342409845e-01 3.340048655343382800e-01 4.233270821222688829e-01 2.695511146009942904e-01 3.160546954037260825e+00 3.816128345500384156e-01 6.558300913479983008e-01 5.438914851537526296e-01 3.157968244425358728e-01 4.229510831055715014e-01 3.072893040708416512e-01 2.591327486669669500e-01 3.141453487313679571e-01 -5.056622987264425273e-01 4.745575631425429930e-01 2.855089003879920928e-01 1.161449992179604956e-01 2.424342310507676124e-01 1.511838875728018339e+00 2.336529321931032910e-01 2.796319720123313646e-01 1.977728475858164137e+00 4.910333242049430558e-01 3.417326277864926043e-01 2.733638758491671594e-01 2.843763562122736954e-01 2.033963681741796925e-01 -2.041962617696744253e+00 2.835569101869854780e-01 1.469855678263375820e+00 5.405904189144605798e-03 2.481493978642151932e-01 7.133540401387773455e-01 2.535280251696822584e-01 -7.113989446751702861e-01 4.394577532876141057e-01 3.021534916763279344e-01 4.494643684522325322e-01 -3.773686378913319039e-01 3.163126854827674195e-01 -2.118334289824290284e+00 4.023079728210100098e-02 3.141355735761015566e-01 6.067230970841381854e-01 3.214384464957484311e-01 3.077384546208719041e-01 4.498101373281923610e-01 2.195177367463631291e-01 -1.247914267687930817e-01 -7.514399713979552642e-01 5.769318767868337333e-03 6.808444248344466265e-01 3.057178292573066725e-01 4.839983167753548199e-01 3.164229652219018307e-01 3.962828635158189422e-02 3.125642908620683835e-01 2.398500461843291021e+00 6.961478233726394738e-01 2.465355829367143758e-01 -1.130836348310180206e+00 2.196331246676392068e-01 4.573143193669539919e+00 3.228583301602968025e-01 -1.094064002547658343e-01 5.683079967699222745e-01 -5.462849393873236536e+00 5.007047689782955224e-01 1.513937770356127421e+00 3.144004734147523572e-01 5.420932445243858977e-01 -4.320851429952076161e-01 3.656144197788749883e-01 3.286405138250524383e-01 3.278099262299424277e-01 2.530725833393454582e-01 2.861464220140257808e+00 -3.618983882652676565e-01 2.669947500784938810e-01 -1.890767020445803803e+00 3.007662720721003824e-01 -3.297875632566366622e-01 7.394296297317303202e-01 5.527587442675261364e-01 3.467331023027870329e-01 3.367162363285282067e-01 1.286428992700784368e+00 1.354935218788385631e-01 1.925277113448259914e-01 3.517716263430454848e-01 1.283098896537087086e-01 2.536918358575766530e-01 3.979753858866095229e-01 -5.974829022772967235e-01 3.153041887435987234e-01 5.341940640620559400e-01 3.690414476779615427e-01 1.701269275079470289e-01 3.173271908978920752e-01 4.480480256824208585e-01 5.527587652600687296e-01 3.627783100744880751e-01 3.159443295710161470e-01 2.047993035445295484e-01 4.530410110819663161e-01 3.310660752626699566e+00 3.219986064508743029e-01 1.671625652393353145e-01 4.233278568690063692e-01 8.543816853177882420e-01 4.632585059880227063e-01 -1.902410207865952163e-01 6.916054541842611147e-01 2.380592979152739985e-01 1.123640327391508126e-01 3.891790870544494796e-01 6.517220210664116387e-01 6.579790100062069547e-01 7.720295337062303975e-01 8.064471582987954301e-01 3.855038307090852823e-01 1.283098903155486525e-01 1.283098781103908792e-01 3.357349030960172787e-01 1.130133949515610137e-01 1.120056397698751427e+00 4.143854011811708982e-01 3.233486248019737941e-01 3.760961822645401686e-01 3.183819082090116326e-01 7.851650021654524858e-01 1.925278203796875198e-01 3.165872866043932810e-01 4.381923046749807149e-01 3.014068489262174411e-01 -6.295004413876595928e-01 3.139780380741540311e-01 3.213404262167725567e-01 3.599378597297884230e-01 7.032714224776844825e-01 7.439295914701536949e-01 1.283098895433575914e-01 4.253443066600777478e-02 3.141031938629315623e-01 4.275295164027025363e-01 -5.891158846965246498e-01 2.129285654954674312e-01 -3.438881532543099251e+00 1.900939118241650627e+00 6.236379195933934305e-01 -4.380744846612789622e-01 3.833268720626193532e-02 2.022069912295343830e+00 3.170984746678224830e-01 6.303375530300671103e-01 4.983263289211788127e-02 2.891141171996671200e-01 4.578908518161682317e-01 3.150190475777166488e-01 -4.127467444032406063e-01 2.536669734741041626e-01 2.021872818516048831e+00 3.511218124005187069e-01 -3.947458123608211245e-01 2.717540233269811201e-01 3.016172226021194835e-01 -1.440586757270754470e+00 2.911733322214032915e-01 3.241256423963334021e-01 4.027053760652723469e-01 2.175449206944297664e-01 3.124577630128890227e-01 2.353213945771537863e-01 3.145246724084018175e-01 -1.600733399096854748e-01 3.220503342109786726e-01 1.408812813516365781e-01 3.383847020427964147e-01 2.716563196930512070e-01 2.632606930248596391e-02 4.439893410162428777e-01 6.247512163540838159e-01 -1.349755203118366387e+00 -4.884644390996489838e-01 -1.043493591592337816e-01 4.903795795093106313e-02 3.080980171636683584e-01 4.244120896807114796e-01 3.624939023624507706e-01 7.208673283622001327e-01 -9.975043861245048993e-02 3.288450908736566536e-01 2.972545390520812125e-01 9.180614649723492504e-02 -1.601820339719854380e-01 3.199273068955891808e-01 4.350424952948202528e-01 4.786319916314080158e-01 3.007304071074623497e-01 2.771912539658677455e-01 3.197394217170124175e-01 2.606806988835447814e-01 3.251316404528000747e-01 5.144311799431153798e-01 4.308117947477828613e-01 3.144866749995163246e-01 6.914147029375113940e-01 3.074917867911720060e-01 7.167704215264096845e-01 1.030976197156550506e-01 4.844793533844623523e-01 2.168369008241916307e-01 -1.430250995274337189e+00 2.958169870526283773e-01 6.424874630772109407e-01 3.896047696000013993e-01 2.564641511461948631e-01 2.897997975282543548e-01 2.843103816345144419e-01 7.015975462725339007e-01 3.206531519309034350e-01 3.642506008040500842e-01 3.150916540011302613e-01 2.933608135316002063e-01 2.203310871737476362e-01 5.257865396212846321e-01 2.912257896216918218e-01 2.716174361974196816e-01 1.960041536875356816e-01 4.048354658427425617e-02 1.606231749178535173e+00 3.201169475881944781e-01 3.740990049674750573e-01 3.731745159920096810e-01 -8.202718865826469363e-01 4.326617382482856322e-01 3.404469935995305674e-01 5.227293715457577150e-01 5.939855303992269686e-03 3.325649262024471531e-01 1.498148618627784368e+00 8.855078628949977215e-01 3.908098123744492280e-01 2.625618690131246713e-01 3.889357923497059333e-01 3.229056453222506895e-01 9.077155965666531268e-01 2.979815206838821950e+00 3.131606418574572337e-01 5.969265017196446338e-02 5.955848708080417886e-01 -1.643283723045923794e-01 3.120490034730756257e-01 3.085872423708393986e-01 1.052317981395251012e+00 3.237224084716817663e-01 -3.061536906179922468e-01 3.692148537965492250e-01 1.143220665291662802e-01 6.618834610058844659e-01 1.681173878904426378e+00 3.748259895122804664e-01 2.368881696715763596e-01 1.642833380132548760e+00 4.143122916503335640e-01 2.933391839732199524e-01 2.699660784365420230e-01 3.539469656586410329e-01 3.896810069523567316e-02 4.369680177868879301e-01 2.347292893405390768e-01 7.222778233417664895e-01 2.910654646048159711e-01 3.330452075860450556e-01 2.987782957392390304e-01 4.602982463096995103e-01 2.694539462049152512e-01 2.523108423705697767e-01 9.228832068425172341e-01 5.011888776237291010e-01 3.909559380753636071e-01 2.881670182584868956e-01 3.123039156794319426e-01 3.151147733756694547e-01 5.829692954632368362e-01 7.645940830192874405e-01 3.184915557477434045e-01 2.765830460805461244e-01 4.122729192748925686e-01 3.167218090953897169e-01 7.436926536873116333e-01 2.088317927449480638e-01 4.379900710166297340e-01 -3.172586548498954051e-01 3.136439677629111467e-01 2.420132963219817912e-01 4.067227503437464975e-01 3.506487622739700716e-01 2.265324964273064678e-01 1.743085985790463699e+00 1.344093478356448990e-01 2.815056985834830106e-01 -1.466414190658812122e-01 1.596535708934723852e+00 1.136794453315679965e+00 7.407734308150902558e-02 -4.634306069294114594e-01 3.470119294611413441e-01 3.506458270572740399e-01 5.151879216632181402e-01 3.166041786554726345e-01 3.094403348429993761e-01 1.970641899028773292e-01 3.375867861427446215e-01 3.664538639080999749e-01 3.831736192057610957e-02 -1.715331573493376893e-01 3.859651143173217780e-01 3.607508379746322547e-01 1.937137553169226145e-01 8.557805167305511107e-01 4.233270710058580910e-01 2.205919653933386959e-01 8.227524538026258494e-01 4.762757833408344799e-01 6.478697150022131312e-01 4.341130606555223537e-01 6.850792039811380851e-01 1.457373038199006432e+00 3.050422979924308220e-01 2.033755289157548773e+00 -1.459135305193157497e-02 1.331165784769775262e-01 3.153972243896744354e-01 2.866540815287331179e-01 3.176811905169695249e-01 3.654548073262866015e-01 3.299043715839437563e-01 3.152564332398753999e-01 3.529844759150965183e-01 1.811609266824977249e-01 -2.791399273615034482e-01 2.833864269832587213e-01 -7.782296464465061903e-02 2.639557652237534691e-01 4.495257616599953598e-01 4.233270709727605108e-01 1.980712629607563613e-01 2.357147567236483332e-01 -1.185079732508110162e+00 1.922580620166032705e+00 3.122402753626559724e-01 -6.904386722082365146e-01 2.980100800492768709e-01 3.143599671029189135e-01 3.159446283192614557e-01 -4.663792398971540187e+00 3.462361858042577012e+00 6.182997452098781821e-01 1.084649927984926571e-01 3.316284938771121849e-01 3.102662134694764706e-01 3.224904366570120473e-01 2.563853604328591551e+00 6.139575055976371765e-01 3.205663474355539555e-01 2.033963614920274998e-01 2.427205661740982068e-01 2.806094379111624404e-01 8.748966973503797817e-01 -3.791762222904350166e-01 -1.135719457750415051e+00 -1.182204622164096941e+00 3.174126676704748795e-01 3.097238133745272570e-01 7.037146366964674993e-01 3.353358906200115674e-01 1.267504784601485524e+00 4.614723904564897450e-01 3.156674164305620089e-01 2.988514952950965808e-01 3.027189369718341627e-01 2.714945259886052953e-01 2.664659091391904933e-01 6.525975499504867994e-01 2.815541913724445289e-01 6.379689850864549427e-01 2.151082537848665599e-01 2.028264113895597923e-02 2.665180847135482645e-01 2.104263551825224232e-01 3.359902859438043121e-01 3.474731324041864244e-01 7.026121887026204327e-01 5.527587654781426219e-01 4.765100035058464356e-01 3.918027001916902785e-01 3.190715484842455152e-01 2.540465474862107498e-01 1.498160633525895680e+00 1.820370086047049529e+00 2.655411697135374727e-01 3.436771516917661584e-01 3.042681776923363279e-01 1.771346703106506382e-01 2.387764190423858901e-01 1.995712179611389969e-01 3.405565667124724749e-01 3.202150130392478755e-01 7.875357046617239565e-01 8.632955978985886736e-01 2.518912795606578214e-01 1.830834310771556783e+00 1.850609481951583923e-01 -1.476791971807253356e-01 -2.708010210426026743e-01 -3.240698070474263837e-01 3.141391123668399454e-01 2.837251029220640430e-01 7.044964437328748996e-01 3.252874704097484804e-01 4.515164331844264689e-01 3.097748693912372175e-01 3.787476088513890282e-01 4.070921441205262448e-01 4.759640673194906468e-02 1.022797063732667766e+00 3.044152856605926161e-01 4.891532828310479752e-01 3.079462181866252091e-01 3.637618499049174448e-01 3.018388350215425175e-01 3.864087540852804703e-01 -1.202488462668046265e-01 2.235485726666599782e-01 3.025042751886826697e-01 3.897053115817650931e-02 4.233267621745421261e-01 1.120287340999733150e+00 9.414246366470430116e-01 -7.388922024172659420e-01 -3.297875588103349465e-01 6.399112714909556132e-01 -3.246120828380166579e+00 1.551936881083491260e+00 2.762238058709604593e-01 3.798960279372409765e-02 3.113415904537765733e-01 8.677522224752031166e-01 3.141238113430751544e-01 3.517681834422713982e-01 -4.354066177241981417e-01 8.292439415952258530e-01 2.616757298553516464e-01 8.882407259370810326e-01 2.054322547740550231e+00 -3.793463374299145263e-01 -1.424776209780719283e+00 2.866203603993209281e-01 2.503299456103987297e-01 7.796763433345162975e-01 3.005366783844446443e-01 6.989353283480741474e-01 4.689916100376323449e-01 1.441169174349397342e-01 3.072168192757271932e-01 3.454834963482014132e-01 2.188624965750691487e-01 3.596356466446612998e-01 1.373103967979786066e+00 1.581131645738378833e+00 3.204975961562572251e-01 2.520477113951672399e-01 2.918415871873934059e-02 -2.341611451000812361e-01 1.983835625058759100e-01 1.720624675018379846e-02 3.228481760160915592e-01 7.047597410470559653e-01 -4.139887416531362607e-01 2.970810806062736398e-01 3.459825408914667944e-01 1.586242704599737374e-01 3.048356249595817191e-01 2.754950360346763993e-01 3.221494563631436270e-01 3.121425738429824959e-01 -2.930337418230541391e-02 2.469137852552203416e-01 4.419832784128105430e-01 1.100486193939414159e+00 1.096049838094783624e+00 9.395963983158948096e-01 1.953679451083458196e-01 7.661805385832256565e-01 1.219251322369139384e-01 4.539087838434979205e-01 -2.049356389668997025e+00 2.851516678908346814e-01 6.497467584468928914e-01 2.734719114334485668e-01 9.584503757856773776e-01 1.352515918508490067e+00 2.033963696824399314e-01 2.965007367229302027e-01 3.719313344354879813e-01 2.232453764105134797e-01 5.568214045044566074e-01 7.999435131150047784e-01 -7.435900084987254743e-01 1.450716700658461200e-01 1.300110466369674700e-01 2.992363316881048729e-01 3.437950040987389211e-01 7.690455588988656110e-01 -1.522393959850851797e-01 3.868179114932960849e-01 3.106612880643092045e-01 2.666555432060220276e-01 8.858747224620375782e-01 4.214624526552743222e-01 -2.030203075511152200e-01 8.593551818696252287e-01 -4.395491375421427260e-02 5.728743815967948239e-01 2.838503217597667660e-01 1.271464909445812586e+00 5.406668027807256527e-01 7.201378091611294607e-01 4.356708581252168311e-01 4.781589447148750782e-01 -5.108192478562210148e-01 2.914376530694948175e-01 7.634185616254126616e-01 3.088130435244961225e-01 6.458753789277075219e-01 3.302914695839873072e-01 3.131324094321868978e-01 7.325773130136186140e-01 1.219508721012817071e-01 -2.012733220478871043e+00 2.953352937111724530e-01 2.792543338189598656e-01 7.350124857513151699e-01 3.931879995831092378e-01 3.939746579036960683e-01 2.584019077120162100e-01 2.420578738993492129e-01 3.631811120685989325e-01 2.539125451802214106e-02 -1.605373967187493811e+00 7.423238407152543683e-01 2.657202099128156969e-01 3.053482846580748422e-01 1.874511602139152244e-01 8.240049355717538049e-01 3.165821721103849185e-01 -1.277488769029372639e-01 3.135193418401981957e-01 1.113571383083989952e+00 3.052036272662683736e-01 4.144596689120446653e-01 1.065520889347543410e+00 3.170157015616958951e-01 2.701456868493241181e+00 2.800866954762573635e-01 3.062688733540396835e-01 6.886567635582105940e-01 3.140664210370167631e-01 2.871501709963595328e-01 -2.011159487639559984e+00 3.750695533931177605e-01 3.002929138502373752e-01 5.117119529707276904e-01 2.998974978895639354e-01 3.201489058116396835e-01 -2.498805963523540175e-01 2.014397352840504585e+00 -5.204946116473673223e-01 8.275792501697251113e-01 3.141940029612879659e-01 3.854511659630426301e-01 7.545165276957065403e-01 3.531997324954817552e-01 1.313263915505989976e+00 1.594252061232956930e-01 2.968718039748085569e-01 -8.770149251288082981e-01 -1.280094158720936903e-01 -2.636565239083168422e-01 -3.805855246513614620e+00 2.888011495922335747e+00 7.629140976779924532e-02 3.094076892035318993e-01 -1.578832698620156849e+00 3.177712511971965692e-01 2.014938253125305723e-01 3.386345905668921574e-01 1.353822272367266322e-01 6.374038685863377962e-01 5.914192512903396759e-01 9.805289498012728089e-01 -3.297875589547107356e-01 -2.122272169196869340e-01 2.086065536913613017e-01 -1.171291872063100925e+00 2.824059808221313084e-01 -6.282047940822376164e-01 3.380514701104189723e-01 4.810202083726441979e-01 4.202857317202787074e-02 4.175058626000920370e-01 2.736356155011362423e-01 -1.076586886831892576e-01 2.036937634458855229e-01 3.042125080204379772e-01 3.489046845378828143e-01 3.148106728545277400e-01 3.129604129787381672e-01 -7.386552343431560530e-01 5.760343301645987069e-01 1.524855845582387293e+00 5.456810710053366931e-02 2.422407272851063165e-01 4.132642950606985055e-01 1.214656179133128067e+00 2.953257992092300777e-01 1.616040691395205786e-01 8.972617875041718483e-01 3.268013927917764461e-01 1.826277120240118901e+00 3.899575576123004983e-01 1.179645764061731716e+00 3.038457592005278651e-01 7.369228144105983702e-01 1.340485835956995331e+00 2.913303628831511172e-01 4.025507566706864049e-01 9.043460365009903246e-01 -1.848975744348719530e-01 -4.824705825635565437e-02 1.530932146842478581e-01 2.954063799861956219e-01 3.443092175800460120e-01 1.412857308801098721e-01 2.445046465795390755e-01 -3.465686821341443236e-01 1.292487122362312890e+00 2.617148315778140555e-01 3.149926123118386156e-01 -3.084376397903711542e+00 4.810902782396533350e-01 3.791558822938899675e-01 4.653088526874936126e-01 4.366138145007514293e-01 5.043645795426041634e-01 -1.034392712552234528e+00 5.916872229551424223e-01 2.637424197655808267e-01 3.136421294741243426e-01 1.044869981887388777e+00 4.437364041375178592e-01 3.324615382197400604e-01 -1.379532760565450156e+00 4.561639461882771585e-01 8.860216801474843917e-01 2.986953854947302367e-01 3.212865041496288376e-01 3.128557039799612083e-01 6.956637087112438333e-01 -8.536183338371243490e-02 3.170923728201074376e-01 3.243601619297240002e-01 6.789305663984894490e-02 7.091540425155983263e-01 3.605026722666102024e-01 7.398260791751188892e-01 1.765592640545546599e-01 6.842998398351527456e-01 -2.059996909209317328e-01 -1.499894922781174422e+00 3.490851301396039053e-01 -1.448296293204584181e-02 3.072300255815065273e-01 3.179121195314053572e-01 5.622941471230570587e-02 5.527587596130911773e-01 3.069911421569312959e-01 8.772252546092515479e-02 4.584451535799708988e-01 2.948815155321838910e-01 3.072361161795556517e-01 2.696448481592360058e-01 -8.023050693800964916e-01 3.050362929261476452e-01 3.506191841438320855e-01 3.157921115116740785e-01 -8.835438290309759191e-02 3.183262695688767741e-01 7.920351273080226129e-01 -4.859330603302867146e-01 1.086796780278344698e+00 6.007177991574894627e-01 3.014240859624081059e-01 3.151738567048544826e-01 -2.015088943863007298e+00 2.971739299967557368e-01 1.796301160648336726e-01 2.284709176760340021e-01 5.527587738033878928e-01 3.175047465454880480e-01 2.614288491969395944e-01 1.225386829147232515e-01 3.115902922710769851e-01 4.355593410215957140e-01 4.227992851098865135e-01 3.913401501218455869e-01 3.036399405306384192e-01 3.107921184934883674e-01 3.303301262607096778e-01 2.805161335595595662e-01 1.250874970936330377e-02 3.126921238368200462e-01 5.841120406333911719e-01 2.260296690259352981e-01 3.132002850517267012e-01 -1.192380526136162106e-01 1.255871650703043185e-01 4.901272548537061180e-01 4.326699580268735801e+00 2.691848734417127131e-01 1.388988100356030320e-01 5.157648679471147357e-01 2.197951119421613642e-01 1.528070809286769416e+00 3.225880624253464335e-01 6.618453372630405118e-01 3.198319523295604094e-01
