# 
#                 ----------------------------------------------------
#                 Data from a 3D direct N-body simulation. 
# 
#                 rows are i-particle; 
#                 coumns are :mass, tag, x ,y, z, vx, vy, vz, ax, ay, az
# 
#                 NTHU, Computational Physics 
# 
#                 ----------------------------------------------------
#                 Time = 0.0
0.000000000000000000e+00 1.000000000000000000e+00 2.000000000000000000e+00 3.000000000000000000e+00 4.000000000000000000e+00 5.000000000000000000e+00 6.000000000000000000e+00 7.000000000000000000e+00 8.000000000000000000e+00 9.000000000000000000e+00 1.000000000000000000e+01 1.100000000000000000e+01 1.200000000000000000e+01 1.300000000000000000e+01 1.400000000000000000e+01 1.500000000000000000e+01 1.600000000000000000e+01 1.700000000000000000e+01 1.800000000000000000e+01 1.900000000000000000e+01 2.000000000000000000e+01 2.100000000000000000e+01 2.200000000000000000e+01 2.300000000000000000e+01 2.400000000000000000e+01 2.500000000000000000e+01 2.600000000000000000e+01 2.700000000000000000e+01 2.800000000000000000e+01 2.900000000000000000e+01 3.000000000000000000e+01 3.100000000000000000e+01 3.200000000000000000e+01 3.300000000000000000e+01 3.400000000000000000e+01 3.500000000000000000e+01 3.600000000000000000e+01 3.700000000000000000e+01 3.800000000000000000e+01 3.900000000000000000e+01 4.000000000000000000e+01 4.100000000000000000e+01 4.200000000000000000e+01 4.300000000000000000e+01 4.400000000000000000e+01 4.500000000000000000e+01 4.600000000000000000e+01 4.700000000000000000e+01 4.800000000000000000e+01 4.900000000000000000e+01 5.000000000000000000e+01 5.100000000000000000e+01 5.200000000000000000e+01 5.300000000000000000e+01 5.400000000000000000e+01 5.500000000000000000e+01 5.600000000000000000e+01 5.700000000000000000e+01 5.800000000000000000e+01 5.900000000000000000e+01 6.000000000000000000e+01 6.100000000000000000e+01 6.200000000000000000e+01 6.300000000000000000e+01 6.400000000000000000e+01 6.500000000000000000e+01 6.600000000000000000e+01 6.700000000000000000e+01 6.800000000000000000e+01 6.900000000000000000e+01 7.000000000000000000e+01 7.100000000000000000e+01 7.200000000000000000e+01 7.300000000000000000e+01 7.400000000000000000e+01 7.500000000000000000e+01 7.600000000000000000e+01 7.700000000000000000e+01 7.800000000000000000e+01 7.900000000000000000e+01 8.000000000000000000e+01 8.100000000000000000e+01 8.200000000000000000e+01 8.300000000000000000e+01 8.400000000000000000e+01 8.500000000000000000e+01 8.600000000000000000e+01 8.700000000000000000e+01 8.800000000000000000e+01 8.900000000000000000e+01 9.000000000000000000e+01 9.100000000000000000e+01 9.200000000000000000e+01 9.300000000000000000e+01 9.400000000000000000e+01 9.500000000000000000e+01 9.600000000000000000e+01 9.700000000000000000e+01 9.800000000000000000e+01 9.900000000000000000e+01 1.000000000000000000e+02 1.010000000000000000e+02 1.020000000000000000e+02 1.030000000000000000e+02 1.040000000000000000e+02 1.050000000000000000e+02 1.060000000000000000e+02 1.070000000000000000e+02 1.080000000000000000e+02 1.090000000000000000e+02 1.100000000000000000e+02 1.110000000000000000e+02 1.120000000000000000e+02 1.130000000000000000e+02 1.140000000000000000e+02 1.150000000000000000e+02 1.160000000000000000e+02 1.170000000000000000e+02 1.180000000000000000e+02 1.190000000000000000e+02 1.200000000000000000e+02 1.210000000000000000e+02 1.220000000000000000e+02 1.230000000000000000e+02 1.240000000000000000e+02 1.250000000000000000e+02 1.260000000000000000e+02 1.270000000000000000e+02 1.280000000000000000e+02 1.290000000000000000e+02 1.300000000000000000e+02 1.310000000000000000e+02 1.320000000000000000e+02 1.330000000000000000e+02 1.340000000000000000e+02 1.350000000000000000e+02 1.360000000000000000e+02 1.370000000000000000e+02 1.380000000000000000e+02 1.390000000000000000e+02 1.400000000000000000e+02 1.410000000000000000e+02 1.420000000000000000e+02 1.430000000000000000e+02 1.440000000000000000e+02 1.450000000000000000e+02 1.460000000000000000e+02 1.470000000000000000e+02 1.480000000000000000e+02 1.490000000000000000e+02 1.500000000000000000e+02 1.510000000000000000e+02 1.520000000000000000e+02 1.530000000000000000e+02 1.540000000000000000e+02 1.550000000000000000e+02 1.560000000000000000e+02 1.570000000000000000e+02 1.580000000000000000e+02 1.590000000000000000e+02 1.600000000000000000e+02 1.610000000000000000e+02 1.620000000000000000e+02 1.630000000000000000e+02 1.640000000000000000e+02 1.650000000000000000e+02 1.660000000000000000e+02 1.670000000000000000e+02 1.680000000000000000e+02 1.690000000000000000e+02 1.700000000000000000e+02 1.710000000000000000e+02 1.720000000000000000e+02 1.730000000000000000e+02 1.740000000000000000e+02 1.750000000000000000e+02 1.760000000000000000e+02 1.770000000000000000e+02 1.780000000000000000e+02 1.790000000000000000e+02 1.800000000000000000e+02 1.810000000000000000e+02 1.820000000000000000e+02 1.830000000000000000e+02 1.840000000000000000e+02 1.850000000000000000e+02 1.860000000000000000e+02 1.870000000000000000e+02 1.880000000000000000e+02 1.890000000000000000e+02 1.900000000000000000e+02 1.910000000000000000e+02 1.920000000000000000e+02 1.930000000000000000e+02 1.940000000000000000e+02 1.950000000000000000e+02 1.960000000000000000e+02 1.970000000000000000e+02 1.980000000000000000e+02 1.990000000000000000e+02 2.000000000000000000e+02 2.010000000000000000e+02 2.020000000000000000e+02 2.030000000000000000e+02 2.040000000000000000e+02 2.050000000000000000e+02 2.060000000000000000e+02 2.070000000000000000e+02 2.080000000000000000e+02 2.090000000000000000e+02 2.100000000000000000e+02 2.110000000000000000e+02 2.120000000000000000e+02 2.130000000000000000e+02 2.140000000000000000e+02 2.150000000000000000e+02 2.160000000000000000e+02 2.170000000000000000e+02 2.180000000000000000e+02 2.190000000000000000e+02 2.200000000000000000e+02 2.210000000000000000e+02 2.220000000000000000e+02 2.230000000000000000e+02 2.240000000000000000e+02 2.250000000000000000e+02 2.260000000000000000e+02 2.270000000000000000e+02 2.280000000000000000e+02 2.290000000000000000e+02 2.300000000000000000e+02 2.310000000000000000e+02 2.320000000000000000e+02 2.330000000000000000e+02 2.340000000000000000e+02 2.350000000000000000e+02 2.360000000000000000e+02 2.370000000000000000e+02 2.380000000000000000e+02 2.390000000000000000e+02 2.400000000000000000e+02 2.410000000000000000e+02 2.420000000000000000e+02 2.430000000000000000e+02 2.440000000000000000e+02 2.450000000000000000e+02 2.460000000000000000e+02 2.470000000000000000e+02 2.480000000000000000e+02 2.490000000000000000e+02 2.500000000000000000e+02 2.510000000000000000e+02 2.520000000000000000e+02 2.530000000000000000e+02 2.540000000000000000e+02 2.550000000000000000e+02 2.560000000000000000e+02 2.570000000000000000e+02 2.580000000000000000e+02 2.590000000000000000e+02 2.600000000000000000e+02 2.610000000000000000e+02 2.620000000000000000e+02 2.630000000000000000e+02 2.640000000000000000e+02 2.650000000000000000e+02 2.660000000000000000e+02 2.670000000000000000e+02 2.680000000000000000e+02 2.690000000000000000e+02 2.700000000000000000e+02 2.710000000000000000e+02 2.720000000000000000e+02 2.730000000000000000e+02 2.740000000000000000e+02 2.750000000000000000e+02 2.760000000000000000e+02 2.770000000000000000e+02 2.780000000000000000e+02 2.790000000000000000e+02 2.800000000000000000e+02 2.810000000000000000e+02 2.820000000000000000e+02 2.830000000000000000e+02 2.840000000000000000e+02 2.850000000000000000e+02 2.860000000000000000e+02 2.870000000000000000e+02 2.880000000000000000e+02 2.890000000000000000e+02 2.900000000000000000e+02 2.910000000000000000e+02 2.920000000000000000e+02 2.930000000000000000e+02 2.940000000000000000e+02 2.950000000000000000e+02 2.960000000000000000e+02 2.970000000000000000e+02 2.980000000000000000e+02 2.990000000000000000e+02 3.000000000000000000e+02 3.010000000000000000e+02 3.020000000000000000e+02 3.030000000000000000e+02 3.040000000000000000e+02 3.050000000000000000e+02 3.060000000000000000e+02 3.070000000000000000e+02 3.080000000000000000e+02 3.090000000000000000e+02 3.100000000000000000e+02 3.110000000000000000e+02 3.120000000000000000e+02 3.130000000000000000e+02 3.140000000000000000e+02 3.150000000000000000e+02 3.160000000000000000e+02 3.170000000000000000e+02 3.180000000000000000e+02 3.190000000000000000e+02 3.200000000000000000e+02 3.210000000000000000e+02 3.220000000000000000e+02 3.230000000000000000e+02 3.240000000000000000e+02 3.250000000000000000e+02 3.260000000000000000e+02 3.270000000000000000e+02 3.280000000000000000e+02 3.290000000000000000e+02 3.300000000000000000e+02 3.310000000000000000e+02 3.320000000000000000e+02 3.330000000000000000e+02 3.340000000000000000e+02 3.350000000000000000e+02 3.360000000000000000e+02 3.370000000000000000e+02 3.380000000000000000e+02 3.390000000000000000e+02 3.400000000000000000e+02 3.410000000000000000e+02 3.420000000000000000e+02 3.430000000000000000e+02 3.440000000000000000e+02 3.450000000000000000e+02 3.460000000000000000e+02 3.470000000000000000e+02 3.480000000000000000e+02 3.490000000000000000e+02 3.500000000000000000e+02 3.510000000000000000e+02 3.520000000000000000e+02 3.530000000000000000e+02 3.540000000000000000e+02 3.550000000000000000e+02 3.560000000000000000e+02 3.570000000000000000e+02 3.580000000000000000e+02 3.590000000000000000e+02 3.600000000000000000e+02 3.610000000000000000e+02 3.620000000000000000e+02 3.630000000000000000e+02 3.640000000000000000e+02 3.650000000000000000e+02 3.660000000000000000e+02 3.670000000000000000e+02 3.680000000000000000e+02 3.690000000000000000e+02 3.700000000000000000e+02 3.710000000000000000e+02 3.720000000000000000e+02 3.730000000000000000e+02 3.740000000000000000e+02 3.750000000000000000e+02 3.760000000000000000e+02 3.770000000000000000e+02 3.780000000000000000e+02 3.790000000000000000e+02 3.800000000000000000e+02 3.810000000000000000e+02 3.820000000000000000e+02 3.830000000000000000e+02 3.840000000000000000e+02 3.850000000000000000e+02 3.860000000000000000e+02 3.870000000000000000e+02 3.880000000000000000e+02 3.890000000000000000e+02 3.900000000000000000e+02 3.910000000000000000e+02 3.920000000000000000e+02 3.930000000000000000e+02 3.940000000000000000e+02 3.950000000000000000e+02 3.960000000000000000e+02 3.970000000000000000e+02 3.980000000000000000e+02 3.990000000000000000e+02 4.000000000000000000e+02 4.010000000000000000e+02 4.020000000000000000e+02 4.030000000000000000e+02 4.040000000000000000e+02 4.050000000000000000e+02 4.060000000000000000e+02 4.070000000000000000e+02 4.080000000000000000e+02 4.090000000000000000e+02 4.100000000000000000e+02 4.110000000000000000e+02 4.120000000000000000e+02 4.130000000000000000e+02 4.140000000000000000e+02 4.150000000000000000e+02 4.160000000000000000e+02 4.170000000000000000e+02 4.180000000000000000e+02 4.190000000000000000e+02 4.200000000000000000e+02 4.210000000000000000e+02 4.220000000000000000e+02 4.230000000000000000e+02 4.240000000000000000e+02 4.250000000000000000e+02 4.260000000000000000e+02 4.270000000000000000e+02 4.280000000000000000e+02 4.290000000000000000e+02 4.300000000000000000e+02 4.310000000000000000e+02 4.320000000000000000e+02 4.330000000000000000e+02 4.340000000000000000e+02 4.350000000000000000e+02 4.360000000000000000e+02 4.370000000000000000e+02 4.380000000000000000e+02 4.390000000000000000e+02 4.400000000000000000e+02 4.410000000000000000e+02 4.420000000000000000e+02 4.430000000000000000e+02 4.440000000000000000e+02 4.450000000000000000e+02 4.460000000000000000e+02 4.470000000000000000e+02 4.480000000000000000e+02 4.490000000000000000e+02 4.500000000000000000e+02 4.510000000000000000e+02 4.520000000000000000e+02 4.530000000000000000e+02 4.540000000000000000e+02 4.550000000000000000e+02 4.560000000000000000e+02 4.570000000000000000e+02 4.580000000000000000e+02 4.590000000000000000e+02 4.600000000000000000e+02 4.610000000000000000e+02 4.620000000000000000e+02 4.630000000000000000e+02 4.640000000000000000e+02 4.650000000000000000e+02 4.660000000000000000e+02 4.670000000000000000e+02 4.680000000000000000e+02 4.690000000000000000e+02 4.700000000000000000e+02 4.710000000000000000e+02 4.720000000000000000e+02 4.730000000000000000e+02 4.740000000000000000e+02 4.750000000000000000e+02 4.760000000000000000e+02 4.770000000000000000e+02 4.780000000000000000e+02 4.790000000000000000e+02 4.800000000000000000e+02 4.810000000000000000e+02 4.820000000000000000e+02 4.830000000000000000e+02 4.840000000000000000e+02 4.850000000000000000e+02 4.860000000000000000e+02 4.870000000000000000e+02 4.880000000000000000e+02 4.890000000000000000e+02 4.900000000000000000e+02 4.910000000000000000e+02 4.920000000000000000e+02 4.930000000000000000e+02 4.940000000000000000e+02 4.950000000000000000e+02 4.960000000000000000e+02 4.970000000000000000e+02 4.980000000000000000e+02 4.990000000000000000e+02 5.000000000000000000e+02 5.010000000000000000e+02 5.020000000000000000e+02 5.030000000000000000e+02 5.040000000000000000e+02 5.050000000000000000e+02 5.060000000000000000e+02 5.070000000000000000e+02 5.080000000000000000e+02 5.090000000000000000e+02 5.100000000000000000e+02 5.110000000000000000e+02 5.120000000000000000e+02 5.130000000000000000e+02 5.140000000000000000e+02 5.150000000000000000e+02 5.160000000000000000e+02 5.170000000000000000e+02 5.180000000000000000e+02 5.190000000000000000e+02 5.200000000000000000e+02 5.210000000000000000e+02 5.220000000000000000e+02 5.230000000000000000e+02 5.240000000000000000e+02 5.250000000000000000e+02 5.260000000000000000e+02 5.270000000000000000e+02 5.280000000000000000e+02 5.290000000000000000e+02 5.300000000000000000e+02 5.310000000000000000e+02 5.320000000000000000e+02 5.330000000000000000e+02 5.340000000000000000e+02 5.350000000000000000e+02 5.360000000000000000e+02 5.370000000000000000e+02 5.380000000000000000e+02 5.390000000000000000e+02 5.400000000000000000e+02 5.410000000000000000e+02 5.420000000000000000e+02 5.430000000000000000e+02 5.440000000000000000e+02 5.450000000000000000e+02 5.460000000000000000e+02 5.470000000000000000e+02 5.480000000000000000e+02 5.490000000000000000e+02 5.500000000000000000e+02 5.510000000000000000e+02 5.520000000000000000e+02 5.530000000000000000e+02 5.540000000000000000e+02 5.550000000000000000e+02 5.560000000000000000e+02 5.570000000000000000e+02 5.580000000000000000e+02 5.590000000000000000e+02 5.600000000000000000e+02 5.610000000000000000e+02 5.620000000000000000e+02 5.630000000000000000e+02 5.640000000000000000e+02 5.650000000000000000e+02 5.660000000000000000e+02 5.670000000000000000e+02 5.680000000000000000e+02 5.690000000000000000e+02 5.700000000000000000e+02 5.710000000000000000e+02 5.720000000000000000e+02 5.730000000000000000e+02 5.740000000000000000e+02 5.750000000000000000e+02 5.760000000000000000e+02 5.770000000000000000e+02 5.780000000000000000e+02 5.790000000000000000e+02 5.800000000000000000e+02 5.810000000000000000e+02 5.820000000000000000e+02 5.830000000000000000e+02 5.840000000000000000e+02 5.850000000000000000e+02 5.860000000000000000e+02 5.870000000000000000e+02 5.880000000000000000e+02 5.890000000000000000e+02 5.900000000000000000e+02 5.910000000000000000e+02 5.920000000000000000e+02 5.930000000000000000e+02 5.940000000000000000e+02 5.950000000000000000e+02 5.960000000000000000e+02 5.970000000000000000e+02 5.980000000000000000e+02 5.990000000000000000e+02 6.000000000000000000e+02 6.010000000000000000e+02 6.020000000000000000e+02 6.030000000000000000e+02 6.040000000000000000e+02 6.050000000000000000e+02 6.060000000000000000e+02 6.070000000000000000e+02 6.080000000000000000e+02 6.090000000000000000e+02 6.100000000000000000e+02 6.110000000000000000e+02 6.120000000000000000e+02 6.130000000000000000e+02 6.140000000000000000e+02 6.150000000000000000e+02 6.160000000000000000e+02 6.170000000000000000e+02 6.180000000000000000e+02 6.190000000000000000e+02 6.200000000000000000e+02 6.210000000000000000e+02 6.220000000000000000e+02 6.230000000000000000e+02 6.240000000000000000e+02 6.250000000000000000e+02 6.260000000000000000e+02 6.270000000000000000e+02 6.280000000000000000e+02 6.290000000000000000e+02 6.300000000000000000e+02 6.310000000000000000e+02 6.320000000000000000e+02 6.330000000000000000e+02 6.340000000000000000e+02 6.350000000000000000e+02 6.360000000000000000e+02 6.370000000000000000e+02 6.380000000000000000e+02 6.390000000000000000e+02 6.400000000000000000e+02 6.410000000000000000e+02 6.420000000000000000e+02 6.430000000000000000e+02 6.440000000000000000e+02 6.450000000000000000e+02 6.460000000000000000e+02 6.470000000000000000e+02 6.480000000000000000e+02 6.490000000000000000e+02 6.500000000000000000e+02 6.510000000000000000e+02 6.520000000000000000e+02 6.530000000000000000e+02 6.540000000000000000e+02 6.550000000000000000e+02 6.560000000000000000e+02 6.570000000000000000e+02 6.580000000000000000e+02 6.590000000000000000e+02 6.600000000000000000e+02 6.610000000000000000e+02 6.620000000000000000e+02 6.630000000000000000e+02 6.640000000000000000e+02 6.650000000000000000e+02 6.660000000000000000e+02 6.670000000000000000e+02 6.680000000000000000e+02 6.690000000000000000e+02 6.700000000000000000e+02 6.710000000000000000e+02 6.720000000000000000e+02 6.730000000000000000e+02 6.740000000000000000e+02 6.750000000000000000e+02 6.760000000000000000e+02 6.770000000000000000e+02 6.780000000000000000e+02 6.790000000000000000e+02 6.800000000000000000e+02 6.810000000000000000e+02 6.820000000000000000e+02 6.830000000000000000e+02 6.840000000000000000e+02 6.850000000000000000e+02 6.860000000000000000e+02 6.870000000000000000e+02 6.880000000000000000e+02 6.890000000000000000e+02 6.900000000000000000e+02 6.910000000000000000e+02 6.920000000000000000e+02 6.930000000000000000e+02 6.940000000000000000e+02 6.950000000000000000e+02 6.960000000000000000e+02 6.970000000000000000e+02 6.980000000000000000e+02 6.990000000000000000e+02 7.000000000000000000e+02 7.010000000000000000e+02 7.020000000000000000e+02 7.030000000000000000e+02 7.040000000000000000e+02 7.050000000000000000e+02 7.060000000000000000e+02 7.070000000000000000e+02 7.080000000000000000e+02 7.090000000000000000e+02 7.100000000000000000e+02 7.110000000000000000e+02 7.120000000000000000e+02 7.130000000000000000e+02 7.140000000000000000e+02 7.150000000000000000e+02 7.160000000000000000e+02 7.170000000000000000e+02 7.180000000000000000e+02 7.190000000000000000e+02 7.200000000000000000e+02 7.210000000000000000e+02 7.220000000000000000e+02 7.230000000000000000e+02 7.240000000000000000e+02 7.250000000000000000e+02 7.260000000000000000e+02 7.270000000000000000e+02 7.280000000000000000e+02 7.290000000000000000e+02 7.300000000000000000e+02 7.310000000000000000e+02 7.320000000000000000e+02 7.330000000000000000e+02 7.340000000000000000e+02 7.350000000000000000e+02 7.360000000000000000e+02 7.370000000000000000e+02 7.380000000000000000e+02 7.390000000000000000e+02 7.400000000000000000e+02 7.410000000000000000e+02 7.420000000000000000e+02 7.430000000000000000e+02 7.440000000000000000e+02 7.450000000000000000e+02 7.460000000000000000e+02 7.470000000000000000e+02 7.480000000000000000e+02 7.490000000000000000e+02 7.500000000000000000e+02 7.510000000000000000e+02 7.520000000000000000e+02 7.530000000000000000e+02 7.540000000000000000e+02 7.550000000000000000e+02 7.560000000000000000e+02 7.570000000000000000e+02 7.580000000000000000e+02 7.590000000000000000e+02 7.600000000000000000e+02 7.610000000000000000e+02 7.620000000000000000e+02 7.630000000000000000e+02 7.640000000000000000e+02 7.650000000000000000e+02 7.660000000000000000e+02 7.670000000000000000e+02 7.680000000000000000e+02 7.690000000000000000e+02 7.700000000000000000e+02 7.710000000000000000e+02 7.720000000000000000e+02 7.730000000000000000e+02 7.740000000000000000e+02 7.750000000000000000e+02 7.760000000000000000e+02 7.770000000000000000e+02 7.780000000000000000e+02 7.790000000000000000e+02 7.800000000000000000e+02 7.810000000000000000e+02 7.820000000000000000e+02 7.830000000000000000e+02 7.840000000000000000e+02 7.850000000000000000e+02 7.860000000000000000e+02 7.870000000000000000e+02 7.880000000000000000e+02 7.890000000000000000e+02 7.900000000000000000e+02 7.910000000000000000e+02 7.920000000000000000e+02 7.930000000000000000e+02 7.940000000000000000e+02 7.950000000000000000e+02 7.960000000000000000e+02 7.970000000000000000e+02 7.980000000000000000e+02 7.990000000000000000e+02 8.000000000000000000e+02 8.010000000000000000e+02 8.020000000000000000e+02 8.030000000000000000e+02 8.040000000000000000e+02 8.050000000000000000e+02 8.060000000000000000e+02 8.070000000000000000e+02 8.080000000000000000e+02 8.090000000000000000e+02 8.100000000000000000e+02 8.110000000000000000e+02 8.120000000000000000e+02 8.130000000000000000e+02 8.140000000000000000e+02 8.150000000000000000e+02 8.160000000000000000e+02 8.170000000000000000e+02 8.180000000000000000e+02 8.190000000000000000e+02 8.200000000000000000e+02 8.210000000000000000e+02 8.220000000000000000e+02 8.230000000000000000e+02 8.240000000000000000e+02 8.250000000000000000e+02 8.260000000000000000e+02 8.270000000000000000e+02 8.280000000000000000e+02 8.290000000000000000e+02 8.300000000000000000e+02 8.310000000000000000e+02 8.320000000000000000e+02 8.330000000000000000e+02 8.340000000000000000e+02 8.350000000000000000e+02 8.360000000000000000e+02 8.370000000000000000e+02 8.380000000000000000e+02 8.390000000000000000e+02 8.400000000000000000e+02 8.410000000000000000e+02 8.420000000000000000e+02 8.430000000000000000e+02 8.440000000000000000e+02 8.450000000000000000e+02 8.460000000000000000e+02 8.470000000000000000e+02 8.480000000000000000e+02 8.490000000000000000e+02 8.500000000000000000e+02 8.510000000000000000e+02 8.520000000000000000e+02 8.530000000000000000e+02 8.540000000000000000e+02 8.550000000000000000e+02 8.560000000000000000e+02 8.570000000000000000e+02 8.580000000000000000e+02 8.590000000000000000e+02 8.600000000000000000e+02 8.610000000000000000e+02 8.620000000000000000e+02 8.630000000000000000e+02 8.640000000000000000e+02 8.650000000000000000e+02 8.660000000000000000e+02 8.670000000000000000e+02 8.680000000000000000e+02 8.690000000000000000e+02 8.700000000000000000e+02 8.710000000000000000e+02 8.720000000000000000e+02 8.730000000000000000e+02 8.740000000000000000e+02 8.750000000000000000e+02 8.760000000000000000e+02 8.770000000000000000e+02 8.780000000000000000e+02 8.790000000000000000e+02 8.800000000000000000e+02 8.810000000000000000e+02 8.820000000000000000e+02 8.830000000000000000e+02 8.840000000000000000e+02 8.850000000000000000e+02 8.860000000000000000e+02 8.870000000000000000e+02 8.880000000000000000e+02 8.890000000000000000e+02 8.900000000000000000e+02 8.910000000000000000e+02 8.920000000000000000e+02 8.930000000000000000e+02 8.940000000000000000e+02 8.950000000000000000e+02 8.960000000000000000e+02 8.970000000000000000e+02 8.980000000000000000e+02 8.990000000000000000e+02 9.000000000000000000e+02 9.010000000000000000e+02 9.020000000000000000e+02 9.030000000000000000e+02 9.040000000000000000e+02 9.050000000000000000e+02 9.060000000000000000e+02 9.070000000000000000e+02 9.080000000000000000e+02 9.090000000000000000e+02 9.100000000000000000e+02 9.110000000000000000e+02 9.120000000000000000e+02 9.130000000000000000e+02 9.140000000000000000e+02 9.150000000000000000e+02 9.160000000000000000e+02 9.170000000000000000e+02 9.180000000000000000e+02 9.190000000000000000e+02 9.200000000000000000e+02 9.210000000000000000e+02 9.220000000000000000e+02 9.230000000000000000e+02 9.240000000000000000e+02 9.250000000000000000e+02 9.260000000000000000e+02 9.270000000000000000e+02 9.280000000000000000e+02 9.290000000000000000e+02 9.300000000000000000e+02 9.310000000000000000e+02 9.320000000000000000e+02 9.330000000000000000e+02 9.340000000000000000e+02 9.350000000000000000e+02 9.360000000000000000e+02 9.370000000000000000e+02 9.380000000000000000e+02 9.390000000000000000e+02 9.400000000000000000e+02 9.410000000000000000e+02 9.420000000000000000e+02 9.430000000000000000e+02 9.440000000000000000e+02 9.450000000000000000e+02 9.460000000000000000e+02 9.470000000000000000e+02 9.480000000000000000e+02 9.490000000000000000e+02 9.500000000000000000e+02 9.510000000000000000e+02 9.520000000000000000e+02 9.530000000000000000e+02 9.540000000000000000e+02 9.550000000000000000e+02 9.560000000000000000e+02 9.570000000000000000e+02 9.580000000000000000e+02 9.590000000000000000e+02 9.600000000000000000e+02 9.610000000000000000e+02 9.620000000000000000e+02 9.630000000000000000e+02 9.640000000000000000e+02 9.650000000000000000e+02 9.660000000000000000e+02 9.670000000000000000e+02 9.680000000000000000e+02 9.690000000000000000e+02 9.700000000000000000e+02 9.710000000000000000e+02 9.720000000000000000e+02 9.730000000000000000e+02 9.740000000000000000e+02 9.750000000000000000e+02 9.760000000000000000e+02 9.770000000000000000e+02 9.780000000000000000e+02 9.790000000000000000e+02 9.800000000000000000e+02 9.810000000000000000e+02 9.820000000000000000e+02 9.830000000000000000e+02 9.840000000000000000e+02 9.850000000000000000e+02 9.860000000000000000e+02 9.870000000000000000e+02 9.880000000000000000e+02 9.890000000000000000e+02 9.900000000000000000e+02 9.910000000000000000e+02 9.920000000000000000e+02 9.930000000000000000e+02 9.940000000000000000e+02 9.950000000000000000e+02 9.960000000000000000e+02 9.970000000000000000e+02 9.980000000000000000e+02 9.990000000000000000e+02
1.000000000000000000e+00 1.000000000000000000e+00 1.000000000000000000e+00 1.000000000000000000e+00 1.000000000000000000e+00 1.000000000000000000e+00 1.000000000000000000e+00 1.000000000000000000e+00 1.000000000000000000e+00 1.000000000000000000e+00 1.000000000000000000e+00 1.000000000000000000e+00 1.000000000000000000e+00 1.000000000000000000e+00 1.000000000000000000e+00 1.000000000000000000e+00 1.000000000000000000e+00 1.000000000000000000e+00 1.000000000000000000e+00 1.000000000000000000e+00 1.000000000000000000e+00 1.000000000000000000e+00 1.000000000000000000e+00 1.000000000000000000e+00 1.000000000000000000e+00 1.000000000000000000e+00 1.000000000000000000e+00 1.000000000000000000e+00 1.000000000000000000e+00 1.000000000000000000e+00 1.000000000000000000e+00 1.000000000000000000e+00 1.000000000000000000e+00 1.000000000000000000e+00 1.000000000000000000e+00 1.000000000000000000e+00 1.000000000000000000e+00 1.000000000000000000e+00 1.000000000000000000e+00 1.000000000000000000e+00 1.000000000000000000e+00 1.000000000000000000e+00 1.000000000000000000e+00 1.000000000000000000e+00 1.000000000000000000e+00 1.000000000000000000e+00 1.000000000000000000e+00 1.000000000000000000e+00 1.000000000000000000e+00 1.000000000000000000e+00 1.000000000000000000e+00 1.000000000000000000e+00 1.000000000000000000e+00 1.000000000000000000e+00 1.000000000000000000e+00 1.000000000000000000e+00 1.000000000000000000e+00 1.000000000000000000e+00 1.000000000000000000e+00 1.000000000000000000e+00 1.000000000000000000e+00 1.000000000000000000e+00 1.000000000000000000e+00 1.000000000000000000e+00 1.000000000000000000e+00 1.000000000000000000e+00 1.000000000000000000e+00 1.000000000000000000e+00 1.000000000000000000e+00 1.000000000000000000e+00 1.000000000000000000e+00 1.000000000000000000e+00 1.000000000000000000e+00 1.000000000000000000e+00 1.000000000000000000e+00 1.000000000000000000e+00 1.000000000000000000e+00 1.000000000000000000e+00 1.000000000000000000e+00 1.000000000000000000e+00 1.000000000000000000e+00 1.000000000000000000e+00 1.000000000000000000e+00 1.000000000000000000e+00 1.000000000000000000e+00 1.000000000000000000e+00 1.000000000000000000e+00 1.000000000000000000e+00 1.000000000000000000e+00 1.000000000000000000e+00 1.000000000000000000e+00 1.000000000000000000e+00 1.000000000000000000e+00 1.000000000000000000e+00 1.000000000000000000e+00 1.000000000000000000e+00 1.000000000000000000e+00 1.000000000000000000e+00 1.000000000000000000e+00 1.000000000000000000e+00 1.000000000000000000e+00 1.000000000000000000e+00 1.000000000000000000e+00 1.000000000000000000e+00 1.000000000000000000e+00 1.000000000000000000e+00 1.000000000000000000e+00 1.000000000000000000e+00 1.000000000000000000e+00 1.000000000000000000e+00 1.000000000000000000e+00 1.000000000000000000e+00 1.000000000000000000e+00 1.000000000000000000e+00 1.000000000000000000e+00 1.000000000000000000e+00 1.000000000000000000e+00 1.000000000000000000e+00 1.000000000000000000e+00 1.000000000000000000e+00 1.000000000000000000e+00 1.000000000000000000e+00 1.000000000000000000e+00 1.000000000000000000e+00 1.000000000000000000e+00 1.000000000000000000e+00 1.000000000000000000e+00 1.000000000000000000e+00 1.000000000000000000e+00 1.000000000000000000e+00 1.000000000000000000e+00 1.000000000000000000e+00 1.000000000000000000e+00 1.000000000000000000e+00 1.000000000000000000e+00 1.000000000000000000e+00 1.000000000000000000e+00 1.000000000000000000e+00 1.000000000000000000e+00 1.000000000000000000e+00 1.000000000000000000e+00 1.000000000000000000e+00 1.000000000000000000e+00 1.000000000000000000e+00 1.000000000000000000e+00 1.000000000000000000e+00 1.000000000000000000e+00 1.000000000000000000e+00 1.000000000000000000e+00 1.000000000000000000e+00 1.000000000000000000e+00 1.000000000000000000e+00 1.000000000000000000e+00 1.000000000000000000e+00 1.000000000000000000e+00 1.000000000000000000e+00 1.000000000000000000e+00 1.000000000000000000e+00 1.000000000000000000e+00 1.000000000000000000e+00 1.000000000000000000e+00 1.000000000000000000e+00 1.000000000000000000e+00 1.000000000000000000e+00 1.000000000000000000e+00 1.000000000000000000e+00 1.000000000000000000e+00 1.000000000000000000e+00 1.000000000000000000e+00 1.000000000000000000e+00 1.000000000000000000e+00 1.000000000000000000e+00 1.000000000000000000e+00 1.000000000000000000e+00 1.000000000000000000e+00 1.000000000000000000e+00 1.000000000000000000e+00 1.000000000000000000e+00 1.000000000000000000e+00 1.000000000000000000e+00 1.000000000000000000e+00 1.000000000000000000e+00 1.000000000000000000e+00 1.000000000000000000e+00 1.000000000000000000e+00 1.000000000000000000e+00 1.000000000000000000e+00 1.000000000000000000e+00 1.000000000000000000e+00 1.000000000000000000e+00 1.000000000000000000e+00 1.000000000000000000e+00 1.000000000000000000e+00 1.000000000000000000e+00 1.000000000000000000e+00 1.000000000000000000e+00 1.000000000000000000e+00 1.000000000000000000e+00 1.000000000000000000e+00 1.000000000000000000e+00 1.000000000000000000e+00 1.000000000000000000e+00 1.000000000000000000e+00 1.000000000000000000e+00 1.000000000000000000e+00 1.000000000000000000e+00 1.000000000000000000e+00 1.000000000000000000e+00 1.000000000000000000e+00 1.000000000000000000e+00 1.000000000000000000e+00 1.000000000000000000e+00 1.000000000000000000e+00 1.000000000000000000e+00 1.000000000000000000e+00 1.000000000000000000e+00 1.000000000000000000e+00 1.000000000000000000e+00 1.000000000000000000e+00 1.000000000000000000e+00 1.000000000000000000e+00 1.000000000000000000e+00 1.000000000000000000e+00 1.000000000000000000e+00 1.000000000000000000e+00 1.000000000000000000e+00 1.000000000000000000e+00 1.000000000000000000e+00 1.000000000000000000e+00 1.000000000000000000e+00 1.000000000000000000e+00 1.000000000000000000e+00 1.000000000000000000e+00 1.000000000000000000e+00 1.000000000000000000e+00 1.000000000000000000e+00 1.000000000000000000e+00 1.000000000000000000e+00 1.000000000000000000e+00 1.000000000000000000e+00 1.000000000000000000e+00 1.000000000000000000e+00 1.000000000000000000e+00 1.000000000000000000e+00 1.000000000000000000e+00 1.000000000000000000e+00 1.000000000000000000e+00 1.000000000000000000e+00 1.000000000000000000e+00 1.000000000000000000e+00 1.000000000000000000e+00 1.000000000000000000e+00 1.000000000000000000e+00 1.000000000000000000e+00 1.000000000000000000e+00 1.000000000000000000e+00 1.000000000000000000e+00 1.000000000000000000e+00 1.000000000000000000e+00 1.000000000000000000e+00 1.000000000000000000e+00 1.000000000000000000e+00 1.000000000000000000e+00 1.000000000000000000e+00 1.000000000000000000e+00 1.000000000000000000e+00 1.000000000000000000e+00 1.000000000000000000e+00 1.000000000000000000e+00 1.000000000000000000e+00 1.000000000000000000e+00 1.000000000000000000e+00 1.000000000000000000e+00 1.000000000000000000e+00 1.000000000000000000e+00 1.000000000000000000e+00 1.000000000000000000e+00 1.000000000000000000e+00 1.000000000000000000e+00 1.000000000000000000e+00 1.000000000000000000e+00 1.000000000000000000e+00 1.000000000000000000e+00 1.000000000000000000e+00 1.000000000000000000e+00 1.000000000000000000e+00 1.000000000000000000e+00 1.000000000000000000e+00 1.000000000000000000e+00 1.000000000000000000e+00 1.000000000000000000e+00 1.000000000000000000e+00 1.000000000000000000e+00 1.000000000000000000e+00 1.000000000000000000e+00 1.000000000000000000e+00 1.000000000000000000e+00 1.000000000000000000e+00 1.000000000000000000e+00 1.000000000000000000e+00 1.000000000000000000e+00 1.000000000000000000e+00 1.000000000000000000e+00 1.000000000000000000e+00 1.000000000000000000e+00 1.000000000000000000e+00 1.000000000000000000e+00 1.000000000000000000e+00 1.000000000000000000e+00 1.000000000000000000e+00 1.000000000000000000e+00 1.000000000000000000e+00 1.000000000000000000e+00 1.000000000000000000e+00 1.000000000000000000e+00 1.000000000000000000e+00 1.000000000000000000e+00 1.000000000000000000e+00 1.000000000000000000e+00 1.000000000000000000e+00 1.000000000000000000e+00 1.000000000000000000e+00 1.000000000000000000e+00 1.000000000000000000e+00 1.000000000000000000e+00 1.000000000000000000e+00 1.000000000000000000e+00 1.000000000000000000e+00 1.000000000000000000e+00 1.000000000000000000e+00 1.000000000000000000e+00 1.000000000000000000e+00 1.000000000000000000e+00 1.000000000000000000e+00 1.000000000000000000e+00 1.000000000000000000e+00 1.000000000000000000e+00 1.000000000000000000e+00 1.000000000000000000e+00 1.000000000000000000e+00 1.000000000000000000e+00 1.000000000000000000e+00 1.000000000000000000e+00 1.000000000000000000e+00 1.000000000000000000e+00 1.000000000000000000e+00 1.000000000000000000e+00 1.000000000000000000e+00 1.000000000000000000e+00 1.000000000000000000e+00 1.000000000000000000e+00 1.000000000000000000e+00 1.000000000000000000e+00 1.000000000000000000e+00 1.000000000000000000e+00 1.000000000000000000e+00 1.000000000000000000e+00 1.000000000000000000e+00 1.000000000000000000e+00 1.000000000000000000e+00 1.000000000000000000e+00 1.000000000000000000e+00 1.000000000000000000e+00 1.000000000000000000e+00 1.000000000000000000e+00 1.000000000000000000e+00 1.000000000000000000e+00 1.000000000000000000e+00 1.000000000000000000e+00 1.000000000000000000e+00 1.000000000000000000e+00 1.000000000000000000e+00 1.000000000000000000e+00 1.000000000000000000e+00 1.000000000000000000e+00 1.000000000000000000e+00 1.000000000000000000e+00 1.000000000000000000e+00 1.000000000000000000e+00 1.000000000000000000e+00 1.000000000000000000e+00 1.000000000000000000e+00 1.000000000000000000e+00 1.000000000000000000e+00 1.000000000000000000e+00 1.000000000000000000e+00 1.000000000000000000e+00 1.000000000000000000e+00 1.000000000000000000e+00 1.000000000000000000e+00 1.000000000000000000e+00 1.000000000000000000e+00 1.000000000000000000e+00 1.000000000000000000e+00 1.000000000000000000e+00 1.000000000000000000e+00 1.000000000000000000e+00 1.000000000000000000e+00 1.000000000000000000e+00 1.000000000000000000e+00 1.000000000000000000e+00 1.000000000000000000e+00 1.000000000000000000e+00 1.000000000000000000e+00 1.000000000000000000e+00 1.000000000000000000e+00 1.000000000000000000e+00 1.000000000000000000e+00 1.000000000000000000e+00 1.000000000000000000e+00 1.000000000000000000e+00 1.000000000000000000e+00 1.000000000000000000e+00 1.000000000000000000e+00 1.000000000000000000e+00 1.000000000000000000e+00 1.000000000000000000e+00 1.000000000000000000e+00 1.000000000000000000e+00 1.000000000000000000e+00 1.000000000000000000e+00 1.000000000000000000e+00 1.000000000000000000e+00 1.000000000000000000e+00 1.000000000000000000e+00 1.000000000000000000e+00 1.000000000000000000e+00 1.000000000000000000e+00 1.000000000000000000e+00 1.000000000000000000e+00 1.000000000000000000e+00 1.000000000000000000e+00 1.000000000000000000e+00 1.000000000000000000e+00 1.000000000000000000e+00 1.000000000000000000e+00 1.000000000000000000e+00 1.000000000000000000e+00 1.000000000000000000e+00 1.000000000000000000e+00 1.000000000000000000e+00 1.000000000000000000e+00 1.000000000000000000e+00 1.000000000000000000e+00 1.000000000000000000e+00 1.000000000000000000e+00 1.000000000000000000e+00 1.000000000000000000e+00 1.000000000000000000e+00 1.000000000000000000e+00 1.000000000000000000e+00 1.000000000000000000e+00 1.000000000000000000e+00 1.000000000000000000e+00 1.000000000000000000e+00 1.000000000000000000e+00 1.000000000000000000e+00 1.000000000000000000e+00 1.000000000000000000e+00 1.000000000000000000e+00 1.000000000000000000e+00 1.000000000000000000e+00 1.000000000000000000e+00 1.000000000000000000e+00 1.000000000000000000e+00 1.000000000000000000e+00 1.000000000000000000e+00 1.000000000000000000e+00 1.000000000000000000e+00 1.000000000000000000e+00 1.000000000000000000e+00 1.000000000000000000e+00 1.000000000000000000e+00 1.000000000000000000e+00 1.000000000000000000e+00 1.000000000000000000e+00 1.000000000000000000e+00 1.000000000000000000e+00 1.000000000000000000e+00 1.000000000000000000e+00 1.000000000000000000e+00 1.000000000000000000e+00 1.000000000000000000e+00 1.000000000000000000e+00 1.000000000000000000e+00 1.000000000000000000e+00 1.000000000000000000e+00 1.000000000000000000e+00 1.000000000000000000e+00 1.000000000000000000e+00 1.000000000000000000e+00 1.000000000000000000e+00 1.000000000000000000e+00 1.000000000000000000e+00 1.000000000000000000e+00 1.000000000000000000e+00 1.000000000000000000e+00 1.000000000000000000e+00 1.000000000000000000e+00 1.000000000000000000e+00 1.000000000000000000e+00 1.000000000000000000e+00 1.000000000000000000e+00 1.000000000000000000e+00 1.000000000000000000e+00 1.000000000000000000e+00 1.000000000000000000e+00 1.000000000000000000e+00 1.000000000000000000e+00 1.000000000000000000e+00 1.000000000000000000e+00 1.000000000000000000e+00 1.000000000000000000e+00 1.000000000000000000e+00 1.000000000000000000e+00 1.000000000000000000e+00 1.000000000000000000e+00 1.000000000000000000e+00 1.000000000000000000e+00 1.000000000000000000e+00 1.000000000000000000e+00 1.000000000000000000e+00 1.000000000000000000e+00 1.000000000000000000e+00 1.000000000000000000e+00 1.000000000000000000e+00 1.000000000000000000e+00 1.000000000000000000e+00 1.000000000000000000e+00 1.000000000000000000e+00 1.000000000000000000e+00 1.000000000000000000e+00 1.000000000000000000e+00 1.000000000000000000e+00 1.000000000000000000e+00 1.000000000000000000e+00 1.000000000000000000e+00 1.000000000000000000e+00 1.000000000000000000e+00 1.000000000000000000e+00 1.000000000000000000e+00 1.000000000000000000e+00 1.000000000000000000e+00 1.000000000000000000e+00 1.000000000000000000e+00 1.000000000000000000e+00 1.000000000000000000e+00 1.000000000000000000e+00 1.000000000000000000e+00 1.000000000000000000e+00 1.000000000000000000e+00 1.000000000000000000e+00 1.000000000000000000e+00 1.000000000000000000e+00 1.000000000000000000e+00 1.000000000000000000e+00 1.000000000000000000e+00 1.000000000000000000e+00 1.000000000000000000e+00 1.000000000000000000e+00 1.000000000000000000e+00 1.000000000000000000e+00 1.000000000000000000e+00 1.000000000000000000e+00 1.000000000000000000e+00 1.000000000000000000e+00 1.000000000000000000e+00 1.000000000000000000e+00 1.000000000000000000e+00 1.000000000000000000e+00 1.000000000000000000e+00 1.000000000000000000e+00 1.000000000000000000e+00 1.000000000000000000e+00 1.000000000000000000e+00 1.000000000000000000e+00 1.000000000000000000e+00 1.000000000000000000e+00 1.000000000000000000e+00 1.000000000000000000e+00 1.000000000000000000e+00 1.000000000000000000e+00 1.000000000000000000e+00 1.000000000000000000e+00 1.000000000000000000e+00 1.000000000000000000e+00 1.000000000000000000e+00 1.000000000000000000e+00 1.000000000000000000e+00 1.000000000000000000e+00 1.000000000000000000e+00 1.000000000000000000e+00 1.000000000000000000e+00 1.000000000000000000e+00 1.000000000000000000e+00 1.000000000000000000e+00 1.000000000000000000e+00 1.000000000000000000e+00 1.000000000000000000e+00 1.000000000000000000e+00 1.000000000000000000e+00 1.000000000000000000e+00 1.000000000000000000e+00 1.000000000000000000e+00 1.000000000000000000e+00 1.000000000000000000e+00 1.000000000000000000e+00 1.000000000000000000e+00 1.000000000000000000e+00 1.000000000000000000e+00 1.000000000000000000e+00 1.000000000000000000e+00 1.000000000000000000e+00 1.000000000000000000e+00 1.000000000000000000e+00 1.000000000000000000e+00 1.000000000000000000e+00 1.000000000000000000e+00 1.000000000000000000e+00 1.000000000000000000e+00 1.000000000000000000e+00 1.000000000000000000e+00 1.000000000000000000e+00 1.000000000000000000e+00 1.000000000000000000e+00 1.000000000000000000e+00 1.000000000000000000e+00 1.000000000000000000e+00 1.000000000000000000e+00 1.000000000000000000e+00 1.000000000000000000e+00 1.000000000000000000e+00 1.000000000000000000e+00 1.000000000000000000e+00 1.000000000000000000e+00 1.000000000000000000e+00 1.000000000000000000e+00 1.000000000000000000e+00 1.000000000000000000e+00 1.000000000000000000e+00 1.000000000000000000e+00 1.000000000000000000e+00 1.000000000000000000e+00 1.000000000000000000e+00 1.000000000000000000e+00 1.000000000000000000e+00 1.000000000000000000e+00 1.000000000000000000e+00 1.000000000000000000e+00 1.000000000000000000e+00 1.000000000000000000e+00 1.000000000000000000e+00 1.000000000000000000e+00 1.000000000000000000e+00 1.000000000000000000e+00 1.000000000000000000e+00 1.000000000000000000e+00 1.000000000000000000e+00 1.000000000000000000e+00 1.000000000000000000e+00 1.000000000000000000e+00 1.000000000000000000e+00 1.000000000000000000e+00 1.000000000000000000e+00 1.000000000000000000e+00 1.000000000000000000e+00 1.000000000000000000e+00 1.000000000000000000e+00 1.000000000000000000e+00 1.000000000000000000e+00 1.000000000000000000e+00 1.000000000000000000e+00 1.000000000000000000e+00 1.000000000000000000e+00 1.000000000000000000e+00 1.000000000000000000e+00 1.000000000000000000e+00 1.000000000000000000e+00 1.000000000000000000e+00 1.000000000000000000e+00 1.000000000000000000e+00 1.000000000000000000e+00 1.000000000000000000e+00 1.000000000000000000e+00 1.000000000000000000e+00 1.000000000000000000e+00 1.000000000000000000e+00 1.000000000000000000e+00 1.000000000000000000e+00 1.000000000000000000e+00 1.000000000000000000e+00 1.000000000000000000e+00 1.000000000000000000e+00 1.000000000000000000e+00 1.000000000000000000e+00 1.000000000000000000e+00 1.000000000000000000e+00 1.000000000000000000e+00 1.000000000000000000e+00 1.000000000000000000e+00 1.000000000000000000e+00 1.000000000000000000e+00 1.000000000000000000e+00 1.000000000000000000e+00 1.000000000000000000e+00 1.000000000000000000e+00 1.000000000000000000e+00 1.000000000000000000e+00 1.000000000000000000e+00 1.000000000000000000e+00 1.000000000000000000e+00 1.000000000000000000e+00 1.000000000000000000e+00 1.000000000000000000e+00 1.000000000000000000e+00 1.000000000000000000e+00 1.000000000000000000e+00 1.000000000000000000e+00 1.000000000000000000e+00 1.000000000000000000e+00 1.000000000000000000e+00 1.000000000000000000e+00 1.000000000000000000e+00 1.000000000000000000e+00 1.000000000000000000e+00 1.000000000000000000e+00 1.000000000000000000e+00 1.000000000000000000e+00 1.000000000000000000e+00 1.000000000000000000e+00 1.000000000000000000e+00 1.000000000000000000e+00 1.000000000000000000e+00 1.000000000000000000e+00 1.000000000000000000e+00 1.000000000000000000e+00 1.000000000000000000e+00 1.000000000000000000e+00 1.000000000000000000e+00 1.000000000000000000e+00 1.000000000000000000e+00 1.000000000000000000e+00 1.000000000000000000e+00 1.000000000000000000e+00 1.000000000000000000e+00 1.000000000000000000e+00 1.000000000000000000e+00 1.000000000000000000e+00 1.000000000000000000e+00 1.000000000000000000e+00 1.000000000000000000e+00 1.000000000000000000e+00 1.000000000000000000e+00 1.000000000000000000e+00 1.000000000000000000e+00 1.000000000000000000e+00 1.000000000000000000e+00 1.000000000000000000e+00 1.000000000000000000e+00 1.000000000000000000e+00 1.000000000000000000e+00 1.000000000000000000e+00 1.000000000000000000e+00 1.000000000000000000e+00 1.000000000000000000e+00 1.000000000000000000e+00 1.000000000000000000e+00 1.000000000000000000e+00 1.000000000000000000e+00 1.000000000000000000e+00 1.000000000000000000e+00 1.000000000000000000e+00 1.000000000000000000e+00 1.000000000000000000e+00 1.000000000000000000e+00 1.000000000000000000e+00 1.000000000000000000e+00 1.000000000000000000e+00 1.000000000000000000e+00 1.000000000000000000e+00 1.000000000000000000e+00 1.000000000000000000e+00 1.000000000000000000e+00 1.000000000000000000e+00 1.000000000000000000e+00 1.000000000000000000e+00 1.000000000000000000e+00 1.000000000000000000e+00 1.000000000000000000e+00 1.000000000000000000e+00 1.000000000000000000e+00 1.000000000000000000e+00 1.000000000000000000e+00 1.000000000000000000e+00 1.000000000000000000e+00 1.000000000000000000e+00 1.000000000000000000e+00 1.000000000000000000e+00 1.000000000000000000e+00 1.000000000000000000e+00 1.000000000000000000e+00 1.000000000000000000e+00 1.000000000000000000e+00 1.000000000000000000e+00 1.000000000000000000e+00 1.000000000000000000e+00 1.000000000000000000e+00 1.000000000000000000e+00 1.000000000000000000e+00 1.000000000000000000e+00 1.000000000000000000e+00 1.000000000000000000e+00 1.000000000000000000e+00 1.000000000000000000e+00 1.000000000000000000e+00 1.000000000000000000e+00 1.000000000000000000e+00 1.000000000000000000e+00 1.000000000000000000e+00 1.000000000000000000e+00 1.000000000000000000e+00 1.000000000000000000e+00 1.000000000000000000e+00 1.000000000000000000e+00 1.000000000000000000e+00 1.000000000000000000e+00 1.000000000000000000e+00 1.000000000000000000e+00 1.000000000000000000e+00 1.000000000000000000e+00 1.000000000000000000e+00 1.000000000000000000e+00 1.000000000000000000e+00 1.000000000000000000e+00 1.000000000000000000e+00 1.000000000000000000e+00 1.000000000000000000e+00 1.000000000000000000e+00 1.000000000000000000e+00 1.000000000000000000e+00 1.000000000000000000e+00 1.000000000000000000e+00 1.000000000000000000e+00 1.000000000000000000e+00 1.000000000000000000e+00 1.000000000000000000e+00 1.000000000000000000e+00 1.000000000000000000e+00 1.000000000000000000e+00 1.000000000000000000e+00 1.000000000000000000e+00 1.000000000000000000e+00 1.000000000000000000e+00 1.000000000000000000e+00 1.000000000000000000e+00 1.000000000000000000e+00 1.000000000000000000e+00 1.000000000000000000e+00 1.000000000000000000e+00 1.000000000000000000e+00 1.000000000000000000e+00 1.000000000000000000e+00 1.000000000000000000e+00 1.000000000000000000e+00 1.000000000000000000e+00 1.000000000000000000e+00 1.000000000000000000e+00 1.000000000000000000e+00 1.000000000000000000e+00 1.000000000000000000e+00 1.000000000000000000e+00 1.000000000000000000e+00 1.000000000000000000e+00 1.000000000000000000e+00 1.000000000000000000e+00 1.000000000000000000e+00 1.000000000000000000e+00 1.000000000000000000e+00 1.000000000000000000e+00 1.000000000000000000e+00 1.000000000000000000e+00 1.000000000000000000e+00 1.000000000000000000e+00 1.000000000000000000e+00 1.000000000000000000e+00 1.000000000000000000e+00 1.000000000000000000e+00 1.000000000000000000e+00 1.000000000000000000e+00 1.000000000000000000e+00 1.000000000000000000e+00 1.000000000000000000e+00 1.000000000000000000e+00 1.000000000000000000e+00 1.000000000000000000e+00 1.000000000000000000e+00 1.000000000000000000e+00 1.000000000000000000e+00 1.000000000000000000e+00 1.000000000000000000e+00 1.000000000000000000e+00 1.000000000000000000e+00 1.000000000000000000e+00 1.000000000000000000e+00 1.000000000000000000e+00 1.000000000000000000e+00 1.000000000000000000e+00 1.000000000000000000e+00 1.000000000000000000e+00 1.000000000000000000e+00 1.000000000000000000e+00 1.000000000000000000e+00 1.000000000000000000e+00 1.000000000000000000e+00 1.000000000000000000e+00 1.000000000000000000e+00 1.000000000000000000e+00 1.000000000000000000e+00 1.000000000000000000e+00 1.000000000000000000e+00 1.000000000000000000e+00 1.000000000000000000e+00 1.000000000000000000e+00 1.000000000000000000e+00 1.000000000000000000e+00 1.000000000000000000e+00 1.000000000000000000e+00 1.000000000000000000e+00 1.000000000000000000e+00 1.000000000000000000e+00 1.000000000000000000e+00 1.000000000000000000e+00 1.000000000000000000e+00 1.000000000000000000e+00 1.000000000000000000e+00 1.000000000000000000e+00 1.000000000000000000e+00 1.000000000000000000e+00 1.000000000000000000e+00 1.000000000000000000e+00 1.000000000000000000e+00 1.000000000000000000e+00 1.000000000000000000e+00 1.000000000000000000e+00 1.000000000000000000e+00 1.000000000000000000e+00 1.000000000000000000e+00 1.000000000000000000e+00 1.000000000000000000e+00 1.000000000000000000e+00 1.000000000000000000e+00 1.000000000000000000e+00 1.000000000000000000e+00 1.000000000000000000e+00 1.000000000000000000e+00 1.000000000000000000e+00 1.000000000000000000e+00 1.000000000000000000e+00 1.000000000000000000e+00 1.000000000000000000e+00 1.000000000000000000e+00 1.000000000000000000e+00 1.000000000000000000e+00 1.000000000000000000e+00 1.000000000000000000e+00 1.000000000000000000e+00 1.000000000000000000e+00 1.000000000000000000e+00 1.000000000000000000e+00 1.000000000000000000e+00 1.000000000000000000e+00 1.000000000000000000e+00 1.000000000000000000e+00 1.000000000000000000e+00 1.000000000000000000e+00 1.000000000000000000e+00 1.000000000000000000e+00 1.000000000000000000e+00 1.000000000000000000e+00 1.000000000000000000e+00 1.000000000000000000e+00 1.000000000000000000e+00 1.000000000000000000e+00 1.000000000000000000e+00 1.000000000000000000e+00 1.000000000000000000e+00 1.000000000000000000e+00 1.000000000000000000e+00 1.000000000000000000e+00 1.000000000000000000e+00 1.000000000000000000e+00 1.000000000000000000e+00 1.000000000000000000e+00 1.000000000000000000e+00 1.000000000000000000e+00 1.000000000000000000e+00 1.000000000000000000e+00 1.000000000000000000e+00 1.000000000000000000e+00 1.000000000000000000e+00
3.993521819547588003e-02 5.026491179061941539e-01 -2.557792749076076566e-01 7.609797222532681538e-01 5.163496852882953903e-01 5.088976955639850086e-01 5.989807742341619612e-01 3.254646121819657623e-01 5.463275880626324854e-01 5.273534468388243468e-01 1.082723542433760233e+00 -7.087225617005307177e-01 1.411295143228007420e+00 4.590280042298093832e-01 5.185769861791039714e-01 4.019675278173262534e-01 8.688654599621647989e-01 9.787986748303180162e-01 7.271802062112940890e-01 5.194037776490885161e-01 3.789593522851841811e-01 9.875513841877128218e-01 3.861453957096255829e-01 5.156643554699406051e-01 8.281830081954195955e-02 6.691592084764175219e-01 3.876125457840051136e-01 6.863612752266343708e-01 5.529179606571188454e-01 1.597536389081902319e+00 5.022854166081507366e-01 6.083988484976080580e-01 7.189222053909551935e-01 5.266501602607743804e-01 6.999512269892478322e-01 4.544048200152872030e-01 5.254415995062432509e-01 1.815036620828045066e+00 -7.783189930806135026e-02 5.094766373013526195e-01 -1.905823196838950795e-01 -5.618289851747583219e-01 7.481033689364822159e-01 2.281535735449736202e-01 2.996213997523088368e-01 4.990659982898406621e-01 7.605945880011596438e-01 5.231511733716526225e-01 6.431779263236888644e-01 1.339306897265073182e-02 2.305195399923184313e-02 7.989569471465397532e-01 6.788065717915324759e-01 4.318804167250813730e-01 4.600081912902890258e-01 1.844325898581785500e-02 5.211140538077224660e-01 5.201782044245487624e-01 1.944209734872551776e-01 4.927195068069378792e-01 9.196781614233934254e-01 4.979198525552353538e-01 5.255688352004631581e-01 3.861455068539748070e-01 6.788863569642720197e-01 6.119325644357271887e-01 5.116346857100412260e-01 3.479317805936994468e-01 5.658948164051536001e-01 1.973100399062530791e-02 4.343113876075252455e-01 5.821414763188397234e-01 5.199300305926123356e-01 9.861796852547391121e-03 1.514334484048194929e+00 5.471029457376183069e-01 6.361910826946156616e-01 7.269495393157314744e-01 5.178288236220041085e-01 1.385433104934390203e+00 5.335743458064940992e-01 3.306215843041049873e-01 1.419708923533233857e+00 7.378070299447649916e-01 5.032546011814617026e-01 7.543195255331970328e-01 8.014299099871532439e-01 5.494313744152425905e-01 4.174148573594785860e-01 5.762269926581229385e-01 2.957193077679731164e-01 2.199139820887975105e+00 7.639239549277141439e-01 9.080212272676149721e-03 4.902449070227479222e-01 4.771108842329042088e-01 5.633598629691601856e-01 4.797658475577394332e-01 1.897028574181047755e-01 6.597660273920383789e-01 1.620621692434166317e+00 6.891886147143181374e-01 5.449560499292995797e-01 6.651255646305478386e-01 8.588993559543759426e-01 -2.095829163408847062e+00 -1.229683147991748715e+00 5.357763633302120576e-01 6.053429122967487475e-01 9.702259478432376794e-01 5.752788211459509693e-01 4.307295991334538776e-01 1.718733184880575637e-01 4.967702785711368141e-01 5.242369563048954184e-01 4.961990252517185507e-01 4.723707907920718374e-01 5.241069017338149116e-01 9.530792096223996701e-01 5.135560110176228266e-01 1.308724488074562320e+00 5.466183530730912565e-01 6.104670811554054888e-01 -4.779054399198608416e-01 5.214294930527220151e-01 1.958069988239306003e+00 5.485572565226135566e-01 5.500244455572610436e-01 6.816741457235024892e-01 5.280585202097586306e-01 5.418396877250839516e-01 5.196295087340644381e-01 4.274555662627789188e-01 3.918729331512010861e-01 -3.235358226234455459e-01 -1.693677873150051527e-01 6.550386967963913731e-01 5.335758111886638316e-02 1.003915157984285544e+00 6.041962894681798257e-01 5.039342421636670011e-01 8.685294266268007712e-01 5.631656504875941494e-01 5.451443615777226137e-01 5.200037740599667835e-01 4.802110883423883758e-02 9.396728062382020408e-01 -6.953152585931711427e-02 4.377760083159081272e-01 -9.026054441209573342e-01 7.639681946734305784e-01 -2.912306660799948710e-01 4.990754433582671457e-01 5.612401967879520059e-01 4.597796316195968402e-01 5.242468297646843967e-01 1.980623005189289243e+00 -1.279971283869369703e-01 8.186977733475742092e-01 6.790389938853738094e-01 5.413418426092205804e-01 4.198894453105767588e-01 5.019483010604250950e-01 5.196127074387265621e-01 1.075470498000612674e+00 2.117712351950629679e-01 8.512664633127566827e-01 3.432998725400588924e-01 4.442939051115583626e-01 6.593520485693722399e-01 5.444445029859674712e-01 7.627729360981514439e-01 4.990554144900047895e-01 5.157982252143435975e-01 4.040460399420414683e-01 4.721392617342178716e-02 2.027021414538578425e-01 9.695964829093522974e-02 7.507803341672841801e-01 1.142977607842965204e+00 6.884042888753085787e-01 5.261266732568566917e-01 -1.737043067120024598e-01 4.380155324829544394e-01 5.864688839371499096e-01 5.504205830711776937e-01 5.131349512190835904e-01 5.144056167011920033e-01 2.819959091131285955e+00 5.296494513020507666e-01 5.502634162824784347e-01 -9.033859848563554618e-01 5.440553636649934077e-01 5.327996159367575091e-01 1.929279184653482637e-01 5.225884910587118570e-01 9.389629100829620656e-01 5.344250106779226961e-01 5.595819472636415215e-01 4.675842942548787962e-01 6.308237178213111918e-01 4.906795329490115654e-01 8.963834960663924489e-01 6.015482057283385586e-01 5.432196171155571074e-01 5.595819537477405570e-01 2.258816689930516763e-01 1.293134231798532374e+00 5.595529920514382693e-01 4.221609136005759488e-01 4.277231699587183966e-01 -8.859170103418388675e-02 4.878101718652089747e-01 1.567689226033514571e-01 5.247981406310399111e-01 5.142887040284185307e-01 5.145258867362451083e-01 5.187714444781587053e-01 5.145133720319952086e-01 5.153480172668927217e-01 4.371223876780908069e-01 5.809435578398532973e-01 -7.126732197042346950e-01 6.101836400976645702e-01 4.098056609033269293e-01 3.674056125248847948e-01 6.144363647731427430e-02 1.317903580791851770e+00 9.640296549195858100e-01 4.944615302226811338e-01 -1.029611408768053571e-01 1.059952633499460228e+00 5.202209376313446931e-01 4.505465170608696224e-01 6.169198604870803626e-01 4.104935901178601299e-01 3.002852090574130162e-01 1.772641823488865787e-01 -1.583685848962145815e-01 -8.694832833538057582e-02 4.248944971651514857e-01 5.336810192264005437e-01 -1.113493984190096348e-01 4.297283713990893150e-01 5.136615702640339176e-01 4.961784111915470419e-01 -9.753037483117854567e-02 7.565165060088003823e-01 -2.313906383944690504e+00 6.151167490012890982e-01 -6.256269425703775422e-01 4.980775827265703781e-01 5.137662104608660130e-01 3.861460834523599006e-01 4.768573147368606047e-01 5.658995243614880488e-01 5.424919315265692710e-01 7.702574908544430610e-01 5.604386702954934352e-01 1.695203429716707566e+00 6.807548612636320495e-01 6.877282296739622991e-01 4.675812535511186807e-01 3.678234526089752543e-01 9.196781795535339254e-01 4.307016589177402044e-01 2.701158811009708227e+00 4.839726055862892395e-01 2.282474522710439824e-01 7.431099818086284170e-01 5.042815592638277833e-01 9.197194908089337817e-01 5.208675157945930057e-01 5.706016480765760956e-01 5.176980850432189030e-01 1.118457576047082291e+00 7.698157981338649147e-01 8.605305206279246777e-01 8.066211314229645435e-01 5.149465839773468279e-01 6.812744874052133470e-01 5.162641347766691036e-01 3.808502271300269748e-01 -7.306863680326061150e-01 3.875647512710301279e-01 5.509196884614355749e-01 5.633860826673887656e-01 5.333478000716155298e-01 4.961989964999689584e-01 6.089603601065947114e-01 5.489936643892631141e-01 -8.685086097360490420e-01 7.372821604123543926e-01 5.467279399634131787e-01 2.421719921923133449e-03 5.346474208566563968e-01 1.853562348554101513e+00 5.057199893033080818e-01 5.197854417712937103e-01 4.377711432681488102e-01 -3.446071670627332661e+00 5.148777726993633008e-01 2.859067336048966013e+00 7.623444159323834457e-01 5.124959966311892767e-01 -5.748382375219177609e-01 5.233076115269306161e-01 5.180392900067143369e-01 4.436862129144581446e-01 4.507204451148380531e-01 3.529458479320018993e-01 6.455240028080139192e-01 3.141638088137076457e-01 5.220065085465940280e-01 5.142270597996947412e-01 3.511334877704385127e-01 5.181039422053331789e-01 7.619399648886689969e-01 5.158220447945870424e-01 1.204386432101725024e+00 1.721228680886035742e-02 2.226557482358440865e+00 2.654349138615282211e+00 5.028690425652835305e-01 -2.214622846110985699e-01 4.014189400356980020e-01 4.007952474739062687e-01 7.352000223367892717e-01 1.384043249970558609e+00 5.340257148557959743e-01 1.129570939364454185e+00 5.185542888630749747e-01 1.218719048515774506e-01 1.256296591925150974e+00 4.879423173521083568e-01 5.479004130092562930e-01 5.092468018944018571e-01 9.017167292217869168e-01 -3.761385756041291106e+00 1.642247901138804256e+00 5.074896911575881298e-01 6.368375683343389104e-01 5.186569979102656491e-01 1.815036613481509020e+00 3.010604010399993147e-01 5.559002336684732981e-01 5.163930345352281126e-01 5.106666894833866710e-01 1.375364751401920937e+00 5.621239332894885088e-01 5.595818005362366288e-01 4.297301866778877044e-01 6.015482044526070382e-01 5.130597073714052714e-01 5.690508460015020198e-01 8.991948434888764607e-01 5.180130156149532761e-01 3.837663773602388306e-01 1.705281148648693512e-01 6.615969635345785305e-01 5.153400133969653352e-01 3.407794506150157443e-01 5.559002611382983794e-01 6.491726649045710396e-01 5.131808629392651255e-01 1.030050322861606249e+00 9.623897763764334146e-01 1.144851440391015274e+00 5.207325816161817444e-01 2.218703411694295802e-01 9.196781718749595935e-01 -1.094647091752916773e-01 9.335776245398366147e-01 6.297435416630856597e-01 1.680974057899686444e-02 5.542637199959653538e-01 9.366602906962026021e-01 3.865788752445982746e-01 4.997079028809144896e-01 2.932984921396932787e-01 -3.368153256467753542e-01 -2.485976805527400746e+00 4.974739824553823242e-01 6.015482034321653071e-01 6.015481497024675051e-01 4.993040929985492760e-01 3.899211372350606664e-01 -2.263159617420854586e-01 2.996254133215494053e-01 5.111933741366130324e-01 7.030691699550123408e-01 5.161063577955479209e-01 1.038365754220287318e+00 5.595817908877236402e-01 5.173846491084088672e-01 4.881556766681516835e-01 2.773288130027125598e-01 6.577956666886298764e-01 5.077033340304494269e-01 5.191380002182146569e-01 5.237784929592077532e-01 2.969366823058617322e-01 1.633589460412480238e-02 6.015482030330070451e-01 6.616920184790531234e-01 5.184360770735978452e-01 4.019558835785142503e-01 8.593729870887171218e-01 7.362709581842387108e-01 5.640230402291286360e-01 1.878702262622080843e+00 5.026325508401691122e-01 -3.113744461686675180e+00 7.607760135986442185e-01 1.530116006442732379e+00 5.771046368877207344e-01 -1.085422082242757158e+00 7.977068837688585656e-01 4.436691837097442859e-01 5.269502370944690872e-01 5.263916714496290616e-01 -3.756282125223123214e-01 5.181320575284826813e-01 1.072797839746946202e+00 4.915116088077945977e-01 -3.747524266006670990e-01 5.145649319914668007e-01 5.191455902977193393e-01 7.872626457045975856e-01 4.957137544477475677e-01 5.766856565910627452e-01 -5.317775752298961045e-01 5.609977378705500728e-01 5.218768852991304552e-01 6.198859741049460581e-01 5.099033937233857783e-01 7.684030551027412059e-01 5.211379625408379956e-01 6.102004177897437653e-01 5.675132220267520289e-01 5.094775455136018039e-01 2.711169758245961514e-01 3.064770876042428038e-01 3.426682288194554671e-01 9.659349883099175305e-01 5.534863416132902447e-01 3.219173054043390714e+00 6.582799761984827747e-01 6.469231821219382228e-01 5.507107999428494383e-01 5.818547730440595256e-01 2.476977152092079901e-02 4.893490116119822431e-01 4.936022252499683849e-01 5.210897845840491982e-01 1.160626897553830750e+00 7.680905039899520448e-01 5.267396509050138453e-01 4.413022800978748106e-01 1.118330732384170911e+00 5.408788152691582640e-01 5.700851074675469254e-01 5.291831534654797276e-01 8.087124433494529141e-01 5.209793123686138339e-01 9.367602678343253109e-01 5.241808475544648127e-01 5.183983456358000064e-01 1.830337514241141966e-02 5.274146992305115411e-01 7.036501248586491362e-03 3.148869175852826441e-01 4.047165404352570106e-01 5.777938940078792829e-01 7.830165200070271503e-01 5.101399740889286383e-01 3.877373109524779315e-01 8.962696124286063937e-02 5.107957903710901304e-01 5.438917028388059460e-01 4.526032314657829625e-01 2.980115246882006699e-02 5.188804111674352182e-01 2.506483059081049958e-01 5.182197991867768527e-01 4.128867520763211951e-01 1.260015861749998578e+00 7.716101569180932040e-01 5.375675513623575652e-01 2.550893630853440786e-01 7.457158507568112382e-01 4.346421619470680064e-01 9.968195436225708583e-01 6.001397871331611844e-01 6.061131743869652144e-01 6.987740646061912919e-01 2.005668776366034578e+00 4.700209896859893766e-01 4.920223010680560560e-01 5.117285575976378009e-01 7.372635827375757511e-01 5.666632936617879146e-01 8.522957704707858628e-01 -5.770389006654516040e-01 3.647651181415522137e-01 5.133798894057325368e-01 4.285824891144074389e-01 3.892417685327499433e-01 -6.243561214930979375e-01 3.870722119248605209e-01 5.142785249507153544e-01 7.329780103644590872e-01 6.679411645430748390e-01 1.504858700459227761e+00 5.154548472007407511e-01 5.133691537763616086e-01 -7.137508831764817208e-01 5.192845189795006755e-01 1.227672796386625631e+00 7.144927202965523083e-01 2.762769243630695537e-01 2.502560761811473689e-01 -1.740915280036195112e+00 5.380392116807384273e-01 1.859512723403811407e-01 1.103232908595725537e+00 8.207549980372177423e-01 5.203453081800143432e-01 5.324956892938043085e-01 6.088650341229366880e-01 7.610602894865154955e-01 4.346283582161078463e-01 5.575770331485014886e-01 2.729791222390358721e-02 5.388050739847617399e-01 5.847225940550605516e-01 4.940475383139539822e-01 5.098038829217741430e-01 4.715912557379295933e-01 1.219695203890101221e+00 -1.014925033072586746e-01 -2.389612632683667526e-01 4.160624391976698311e-01 5.511817801451129872e-01 5.369511393356357631e-01 5.306211748513947057e-01 -8.663431533841119414e-01 3.183980188431252856e+00 5.225134641843847128e-01 4.437834869005372052e-01 4.327137937477621432e-01 5.222580277810756622e-01 5.097649751398980467e-01 5.447542222181349647e-01 3.260140150162534889e-01 6.002550554583478970e-01 5.192055622981948115e-01 5.514474469760953790e-01 3.379479118944437865e-01 4.086997413489176223e-01 5.626899036501042950e-01 4.055492706532956015e-01 5.185943485137093356e-01 5.502516763645987075e-01 6.676179193414063517e-01 1.016052748062463484e+00 2.326644083154453035e+00 5.242291150470993477e-01 4.981438139246566754e-01 4.016129990598422683e-01 4.831807892685761607e-01 3.715902200592954285e-01 5.196689772891562864e-01 5.157826644090763857e-01 5.090729255007374610e-01 5.494446116119097168e-01 4.818112966603823599e-01 7.614280647220879050e-01 3.650826533913189009e-01 4.349876254084231730e-01 4.341635281641909039e-01 5.213446456864432310e-01 1.130456167124239270e-01 9.196781756742755665e-01 5.691414353297522544e-01 1.078314783493531243e-01 1.912310423264897530e+00 2.950710204196116404e-01 4.162957924367224338e-01 5.925135687930918049e-01 6.394387170675003285e-02 5.387708896810208259e-01 1.520268858746028240e+00 7.879904796566218339e-01 7.311802075496331987e-01 5.160504644360923709e-01 5.479845040810461532e-01 4.524811980562011837e-01 6.593641883100064272e-01 5.497451940218259780e-01 5.149651530943191169e-01 -2.319426142051580209e-01 5.181477153655353884e-01 -1.519631766608140699e+00 4.814988182525627991e-01 5.101365060613418656e-01 5.069916825413792738e-01 4.377725238375301253e-01 9.196781757766439025e-01 2.203892396522724451e-01 5.298632716191613579e-01 1.350185417506589269e+00 -5.647159753212398492e-01 5.151825096218491939e-01 1.142921659658811206e+00 1.530985433511897531e+00 5.199298677427437454e-01 5.181560513800034240e-01 -5.829781265124500678e-02 -1.692384326815018269e+00 2.737409297512521378e-01 8.100246125933796559e-01 5.168306756471371388e-01 5.204414170493365521e-01 6.044560167048419475e-01 4.831982962960170713e-01 -4.133743636408444000e-01 8.242947861443278290e-01 4.961991085845565697e-01 3.289585290143099972e-01 5.437708843349232657e-01 -7.404465607421427224e-03 -1.692514587952711480e-01 1.804434240213283136e+00 4.129475645133876549e-01 5.295045435442643500e-01 5.143023474265562278e-01 3.245759190346308998e-01 5.608653945497427129e-01 -9.576051453203078545e-02 -1.210829381864708898e+00 5.221904272758470800e-01 5.448118783452441383e-01 5.002258815004507753e-01 6.075408307418079801e-01 5.080539602289384504e-01 5.458694936748851312e-01 5.517534541385061830e-01 5.687553760287217264e-01 1.034614055451858583e+00 7.204563709162172813e-01 5.076839614045888238e-01 6.051062873041487267e-01 4.711876872885159551e-01 4.604165060334861614e-01 4.211693163738652879e-02 5.559002682996619926e-01 4.601733340163650654e-01 5.181003371379033773e-01 7.581808662990563441e-01 8.926948088531941883e-01 8.522818870862298724e-01 -5.171254054710413550e-01 5.086068923186618518e-01 4.491132254938756119e-01 5.122655957155105577e-01 5.910991481090490662e-01 9.099500324803710960e-01 5.516741716684574470e-01 5.287277541614453513e-01 -2.705015328402420871e-01 -8.787502889070601952e-01 2.311068505225366110e+00 5.056642215483728720e-01 8.988907950735078867e-01 4.228819249115256529e-01 5.743134675827428204e-01 3.854834530210567989e-01 1.510055179721281615e-01 5.158486851814999552e-01 5.469085208740182003e-01 -5.470642685846336707e-03 5.140973266418140675e-01 4.359220468314988772e-01 5.133286971792166975e-01 6.060502901608333381e-01 5.211600842696253455e-01 6.190690386930024491e-01 4.130845260957915488e-01 5.353972368214802158e-01 4.467274326287343778e-01 5.119882180018638929e-01 4.137357878204122041e-01 5.352018273226513134e-01 -2.656418970709200078e-01 5.134147387052544476e-01 6.423357871459512980e-01 5.059867020000492488e-01 7.607206427446246977e-01 9.196782942340565592e-01 7.292022188812832262e-01 -6.034929895270375599e-01 9.843801950002792900e-01 1.815036620866660177e+00 4.970374536205867666e-01 4.637970666367894901e-01 1.081255980175647169e+00 5.683840599227817370e-01 7.605768175899584316e-01 5.145470390029724950e-01 1.847353048711982249e+00 5.176077782466046440e-01 4.297291882704320498e-01 1.234830367526043915e+00 -6.339410732836656126e-02 5.370051114725622465e-01 -1.590708894489142045e-01 -9.689973751977166705e-01 -1.690132911152003037e-01 7.728906634787032770e-01 5.736654460465333560e-01 5.097521625619231278e-01 -3.251467298271491502e-01 5.010898852330006870e-01 5.418920097726960539e-02 -3.901766258572200163e-01 5.115349069706918161e-01 5.204021761899862986e-01 5.289726479852325802e-01 5.427523856347759024e-01 5.067961763462097702e-01 9.125891347106802609e-01 -4.210613996989759911e-01 5.157676951192103898e-01 5.296784812882701088e-01 6.054423348184390097e-01 1.169805837208085286e+00 4.934058725108160237e-01 6.613450511722989145e-01 5.145476521623597588e-01 4.633740956727674942e-02 -3.762958259149451479e-01 5.449238388418606860e-01 5.573544573039331818e-01 6.831074535676556758e-01 5.259964717504750364e-01 3.536722564456563633e-01 5.173697062090198973e-01 5.149934121340751236e-01 3.807587613606495669e-01 5.256828632816565872e-01 8.398339881234113680e-01 2.568549992605360544e+00 -2.454192952081475088e-01 6.615311419338401056e-01 3.319317646206754735e-01 2.066229858838252997e-01 6.656033677861202813e-01 -5.701541633744344056e-02 -1.552936169217895568e+00 5.165045900085531994e-01 2.630418410635762427e+00 5.485634004934725194e-01 1.601473174040181913e-01 1.644509870246807226e-01 4.961990252832121362e-01 5.842316651215483381e-01 1.568042856888254954e+00 5.018817754341562409e-01 1.261026943615849716e-01 4.254184354580941574e-01 1.713747997711125848e+00 6.011039295228282064e-01 7.688304479272558556e-01 5.009036998909276450e-01 7.388495380614266139e-01 4.607074934620117301e-01 5.731231395590385969e-01 2.008920596579593168e-02 5.133705497747185209e-01 5.194664655820896426e-01 -5.768641557182566659e-01 -7.798031860029588924e-02 1.177812684913362773e+00 2.380562535140399449e-01 4.830787254996694036e-01 7.067321873999001802e-01 5.479739780463963594e-01 2.009999405274606854e+00 6.819041370288043691e-01 2.247265691292180123e-02 3.200394860472794978e-01 3.954891107062155076e-01 1.126227417484781501e+00 5.044433261676929403e-01 -2.759807906444977296e-02 5.141099212734666635e-01 -1.345071876365962378e-02 5.316852465615764523e-01 5.128205751329706352e-01 9.379712011671144422e-04 -4.339265138612352635e-02 6.664095521988286919e-01 5.673041313309622469e-01 5.812573018193407659e-01 2.326182157238005921e-01 4.342716159124946351e-01 5.084679916196527261e-01 5.080292173138122314e-01 5.358015550832382345e-01 4.792670431308952428e-01 6.041234044706271789e-01 1.018236440369175266e+00 3.144634640496150269e+00 9.421321253454757461e-01 5.178057777816260643e-01 6.169299278095382588e-01 2.155534452876693985e-01 5.160983165863632927e-01 8.513958836417603315e-01 5.008407445030123029e-01 1.316867943645765093e+00 4.518569365151505757e-01 -5.823582698630220822e-01 -1.851813934496298816e-02 4.102636963061014885e-01 6.139764659914096478e-01 5.413275613546827403e-01 5.124850634232083202e-01 4.914958828323625489e-02 5.014922379680212261e-01 4.322112016307429472e-01 -3.729896406870053305e+00 4.799989047040423840e-01 5.227676630465752927e-01 1.131622986396818353e+00 5.173047335588778495e-01 4.858432723837711187e-01 6.814414952006525583e-01 -8.936353581580593897e-01 -5.024431114798142417e-01 3.660359001043791971e-02 5.182668620927546321e-01 4.707593653810712153e-01 2.151882156192108930e-01 5.154270255505963849e-01 -3.407074134220422490e-01 5.932199006603694480e-01 5.169518086702280524e-01 6.955254087309155064e-01 5.468800794723071013e-01 4.705026588951605193e-01 1.527566972273500523e-01 -7.642532067409538721e-01 6.556262746154950527e-01 5.391047330491015588e-01 1.591449513954987516e-01 5.160163732354262622e-01 5.560758458226083834e-01 5.340549998940837817e-01 6.710354418490848127e-01 5.752902824296121098e-01 5.452115345305812433e-01 5.018701684854579570e-01 1.815036619478152202e+00 3.582598782260732473e-01 5.435606504451192533e-01 -1.255389016431598947e-01 5.468951311537345594e-01 6.317648571108290811e-01 5.219862065890584768e-01 4.905771298004203418e-01 3.574079010901828335e-01 9.427389026515470283e-01 1.210438999209745070e+00 5.560962053027190821e-01 5.839448790097193642e-01 5.965941029559993503e-01 4.765300881942387545e-01 5.268161623871289168e-01 5.177116972358868363e-01 9.843836641058307801e-01 7.083347957695316222e-01 -4.588833121970765094e-01 4.567378150282776494e-01 9.104166130734874240e-01 5.197099509562924657e-01 -2.379951026113508519e-02 5.283133258692657153e-01 1.382061253400339584e+00 -1.388838571350740625e-01 6.127438517588695843e-01 2.416677956793368554e-01 4.927845078491528974e-01 8.470865049237084055e-01 5.204491209692749809e-01 3.708325589632174846e-01 1.403415343067722976e+00 4.713778792339888835e-01 5.285070653341431557e-01 -6.731992437554855657e-01 4.479682433872138603e-01 1.041243156033897943e+00 6.098674171306818215e-01 7.714405929525618155e-02 9.759696289873407427e-01 -3.613120344664081524e-02 6.738380823238777628e-01 1.630034991513067855e+00 -8.609203937506738624e-01 5.794033397396517460e-01 5.173047341541129329e-01 -4.631639573028286105e-01 3.082403113705384223e-01 6.033654226733088377e-01 4.912453902675715245e-01 5.012797675945769305e-01 3.868113448272740285e-01 2.631329845011463053e-01 3.448550660838536341e-01 5.764828107149707614e-01 5.123970608778118940e-01 7.470655401150287124e-03 -1.212679111541025284e-01 5.038299695753897245e-01 1.064903126506734798e+00 4.819584525472703218e-01 -5.773601002030913643e-01 5.162286425993993788e-01 5.192892535461882675e-01 5.470027796773493378e-01 4.343931795150278441e-02 3.291967739586147967e-01 5.155156678039432006e-01 5.034206144061390553e-01 4.517254190343390485e-01 3.402133320723429478e-03 5.450674098716079552e-01 5.220006423947679552e-01 6.171026481364535465e-01 2.092199596279571416e+00 1.023618681422854134e-03 3.862327213905456524e-01 5.475177241489644908e-01 1.838677935017386966e+00 5.664114004795576252e-01 5.137807790896888882e-01 1.914477486967623016e-02 5.559002275117754799e-01 5.082930278358865905e-01 4.765789022411052733e-01 3.852089720683932184e-01 5.005131163917472259e-01 4.467017005344104397e-01 5.374176255103529920e-01 -5.403653328021867930e-01 5.176510310116022584e-01 5.388482721766506556e-01 5.440082646925450405e-01 1.144110975360609350e+00 5.207433752651312586e-01 -2.457673382888104496e-01 1.095885004054587331e+00 -1.280888350241486506e+00 -5.286166986814991864e-01 5.269203721081483494e-01 5.161563502950879956e-01 6.556246171231404629e-01 5.198866320524597739e-01 4.341751691711205896e-01 5.723908601702724086e-01 5.559002250129689848e-01 5.156497954786657401e-01 4.897360202805389751e-01 5.920594238856530245e-01 5.177703065498455715e-01 3.027951878576891076e-01 5.051472998952188931e-01 5.352004580970124437e-01 3.898317270407850588e-01 5.253267850461234012e-01 5.117126962762772457e-01 5.485841339547019579e-01 6.509363009640541931e-01 5.198462989540458823e-01 6.982642282095047337e-01 4.982080575382601406e-01 5.050890610007775505e-01 5.410082948008164694e-01 3.842912201325540122e-01 3.919693832968370595e-01 2.433186882634331472e+00 4.739491253285442740e-01 6.045422757319239837e-01 3.010241476842506203e-01 5.823787133581131981e-01 1.114732958540488372e+00 4.349057129214312090e-01 6.999084727488666946e-01 5.191154392662395978e-01
7.072168522432686899e-01 3.209249645240588866e-01 4.343359664740246706e-01 -7.439666959268991658e-03 3.122970347343475006e-01 3.344536031050497904e-01 5.349687492993836502e-01 4.206768873309844614e-01 3.110082731024581548e-01 3.293111146933594413e-01 2.060364697358361585e+00 1.721183071746887894e+00 -1.451846296857483454e+00 6.117417120509428541e-01 3.084001915448782438e-01 4.417514352953103574e-01 1.317689150019071276e-01 4.380820820202813715e-01 4.294461722493524980e-01 3.186697814929834727e-01 4.482141832736633025e-01 2.125786196106929982e+00 3.773372148546886851e-01 3.634685756779712507e-01 7.363414877013757520e-01 -2.023106444382561930e-01 4.347404468710063252e-01 2.085667862276900097e-01 2.769733377150225828e-01 -8.940733479644012993e-01 3.921290332684512769e-01 -1.414029401269823183e-01 2.889802213811860088e-01 3.377684241317840952e-01 -4.196297047863326024e-01 4.854309268306992720e-01 3.270896258711057381e-01 -3.678725085542851048e-01 -3.254949324654457410e+00 2.784853962778851000e-01 1.165400414510482596e+00 1.433332148968542163e-01 -1.671474735249987298e-01 7.917879437882791027e-01 5.991741733677420356e-01 3.287820486356323735e-01 -6.974164590338888595e-03 3.303995064595645070e-01 1.866162804972999467e-01 6.580661299362822181e-01 6.797536936679647868e-01 4.882248709283444899e-01 -2.026491137694899358e-01 2.212423222040345305e-01 6.002825840808885260e-01 6.521444023105367194e-01 3.409207044973046608e-01 2.440401700422508147e-01 3.461147885492456000e-01 3.571390548952643185e-01 4.284230922223162263e-01 4.259599783076260526e-01 3.162065825281795695e-01 3.773371983522908479e-01 -3.454775755630759559e-01 1.461310446421330844e-01 3.310709193516440663e-01 3.202213229465943889e-01 2.078764228340055364e-01 7.192051609858141070e-01 1.311209605685486057e-01 2.502791275425884643e-01 3.318673359832902126e-01 7.279512309633644485e-01 1.925800214816299594e+00 4.626733517581924637e-01 4.738347272831218704e-01 4.815498577161284044e-01 3.112648297942409159e-01 -1.342880485490945297e+00 3.173570526674873715e-01 5.822974550832464846e-01 2.344475299187573913e+00 8.614952532654590600e-02 2.629149598370283392e-01 -3.835234761347194876e-01 1.311139290208708508e-01 2.659551139035796763e-01 -5.789811546897107863e-01 -8.939650074729855733e-01 5.996216627088302165e-01 1.587347426058971722e+00 6.767969186523468961e-02 6.855419898199262008e-01 3.203258940044312331e-01 3.281575120455489936e-01 2.667058291082278765e-01 7.630282890012983765e-01 7.374871281849061377e-01 -2.060345642231667385e-01 -1.760268089036647610e-01 5.483730801649319003e-02 2.612825894392400983e-01 2.145229186122451781e-01 -3.207737923897082538e-02 3.121965928088310527e+00 -2.885329846628812978e-01 2.172851610502869457e-01 1.115257372289890220e-01 8.104280496241669240e-01 2.510937315524438551e-01 4.919880669531891404e-01 1.632556326749085018e-01 4.227737337199950485e-01 -4.812870155403243255e-01 2.250593893942518797e-01 1.583214920403259174e-01 4.343028773011843313e-01 1.098512997798365642e+00 3.205760959203650118e-01 -1.457976545832720516e+00 1.805675194485228952e-01 1.193890727354265519e-01 1.408705674723008672e+00 3.196482962978677289e-01 2.177830297805432025e+00 2.952007478182069877e-01 2.485216002950674796e-01 3.046951226862978368e-01 3.016181131561566642e-01 3.389467526196840441e-01 3.138592175381444416e-01 6.755433499179294143e-01 4.202130754837378190e-01 1.693100028907100207e-01 8.633471705328860102e-01 7.171691626626196525e-01 7.173731162764662717e-01 -3.358796440787740756e-01 2.067196050295719845e-01 3.282304178291134966e-01 3.218188230100996194e-01 3.204468076613998240e-01 2.480570189896020017e-01 3.135954810734351006e-01 6.967372935220257357e-01 -1.576939966790611158e-01 3.190470972159847318e-01 4.405209963882923963e-01 4.002261015352951978e-01 -2.336953612186773999e-01 2.475163239513480246e-02 3.287736290501155900e-01 2.680859076671609498e-01 3.081295077261465010e-01 3.040509778222243997e-01 -2.396539709770252102e+00 4.596231762587035252e-01 -5.994015623123724046e-01 -2.113122515890800412e-01 1.962302417465926763e-01 3.027777596722467934e-01 3.206450137667097300e-01 3.118252862075870380e-01 1.213951875530669550e-01 9.352996317402874349e-02 3.170418925022648882e-01 4.606415616354853082e-01 3.936448688879243818e-01 3.170209100646643741e-01 1.899115263305570511e-01 -5.169372157850239159e-03 3.288642905229743896e-01 3.073125537582441225e-01 -2.508892838090880595e+00 6.843199782721322011e-01 5.994163065460648143e-01 9.545488522358087646e-01 -4.576518369360569327e-01 1.172549376307475244e+00 1.361546688657954904e-02 3.065520407244859413e-01 1.239061339044198462e+00 3.171535123620362051e-01 3.093183410016318025e-01 2.692073966956153308e-01 3.720450543757278794e-01 2.847533310777120019e-01 -4.836036244528811312e-01 2.820741052184506659e-01 2.791244699280066022e-01 8.160673252602888006e-01 2.924368715570901944e-01 3.205958687147187347e-01 2.383580656323536495e-01 3.101191635908155941e-01 -1.662758101810881461e+00 2.979986558775463146e-01 2.850961794929476878e-01 3.457696985288709057e-01 6.174743544873844553e-02 3.323087465730801826e-01 3.859528988558755813e-01 1.416702539250851156e-01 -7.766136716245645166e-01 2.850961783718217180e-01 4.760541785662993353e-01 -5.158835446200855657e-01 3.602508091379719724e-01 1.814716184118911335e-01 2.443687442901850970e-01 -3.260798770703269067e+00 4.478778441514733033e-01 9.242557548596873618e-01 3.141230796431416783e-01 3.087081451426482159e-01 3.114690281989440090e-01 3.150581195773897725e-01 3.082354016981094791e-01 3.124987129208380288e-01 3.540959567032758160e-01 1.141922476151287641e-01 6.664496379909318202e-01 1.079236918252934330e-01 4.905810498727282143e-01 4.947188545351439704e-01 3.979610236791334965e-01 -6.774774448081374301e-01 2.295206908113064603e+00 3.974869324001492066e-01 1.242533415720108225e+00 -1.392325099650858711e+00 3.142257269250801066e-01 2.340519903501578625e-01 3.538222803957774554e-01 1.175032617383775291e+00 5.128882967165498963e-01 8.170221153984986717e-01 2.843289142769390154e-01 6.689213687886095272e-01 2.682769367431172558e-01 3.189491462030095703e-01 -1.172995835989509184e+00 4.097294596888498286e-01 3.095520553416331588e-01 4.942293338683321768e-01 8.926422641977613814e-01 -3.654108706452346977e-01 3.164224235668837260e+00 4.967921696824472155e-01 1.269567237368283585e+00 -2.160935453521365679e-01 3.004340396257646484e-01 3.773376685174258949e-01 3.320429008430246243e-01 2.367947052085662418e-01 3.736123114524556033e-01 -1.325593851991540284e-01 1.154208607369761469e-01 5.619839589725024176e-01 2.587401371656864457e-01 9.594424434404902335e-02 2.450336594694725867e-01 4.274153891054566223e-01 4.284230915653837179e-01 2.590604843054843953e-01 3.244217218745209408e+00 3.654303594569494607e-01 6.530613667623336172e-01 5.349000624424307127e-01 2.214111227817516236e-01 4.283196421656910169e-01 3.083914415434930723e-01 2.946045854459489188e-01 3.106180333616713751e-01 -5.740122806557386159e-01 4.430325325727066943e-01 2.853193852485059745e-01 1.354626230585751767e-01 2.992453978897861022e-01 1.537331730474751801e+00 3.346945898025602828e-01 3.034547496739292138e-01 1.998074820460862489e+00 5.027083070028738332e-01 2.708224830639101577e-01 2.638987512948958170e-01 3.456679001399146078e-01 2.250591270710720904e-01 -2.062476902452738958e+00 2.615107927648346875e-01 1.544109566709970460e+00 -4.817488438701052894e-02 3.556992966244693632e-01 6.868018401181302801e-01 3.042004999740393067e-01 -7.236584436897799399e-01 4.025569416376495457e-01 3.140209865385867882e-01 4.405040106787778131e-01 -3.929086680070219550e-01 3.124330133417567712e-01 -2.257678893402884857e+00 -5.605546298341811638e-03 3.232013092748030614e-01 6.013794308554060164e-01 3.090784971492722688e-01 3.108641516676540206e-01 4.829911480983644090e-01 1.882301197416590410e-01 -1.018530947676373755e-01 -7.659836058475757437e-01 1.881331259955107871e-04 6.872676438686635692e-01 3.078212435438900108e-01 5.011734436994437214e-01 3.048034301441491234e-01 -6.260446296453600623e-03 3.146969423685350709e-01 2.446148217498965494e+00 6.879527883019035395e-01 2.469234107869218708e-01 -1.161571952121914997e+00 2.269714843234358348e-01 4.697688858882886898e+00 3.719222710844080071e-01 -1.576203795441467326e-01 5.705848209471675592e-01 -5.596912370013066962e+00 5.189571105168023779e-01 1.552560033964035746e+00 3.130868177061287283e-01 5.322923005528041873e-01 -4.456014380923828400e-01 4.273879647218017941e-01 3.060580448611717186e-01 2.895772983029015757e-01 2.308532754681951460e-01 2.937993376619977060e+00 -3.740862797590684963e-01 3.128532053560715287e-01 -1.918163051124041951e+00 2.980700312785407036e-01 -3.678725062886960551e-01 7.509118674497603507e-01 5.251268990890192168e-01 2.692201394236586331e-01 2.889575366764873254e-01 1.274078503256782069e+00 1.457071210663455352e-01 2.850962545337635268e-01 4.097281110184053388e-01 1.416702518970611724e-01 3.148455149697302335e-01 3.919153537447764291e-01 -6.131504909153335792e-01 3.118680784268478834e-01 5.537628415662109171e-01 3.898163403407216565e-01 1.684171180231787412e-01 3.129470888209052171e-01 4.889473348235264250e-01 5.251268484335399611e-01 4.491862447856071472e-01 3.139150434889635966e-01 1.826300972724588800e-01 4.133558944316289008e-01 3.429661293858632387e+00 3.050600943443004254e-01 1.316834575773241922e-01 4.284232901654912995e-01 8.448734800595947281e-01 4.675555676771122604e-01 -1.942121447268634338e-01 6.828565811583283685e-01 3.333947707734402077e-01 1.193139691908538386e-01 4.081693759056400639e-01 6.711137478365218900e-01 5.914883439634472939e-01 7.862381414208983177e-01 8.157427179641014714e-01 3.572648574913616648e-01 1.416702539417515616e-01 1.416703412213206892e-01 2.295846447419450376e-01 1.647920275332241946e-01 1.119948537836893854e+00 4.002196678584813427e-01 2.982511388597718360e-01 3.198318963606719967e-01 3.091757239120042633e-01 7.646554987570919337e-01 2.850965948699860641e-01 3.120091702344704454e-01 4.408821425836890739e-01 2.462489793203217758e-01 -6.359591455508860625e-01 3.176906163873693956e-01 3.038571621912636300e-01 3.821288868961928986e-01 6.882567170451903138e-01 7.065297953417407628e-01 1.416702529260711330e-01 9.168253652285623945e-02 3.144978156631544342e-01 4.896793110149491035e-01 -5.923559725291611677e-01 1.869752001244500417e-01 -3.520427704928477564e+00 1.972938872899391294e+00 6.353047332184837970e-01 -4.639824100089365300e-01 -7.571883475001899531e-03 2.057652591354389049e+00 3.135107643413447831e-01 6.423495968160176650e-01 -1.485209537546320485e-02 3.509020222269374489e-01 4.267651688182000913e-01 3.276278040642596756e-01 -4.922330374664632968e-01 3.346728951996234547e-01 2.062539745305836281e+00 3.125921456001451992e-01 -4.327964645402152533e-01 3.187924748892324023e-01 3.202013809592711424e-01 -1.455751864931257966e+00 3.004195254445518604e-01 3.642668365162299859e-01 4.031873587816572346e-01 1.495954937507227023e-01 3.095311702877619475e-01 2.102359765704140959e-01 3.072230792668942945e-01 -1.610517733351634340e-01 3.001937439484911319e-01 1.079634045340092940e-01 3.151032147588174737e-01 3.133839376291109868e-01 1.410343553824483856e-02 4.069916005804046222e-01 5.626330263448423574e-01 -1.391378070683513046e+00 -5.891169368969363385e-01 -1.127663032625426248e-01 1.011789328011853950e-01 2.260063104159789060e-01 4.308478948990595581e-01 3.619128576294373678e-01 7.296813410137370504e-01 -1.277518388586137144e-01 3.109776666683520818e-01 3.291068650979892540e-01 9.379176452805368380e-02 -1.608888680076046296e-01 3.357101135864604124e-01 4.588143276417312455e-01 4.795978832123037328e-01 2.933444286161659420e-01 2.696949704741550824e-01 3.126731761354541450e-01 2.519711928404086976e-01 3.085928421030345037e-01 5.012072541661829472e-01 3.887091187470381737e-01 3.114809816500781481e-01 6.830618131756496236e-01 3.332808571533342756e-01 7.365551156417502465e-01 3.331923074919820871e-02 5.372000306716917528e-01 2.536115750016249004e-01 -1.453231023973461822e+00 3.142479819057616974e-01 6.434734282907593750e-01 3.675562297472609319e-01 3.288573403789746274e-01 2.485173949488729273e-01 1.989420965524678619e-01 6.853170518324462890e-01 3.096697522877372433e-01 4.005546784659966830e-01 3.100162005996817682e-01 2.801125336705812541e-01 1.973470817461953908e-01 5.025861417915312712e-01 3.004505800641760760e-01 2.138295966091534328e-01 1.030768600929039963e-01 6.994783070804948266e-02 1.641334871511658022e+00 2.187250741875471916e-01 3.618477684801232885e-01 3.828437965906580920e-01 -8.465345767140296518e-01 3.753304506861182555e-01 2.721228088814362511e-01 4.254765698388995876e-01 -4.873664836638576248e-02 2.974830756736918658e-01 1.607633348332502043e+00 8.913524871606789413e-01 4.405043788196534305e-01 3.250235768836300942e-01 3.487314417735570826e-01 3.402271118356089974e-01 9.226660645753526069e-01 3.043439639728216850e+00 3.112217600810845974e-01 3.074218099239629104e-02 5.901456629910394325e-01 -2.065443717622721387e-01 3.091381381446875465e-01 3.128344875247220935e-01 1.072428158773294227e+00 3.116568701718985257e-01 -3.281326505287769368e-01 3.812874700956893625e-01 1.273816969458211323e-01 6.400563280332081106e-01 1.780640838044268870e+00 2.702406790623012589e-01 2.604768565949720505e-01 1.660419141561468415e+00 4.008626135110373578e-01 2.930879445137099526e-01 1.868501323769740097e-01 2.496186615561027666e-01 -7.022947491139757206e-03 5.001854986219995691e-01 2.405179412142779694e-01 7.285415923803409965e-01 2.683133615932346561e-01 2.507783395302777829e-01 3.111140236013982263e-01 4.327367474933653257e-01 3.636154826509221394e-01 2.586598547818617644e-01 9.001693557819421265e-01 5.103750240301063723e-01 4.687153699672207408e-01 2.627081853786035204e-01 2.653479365926862399e-01 3.177832448195924142e-01 5.885835929147383849e-01 7.734315908489358682e-01 3.608457017984522119e-01 3.026176880855476203e-01 5.221248669057272362e-01 3.131004244535008918e-01 7.216726896396177260e-01 2.563527721719854324e-01 4.620806357013377830e-01 -3.132494044461592297e-01 3.086516961269610282e-01 3.146507484812496314e-01 4.322668038392791789e-01 2.667274980353354641e-01 2.941692522170684110e-01 1.789292439449802430e+00 5.763019577408529104e-02 2.670830445692839450e-01 -1.881747710820158292e-01 1.646900535956004052e+00 1.151699229399806068e+00 4.359461094579999973e-02 -4.531001151520156478e-01 4.187343505180869951e-01 3.349581941358796833e-01 5.090176210637662457e-01 3.126288308019107287e-01 3.131069700109143650e-01 2.038682592060684085e-01 3.411473489258060598e-01 3.620084528838066196e-01 -7.664595182923951769e-03 -2.092233441851254205e-01 3.561929441937050633e-01 2.819015145178865311e-01 2.235195994178760803e-01 8.706325493597616427e-01 4.284230902191754065e-01 2.583971824591905775e-01 8.447977318413809611e-01 4.758025490367155941e-01 5.999054748663006364e-01 4.624131297854780498e-01 6.930411285265316579e-01 1.472381025876194682e+00 3.566088985092680241e-01 2.085684877100596246e+00 -2.379962287748675978e-02 1.454615194338978179e-01 3.113810857255030484e-01 2.629507689140909155e-01 3.536199163122765721e-01 3.170186586968856135e-01 3.172849675107525247e-01 3.117275136738728025e-01 3.624899008503451592e-01 1.967626058164283209e-01 -3.213245194787311965e-01 2.466368341492996830e-01 -7.200867418780466933e-02 3.115753112543753756e-01 4.404675210109731953e-01 4.284230901732413721e-01 2.151609856868389181e-01 1.986114697675613605e-01 -1.247599928160709526e+00 1.958620437070826670e+00 3.102083249564699940e-01 -7.285961107599829845e-01 2.973464815253883398e-01 3.082123193841724285e-01 3.083878734720841841e-01 -4.773720189383908519e+00 3.531713781831411048e+00 6.274348769134781012e-01 5.777337455970547875e-02 3.216587947916101364e-01 3.079535284289409702e-01 2.821111376471096555e-01 2.617301877710513480e+00 6.235053776500864009e-01 3.194569922946189910e-01 2.250593581200280580e-01 2.770241280015288132e-01 2.717895430002061352e-01 8.645309186967484738e-01 -3.762570186055358978e-01 -1.188145954419105976e+00 -1.214227267098739738e+00 3.112054442646755015e-01 3.054287684391259194e-01 7.238678871052679487e-01 3.685604553654796001e-01 1.393807831859819713e+00 4.778630539871773775e-01 3.097387800116493950e-01 2.993335580970429288e-01 3.323725308106065812e-01 3.134717070493167612e-01 3.122996653455656357e-01 6.465406238243418535e-01 2.691097178511943633e-01 6.576263199261618286e-01 2.255380730648136878e-01 4.026019718984657353e-02 3.124790774193704768e-01 1.860262696392843695e-01 3.548118453356547408e-01 2.698949496566545037e-01 6.527913423108812063e-01 5.251268763011355256e-01 3.852125690013170067e-01 3.079714637380017161e-01 3.111138253460322689e-01 2.654792942191328553e-01 1.607617877100255610e+00 1.886434023367614454e+00 3.114718861446409970e-01 3.650725122558095004e-01 3.084527146880147730e-01 1.619059825661131324e-01 2.291913135499394349e-01 3.126395094278416331e-01 2.953927832055783798e-01 3.245029655585993100e-01 8.000557160499344178e-01 8.815439575491252899e-01 2.349146201652700661e-01 1.865507349617752109e+00 2.725964944862360739e-01 -2.199674339101420073e-01 -2.730287784495352144e-01 -3.131875466382833539e-01 3.103339180127757113e-01 2.614121025514377084e-01 7.097408341233404361e-01 3.160128543851788985e-01 4.586465034162355847e-01 2.985693093182163471e-01 3.633585365201954520e-01 3.650003193173970151e-01 -1.580564715885983407e-02 1.017651295748707607e+00 3.355686598281369393e-01 4.235276893511922269e-01 3.144244789336030355e-01 3.582143044469630055e-01 2.943066889593216051e-01 3.920440751786610223e-01 -9.846611944443110775e-02 2.227464825484240796e-01 3.227722194182710558e-01 -6.845419533466468205e-03 4.284228933233965031e-01 1.107453795463752222e+00 9.582983295678284552e-01 -7.290273269899641972e-01 -3.678725085933238770e-01 6.550853246313699252e-01 -3.320076701674238517e+00 1.569461290555151489e+00 2.693482614921651752e-01 -7.845496859328841138e-03 3.076039672107641065e-01 8.889016041911819155e-01 3.075996483847710516e-01 4.097295254553857125e-01 -4.368599077328168545e-01 8.237087701392636907e-01 2.999632226447889183e-01 8.764744030169033806e-01 2.087537670372318299e+00 -3.761062434620958683e-01 -1.459825990779741733e+00 2.377467581859731283e-01 3.217724843275808766e-01 7.630434278933080350e-01 3.365123102305063729e-01 7.046080391385314279e-01 4.691220664957616582e-01 2.222545723574165799e-01 3.200016856794176690e-01 3.138853884372415082e-01 2.393320145133439880e-01 3.044261386545197290e-01 1.407883045974754221e+00 1.629264243701926906e+00 3.055536003229187281e-01 2.950791831289534262e-01 1.269631755673825968e-01 -2.432425185727717654e-01 2.132651997810826316e-01 -2.621869894325467437e-02 3.099253826396841105e-01 7.050915918691563755e-01 -4.909589830368295549e-01 2.770256551962110292e-01 2.853660113854076807e-01 1.529448999840836709e-01 3.092616507871786546e-01 2.245568564516960686e-01 3.106129418245353047e-01 3.088054197021040670e-01 1.110096837566350997e-02 2.746955263245618450e-01 4.371199229173119982e-01 1.119844109422279743e+00 1.104422096757850191e+00 9.271266142479229755e-01 1.981498263593571285e-01 7.830792891231831421e-01 1.424145228128311513e-01 4.812341102901511736e-01 -2.123800032486348854e+00 3.183734174891837965e-01 6.570469810537109545e-01 2.823330418879393400e-01 9.532980605890888359e-01 1.368950101776867490e+00 2.250593894682286489e-01 2.635172642053813519e-01 3.741866757307280578e-01 3.307425949341046278e-01 5.513861369509719390e-01 8.899385162429225282e-01 -7.855180644539516699e-01 1.878569955511779355e-01 6.952636094339861850e-02 3.321233970014721981e-01 3.419585923793380111e-01 7.699245099661289338e-01 -2.185574870702886308e-01 4.001149450318646772e-01 3.179961355481399909e-01 3.523680231220291392e-01 8.911146097577192782e-01 4.284033968837193673e-01 -2.134127798847215984e-01 8.591354847796949246e-01 -4.493170532464123984e-02 5.702871798351027977e-01 2.612340541764534563e-01 1.286165477708687721e+00 5.788106962991990123e-01 7.300836960962925337e-01 4.385979656460493037e-01 4.868466960056195281e-01 -5.553379981874358995e-01 2.451334913910339641e-01 7.612192514414248823e-01 3.038625324981032438e-01 6.250942469243367938e-01 2.632761892571712226e-01 3.141977017147959961e-01 7.255908054185838951e-01 1.449938803318098213e-01 -2.047803553538277033e+00 2.155448240618596245e-01 2.629174519436275337e-01 8.448052729479423872e-01 3.813902365118890803e-01 4.004348879424042829e-01 3.581462128228334874e-01 3.055270858483913332e-01 3.864954639199043029e-01 6.666786251730237589e-02 -1.621785073989721049e+00 7.548278699062213049e-01 2.518296933783467084e-01 3.123489189462861360e-01 2.075392930942638603e-01 8.222778817512662597e-01 3.135730177903221505e-01 -1.447334891929437928e-01 3.331069048614284656e-01 1.120826552108287411e+00 2.655815380666517456e-01 4.156046069653597241e-01 1.052839927533326225e+00 3.823769390773768539e-01 2.784077174888058170e+00 3.412701544633807149e-01 3.203763809588009437e-01 6.980336630478752857e-01 3.321146445498735500e-01 3.223134933575194649e-01 -2.103378566567016605e+00 4.288332325523585564e-01 3.339345392223627695e-01 5.160819008104293726e-01 3.148750464253851633e-01 2.163466537450735583e-01 -2.062600483108065486e-01 2.053256706017903888e+00 -5.196090893993929871e-01 8.283097328801852788e-01 3.105739722269482139e-01 3.093597579737158432e-01 8.103461726335327020e-01 3.518392625645735960e-01 1.332676478327943004e+00 1.954551943670388703e-01 3.520656074913043332e-01 -8.836553697770178628e-01 -1.332839947273938563e-01 -4.499574581321789668e-01 -3.953108485229364089e+00 2.953588691332396987e+00 3.749998064704224837e-02 3.064185509782078598e-01 -1.628662290378693367e+00 3.103023439640425485e-01 3.391507558078901696e-01 2.840524796505761729e-01 1.614265553411204646e-01 6.406528282843731992e-01 5.989512279742560397e-01 1.046636270631799093e+00 -3.678725086217803919e-01 -2.268917874180300387e-01 2.227128608280287692e-01 -1.187064122800420618e+00 2.612828502006103171e-01 -6.459292294131473433e-01 3.225952112759808976e-01 4.608213621453561282e-01 7.695558804621763227e-02 4.461792475738547981e-01 2.672486622319276139e-01 -6.114808846661196756e-02 2.185610833911365847e-01 2.923629956398871022e-01 3.622049670755022044e-01 3.120646944987101601e-01 3.092507333559364469e-01 -7.292530157350318731e-01 5.223313426460327591e-01 1.538338816195838898e+00 6.658178019216919041e-02 2.384122521128646532e-01 3.382709209255419514e-01 1.208742115833626896e+00 3.273078843293348306e-01 1.217500288199802189e-01 8.914732295876472978e-01 2.760643826325975270e-01 1.862557152201829380e+00 2.737920065661878510e-01 1.284419411915761255e+00 3.078266430685627220e-01 7.361190071761607445e-01 1.350663999610104637e+00 3.509089335710893764e-01 3.741372431332861126e-01 9.304830272311286343e-01 -1.880394102519377386e-01 -5.903005631714955403e-02 2.066446891744267156e-01 3.012205943113493989e-01 3.556543733442426025e-01 1.434105867064709994e-01 1.624005744472959145e-01 -3.694983231606004948e-01 1.292523884940752321e+00 2.865345929700930938e-01 3.115018442590948289e-01 -3.183800411295795385e+00 5.327491539255150288e-01 2.936082058485179336e-01 4.100963009014287897e-01 4.070649982910705678e-01 4.725527595875603226e-01 -1.085482629168457169e+00 6.196066361283681934e-01 2.841435897926675724e-01 3.173226330570693698e-01 1.030651113263192364e+00 4.582320207026340797e-01 3.177118097351518955e-01 -1.402437631489979575e+00 4.028072441843770224e-01 8.909648989575916778e-01 3.018470481422199092e-01 2.989641140291698362e-01 3.508220549147446632e-01 7.115262260683086204e-01 -6.549916917768582036e-02 3.123436748857829071e-01 3.333517896305431272e-01 8.391433741413613367e-02 6.733861796141695777e-01 2.997844618288958984e-01 7.136971378863357085e-01 1.717918137654003419e-01 6.897294219784899649e-01 -2.309660689568756586e-01 -1.507405897459547006e+00 3.069389817391137143e-01 -1.830825662660225464e-02 3.370541039897327895e-01 3.795029915936607434e-01 5.454463258651699037e-02 5.251268652741459819e-01 3.210937642555198313e-01 8.365788096756454628e-02 4.472939149281842108e-01 2.569129961014520180e-01 3.146597844364258934e-01 2.708288617013784316e-01 -8.378746721650921492e-01 3.032784410309148360e-01 3.168400302529209567e-01 3.243763895315395218e-01 -2.268313338654633360e-01 3.072294277223573400e-01 8.186405097532186703e-01 -5.606780212612676451e-01 1.115796854009684536e+00 6.119086664023992705e-01 2.511987664272057330e-01 3.133934549368906919e-01 -2.044415082070393908e+00 3.330257383989524422e-01 2.012052597386757291e-01 2.656021006398572304e-01 5.251269381389178648e-01 3.117023259187397533e-01 2.960108010104089415e-01 7.811900137504371178e-02 3.092249492621075846e-01 4.357147093508982327e-01 3.731647068828631286e-01 2.755820909962995446e-01 2.914676309183004688e-01 3.074074173758080675e-01 3.135833841555776269e-01 2.657644255014576795e-01 7.284752388356786901e-02 3.117063326908620091e-01 6.151100369856667971e-01 1.878057757034219954e-01 3.166896109344112809e-01 -1.369459970204449373e-01 1.642662478374827817e-01 5.835467413351134169e-01 4.467716156539541572e+00 3.423303075095076586e-01 9.204684890670984665e-02 5.535939196488994796e-01 1.901798352690359240e-01 1.552966599397890723e+00 3.530805770309159430e-01 6.458935103981252590e-01 3.163144905795860495e-01
