# 
#                 ----------------------------------------------------
#                 Data from a 3D direct N-body simulation. 
# 
#                 rows are i-particle; 
#                 coumns are :mass, tag, x ,y, z, vx, vy, vz, ax, ay, az
# 
#                 NTHU, Computational Physics 
# 
#                 ----------------------------------------------------
#                 Time = 0.0
0.000000000000000000e+00 1.000000000000000000e+00 2.000000000000000000e+00 3.000000000000000000e+00 4.000000000000000000e+00 5.000000000000000000e+00 6.000000000000000000e+00 7.000000000000000000e+00 8.000000000000000000e+00 9.000000000000000000e+00 1.000000000000000000e+01 1.100000000000000000e+01 1.200000000000000000e+01 1.300000000000000000e+01 1.400000000000000000e+01 1.500000000000000000e+01 1.600000000000000000e+01 1.700000000000000000e+01 1.800000000000000000e+01 1.900000000000000000e+01 2.000000000000000000e+01 2.100000000000000000e+01 2.200000000000000000e+01 2.300000000000000000e+01 2.400000000000000000e+01 2.500000000000000000e+01 2.600000000000000000e+01 2.700000000000000000e+01 2.800000000000000000e+01 2.900000000000000000e+01 3.000000000000000000e+01 3.100000000000000000e+01 3.200000000000000000e+01 3.300000000000000000e+01 3.400000000000000000e+01 3.500000000000000000e+01 3.600000000000000000e+01 3.700000000000000000e+01 3.800000000000000000e+01 3.900000000000000000e+01 4.000000000000000000e+01 4.100000000000000000e+01 4.200000000000000000e+01 4.300000000000000000e+01 4.400000000000000000e+01 4.500000000000000000e+01 4.600000000000000000e+01 4.700000000000000000e+01 4.800000000000000000e+01 4.900000000000000000e+01 5.000000000000000000e+01 5.100000000000000000e+01 5.200000000000000000e+01 5.300000000000000000e+01 5.400000000000000000e+01 5.500000000000000000e+01 5.600000000000000000e+01 5.700000000000000000e+01 5.800000000000000000e+01 5.900000000000000000e+01 6.000000000000000000e+01 6.100000000000000000e+01 6.200000000000000000e+01 6.300000000000000000e+01 6.400000000000000000e+01 6.500000000000000000e+01 6.600000000000000000e+01 6.700000000000000000e+01 6.800000000000000000e+01 6.900000000000000000e+01 7.000000000000000000e+01 7.100000000000000000e+01 7.200000000000000000e+01 7.300000000000000000e+01 7.400000000000000000e+01 7.500000000000000000e+01 7.600000000000000000e+01 7.700000000000000000e+01 7.800000000000000000e+01 7.900000000000000000e+01 8.000000000000000000e+01 8.100000000000000000e+01 8.200000000000000000e+01 8.300000000000000000e+01 8.400000000000000000e+01 8.500000000000000000e+01 8.600000000000000000e+01 8.700000000000000000e+01 8.800000000000000000e+01 8.900000000000000000e+01 9.000000000000000000e+01 9.100000000000000000e+01 9.200000000000000000e+01 9.300000000000000000e+01 9.400000000000000000e+01 9.500000000000000000e+01 9.600000000000000000e+01 9.700000000000000000e+01 9.800000000000000000e+01 9.900000000000000000e+01 1.000000000000000000e+02 1.010000000000000000e+02 1.020000000000000000e+02 1.030000000000000000e+02 1.040000000000000000e+02 1.050000000000000000e+02 1.060000000000000000e+02 1.070000000000000000e+02 1.080000000000000000e+02 1.090000000000000000e+02 1.100000000000000000e+02 1.110000000000000000e+02 1.120000000000000000e+02 1.130000000000000000e+02 1.140000000000000000e+02 1.150000000000000000e+02 1.160000000000000000e+02 1.170000000000000000e+02 1.180000000000000000e+02 1.190000000000000000e+02 1.200000000000000000e+02 1.210000000000000000e+02 1.220000000000000000e+02 1.230000000000000000e+02 1.240000000000000000e+02 1.250000000000000000e+02 1.260000000000000000e+02 1.270000000000000000e+02 1.280000000000000000e+02 1.290000000000000000e+02 1.300000000000000000e+02 1.310000000000000000e+02 1.320000000000000000e+02 1.330000000000000000e+02 1.340000000000000000e+02 1.350000000000000000e+02 1.360000000000000000e+02 1.370000000000000000e+02 1.380000000000000000e+02 1.390000000000000000e+02 1.400000000000000000e+02 1.410000000000000000e+02 1.420000000000000000e+02 1.430000000000000000e+02 1.440000000000000000e+02 1.450000000000000000e+02 1.460000000000000000e+02 1.470000000000000000e+02 1.480000000000000000e+02 1.490000000000000000e+02 1.500000000000000000e+02 1.510000000000000000e+02 1.520000000000000000e+02 1.530000000000000000e+02 1.540000000000000000e+02 1.550000000000000000e+02 1.560000000000000000e+02 1.570000000000000000e+02 1.580000000000000000e+02 1.590000000000000000e+02 1.600000000000000000e+02 1.610000000000000000e+02 1.620000000000000000e+02 1.630000000000000000e+02 1.640000000000000000e+02 1.650000000000000000e+02 1.660000000000000000e+02 1.670000000000000000e+02 1.680000000000000000e+02 1.690000000000000000e+02 1.700000000000000000e+02 1.710000000000000000e+02 1.720000000000000000e+02 1.730000000000000000e+02 1.740000000000000000e+02 1.750000000000000000e+02 1.760000000000000000e+02 1.770000000000000000e+02 1.780000000000000000e+02 1.790000000000000000e+02 1.800000000000000000e+02 1.810000000000000000e+02 1.820000000000000000e+02 1.830000000000000000e+02 1.840000000000000000e+02 1.850000000000000000e+02 1.860000000000000000e+02 1.870000000000000000e+02 1.880000000000000000e+02 1.890000000000000000e+02 1.900000000000000000e+02 1.910000000000000000e+02 1.920000000000000000e+02 1.930000000000000000e+02 1.940000000000000000e+02 1.950000000000000000e+02 1.960000000000000000e+02 1.970000000000000000e+02 1.980000000000000000e+02 1.990000000000000000e+02 2.000000000000000000e+02 2.010000000000000000e+02 2.020000000000000000e+02 2.030000000000000000e+02 2.040000000000000000e+02 2.050000000000000000e+02 2.060000000000000000e+02 2.070000000000000000e+02 2.080000000000000000e+02 2.090000000000000000e+02 2.100000000000000000e+02 2.110000000000000000e+02 2.120000000000000000e+02 2.130000000000000000e+02 2.140000000000000000e+02 2.150000000000000000e+02 2.160000000000000000e+02 2.170000000000000000e+02 2.180000000000000000e+02 2.190000000000000000e+02 2.200000000000000000e+02 2.210000000000000000e+02 2.220000000000000000e+02 2.230000000000000000e+02 2.240000000000000000e+02 2.250000000000000000e+02 2.260000000000000000e+02 2.270000000000000000e+02 2.280000000000000000e+02 2.290000000000000000e+02 2.300000000000000000e+02 2.310000000000000000e+02 2.320000000000000000e+02 2.330000000000000000e+02 2.340000000000000000e+02 2.350000000000000000e+02 2.360000000000000000e+02 2.370000000000000000e+02 2.380000000000000000e+02 2.390000000000000000e+02 2.400000000000000000e+02 2.410000000000000000e+02 2.420000000000000000e+02 2.430000000000000000e+02 2.440000000000000000e+02 2.450000000000000000e+02 2.460000000000000000e+02 2.470000000000000000e+02 2.480000000000000000e+02 2.490000000000000000e+02 2.500000000000000000e+02 2.510000000000000000e+02 2.520000000000000000e+02 2.530000000000000000e+02 2.540000000000000000e+02 2.550000000000000000e+02 2.560000000000000000e+02 2.570000000000000000e+02 2.580000000000000000e+02 2.590000000000000000e+02 2.600000000000000000e+02 2.610000000000000000e+02 2.620000000000000000e+02 2.630000000000000000e+02 2.640000000000000000e+02 2.650000000000000000e+02 2.660000000000000000e+02 2.670000000000000000e+02 2.680000000000000000e+02 2.690000000000000000e+02 2.700000000000000000e+02 2.710000000000000000e+02 2.720000000000000000e+02 2.730000000000000000e+02 2.740000000000000000e+02 2.750000000000000000e+02 2.760000000000000000e+02 2.770000000000000000e+02 2.780000000000000000e+02 2.790000000000000000e+02 2.800000000000000000e+02 2.810000000000000000e+02 2.820000000000000000e+02 2.830000000000000000e+02 2.840000000000000000e+02 2.850000000000000000e+02 2.860000000000000000e+02 2.870000000000000000e+02 2.880000000000000000e+02 2.890000000000000000e+02 2.900000000000000000e+02 2.910000000000000000e+02 2.920000000000000000e+02 2.930000000000000000e+02 2.940000000000000000e+02 2.950000000000000000e+02 2.960000000000000000e+02 2.970000000000000000e+02 2.980000000000000000e+02 2.990000000000000000e+02 3.000000000000000000e+02 3.010000000000000000e+02 3.020000000000000000e+02 3.030000000000000000e+02 3.040000000000000000e+02 3.050000000000000000e+02 3.060000000000000000e+02 3.070000000000000000e+02 3.080000000000000000e+02 3.090000000000000000e+02 3.100000000000000000e+02 3.110000000000000000e+02 3.120000000000000000e+02 3.130000000000000000e+02 3.140000000000000000e+02 3.150000000000000000e+02 3.160000000000000000e+02 3.170000000000000000e+02 3.180000000000000000e+02 3.190000000000000000e+02 3.200000000000000000e+02 3.210000000000000000e+02 3.220000000000000000e+02 3.230000000000000000e+02 3.240000000000000000e+02 3.250000000000000000e+02 3.260000000000000000e+02 3.270000000000000000e+02 3.280000000000000000e+02 3.290000000000000000e+02 3.300000000000000000e+02 3.310000000000000000e+02 3.320000000000000000e+02 3.330000000000000000e+02 3.340000000000000000e+02 3.350000000000000000e+02 3.360000000000000000e+02 3.370000000000000000e+02 3.380000000000000000e+02 3.390000000000000000e+02 3.400000000000000000e+02 3.410000000000000000e+02 3.420000000000000000e+02 3.430000000000000000e+02 3.440000000000000000e+02 3.450000000000000000e+02 3.460000000000000000e+02 3.470000000000000000e+02 3.480000000000000000e+02 3.490000000000000000e+02 3.500000000000000000e+02 3.510000000000000000e+02 3.520000000000000000e+02 3.530000000000000000e+02 3.540000000000000000e+02 3.550000000000000000e+02 3.560000000000000000e+02 3.570000000000000000e+02 3.580000000000000000e+02 3.590000000000000000e+02 3.600000000000000000e+02 3.610000000000000000e+02 3.620000000000000000e+02 3.630000000000000000e+02 3.640000000000000000e+02 3.650000000000000000e+02 3.660000000000000000e+02 3.670000000000000000e+02 3.680000000000000000e+02 3.690000000000000000e+02 3.700000000000000000e+02 3.710000000000000000e+02 3.720000000000000000e+02 3.730000000000000000e+02 3.740000000000000000e+02 3.750000000000000000e+02 3.760000000000000000e+02 3.770000000000000000e+02 3.780000000000000000e+02 3.790000000000000000e+02 3.800000000000000000e+02 3.810000000000000000e+02 3.820000000000000000e+02 3.830000000000000000e+02 3.840000000000000000e+02 3.850000000000000000e+02 3.860000000000000000e+02 3.870000000000000000e+02 3.880000000000000000e+02 3.890000000000000000e+02 3.900000000000000000e+02 3.910000000000000000e+02 3.920000000000000000e+02 3.930000000000000000e+02 3.940000000000000000e+02 3.950000000000000000e+02 3.960000000000000000e+02 3.970000000000000000e+02 3.980000000000000000e+02 3.990000000000000000e+02 4.000000000000000000e+02 4.010000000000000000e+02 4.020000000000000000e+02 4.030000000000000000e+02 4.040000000000000000e+02 4.050000000000000000e+02 4.060000000000000000e+02 4.070000000000000000e+02 4.080000000000000000e+02 4.090000000000000000e+02 4.100000000000000000e+02 4.110000000000000000e+02 4.120000000000000000e+02 4.130000000000000000e+02 4.140000000000000000e+02 4.150000000000000000e+02 4.160000000000000000e+02 4.170000000000000000e+02 4.180000000000000000e+02 4.190000000000000000e+02 4.200000000000000000e+02 4.210000000000000000e+02 4.220000000000000000e+02 4.230000000000000000e+02 4.240000000000000000e+02 4.250000000000000000e+02 4.260000000000000000e+02 4.270000000000000000e+02 4.280000000000000000e+02 4.290000000000000000e+02 4.300000000000000000e+02 4.310000000000000000e+02 4.320000000000000000e+02 4.330000000000000000e+02 4.340000000000000000e+02 4.350000000000000000e+02 4.360000000000000000e+02 4.370000000000000000e+02 4.380000000000000000e+02 4.390000000000000000e+02 4.400000000000000000e+02 4.410000000000000000e+02 4.420000000000000000e+02 4.430000000000000000e+02 4.440000000000000000e+02 4.450000000000000000e+02 4.460000000000000000e+02 4.470000000000000000e+02 4.480000000000000000e+02 4.490000000000000000e+02 4.500000000000000000e+02 4.510000000000000000e+02 4.520000000000000000e+02 4.530000000000000000e+02 4.540000000000000000e+02 4.550000000000000000e+02 4.560000000000000000e+02 4.570000000000000000e+02 4.580000000000000000e+02 4.590000000000000000e+02 4.600000000000000000e+02 4.610000000000000000e+02 4.620000000000000000e+02 4.630000000000000000e+02 4.640000000000000000e+02 4.650000000000000000e+02 4.660000000000000000e+02 4.670000000000000000e+02 4.680000000000000000e+02 4.690000000000000000e+02 4.700000000000000000e+02 4.710000000000000000e+02 4.720000000000000000e+02 4.730000000000000000e+02 4.740000000000000000e+02 4.750000000000000000e+02 4.760000000000000000e+02 4.770000000000000000e+02 4.780000000000000000e+02 4.790000000000000000e+02 4.800000000000000000e+02 4.810000000000000000e+02 4.820000000000000000e+02 4.830000000000000000e+02 4.840000000000000000e+02 4.850000000000000000e+02 4.860000000000000000e+02 4.870000000000000000e+02 4.880000000000000000e+02 4.890000000000000000e+02 4.900000000000000000e+02 4.910000000000000000e+02 4.920000000000000000e+02 4.930000000000000000e+02 4.940000000000000000e+02 4.950000000000000000e+02 4.960000000000000000e+02 4.970000000000000000e+02 4.980000000000000000e+02 4.990000000000000000e+02 5.000000000000000000e+02 5.010000000000000000e+02 5.020000000000000000e+02 5.030000000000000000e+02 5.040000000000000000e+02 5.050000000000000000e+02 5.060000000000000000e+02 5.070000000000000000e+02 5.080000000000000000e+02 5.090000000000000000e+02 5.100000000000000000e+02 5.110000000000000000e+02 5.120000000000000000e+02 5.130000000000000000e+02 5.140000000000000000e+02 5.150000000000000000e+02 5.160000000000000000e+02 5.170000000000000000e+02 5.180000000000000000e+02 5.190000000000000000e+02 5.200000000000000000e+02 5.210000000000000000e+02 5.220000000000000000e+02 5.230000000000000000e+02 5.240000000000000000e+02 5.250000000000000000e+02 5.260000000000000000e+02 5.270000000000000000e+02 5.280000000000000000e+02 5.290000000000000000e+02 5.300000000000000000e+02 5.310000000000000000e+02 5.320000000000000000e+02 5.330000000000000000e+02 5.340000000000000000e+02 5.350000000000000000e+02 5.360000000000000000e+02 5.370000000000000000e+02 5.380000000000000000e+02 5.390000000000000000e+02 5.400000000000000000e+02 5.410000000000000000e+02 5.420000000000000000e+02 5.430000000000000000e+02 5.440000000000000000e+02 5.450000000000000000e+02 5.460000000000000000e+02 5.470000000000000000e+02 5.480000000000000000e+02 5.490000000000000000e+02 5.500000000000000000e+02 5.510000000000000000e+02 5.520000000000000000e+02 5.530000000000000000e+02 5.540000000000000000e+02 5.550000000000000000e+02 5.560000000000000000e+02 5.570000000000000000e+02 5.580000000000000000e+02 5.590000000000000000e+02 5.600000000000000000e+02 5.610000000000000000e+02 5.620000000000000000e+02 5.630000000000000000e+02 5.640000000000000000e+02 5.650000000000000000e+02 5.660000000000000000e+02 5.670000000000000000e+02 5.680000000000000000e+02 5.690000000000000000e+02 5.700000000000000000e+02 5.710000000000000000e+02 5.720000000000000000e+02 5.730000000000000000e+02 5.740000000000000000e+02 5.750000000000000000e+02 5.760000000000000000e+02 5.770000000000000000e+02 5.780000000000000000e+02 5.790000000000000000e+02 5.800000000000000000e+02 5.810000000000000000e+02 5.820000000000000000e+02 5.830000000000000000e+02 5.840000000000000000e+02 5.850000000000000000e+02 5.860000000000000000e+02 5.870000000000000000e+02 5.880000000000000000e+02 5.890000000000000000e+02 5.900000000000000000e+02 5.910000000000000000e+02 5.920000000000000000e+02 5.930000000000000000e+02 5.940000000000000000e+02 5.950000000000000000e+02 5.960000000000000000e+02 5.970000000000000000e+02 5.980000000000000000e+02 5.990000000000000000e+02 6.000000000000000000e+02 6.010000000000000000e+02 6.020000000000000000e+02 6.030000000000000000e+02 6.040000000000000000e+02 6.050000000000000000e+02 6.060000000000000000e+02 6.070000000000000000e+02 6.080000000000000000e+02 6.090000000000000000e+02 6.100000000000000000e+02 6.110000000000000000e+02 6.120000000000000000e+02 6.130000000000000000e+02 6.140000000000000000e+02 6.150000000000000000e+02 6.160000000000000000e+02 6.170000000000000000e+02 6.180000000000000000e+02 6.190000000000000000e+02 6.200000000000000000e+02 6.210000000000000000e+02 6.220000000000000000e+02 6.230000000000000000e+02 6.240000000000000000e+02 6.250000000000000000e+02 6.260000000000000000e+02 6.270000000000000000e+02 6.280000000000000000e+02 6.290000000000000000e+02 6.300000000000000000e+02 6.310000000000000000e+02 6.320000000000000000e+02 6.330000000000000000e+02 6.340000000000000000e+02 6.350000000000000000e+02 6.360000000000000000e+02 6.370000000000000000e+02 6.380000000000000000e+02 6.390000000000000000e+02 6.400000000000000000e+02 6.410000000000000000e+02 6.420000000000000000e+02 6.430000000000000000e+02 6.440000000000000000e+02 6.450000000000000000e+02 6.460000000000000000e+02 6.470000000000000000e+02 6.480000000000000000e+02 6.490000000000000000e+02 6.500000000000000000e+02 6.510000000000000000e+02 6.520000000000000000e+02 6.530000000000000000e+02 6.540000000000000000e+02 6.550000000000000000e+02 6.560000000000000000e+02 6.570000000000000000e+02 6.580000000000000000e+02 6.590000000000000000e+02 6.600000000000000000e+02 6.610000000000000000e+02 6.620000000000000000e+02 6.630000000000000000e+02 6.640000000000000000e+02 6.650000000000000000e+02 6.660000000000000000e+02 6.670000000000000000e+02 6.680000000000000000e+02 6.690000000000000000e+02 6.700000000000000000e+02 6.710000000000000000e+02 6.720000000000000000e+02 6.730000000000000000e+02 6.740000000000000000e+02 6.750000000000000000e+02 6.760000000000000000e+02 6.770000000000000000e+02 6.780000000000000000e+02 6.790000000000000000e+02 6.800000000000000000e+02 6.810000000000000000e+02 6.820000000000000000e+02 6.830000000000000000e+02 6.840000000000000000e+02 6.850000000000000000e+02 6.860000000000000000e+02 6.870000000000000000e+02 6.880000000000000000e+02 6.890000000000000000e+02 6.900000000000000000e+02 6.910000000000000000e+02 6.920000000000000000e+02 6.930000000000000000e+02 6.940000000000000000e+02 6.950000000000000000e+02 6.960000000000000000e+02 6.970000000000000000e+02 6.980000000000000000e+02 6.990000000000000000e+02 7.000000000000000000e+02 7.010000000000000000e+02 7.020000000000000000e+02 7.030000000000000000e+02 7.040000000000000000e+02 7.050000000000000000e+02 7.060000000000000000e+02 7.070000000000000000e+02 7.080000000000000000e+02 7.090000000000000000e+02 7.100000000000000000e+02 7.110000000000000000e+02 7.120000000000000000e+02 7.130000000000000000e+02 7.140000000000000000e+02 7.150000000000000000e+02 7.160000000000000000e+02 7.170000000000000000e+02 7.180000000000000000e+02 7.190000000000000000e+02 7.200000000000000000e+02 7.210000000000000000e+02 7.220000000000000000e+02 7.230000000000000000e+02 7.240000000000000000e+02 7.250000000000000000e+02 7.260000000000000000e+02 7.270000000000000000e+02 7.280000000000000000e+02 7.290000000000000000e+02 7.300000000000000000e+02 7.310000000000000000e+02 7.320000000000000000e+02 7.330000000000000000e+02 7.340000000000000000e+02 7.350000000000000000e+02 7.360000000000000000e+02 7.370000000000000000e+02 7.380000000000000000e+02 7.390000000000000000e+02 7.400000000000000000e+02 7.410000000000000000e+02 7.420000000000000000e+02 7.430000000000000000e+02 7.440000000000000000e+02 7.450000000000000000e+02 7.460000000000000000e+02 7.470000000000000000e+02 7.480000000000000000e+02 7.490000000000000000e+02 7.500000000000000000e+02 7.510000000000000000e+02 7.520000000000000000e+02 7.530000000000000000e+02 7.540000000000000000e+02 7.550000000000000000e+02 7.560000000000000000e+02 7.570000000000000000e+02 7.580000000000000000e+02 7.590000000000000000e+02 7.600000000000000000e+02 7.610000000000000000e+02 7.620000000000000000e+02 7.630000000000000000e+02 7.640000000000000000e+02 7.650000000000000000e+02 7.660000000000000000e+02 7.670000000000000000e+02 7.680000000000000000e+02 7.690000000000000000e+02 7.700000000000000000e+02 7.710000000000000000e+02 7.720000000000000000e+02 7.730000000000000000e+02 7.740000000000000000e+02 7.750000000000000000e+02 7.760000000000000000e+02 7.770000000000000000e+02 7.780000000000000000e+02 7.790000000000000000e+02 7.800000000000000000e+02 7.810000000000000000e+02 7.820000000000000000e+02 7.830000000000000000e+02 7.840000000000000000e+02 7.850000000000000000e+02 7.860000000000000000e+02 7.870000000000000000e+02 7.880000000000000000e+02 7.890000000000000000e+02 7.900000000000000000e+02 7.910000000000000000e+02 7.920000000000000000e+02 7.930000000000000000e+02 7.940000000000000000e+02 7.950000000000000000e+02 7.960000000000000000e+02 7.970000000000000000e+02 7.980000000000000000e+02 7.990000000000000000e+02 8.000000000000000000e+02 8.010000000000000000e+02 8.020000000000000000e+02 8.030000000000000000e+02 8.040000000000000000e+02 8.050000000000000000e+02 8.060000000000000000e+02 8.070000000000000000e+02 8.080000000000000000e+02 8.090000000000000000e+02 8.100000000000000000e+02 8.110000000000000000e+02 8.120000000000000000e+02 8.130000000000000000e+02 8.140000000000000000e+02 8.150000000000000000e+02 8.160000000000000000e+02 8.170000000000000000e+02 8.180000000000000000e+02 8.190000000000000000e+02 8.200000000000000000e+02 8.210000000000000000e+02 8.220000000000000000e+02 8.230000000000000000e+02 8.240000000000000000e+02 8.250000000000000000e+02 8.260000000000000000e+02 8.270000000000000000e+02 8.280000000000000000e+02 8.290000000000000000e+02 8.300000000000000000e+02 8.310000000000000000e+02 8.320000000000000000e+02 8.330000000000000000e+02 8.340000000000000000e+02 8.350000000000000000e+02 8.360000000000000000e+02 8.370000000000000000e+02 8.380000000000000000e+02 8.390000000000000000e+02 8.400000000000000000e+02 8.410000000000000000e+02 8.420000000000000000e+02 8.430000000000000000e+02 8.440000000000000000e+02 8.450000000000000000e+02 8.460000000000000000e+02 8.470000000000000000e+02 8.480000000000000000e+02 8.490000000000000000e+02 8.500000000000000000e+02 8.510000000000000000e+02 8.520000000000000000e+02 8.530000000000000000e+02 8.540000000000000000e+02 8.550000000000000000e+02 8.560000000000000000e+02 8.570000000000000000e+02 8.580000000000000000e+02 8.590000000000000000e+02 8.600000000000000000e+02 8.610000000000000000e+02 8.620000000000000000e+02 8.630000000000000000e+02 8.640000000000000000e+02 8.650000000000000000e+02 8.660000000000000000e+02 8.670000000000000000e+02 8.680000000000000000e+02 8.690000000000000000e+02 8.700000000000000000e+02 8.710000000000000000e+02 8.720000000000000000e+02 8.730000000000000000e+02 8.740000000000000000e+02 8.750000000000000000e+02 8.760000000000000000e+02 8.770000000000000000e+02 8.780000000000000000e+02 8.790000000000000000e+02 8.800000000000000000e+02 8.810000000000000000e+02 8.820000000000000000e+02 8.830000000000000000e+02 8.840000000000000000e+02 8.850000000000000000e+02 8.860000000000000000e+02 8.870000000000000000e+02 8.880000000000000000e+02 8.890000000000000000e+02 8.900000000000000000e+02 8.910000000000000000e+02 8.920000000000000000e+02 8.930000000000000000e+02 8.940000000000000000e+02 8.950000000000000000e+02 8.960000000000000000e+02 8.970000000000000000e+02 8.980000000000000000e+02 8.990000000000000000e+02 9.000000000000000000e+02 9.010000000000000000e+02 9.020000000000000000e+02 9.030000000000000000e+02 9.040000000000000000e+02 9.050000000000000000e+02 9.060000000000000000e+02 9.070000000000000000e+02 9.080000000000000000e+02 9.090000000000000000e+02 9.100000000000000000e+02 9.110000000000000000e+02 9.120000000000000000e+02 9.130000000000000000e+02 9.140000000000000000e+02 9.150000000000000000e+02 9.160000000000000000e+02 9.170000000000000000e+02 9.180000000000000000e+02 9.190000000000000000e+02 9.200000000000000000e+02 9.210000000000000000e+02 9.220000000000000000e+02 9.230000000000000000e+02 9.240000000000000000e+02 9.250000000000000000e+02 9.260000000000000000e+02 9.270000000000000000e+02 9.280000000000000000e+02 9.290000000000000000e+02 9.300000000000000000e+02 9.310000000000000000e+02 9.320000000000000000e+02 9.330000000000000000e+02 9.340000000000000000e+02 9.350000000000000000e+02 9.360000000000000000e+02 9.370000000000000000e+02 9.380000000000000000e+02 9.390000000000000000e+02 9.400000000000000000e+02 9.410000000000000000e+02 9.420000000000000000e+02 9.430000000000000000e+02 9.440000000000000000e+02 9.450000000000000000e+02 9.460000000000000000e+02 9.470000000000000000e+02 9.480000000000000000e+02 9.490000000000000000e+02 9.500000000000000000e+02 9.510000000000000000e+02 9.520000000000000000e+02 9.530000000000000000e+02 9.540000000000000000e+02 9.550000000000000000e+02 9.560000000000000000e+02 9.570000000000000000e+02 9.580000000000000000e+02 9.590000000000000000e+02 9.600000000000000000e+02 9.610000000000000000e+02 9.620000000000000000e+02 9.630000000000000000e+02 9.640000000000000000e+02 9.650000000000000000e+02 9.660000000000000000e+02 9.670000000000000000e+02 9.680000000000000000e+02 9.690000000000000000e+02 9.700000000000000000e+02 9.710000000000000000e+02 9.720000000000000000e+02 9.730000000000000000e+02 9.740000000000000000e+02 9.750000000000000000e+02 9.760000000000000000e+02 9.770000000000000000e+02 9.780000000000000000e+02 9.790000000000000000e+02 9.800000000000000000e+02 9.810000000000000000e+02 9.820000000000000000e+02 9.830000000000000000e+02 9.840000000000000000e+02 9.850000000000000000e+02 9.860000000000000000e+02 9.870000000000000000e+02 9.880000000000000000e+02 9.890000000000000000e+02 9.900000000000000000e+02 9.910000000000000000e+02 9.920000000000000000e+02 9.930000000000000000e+02 9.940000000000000000e+02 9.950000000000000000e+02 9.960000000000000000e+02 9.970000000000000000e+02 9.980000000000000000e+02 9.990000000000000000e+02
1.000000000000000000e+00 1.000000000000000000e+00 1.000000000000000000e+00 1.000000000000000000e+00 1.000000000000000000e+00 1.000000000000000000e+00 1.000000000000000000e+00 1.000000000000000000e+00 1.000000000000000000e+00 1.000000000000000000e+00 1.000000000000000000e+00 1.000000000000000000e+00 1.000000000000000000e+00 1.000000000000000000e+00 1.000000000000000000e+00 1.000000000000000000e+00 1.000000000000000000e+00 1.000000000000000000e+00 1.000000000000000000e+00 1.000000000000000000e+00 1.000000000000000000e+00 1.000000000000000000e+00 1.000000000000000000e+00 1.000000000000000000e+00 1.000000000000000000e+00 1.000000000000000000e+00 1.000000000000000000e+00 1.000000000000000000e+00 1.000000000000000000e+00 1.000000000000000000e+00 1.000000000000000000e+00 1.000000000000000000e+00 1.000000000000000000e+00 1.000000000000000000e+00 1.000000000000000000e+00 1.000000000000000000e+00 1.000000000000000000e+00 1.000000000000000000e+00 1.000000000000000000e+00 1.000000000000000000e+00 1.000000000000000000e+00 1.000000000000000000e+00 1.000000000000000000e+00 1.000000000000000000e+00 1.000000000000000000e+00 1.000000000000000000e+00 1.000000000000000000e+00 1.000000000000000000e+00 1.000000000000000000e+00 1.000000000000000000e+00 1.000000000000000000e+00 1.000000000000000000e+00 1.000000000000000000e+00 1.000000000000000000e+00 1.000000000000000000e+00 1.000000000000000000e+00 1.000000000000000000e+00 1.000000000000000000e+00 1.000000000000000000e+00 1.000000000000000000e+00 1.000000000000000000e+00 1.000000000000000000e+00 1.000000000000000000e+00 1.000000000000000000e+00 1.000000000000000000e+00 1.000000000000000000e+00 1.000000000000000000e+00 1.000000000000000000e+00 1.000000000000000000e+00 1.000000000000000000e+00 1.000000000000000000e+00 1.000000000000000000e+00 1.000000000000000000e+00 1.000000000000000000e+00 1.000000000000000000e+00 1.000000000000000000e+00 1.000000000000000000e+00 1.000000000000000000e+00 1.000000000000000000e+00 1.000000000000000000e+00 1.000000000000000000e+00 1.000000000000000000e+00 1.000000000000000000e+00 1.000000000000000000e+00 1.000000000000000000e+00 1.000000000000000000e+00 1.000000000000000000e+00 1.000000000000000000e+00 1.000000000000000000e+00 1.000000000000000000e+00 1.000000000000000000e+00 1.000000000000000000e+00 1.000000000000000000e+00 1.000000000000000000e+00 1.000000000000000000e+00 1.000000000000000000e+00 1.000000000000000000e+00 1.000000000000000000e+00 1.000000000000000000e+00 1.000000000000000000e+00 1.000000000000000000e+00 1.000000000000000000e+00 1.000000000000000000e+00 1.000000000000000000e+00 1.000000000000000000e+00 1.000000000000000000e+00 1.000000000000000000e+00 1.000000000000000000e+00 1.000000000000000000e+00 1.000000000000000000e+00 1.000000000000000000e+00 1.000000000000000000e+00 1.000000000000000000e+00 1.000000000000000000e+00 1.000000000000000000e+00 1.000000000000000000e+00 1.000000000000000000e+00 1.000000000000000000e+00 1.000000000000000000e+00 1.000000000000000000e+00 1.000000000000000000e+00 1.000000000000000000e+00 1.000000000000000000e+00 1.000000000000000000e+00 1.000000000000000000e+00 1.000000000000000000e+00 1.000000000000000000e+00 1.000000000000000000e+00 1.000000000000000000e+00 1.000000000000000000e+00 1.000000000000000000e+00 1.000000000000000000e+00 1.000000000000000000e+00 1.000000000000000000e+00 1.000000000000000000e+00 1.000000000000000000e+00 1.000000000000000000e+00 1.000000000000000000e+00 1.000000000000000000e+00 1.000000000000000000e+00 1.000000000000000000e+00 1.000000000000000000e+00 1.000000000000000000e+00 1.000000000000000000e+00 1.000000000000000000e+00 1.000000000000000000e+00 1.000000000000000000e+00 1.000000000000000000e+00 1.000000000000000000e+00 1.000000000000000000e+00 1.000000000000000000e+00 1.000000000000000000e+00 1.000000000000000000e+00 1.000000000000000000e+00 1.000000000000000000e+00 1.000000000000000000e+00 1.000000000000000000e+00 1.000000000000000000e+00 1.000000000000000000e+00 1.000000000000000000e+00 1.000000000000000000e+00 1.000000000000000000e+00 1.000000000000000000e+00 1.000000000000000000e+00 1.000000000000000000e+00 1.000000000000000000e+00 1.000000000000000000e+00 1.000000000000000000e+00 1.000000000000000000e+00 1.000000000000000000e+00 1.000000000000000000e+00 1.000000000000000000e+00 1.000000000000000000e+00 1.000000000000000000e+00 1.000000000000000000e+00 1.000000000000000000e+00 1.000000000000000000e+00 1.000000000000000000e+00 1.000000000000000000e+00 1.000000000000000000e+00 1.000000000000000000e+00 1.000000000000000000e+00 1.000000000000000000e+00 1.000000000000000000e+00 1.000000000000000000e+00 1.000000000000000000e+00 1.000000000000000000e+00 1.000000000000000000e+00 1.000000000000000000e+00 1.000000000000000000e+00 1.000000000000000000e+00 1.000000000000000000e+00 1.000000000000000000e+00 1.000000000000000000e+00 1.000000000000000000e+00 1.000000000000000000e+00 1.000000000000000000e+00 1.000000000000000000e+00 1.000000000000000000e+00 1.000000000000000000e+00 1.000000000000000000e+00 1.000000000000000000e+00 1.000000000000000000e+00 1.000000000000000000e+00 1.000000000000000000e+00 1.000000000000000000e+00 1.000000000000000000e+00 1.000000000000000000e+00 1.000000000000000000e+00 1.000000000000000000e+00 1.000000000000000000e+00 1.000000000000000000e+00 1.000000000000000000e+00 1.000000000000000000e+00 1.000000000000000000e+00 1.000000000000000000e+00 1.000000000000000000e+00 1.000000000000000000e+00 1.000000000000000000e+00 1.000000000000000000e+00 1.000000000000000000e+00 1.000000000000000000e+00 1.000000000000000000e+00 1.000000000000000000e+00 1.000000000000000000e+00 1.000000000000000000e+00 1.000000000000000000e+00 1.000000000000000000e+00 1.000000000000000000e+00 1.000000000000000000e+00 1.000000000000000000e+00 1.000000000000000000e+00 1.000000000000000000e+00 1.000000000000000000e+00 1.000000000000000000e+00 1.000000000000000000e+00 1.000000000000000000e+00 1.000000000000000000e+00 1.000000000000000000e+00 1.000000000000000000e+00 1.000000000000000000e+00 1.000000000000000000e+00 1.000000000000000000e+00 1.000000000000000000e+00 1.000000000000000000e+00 1.000000000000000000e+00 1.000000000000000000e+00 1.000000000000000000e+00 1.000000000000000000e+00 1.000000000000000000e+00 1.000000000000000000e+00 1.000000000000000000e+00 1.000000000000000000e+00 1.000000000000000000e+00 1.000000000000000000e+00 1.000000000000000000e+00 1.000000000000000000e+00 1.000000000000000000e+00 1.000000000000000000e+00 1.000000000000000000e+00 1.000000000000000000e+00 1.000000000000000000e+00 1.000000000000000000e+00 1.000000000000000000e+00 1.000000000000000000e+00 1.000000000000000000e+00 1.000000000000000000e+00 1.000000000000000000e+00 1.000000000000000000e+00 1.000000000000000000e+00 1.000000000000000000e+00 1.000000000000000000e+00 1.000000000000000000e+00 1.000000000000000000e+00 1.000000000000000000e+00 1.000000000000000000e+00 1.000000000000000000e+00 1.000000000000000000e+00 1.000000000000000000e+00 1.000000000000000000e+00 1.000000000000000000e+00 1.000000000000000000e+00 1.000000000000000000e+00 1.000000000000000000e+00 1.000000000000000000e+00 1.000000000000000000e+00 1.000000000000000000e+00 1.000000000000000000e+00 1.000000000000000000e+00 1.000000000000000000e+00 1.000000000000000000e+00 1.000000000000000000e+00 1.000000000000000000e+00 1.000000000000000000e+00 1.000000000000000000e+00 1.000000000000000000e+00 1.000000000000000000e+00 1.000000000000000000e+00 1.000000000000000000e+00 1.000000000000000000e+00 1.000000000000000000e+00 1.000000000000000000e+00 1.000000000000000000e+00 1.000000000000000000e+00 1.000000000000000000e+00 1.000000000000000000e+00 1.000000000000000000e+00 1.000000000000000000e+00 1.000000000000000000e+00 1.000000000000000000e+00 1.000000000000000000e+00 1.000000000000000000e+00 1.000000000000000000e+00 1.000000000000000000e+00 1.000000000000000000e+00 1.000000000000000000e+00 1.000000000000000000e+00 1.000000000000000000e+00 1.000000000000000000e+00 1.000000000000000000e+00 1.000000000000000000e+00 1.000000000000000000e+00 1.000000000000000000e+00 1.000000000000000000e+00 1.000000000000000000e+00 1.000000000000000000e+00 1.000000000000000000e+00 1.000000000000000000e+00 1.000000000000000000e+00 1.000000000000000000e+00 1.000000000000000000e+00 1.000000000000000000e+00 1.000000000000000000e+00 1.000000000000000000e+00 1.000000000000000000e+00 1.000000000000000000e+00 1.000000000000000000e+00 1.000000000000000000e+00 1.000000000000000000e+00 1.000000000000000000e+00 1.000000000000000000e+00 1.000000000000000000e+00 1.000000000000000000e+00 1.000000000000000000e+00 1.000000000000000000e+00 1.000000000000000000e+00 1.000000000000000000e+00 1.000000000000000000e+00 1.000000000000000000e+00 1.000000000000000000e+00 1.000000000000000000e+00 1.000000000000000000e+00 1.000000000000000000e+00 1.000000000000000000e+00 1.000000000000000000e+00 1.000000000000000000e+00 1.000000000000000000e+00 1.000000000000000000e+00 1.000000000000000000e+00 1.000000000000000000e+00 1.000000000000000000e+00 1.000000000000000000e+00 1.000000000000000000e+00 1.000000000000000000e+00 1.000000000000000000e+00 1.000000000000000000e+00 1.000000000000000000e+00 1.000000000000000000e+00 1.000000000000000000e+00 1.000000000000000000e+00 1.000000000000000000e+00 1.000000000000000000e+00 1.000000000000000000e+00 1.000000000000000000e+00 1.000000000000000000e+00 1.000000000000000000e+00 1.000000000000000000e+00 1.000000000000000000e+00 1.000000000000000000e+00 1.000000000000000000e+00 1.000000000000000000e+00 1.000000000000000000e+00 1.000000000000000000e+00 1.000000000000000000e+00 1.000000000000000000e+00 1.000000000000000000e+00 1.000000000000000000e+00 1.000000000000000000e+00 1.000000000000000000e+00 1.000000000000000000e+00 1.000000000000000000e+00 1.000000000000000000e+00 1.000000000000000000e+00 1.000000000000000000e+00 1.000000000000000000e+00 1.000000000000000000e+00 1.000000000000000000e+00 1.000000000000000000e+00 1.000000000000000000e+00 1.000000000000000000e+00 1.000000000000000000e+00 1.000000000000000000e+00 1.000000000000000000e+00 1.000000000000000000e+00 1.000000000000000000e+00 1.000000000000000000e+00 1.000000000000000000e+00 1.000000000000000000e+00 1.000000000000000000e+00 1.000000000000000000e+00 1.000000000000000000e+00 1.000000000000000000e+00 1.000000000000000000e+00 1.000000000000000000e+00 1.000000000000000000e+00 1.000000000000000000e+00 1.000000000000000000e+00 1.000000000000000000e+00 1.000000000000000000e+00 1.000000000000000000e+00 1.000000000000000000e+00 1.000000000000000000e+00 1.000000000000000000e+00 1.000000000000000000e+00 1.000000000000000000e+00 1.000000000000000000e+00 1.000000000000000000e+00 1.000000000000000000e+00 1.000000000000000000e+00 1.000000000000000000e+00 1.000000000000000000e+00 1.000000000000000000e+00 1.000000000000000000e+00 1.000000000000000000e+00 1.000000000000000000e+00 1.000000000000000000e+00 1.000000000000000000e+00 1.000000000000000000e+00 1.000000000000000000e+00 1.000000000000000000e+00 1.000000000000000000e+00 1.000000000000000000e+00 1.000000000000000000e+00 1.000000000000000000e+00 1.000000000000000000e+00 1.000000000000000000e+00 1.000000000000000000e+00 1.000000000000000000e+00 1.000000000000000000e+00 1.000000000000000000e+00 1.000000000000000000e+00 1.000000000000000000e+00 1.000000000000000000e+00 1.000000000000000000e+00 1.000000000000000000e+00 1.000000000000000000e+00 1.000000000000000000e+00 1.000000000000000000e+00 1.000000000000000000e+00 1.000000000000000000e+00 1.000000000000000000e+00 1.000000000000000000e+00 1.000000000000000000e+00 1.000000000000000000e+00 1.000000000000000000e+00 1.000000000000000000e+00 1.000000000000000000e+00 1.000000000000000000e+00 1.000000000000000000e+00 1.000000000000000000e+00 1.000000000000000000e+00 1.000000000000000000e+00 1.000000000000000000e+00 1.000000000000000000e+00 1.000000000000000000e+00 1.000000000000000000e+00 1.000000000000000000e+00 1.000000000000000000e+00 1.000000000000000000e+00 1.000000000000000000e+00 1.000000000000000000e+00 1.000000000000000000e+00 1.000000000000000000e+00 1.000000000000000000e+00 1.000000000000000000e+00 1.000000000000000000e+00 1.000000000000000000e+00 1.000000000000000000e+00 1.000000000000000000e+00 1.000000000000000000e+00 1.000000000000000000e+00 1.000000000000000000e+00 1.000000000000000000e+00 1.000000000000000000e+00 1.000000000000000000e+00 1.000000000000000000e+00 1.000000000000000000e+00 1.000000000000000000e+00 1.000000000000000000e+00 1.000000000000000000e+00 1.000000000000000000e+00 1.000000000000000000e+00 1.000000000000000000e+00 1.000000000000000000e+00 1.000000000000000000e+00 1.000000000000000000e+00 1.000000000000000000e+00 1.000000000000000000e+00 1.000000000000000000e+00 1.000000000000000000e+00 1.000000000000000000e+00 1.000000000000000000e+00 1.000000000000000000e+00 1.000000000000000000e+00 1.000000000000000000e+00 1.000000000000000000e+00 1.000000000000000000e+00 1.000000000000000000e+00 1.000000000000000000e+00 1.000000000000000000e+00 1.000000000000000000e+00 1.000000000000000000e+00 1.000000000000000000e+00 1.000000000000000000e+00 1.000000000000000000e+00 1.000000000000000000e+00 1.000000000000000000e+00 1.000000000000000000e+00 1.000000000000000000e+00 1.000000000000000000e+00 1.000000000000000000e+00 1.000000000000000000e+00 1.000000000000000000e+00 1.000000000000000000e+00 1.000000000000000000e+00 1.000000000000000000e+00 1.000000000000000000e+00 1.000000000000000000e+00 1.000000000000000000e+00 1.000000000000000000e+00 1.000000000000000000e+00 1.000000000000000000e+00 1.000000000000000000e+00 1.000000000000000000e+00 1.000000000000000000e+00 1.000000000000000000e+00 1.000000000000000000e+00 1.000000000000000000e+00 1.000000000000000000e+00 1.000000000000000000e+00 1.000000000000000000e+00 1.000000000000000000e+00 1.000000000000000000e+00 1.000000000000000000e+00 1.000000000000000000e+00 1.000000000000000000e+00 1.000000000000000000e+00 1.000000000000000000e+00 1.000000000000000000e+00 1.000000000000000000e+00 1.000000000000000000e+00 1.000000000000000000e+00 1.000000000000000000e+00 1.000000000000000000e+00 1.000000000000000000e+00 1.000000000000000000e+00 1.000000000000000000e+00 1.000000000000000000e+00 1.000000000000000000e+00 1.000000000000000000e+00 1.000000000000000000e+00 1.000000000000000000e+00 1.000000000000000000e+00 1.000000000000000000e+00 1.000000000000000000e+00 1.000000000000000000e+00 1.000000000000000000e+00 1.000000000000000000e+00 1.000000000000000000e+00 1.000000000000000000e+00 1.000000000000000000e+00 1.000000000000000000e+00 1.000000000000000000e+00 1.000000000000000000e+00 1.000000000000000000e+00 1.000000000000000000e+00 1.000000000000000000e+00 1.000000000000000000e+00 1.000000000000000000e+00 1.000000000000000000e+00 1.000000000000000000e+00 1.000000000000000000e+00 1.000000000000000000e+00 1.000000000000000000e+00 1.000000000000000000e+00 1.000000000000000000e+00 1.000000000000000000e+00 1.000000000000000000e+00 1.000000000000000000e+00 1.000000000000000000e+00 1.000000000000000000e+00 1.000000000000000000e+00 1.000000000000000000e+00 1.000000000000000000e+00 1.000000000000000000e+00 1.000000000000000000e+00 1.000000000000000000e+00 1.000000000000000000e+00 1.000000000000000000e+00 1.000000000000000000e+00 1.000000000000000000e+00 1.000000000000000000e+00 1.000000000000000000e+00 1.000000000000000000e+00 1.000000000000000000e+00 1.000000000000000000e+00 1.000000000000000000e+00 1.000000000000000000e+00 1.000000000000000000e+00 1.000000000000000000e+00 1.000000000000000000e+00 1.000000000000000000e+00 1.000000000000000000e+00 1.000000000000000000e+00 1.000000000000000000e+00 1.000000000000000000e+00 1.000000000000000000e+00 1.000000000000000000e+00 1.000000000000000000e+00 1.000000000000000000e+00 1.000000000000000000e+00 1.000000000000000000e+00 1.000000000000000000e+00 1.000000000000000000e+00 1.000000000000000000e+00 1.000000000000000000e+00 1.000000000000000000e+00 1.000000000000000000e+00 1.000000000000000000e+00 1.000000000000000000e+00 1.000000000000000000e+00 1.000000000000000000e+00 1.000000000000000000e+00 1.000000000000000000e+00 1.000000000000000000e+00 1.000000000000000000e+00 1.000000000000000000e+00 1.000000000000000000e+00 1.000000000000000000e+00 1.000000000000000000e+00 1.000000000000000000e+00 1.000000000000000000e+00 1.000000000000000000e+00 1.000000000000000000e+00 1.000000000000000000e+00 1.000000000000000000e+00 1.000000000000000000e+00 1.000000000000000000e+00 1.000000000000000000e+00 1.000000000000000000e+00 1.000000000000000000e+00 1.000000000000000000e+00 1.000000000000000000e+00 1.000000000000000000e+00 1.000000000000000000e+00 1.000000000000000000e+00 1.000000000000000000e+00 1.000000000000000000e+00 1.000000000000000000e+00 1.000000000000000000e+00 1.000000000000000000e+00 1.000000000000000000e+00 1.000000000000000000e+00 1.000000000000000000e+00 1.000000000000000000e+00 1.000000000000000000e+00 1.000000000000000000e+00 1.000000000000000000e+00 1.000000000000000000e+00 1.000000000000000000e+00 1.000000000000000000e+00 1.000000000000000000e+00 1.000000000000000000e+00 1.000000000000000000e+00 1.000000000000000000e+00 1.000000000000000000e+00 1.000000000000000000e+00 1.000000000000000000e+00 1.000000000000000000e+00 1.000000000000000000e+00 1.000000000000000000e+00 1.000000000000000000e+00 1.000000000000000000e+00 1.000000000000000000e+00 1.000000000000000000e+00 1.000000000000000000e+00 1.000000000000000000e+00 1.000000000000000000e+00 1.000000000000000000e+00 1.000000000000000000e+00 1.000000000000000000e+00 1.000000000000000000e+00 1.000000000000000000e+00 1.000000000000000000e+00 1.000000000000000000e+00 1.000000000000000000e+00 1.000000000000000000e+00 1.000000000000000000e+00 1.000000000000000000e+00 1.000000000000000000e+00 1.000000000000000000e+00 1.000000000000000000e+00 1.000000000000000000e+00 1.000000000000000000e+00 1.000000000000000000e+00 1.000000000000000000e+00 1.000000000000000000e+00 1.000000000000000000e+00 1.000000000000000000e+00 1.000000000000000000e+00 1.000000000000000000e+00 1.000000000000000000e+00 1.000000000000000000e+00 1.000000000000000000e+00 1.000000000000000000e+00 1.000000000000000000e+00 1.000000000000000000e+00 1.000000000000000000e+00 1.000000000000000000e+00 1.000000000000000000e+00 1.000000000000000000e+00 1.000000000000000000e+00 1.000000000000000000e+00 1.000000000000000000e+00 1.000000000000000000e+00 1.000000000000000000e+00 1.000000000000000000e+00 1.000000000000000000e+00 1.000000000000000000e+00 1.000000000000000000e+00 1.000000000000000000e+00 1.000000000000000000e+00 1.000000000000000000e+00 1.000000000000000000e+00 1.000000000000000000e+00 1.000000000000000000e+00 1.000000000000000000e+00 1.000000000000000000e+00 1.000000000000000000e+00 1.000000000000000000e+00 1.000000000000000000e+00 1.000000000000000000e+00 1.000000000000000000e+00 1.000000000000000000e+00 1.000000000000000000e+00 1.000000000000000000e+00 1.000000000000000000e+00 1.000000000000000000e+00 1.000000000000000000e+00 1.000000000000000000e+00 1.000000000000000000e+00 1.000000000000000000e+00 1.000000000000000000e+00 1.000000000000000000e+00 1.000000000000000000e+00 1.000000000000000000e+00 1.000000000000000000e+00 1.000000000000000000e+00 1.000000000000000000e+00 1.000000000000000000e+00 1.000000000000000000e+00 1.000000000000000000e+00 1.000000000000000000e+00 1.000000000000000000e+00 1.000000000000000000e+00 1.000000000000000000e+00 1.000000000000000000e+00 1.000000000000000000e+00 1.000000000000000000e+00 1.000000000000000000e+00 1.000000000000000000e+00 1.000000000000000000e+00 1.000000000000000000e+00 1.000000000000000000e+00 1.000000000000000000e+00 1.000000000000000000e+00 1.000000000000000000e+00 1.000000000000000000e+00 1.000000000000000000e+00 1.000000000000000000e+00 1.000000000000000000e+00 1.000000000000000000e+00 1.000000000000000000e+00 1.000000000000000000e+00 1.000000000000000000e+00 1.000000000000000000e+00 1.000000000000000000e+00 1.000000000000000000e+00 1.000000000000000000e+00 1.000000000000000000e+00 1.000000000000000000e+00 1.000000000000000000e+00 1.000000000000000000e+00 1.000000000000000000e+00 1.000000000000000000e+00 1.000000000000000000e+00 1.000000000000000000e+00 1.000000000000000000e+00 1.000000000000000000e+00 1.000000000000000000e+00 1.000000000000000000e+00 1.000000000000000000e+00 1.000000000000000000e+00 1.000000000000000000e+00 1.000000000000000000e+00 1.000000000000000000e+00 1.000000000000000000e+00 1.000000000000000000e+00 1.000000000000000000e+00 1.000000000000000000e+00 1.000000000000000000e+00 1.000000000000000000e+00 1.000000000000000000e+00 1.000000000000000000e+00 1.000000000000000000e+00 1.000000000000000000e+00 1.000000000000000000e+00 1.000000000000000000e+00 1.000000000000000000e+00 1.000000000000000000e+00 1.000000000000000000e+00 1.000000000000000000e+00 1.000000000000000000e+00 1.000000000000000000e+00 1.000000000000000000e+00 1.000000000000000000e+00 1.000000000000000000e+00 1.000000000000000000e+00 1.000000000000000000e+00 1.000000000000000000e+00 1.000000000000000000e+00 1.000000000000000000e+00 1.000000000000000000e+00 1.000000000000000000e+00 1.000000000000000000e+00 1.000000000000000000e+00 1.000000000000000000e+00 1.000000000000000000e+00 1.000000000000000000e+00 1.000000000000000000e+00 1.000000000000000000e+00 1.000000000000000000e+00 1.000000000000000000e+00 1.000000000000000000e+00 1.000000000000000000e+00 1.000000000000000000e+00 1.000000000000000000e+00 1.000000000000000000e+00 1.000000000000000000e+00 1.000000000000000000e+00 1.000000000000000000e+00 1.000000000000000000e+00 1.000000000000000000e+00 1.000000000000000000e+00 1.000000000000000000e+00 1.000000000000000000e+00 1.000000000000000000e+00 1.000000000000000000e+00 1.000000000000000000e+00 1.000000000000000000e+00 1.000000000000000000e+00 1.000000000000000000e+00 1.000000000000000000e+00 1.000000000000000000e+00 1.000000000000000000e+00 1.000000000000000000e+00 1.000000000000000000e+00 1.000000000000000000e+00 1.000000000000000000e+00 1.000000000000000000e+00 1.000000000000000000e+00 1.000000000000000000e+00 1.000000000000000000e+00 1.000000000000000000e+00 1.000000000000000000e+00 1.000000000000000000e+00 1.000000000000000000e+00 1.000000000000000000e+00 1.000000000000000000e+00 1.000000000000000000e+00 1.000000000000000000e+00 1.000000000000000000e+00 1.000000000000000000e+00 1.000000000000000000e+00 1.000000000000000000e+00 1.000000000000000000e+00 1.000000000000000000e+00 1.000000000000000000e+00 1.000000000000000000e+00 1.000000000000000000e+00 1.000000000000000000e+00 1.000000000000000000e+00 1.000000000000000000e+00 1.000000000000000000e+00 1.000000000000000000e+00 1.000000000000000000e+00 1.000000000000000000e+00 1.000000000000000000e+00 1.000000000000000000e+00 1.000000000000000000e+00 1.000000000000000000e+00 1.000000000000000000e+00 1.000000000000000000e+00 1.000000000000000000e+00 1.000000000000000000e+00 1.000000000000000000e+00 1.000000000000000000e+00 1.000000000000000000e+00 1.000000000000000000e+00 1.000000000000000000e+00 1.000000000000000000e+00 1.000000000000000000e+00 1.000000000000000000e+00 1.000000000000000000e+00 1.000000000000000000e+00 1.000000000000000000e+00 1.000000000000000000e+00 1.000000000000000000e+00 1.000000000000000000e+00 1.000000000000000000e+00 1.000000000000000000e+00 1.000000000000000000e+00 1.000000000000000000e+00 1.000000000000000000e+00 1.000000000000000000e+00 1.000000000000000000e+00 1.000000000000000000e+00 1.000000000000000000e+00 1.000000000000000000e+00 1.000000000000000000e+00 1.000000000000000000e+00 1.000000000000000000e+00 1.000000000000000000e+00 1.000000000000000000e+00 1.000000000000000000e+00 1.000000000000000000e+00 1.000000000000000000e+00 1.000000000000000000e+00 1.000000000000000000e+00 1.000000000000000000e+00 1.000000000000000000e+00 1.000000000000000000e+00 1.000000000000000000e+00 1.000000000000000000e+00 1.000000000000000000e+00 1.000000000000000000e+00 1.000000000000000000e+00 1.000000000000000000e+00 1.000000000000000000e+00 1.000000000000000000e+00 1.000000000000000000e+00 1.000000000000000000e+00 1.000000000000000000e+00 1.000000000000000000e+00 1.000000000000000000e+00 1.000000000000000000e+00 1.000000000000000000e+00 1.000000000000000000e+00 1.000000000000000000e+00 1.000000000000000000e+00 1.000000000000000000e+00 1.000000000000000000e+00 1.000000000000000000e+00 1.000000000000000000e+00 1.000000000000000000e+00 1.000000000000000000e+00 1.000000000000000000e+00 1.000000000000000000e+00 1.000000000000000000e+00 1.000000000000000000e+00 1.000000000000000000e+00 1.000000000000000000e+00 1.000000000000000000e+00 1.000000000000000000e+00 1.000000000000000000e+00 1.000000000000000000e+00 1.000000000000000000e+00 1.000000000000000000e+00 1.000000000000000000e+00 1.000000000000000000e+00 1.000000000000000000e+00 1.000000000000000000e+00 1.000000000000000000e+00 1.000000000000000000e+00 1.000000000000000000e+00 1.000000000000000000e+00 1.000000000000000000e+00 1.000000000000000000e+00 1.000000000000000000e+00 1.000000000000000000e+00
1.358146744041797277e-02 5.561161178850698716e-01 -2.244172410819735286e-01 7.417643770766947364e-01 5.150548976549214064e-01 5.343787013455434387e-01 6.228941993813852385e-01 2.833099835900724783e-01 5.233760156145139675e-01 5.138744598773006267e-01 1.079106184665686197e+00 -6.868804366590059995e-01 1.399598812128875380e+00 4.507738632789700661e-01 5.149543584789547657e-01 3.942704571965180427e-01 8.939352988409196010e-01 9.752393114463152601e-01 6.946609674036960946e-01 5.102416288925466503e-01 4.041291442207298190e-01 9.810066063535957115e-01 4.376427952335243399e-01 4.758459926779671223e-01 9.950973240697043309e-02 6.754401682454488354e-01 3.708733464350511544e-01 6.417332695676115639e-01 5.448616112030292280e-01 1.563832700050590940e+00 5.229162231858911491e-01 6.119449084894359459e-01 7.198510723828869251e-01 4.948234136899441471e-01 7.081540082848064577e-01 4.501722361039180442e-01 5.311856196900660576e-01 1.771998112110002133e+00 -6.717413341600030063e-02 5.302530141910385408e-01 -1.598077403734462221e-01 -5.604802136202841067e-01 7.498202840869281349e-01 2.253882928544733433e-01 2.735399314640352686e-01 5.257160950646725395e-01 7.418112015453688368e-01 5.115490654155889771e-01 6.086213492163854433e-01 2.176334029622892588e-02 3.703307888346981779e-03 8.273717250857208771e-01 6.737547417670970429e-01 4.530871841511615594e-01 4.553622844473118048e-01 1.814988154095516920e-02 4.788492549709859603e-01 5.349409087872201152e-01 1.892083016014984298e-01 4.624830851330939963e-01 9.126152940442179284e-01 5.343945531134309812e-01 5.375887604246104567e-01 4.376427585083070837e-01 6.814334504956957028e-01 5.631318555999204056e-01 5.148084690952562381e-01 3.056571191918378561e-01 5.540479819606247691e-01 -6.496903803504176875e-04 4.163070370720271529e-01 5.185444794585665207e-01 5.171862841361748453e-01 2.444821685962984478e-02 1.501894722442252528e+00 5.558874473230268620e-01 6.338293226896363208e-01 7.361242116196186069e-01 5.141331686785366450e-01 1.381855725548814640e+00 5.184992572600826133e-01 3.069664502797250782e-01 1.391228579352289163e+00 7.049810598092042246e-01 4.906042266943190233e-01 7.565202867180865764e-01 8.101149407838099670e-01 5.472116437553229407e-01 4.098160033388734136e-01 5.757727835098875868e-01 2.758554540972119051e-01 2.163065255681372090e+00 7.375972035842225383e-01 -3.166786120592036957e-02 5.511275941990452232e-01 5.067141939168716691e-01 5.557115544606665569e-01 4.752908750104058999e-01 1.894823519150974078e-01 6.728863007735979007e-01 1.595868163455312683e+00 6.887151816097601964e-01 5.502390464010968874e-01 7.299952967847920249e-01 8.600803388547610950e-01 -2.046379702862029415e+00 -1.208776537104414128e+00 5.434987442445012862e-01 5.803120642156078812e-01 9.719727652704875931e-01 5.470246483358117695e-01 4.471964168412001506e-01 1.663029075775886712e-01 4.838970275682706323e-01 5.203662814343041898e-01 5.038269332755557217e-01 5.004467290995090467e-01 5.468949044882174260e-01 9.061319084048293782e-01 5.133994190588604400e-01 1.298956668229932498e+00 5.559677218902965290e-01 5.728523371273607223e-01 -4.097000073900229911e-01 5.179938498633749333e-01 1.937907280016687883e+00 5.580908619491025124e-01 5.335661276036959277e-01 6.865815398746922815e-01 5.163719058170133103e-01 5.037769402390627205e-01 5.102381073022814739e-01 4.175498552978532674e-01 3.146081636264252968e-01 -2.639607452092477824e-01 -1.612377987295785797e-01 6.349664853221616001e-01 4.752639396988236897e-02 9.969182971998471476e-01 6.498652728830305314e-01 5.220743427739668041e-01 8.618583034875788584e-01 6.224350952112501778e-01 5.922853520906516955e-01 5.153124617039651634e-01 4.930349930080463183e-02 9.013420497945996424e-01 2.635641362292632031e-02 4.574266937641717212e-01 -8.789697004782252021e-01 7.732250702511602736e-01 -2.962912168709128102e-01 5.257152713756538809e-01 5.522119796966195038e-01 4.625864180199986131e-01 5.186498499158264108e-01 1.921042895283359586e+00 -8.905672531251271340e-02 8.122010847084584206e-01 6.946127086994834388e-01 5.225665333015144798e-01 4.136595751036267199e-01 5.014636345203479229e-01 5.134045657013894814e-01 1.084054001872793993e+00 1.752565410065018703e-01 8.481477898801482729e-01 3.904732144639469493e-01 5.394061523047729567e-01 6.452059012692399342e-01 4.786633578768032526e-01 7.423187842986977980e-01 5.257263033918435635e-01 5.187826205370538180e-01 4.053094136072113995e-01 3.870629747074585958e-02 1.874117754749184128e-01 8.521792130676020260e-02 7.440196211110904345e-01 1.141430510629250605e+00 7.057815588257881911e-01 5.203244730989174949e-01 -1.806855988617255548e-01 4.479853316551712372e-01 6.506996133625098100e-01 5.288047233001570424e-01 5.137333562311048318e-01 5.241268465971692381e-01 2.769288561811750871e+00 5.538870600069231154e-01 5.291544975660769090e-01 -8.806364036824689823e-01 4.919038133559997528e-01 5.661176530675415819e-01 1.846776121054120867e-01 5.180812547899122933e-01 9.316601031916784681e-01 5.056700229489435872e-01 6.387444159839975599e-01 4.240065115881896940e-01 6.244773313839041551e-01 5.304143496545847825e-01 9.362625347681575727e-01 6.004708448999563908e-01 5.432363007055679427e-01 6.387443939593067110e-01 2.589106853932569008e-01 1.284503024936976656e+00 5.337461752678435145e-01 3.806432982225625983e-01 4.365593232617754893e-01 -7.759315149531673117e-02 4.784113125677961209e-01 1.602050404978877240e-01 5.273205958191609088e-01 5.166978949284910527e-01 5.163999127817813228e-01 5.115834903960178037e-01 5.152130046903604654e-01 5.189996974675131769e-01 4.399700444080648642e-01 6.034772800551581051e-01 -7.024789508109011704e-01 5.877287010679259627e-01 3.557868882301332136e-01 3.847454178456279905e-01 1.144614351815873982e-01 1.294194226775756906e+00 9.552728032401367475e-01 4.989817745372964741e-01 -1.039004894432468407e-01 1.052037701359200828e+00 5.121703633762783037e-01 4.443787683258302312e-01 5.419213691708959502e-01 4.144201522243677327e-01 3.604754694154605477e-01 1.901722487134735462e-01 -1.508997379161727548e-01 -1.070500562480339174e-01 3.545035978077343275e-01 5.115677516873565756e-01 -1.037065745964315111e-01 4.437749223346552641e-01 5.154631182170459347e-01 4.709864594691050010e-01 -1.016973903541495000e-01 7.493152313054484148e-01 -2.250226229996801663e+00 6.042220864227334509e-01 -5.803012339810390552e-01 4.967439292106184956e-01 5.145171787368091332e-01 4.376414158024494738e-01 4.731979969536270758e-01 5.563329392078527613e-01 5.344601191618391089e-01 7.503344001782834560e-01 5.482663023310814232e-01 1.687575831125675219e+00 6.762419795096762387e-01 6.943381250166976715e-01 4.896358849387612011e-01 3.485799518487659454e-01 9.126152539694403210e-01 3.972782365789441772e-01 2.656925317302654133e+00 5.264645114929634717e-01 2.364798545509923799e-01 7.104394624875530750e-01 5.130749417590529937e-01 9.130387799623255196e-01 5.159559069314008095e-01 5.473720372857869831e-01 5.143818414805233497e-01 1.083911479720075732e+00 7.676206004921709569e-01 8.643922201102034464e-01 8.086907979583450867e-01 4.100479245807645001e-01 6.772441974917703389e-01 5.359906885988106051e-01 3.895402594592334844e-01 -7.123139068059554102e-01 3.841583816290998210e-01 6.434595676205667747e-01 5.585843206234603064e-01 5.194390618511973701e-01 5.038269192968163335e-01 6.070747661339525036e-01 5.486871718666503916e-01 -8.103187679803196541e-01 7.095000201639313220e-01 5.306078113133299023e-01 3.667075278001016153e-02 5.563996852040883345e-01 1.846304009474116326e+00 4.995870289849850820e-01 5.147962362142713966e-01 4.574250326239789888e-01 -3.383144706613446129e+00 5.076589006478171573e-01 2.768867827413677318e+00 7.419596152397006650e-01 5.346211709557852076e-01 -5.790442417794549046e-01 5.143008872174815727e-01 5.144487544425780934e-01 4.351252268923102018e-01 4.553638004564374842e-01 3.700693660617712100e-01 6.397159706172975691e-01 3.145682516663512174e-01 5.189782719020654689e-01 5.137727408915565563e-01 3.568934107740597828e-01 5.045799365559620053e-01 7.417312355059856310e-01 5.135440231685109991e-01 1.194494119004513522e+00 5.186541126436626167e-03 2.211514699696246922e+00 2.622175996051739677e+00 5.265396640601672784e-01 -2.062243040751033651e-01 4.307825642779616881e-01 4.030118639842685258e-01 7.273837913433739422e-01 1.369652807142750728e+00 5.367914112469351906e-01 1.122423771667306891e+00 5.135753632760933218e-01 1.258165214387163555e-01 1.249426583796767742e+00 4.223993869288183989e-01 5.264194525996371832e-01 5.065386228473401919e-01 8.868339740201688359e-01 -3.672717796094955744e+00 1.623455504341164701e+00 5.473616839010977397e-01 6.385361962508629974e-01 5.156858033315564471e-01 1.771998118888189255e+00 3.066655769894711669e-01 5.447863101217709225e-01 5.318614404704905541e-01 4.365853569762846997e-01 1.379933145099660585e+00 5.969350913633798550e-01 6.387447468692907249e-01 4.437760754410787767e-01 6.004708454313146815e-01 5.983820936732138218e-01 5.644246798679435351e-01 8.935925333763401479e-01 5.141697048663288472e-01 3.897274591610755401e-01 2.039771523880763715e-01 6.550844318507549335e-01 5.159667258109812416e-01 4.063446691936101196e-01 5.447863067121762048e-01 6.614666265544496548e-01 5.175940424050340383e-01 1.008645879534578294e+00 9.872253866724630678e-01 1.129144676321575114e+00 5.104171290010596218e-01 2.342883202072831017e-01 9.126147539760443017e-01 -1.089563587247358994e-01 9.333220076940066390e-01 6.282988183434704554e-01 5.279980243061172841e-03 5.807496769877351639e-01 9.751052939058549862e-01 3.897753461154564447e-01 5.181996670119326520e-01 2.791127885257601582e-01 -3.323024790684281915e-01 -2.443047175225756984e+00 4.781323681818908655e-01 6.004708463651242667e-01 6.004709003139866441e-01 5.075037356531496568e-01 4.288736939028616191e-01 -2.135119426240598695e-01 3.212429862012728399e-01 5.070936932245180273e-01 6.725071379223186430e-01 5.177649341840533381e-01 1.052987590795421369e+00 6.387445799541847657e-01 5.144879879136391443e-01 4.811838901183161932e-01 2.686102263722940919e-01 6.520659593679857258e-01 5.120493440003884844e-01 5.125818530789618688e-01 5.487895570605940687e-01 2.798431029115528990e-01 2.127569394442269807e-02 6.004708468749776484e-01 6.582601390697059296e-01 5.149680229395311448e-01 4.216746269596369778e-01 8.580412318499129887e-01 6.955803767292267903e-01 5.633868004580429023e-01 1.835288465497078247e+00 5.154984180767770985e-01 -3.026652479922792960e+00 7.421418892554350055e-01 1.512315076572252170e+00 5.193594801063239341e-01 -1.055393647540415536e+00 7.438815123065164459e-01 4.582725573710283440e-01 5.198732981288595179e-01 5.000395204024328244e-01 -3.113088758232193665e-01 5.092488812004283272e-01 1.067183136274982402e+00 5.918608328183635470e-01 -3.411963863709963629e-01 5.134975562170428498e-01 5.165633280122253757e-01 7.739783486061599937e-01 5.436893330999235108e-01 5.301817617740223199e-01 -5.142807191019213020e-01 5.620794550131924527e-01 5.096004529003282935e-01 6.817009408274108395e-01 5.253099780566993227e-01 7.657124208063682547e-01 5.222225245806556559e-01 5.876506547421266324e-01 6.709910172415116669e-01 5.393891007097386669e-01 3.107999656546573397e-01 2.811887199901322298e-01 3.232003757976421032e-01 9.581501626441610853e-01 5.483511447375086778e-01 3.177097500878614422e+00 6.601035674559673216e-01 6.209103597642320338e-01 5.565025504931766509e-01 6.141914218329540542e-01 2.745295746837324302e-02 4.851019265658436663e-01 5.612639252467356288e-01 5.166442953202579069e-01 1.163969220922026704e+00 7.657919409059779081e-01 5.044460748026963204e-01 4.473584240843515580e-01 1.116006616999681400e+00 4.961653367233422873e-01 5.499069218418043414e-01 5.016777661016208478e-01 7.556839443781425691e-01 5.205070678301412235e-01 9.253589529554459014e-01 4.981561338033046460e-01 5.141794505322947462e-01 5.639475539810513693e-03 5.055385358830182252e-01 1.575915157237891065e-02 3.437542311367595138e-01 4.124758250114444746e-01 5.657498149594586412e-01 7.748548105954056187e-01 5.150678751853862147e-01 3.949806386310613648e-01 6.192001424585467234e-02 5.310303875889078595e-01 5.518361168855514531e-01 4.819152248575316877e-01 4.714668422788135388e-02 5.190973964408255314e-01 2.457148321894456200e-01 5.142098977772529000e-01 4.216837187592816782e-01 1.254249680975810355e+00 7.851201769672940811e-01 5.427175410718435566e-01 2.675631356299751906e-01 6.774912612523411592e-01 4.237383928086094209e-01 9.900724083133710662e-01 5.976660836205505145e-01 5.653995849950509411e-01 6.894785780164661704e-01 1.980126959321287350e+00 4.569091503075979332e-01 4.410415184450524051e-01 5.136929252167481419e-01 7.097877556577948388e-01 4.568318463034904964e-01 8.337244532426861809e-01 -5.677983016775702829e-01 3.323347732126764598e-01 5.205883243714830577e-01 4.284070894912158645e-01 3.697376240748219689e-01 -6.079674606923940461e-01 3.891766581072679254e-01 5.155175119428136998e-01 7.380132434596597957e-01 6.655322311256340884e-01 1.451405218642284556e+00 5.166224961705411234e-01 5.183037316247874893e-01 -6.926577146612880043e-01 5.211553436395978123e-01 1.208616586284540828e+00 7.017046381772660268e-01 2.611483422143835442e-01 2.703789508114093354e-01 -1.631278554654619128e+00 4.917962963022610712e-01 1.871349231424822013e-01 1.095997376845978755e+00 8.146781324198527630e-01 5.128071015508649522e-01 5.111119385523514858e-01 6.296358213992827579e-01 7.422365939124637713e-01 4.547769338394566652e-01 5.622628023601349279e-01 2.755170403623168410e-02 4.977563817569292115e-01 6.242460168850924029e-01 6.114056983453880489e-01 5.029068953797648511e-01 5.591988635405475971e-01 1.198726908510789890e+00 -1.066132586026186380e-01 -2.311841664903039051e-01 4.323350197629086678e-01 5.429776827620512725e-01 5.528555525505369772e-01 4.941570708723933558e-01 -8.435313461905286081e-01 3.142195113007208107e+00 5.723756770492681722e-01 4.521331844356218932e-01 4.156385686332767504e-01 5.107075825483514686e-01 5.139735810725943876e-01 6.087778159727446070e-01 3.260144353061998346e-01 5.860726556189461700e-01 5.131488735376895649e-01 6.262300010066278455e-01 3.602351819750340134e-01 4.529098203353899565e-01 5.367594301441899196e-01 4.059997247945766330e-01 4.879319629482333220e-01 5.456893921786901691e-01 6.524755432888645901e-01 1.005487509784943390e+00 2.303491794213857080e+00 5.555341778733042801e-01 4.954556337390258469e-01 4.826069084561639966e-01 5.214364100748712927e-01 3.646202404240891370e-01 5.131413006109241115e-01 5.070248450295024023e-01 5.303890914204952844e-01 4.973930752013580592e-01 4.773746319813607086e-01 7.419346123190360132e-01 3.673361448329837131e-01 5.142396527767105763e-01 4.881930476075367897e-01 5.570723881779903186e-01 1.211409711492911490e-01 9.126152701454862681e-01 5.551580923741369356e-01 1.315906746491412871e-01 1.909266662117108826e+00 2.763143579527413962e-01 4.409853413623803231e-01 5.875650652320497658e-01 6.173201134341759627e-02 5.051438526689814301e-01 1.505274428717330526e+00 7.657758489658971213e-01 7.672994004321465056e-01 5.161269676167875575e-01 5.496876796448318947e-01 4.834293395235988444e-01 6.451982947299780280e-01 4.956215663072667810e-01 5.174525166510626217e-01 -1.868613899893724895e-01 5.613134507313191079e-01 -1.425969922184092908e+00 5.074296111039019452e-01 4.984118458223483206e-01 5.498611285119623382e-01 4.574169692842267598e-01 9.126152700889267333e-01 2.225318639838196888e-01 5.563511621653615125e-01 1.325235423485717545e+00 -5.444903589631023832e-01 5.201916562756229157e-01 1.126333892471584441e+00 1.496348704255717976e+00 4.263373397498814166e-01 5.186261436357442189e-01 -4.973754980757966876e-02 -1.658714620894824465e+00 2.798699236015666503e-01 7.652665424516287285e-01 5.233019117931444475e-01 5.123711578296467062e-01 5.364675028003718094e-01 4.863908043274864368e-01 -3.978499877853238220e-01 8.141055669419368090e-01 5.038269274478139881e-01 3.367944093430560448e-01 5.543467180351392409e-01 -1.721752910992869340e-02 -1.735686059076021470e-01 1.771782501091573314e+00 4.154375993836060821e-01 4.727717360166973637e-01 5.180442440234084289e-01 3.294103320326625117e-01 6.074206513102560212e-01 -4.678536916176576771e-02 -1.077352821095532764e+00 5.119857046208857732e-01 5.132592302293510489e-01 5.435804189557928989e-01 6.138142263142688515e-01 5.476776491854461471e-01 5.436168326593352473e-01 5.533815645409339012e-01 5.773910106469074544e-01 1.028034195471895007e+00 7.264458136502556229e-01 5.477123078562169400e-01 5.711846012299629516e-01 4.539390029685184680e-01 4.236130580878689211e-01 1.819410022711896377e-02 5.447862948881350142e-01 5.174568824333961592e-01 4.656931470473648638e-01 7.527607185499919362e-01 9.422103595284441191e-01 8.337459508535651764e-01 -4.854353120250598508e-01 5.482627712394890773e-01 4.792539780279000405e-01 5.106089148339174599e-01 5.825421479102009803e-01 9.021905054812249247e-01 5.607936814515059876e-01 5.181778098756136819e-01 -2.291251731050085172e-01 -8.534099812804822882e-01 2.272245824805029457e+00 5.152765159880040580e-01 8.915841248102207572e-01 4.553774126412002965e-01 5.711684867888877637e-01 3.700863739071376113e-01 1.495926732747519527e-01 5.168208350345825375e-01 5.499652515977216938e-01 -1.437763636854529287e-03 5.155293412811856602e-01 4.258693794110394726e-01 5.198802663547823499e-01 6.972436050306727306e-01 5.131959636176322004e-01 5.991521297032444959e-01 3.970378332759735840e-01 4.830577935708489368e-01 3.854504657379788646e-01 5.096847464106323278e-01 4.274856885881672675e-01 4.988114036396058548e-01 -2.829929087139747002e-01 5.090616819833958528e-01 6.428736583737325594e-01 4.919270234002597886e-01 7.416603897738901496e-01 9.126153954800890755e-01 7.330148226352954932e-01 -5.885229588619865781e-01 9.901760381313596815e-01 1.771998112089584465e+00 4.840189414743185647e-01 4.638469869381467436e-01 1.072996207429930626e+00 5.503482753844287645e-01 7.415558650502501736e-01 5.176369996240554050e-01 1.806321714029029746e+00 5.177786613513085667e-01 4.437744604827771333e-01 1.233919095616271999e+00 -5.674646735075510040e-02 5.611069888608992695e-01 -1.659083209317463725e-01 -9.468894370249664183e-01 -1.735693631344402965e-01 7.780154911175150012e-01 5.522320085922621802e-01 5.440240479620478409e-01 -3.315716236503875591e-01 5.177798881626930472e-01 3.647033376767271767e-02 -3.636514039250823283e-01 4.788212376916411439e-01 5.204779323529346025e-01 5.124302121628779849e-01 5.632113383952224162e-01 5.582941364676501372e-01 9.054396863538002327e-01 -3.950703639294171343e-01 5.153944833288741645e-01 5.683484318131197810e-01 6.204317361443639767e-01 1.162171752275106495e+00 5.076299893185323153e-01 6.292136346602681396e-01 5.152540797887025237e-01 3.381475970986143331e-02 -3.106923119712503012e-01 5.241886281150736071e-01 4.955340054663503468e-01 6.714536359572053081e-01 5.261807705150545189e-01 3.398414965472537075e-01 5.183913391819073846e-01 5.177386422953980105e-01 3.514126598230297716e-01 5.149151810301670906e-01 8.381449185360785314e-01 2.535687943120138232e+00 -2.391728630687151025e-01 6.658536890082565884e-01 3.323200440442158898e-01 2.159019142428210691e-01 6.784179140271568986e-01 -5.728576456684879303e-02 -1.507827912623903588e+00 5.162491239947906152e-01 2.596778725705306989e+00 5.040322256683151814e-01 1.509890918689745232e-01 1.748915144446128167e-01 5.038269332749144569e-01 5.697332132161335716e-01 1.547490948315797921e+00 4.896493097176525255e-01 1.259010695391521717e-01 4.376270607604537122e-01 1.681261109012166077e+00 5.853705679173456522e-01 7.347251617793382206e-01 5.447779500987766088e-01 7.406720868396232671e-01 4.558052031150602312e-01 5.641363306332966010e-01 1.386316786571839543e-02 5.155506031024390534e-01 4.982190563381658777e-01 -5.681033824726425818e-01 -4.834892651389406659e-02 1.171711594134595247e+00 2.359527976479378619e-01 4.888307250607052956e-01 6.863638088644175017e-01 5.471817279901344255e-01 1.994504280889986658e+00 6.993226900665016066e-01 2.904094267526056636e-02 2.793001638736754000e-01 4.001856343535118432e-01 1.106127508659615177e+00 5.187485854580470290e-01 -2.473091911827133074e-02 5.256028943274380083e-01 -2.009484281505072301e-02 5.090128439059540266e-01 5.129008535738803776e-01 4.929794369438275474e-03 -6.151436428512283006e-02 6.671428280371816122e-01 6.136916441583936122e-01 5.436916943727543305e-01 2.785609452782671358e-01 4.859282568955547998e-01 4.894266773982596797e-01 5.622918108582410923e-01 5.588187642698868585e-01 4.802270875909460668e-01 6.271991224102998475e-01 1.014872210080215664e+00 3.104071782227665999e+00 9.124431590548612858e-01 5.104194928617680205e-01 6.444791906796074610e-01 2.124876924233747855e-01 5.159705661903359886e-01 8.411997444864302009e-01 4.898213540177854264e-01 1.316276981645164934e+00 4.595199634555301449e-01 -5.700664778097581653e-01 -1.461755343703281286e-02 4.092797269437893348e-01 6.119669989584748393e-01 4.986720689031697296e-01 5.253177271351883171e-01 2.005399302496246525e-02 5.500145738163003672e-01 3.965763198885361440e-01 -3.612671894031384223e+00 4.853862410092456559e-01 5.115920812286811614e-01 1.122455158973800549e+00 5.142435867871630872e-01 5.641792053605185764e-01 6.814677802182135258e-01 -8.720842554615647613e-01 -5.054163966912350592e-01 4.865765845614907631e-02 5.150061672674353108e-01 4.202456254144530945e-01 2.213597870841672033e-01 4.943569252357893906e-01 -3.339154266670650295e-01 6.322246077423772093e-01 5.105212540371384389e-01 6.941456073042880925e-01 5.391108642704094400e-01 4.745013806311160764e-01 1.610649413020635856e-01 -7.417301816965462535e-01 6.528408465360859836e-01 4.960957601267140249e-01 1.638310869592040919e-01 5.132954813077296174e-01 5.826757008924701164e-01 5.206205478290083510e-01 6.709041755370941384e-01 5.695323094197194402e-01 5.398005169515178725e-01 4.992671987553077284e-01 1.771998114136009050e+00 3.669019552944344786e-01 5.499311371872922516e-01 -1.122562539967792011e-01 5.492813208988100993e-01 6.231390611545988278e-01 5.131874846178506866e-01 4.981646918148254777e-01 3.494086257195699874e-01 9.193920364645241650e-01 1.190007066953886250e+00 5.572327215739347750e-01 5.678853626331787918e-01 5.957789259725793096e-01 4.637250686149638201e-01 4.901101609139832949e-01 5.156712308339638229e-01 9.901258334449339893e-01 7.249124520347973721e-01 -4.518251334975820765e-01 4.480851303454121970e-01 9.170358389266131116e-01 4.972806572832688676e-01 -9.305377780971563553e-03 5.144889040826500226e-01 1.258364997581739697e+00 -1.385629135889008823e-01 5.667816012027772077e-01 2.487321087204856784e-01 5.456322532094692868e-01 8.225476387917169951e-01 5.204409332770479901e-01 3.679584312131211066e-01 1.394429078713008252e+00 4.872673657848983764e-01 5.268724984210156892e-01 -6.344202825803390011e-01 4.560832571737920005e-01 1.043091209355566429e+00 5.934619708049421183e-01 9.383792951348972344e-02 9.565177745100587048e-01 -5.386932978870155597e-02 6.005943505691849760e-01 1.600795617219701095e+00 -8.533931031082808705e-01 5.472905179009748267e-01 5.154042345014581139e-01 -4.448185466881973138e-01 3.233711031613614173e-01 5.865475480336485026e-01 4.725068884415714598e-01 5.227148794548004407e-01 3.599418506120490302e-01 2.637325019185240982e-01 3.452093805678781990e-01 5.495958142839132421e-01 5.146728306666231711e-01 5.448621705595072667e-03 -8.138169865178568330e-02 5.152973998476161333e-01 1.060664303028317823e+00 4.258694427222252665e-01 -5.677199491985466251e-01 5.670473619825502354e-01 5.208827511174465297e-01 5.025363152263949695e-01 3.480970873896751389e-02 3.367808661108789847e-01 5.169717417860286712e-01 5.277573478431193399e-01 4.534245539457229524e-01 3.445580146116904857e-02 4.605387130374559157e-01 5.107718578719442348e-01 6.469339109637129992e-01 2.073980368094719307e+00 1.640316101828293016e-02 3.831201747255401080e-01 4.847316847882308655e-01 1.819294438571980033e+00 5.763194875334228806e-01 4.764973416183493349e-01 1.491508977516985308e-02 5.447863130666265041e-01 5.071358570075266137e-01 4.729462753220221027e-01 3.804841486735167089e-01 5.115475109318061708e-01 5.426713220400631865e-01 5.662923430233391953e-01 -5.176199966268130170e-01 5.161970778892113199e-01 5.356129572224438418e-01 5.105047094457266788e-01 1.028697937027190257e+00 5.184719774693360428e-01 -2.415856414721759271e-01 1.062079455651393500e+00 -1.240730921817279953e+00 -5.118567123115417283e-01 5.190838901331523703e-01 5.167746165744674380e-01 6.496246017592648414e-01 5.168277507895213674e-01 3.849426882834982022e-01 6.098800601114794384e-01 5.447863149476015465e-01 5.163530659808089895e-01 5.660642486755175229e-01 5.803081811558589154e-01 5.156033645887090344e-01 2.887553418488059132e-01 4.969496234212615327e-01 4.743952034404839146e-01 3.718595373530211856e-01 5.210158452038577970e-01 5.157843520917511082e-01 5.476287564456935320e-01 6.414171561651663689e-01 5.152722913550762396e-01 6.708125292578887011e-01 4.829920732798949623e-01 5.236543936969365598e-01 5.446086429717529320e-01 3.505286511306825448e-01 4.281636320444274224e-01 2.386692027342866229e+00 5.279398213818153884e-01 5.783326402915394127e-01 3.131331700423526931e-01 5.829115299120511962e-01 1.108200491790014341e+00 5.111579212114600868e-01 7.093829126859800827e-01 5.133002568611592098e-01
6.888987499561100014e-01 2.741091403080542221e-01 4.176984083837173012e-01 2.470758562746814060e-02 3.130167231014546192e-01 2.991951891496129612e-01 5.299294560942349186e-01 4.429920782283185976e-01 2.365368387801771444e-01 3.079420010480169445e-01 2.036958807386423764e+00 1.704584919148317779e+00 -1.426747501983754329e+00 6.226587071347609026e-01 3.173908636049488363e-01 4.099359438909902509e-01 1.291973591109368269e-01 4.279330153002892101e-01 4.440596997991297368e-01 3.141267731558001208e-01 4.685224549706146768e-01 2.095589128511772703e+00 3.956287048123436900e-01 3.723195773490219906e-01 7.173264507356039710e-01 -2.398651286963704443e-01 4.572676873209998161e-01 2.367776872365112140e-01 2.797323695844938785e-01 -8.566080168959073760e-01 2.729652801616406776e-01 -1.163496504924573793e-01 2.891241298207969379e-01 2.623732677859897389e-01 -4.262556416933352965e-01 4.526594160119105092e-01 3.034477338331472707e-01 -3.406941651604449839e-01 -3.199614395188298044e+00 3.437688563360637439e-01 1.129118674063370742e+00 1.403819074205899520e-01 -1.646782270591856390e-01 7.916874705113086108e-01 6.344324239433731805e-01 2.872693614520115402e-01 2.474910211412136712e-02 3.193682861304483200e-01 2.400198914532905015e-01 6.871712953714556038e-01 6.814648161907771451e-01 4.661811163527307955e-01 -2.521717368888154454e-01 2.040780166992527678e-01 6.047289708750069881e-01 6.636643037183896920e-01 3.614259734266861424e-01 2.629536097124484662e-01 3.473001272694130614e-01 3.532319279073956597e-01 4.242779972177898595e-01 3.820118814815400277e-01 2.999909512921923871e-01 3.956287113396080857e-01 -3.465027904438821582e-01 1.872160307349119424e-01 3.121009265605201310e-01 3.330819228001072885e-01 2.196743057556512779e-01 7.293960953219233989e-01 1.178903084010663876e-01 2.962864166354271522e-01 3.107054545755614239e-01 7.213007750491233772e-01 1.902840341834604487e+00 4.991623040314209225e-01 4.691474048226116356e-01 4.797921970745828157e-01 3.165167153354020435e-01 -1.325365960560213718e+00 3.069360883812877194e-01 6.215765252059193280e-01 2.283823672908035896e+00 1.104871591723006197e-01 2.767661161271177117e-01 -4.135609713138801435e-01 1.240152637090778803e-01 2.716628601819842670e-01 -5.726908937174726155e-01 -8.741187632887775782e-01 6.346222914677095428e-01 1.559174877069750886e+00 8.887800848052417046e-02 6.985104988941778226e-01 2.799132148528641340e-01 3.082029026365975533e-01 2.759137850387728963e-01 7.383796730249000406e-01 7.384258972939432564e-01 -2.449499089605879365e-01 -1.691596677953453864e-01 5.540332874211041647e-02 2.774671661713969395e-01 2.156463513977503743e-01 -2.079312563253757264e-03 3.068181220172137014e+00 -2.812491485226631394e-01 1.166806236250773066e-01 1.639974794696715255e-01 8.081164853573570284e-01 2.356163131716077497e-01 4.395207829866433213e-01 1.673644334366319042e-01 4.623815610526990083e-01 -4.895201559578759021e-01 2.037101596066012432e-01 2.534043901531548570e-01 4.157212060082052241e-01 1.011264439278115823e+00 3.207466546006474406e-01 -1.438009462636877123e+00 2.364333293283938098e-01 1.795826357786936278e-01 1.333828945137030209e+00 3.149059391907889638e-01 2.147188745244358543e+00 2.035043259757582657e-01 3.487159157302189838e-01 2.965771047124977633e-01 3.168114311184243581e-01 2.877797819565491300e-01 3.115936635658777543e-01 6.744804410816455098e-01 4.099937890799072449e-01 1.788740718467547730e-01 8.749505451619103980e-01 7.031490231081648501e-01 7.235488728655984358e-01 -3.307330456179949363e-01 1.997964182276977252e-01 3.624213962918634291e-01 3.214972070484352629e-01 2.642662528929587418e-01 3.003533769698103484e-01 3.218484327144844892e-01 6.929125589299294230e-01 -1.299637439724850574e-01 3.186830926226038030e-01 4.499167832677753442e-01 3.966386209505195493e-01 -2.683392370022440465e-01 2.161348457632941006e-02 2.872718471868438428e-01 2.660909800536578884e-01 3.498558637411661176e-01 3.222283373649137972e-01 -2.287809143163244130e+00 4.495152235613212310e-01 -5.888175250418408169e-01 -2.455945562622322553e-01 2.955908513125993231e-01 2.280844537521098669e-01 3.347283719560719129e-01 3.160802444101550313e-01 1.125658414312271927e-01 6.964091863471948141e-02 3.147427181304860433e-01 4.238888463394939743e-01 2.919850327371728005e-01 3.541346371319615827e-01 1.791092841065318186e-01 2.533682975207575405e-02 2.872491154885459252e-01 3.168066132109382260e-01 -2.476306526514065798e+00 7.089379420321511027e-01 6.238558996566688775e-01 9.731181317669024278e-01 -4.540167269178211895e-01 1.169663714210814387e+00 -1.128574971110323476e-02 3.052854929933738748e-01 1.230395593873329085e+00 2.752370034415635991e-01 3.052864161439644564e-01 2.576054612151765233e-01 3.168686863151087274e-01 3.240651564388442041e-01 -4.652426130455825648e-01 3.369196769296810001e-01 2.269827651933802592e-01 8.064040441329298758e-01 3.149789735837735805e-01 2.505841298158980601e-01 2.271243506663819522e-01 3.109774520688022292e-01 -1.626829132023368540e+00 3.244238492193769474e-01 2.144922612968007125e-01 3.527465388039662253e-01 9.800974687548140440e-02 2.732120029806243688e-01 3.796394594175901416e-01 1.320185632504467521e-01 -7.949722832918347803e-01 2.144922726189754103e-01 4.574889500792602703e-01 -5.067940686741504441e-01 3.575795348894400538e-01 1.592369303722356577e-01 2.587227560001186255e-01 -3.206742075162503980e+00 4.447268612408655231e-01 9.338183361633686230e-01 3.178491667834760226e-01 3.032292106560042222e-01 3.135791714286650933e-01 3.295872280853995306e-01 3.134005645090798264e-01 3.146198202560334112e-01 3.312050276497671697e-01 1.576298319817215909e-01 6.601161762423078949e-01 1.271448987639103023e-01 5.176068232240638167e-01 4.610524547479996071e-01 3.862378223051252668e-01 -6.473116153540999784e-01 2.253039270786170167e+00 3.849543241336561006e-01 1.231864219136172611e+00 -1.381512700558261919e+00 3.155186389538523484e-01 2.092965184773468990e-01 3.500698223119769192e-01 1.153510434515215399e+00 4.900679208699937894e-01 7.989329654908721157e-01 2.799987779231081775e-01 6.702345716905689921e-01 3.140721796040178426e-01 2.832116934745779191e-01 -1.152854176200339698e+00 3.728628778544390565e-01 3.126467239096616946e-01 4.775561896241668491e-01 9.094088748599035155e-01 -3.462419988132827697e-01 3.100117721172387153e+00 4.767091562091391177e-01 1.230823511261835979e+00 -1.344560072261940797e-01 3.059175788427151987e-01 3.956263692551567623e-01 3.126884858058444072e-01 2.613334208911313183e-01 3.620263574736051204e-01 -1.027381532649688373e-01 1.439184763882572771e-01 5.610762691871645780e-01 2.784046082710467385e-01 9.195818535783990832e-02 2.620222680293811668e-01 3.615992561715121734e-01 4.242780244946950385e-01 2.662393348281957284e-01 3.184471546446261403e+00 3.784583003597204454e-01 6.550620504648219100e-01 5.423585087918889602e-01 2.656972586857459517e-01 4.239805162101273894e-01 3.165390572084476051e-01 2.664386287612666160e-01 3.172233151666190021e-01 -5.252903001832870400e-01 4.663263774767413827e-01 2.854618264998219357e-01 1.214483967923097596e-01 2.559981712959295552e-01 1.519135389184075313e+00 2.560820952089515323e-01 2.864279118397593527e-01 1.983580040506275788e+00 4.943709970455033575e-01 3.206632440969544029e-01 2.687892863600554461e-01 2.816391816725182240e-01 2.037100689549746213e-01 -2.047992040338701525e+00 2.755676918414867171e-01 1.491140286905400458e+00 -1.041169498993224293e-02 2.882854657150530908e-01 7.076280049585738086e-01 2.641423044777031492e-01 -7.149742162747045882e-01 4.301042727202586402e-01 3.160326223296583414e-01 4.499142808881106959e-01 -3.818132530818615367e-01 3.342381463862098001e-01 -2.158168974277716146e+00 2.494574969953059981e-02 2.881144672720162836e-01 6.052133290518183495e-01 3.115144109073543777e-01 3.191376998412404076e-01 4.616643798124667186e-01 2.098469069125474540e-01 -1.189029490599049221e-01 -7.556248347450222891e-01 4.161213986520042284e-03 6.833197275075891808e-01 3.243101696516125232e-01 4.912328868199712928e-01 3.244999241213074592e-01 2.468510255118303368e-02 3.220073003228179354e-01 2.412124783826598673e+00 6.969227900915037077e-01 2.466474189478629619e-01 -1.139648238187300322e+00 2.192845255763312129e-01 4.608747527400483435e+00 3.359687572796234423e-01 -1.237401933061335058e-01 5.689992400672050366e-01 -5.501158204011558972e+00 5.059450074983146139e-01 1.524954532439548593e+00 3.163666577314602213e-01 5.393811534061451196e-01 -4.359941050878541335e-01 3.888651145940192899e-01 3.343994326883572565e-01 2.923502685427032954e-01 2.466355442044881330e-01 2.883338645508750631e+00 -3.653836950257104421e-01 2.867059920439126164e-01 -1.898602541827620449e+00 3.371577514372509077e-01 -3.406941668590334205e-01 7.427810480314360753e-01 5.457745060289785899e-01 3.200691984222041597e-01 3.213165527703231716e-01 1.283024467899431142e+00 1.379284401111960934e-01 2.144919963685331388e-01 3.728604472800582381e-01 1.320185650633230456e-01 2.690594347647352058e-01 3.963653786224707876e-01 -6.020410547616051877e-01 3.170580306125608261e-01 5.409563228643696764e-01 3.752319343618130132e-01 1.672029299455209672e-01 3.150313461511264346e-01 4.620011118230968328e-01 5.457745191395105833e-01 3.894126332472893637e-01 3.163425649727449884e-01 1.983921664978029187e-01 4.419323587931163200e-01 3.344698549230383566e+00 3.142928512785206907e-01 1.566613601172000270e-01 4.242786811731883989e-01 8.516864219606111730e-01 4.646167004646739040e-01 -1.919140557632296740e-01 6.873956586267061519e-01 2.611234187771139803e-01 1.140550106309405065e-01 3.946502841167048858e-01 6.580815129466318636e-01 6.427075233819978806e-01 7.761028233621543038e-01 8.091060076529322798e-01 3.808325699296212230e-01 1.320185632084659721e-01 1.320184758701115624e-01 2.815560314060726044e-01 1.259953484459282180e-01 1.120054647341278908e+00 4.105320737143889342e-01 3.051378931175053877e-01 3.606617941604247091e-01 3.134700685338190351e-01 7.795074833416741900e-01 2.144918208330200415e-01 3.154421423579013006e-01 4.412073400959101166e-01 2.855860559269316479e-01 -6.313150801267738421e-01 3.280959949358843719e-01 3.246141084337885729e-01 3.684192599011433256e-01 6.998427184701132564e-01 7.362598261271499078e-01 1.320185640446931985e-01 5.607295729378912463e-02 3.199258506452899997e-01 4.493099421335890464e-01 -5.899903113598017335e-01 2.041100222219978666e-01 -3.462189379594367900e+00 1.921528156458704784e+00 6.289794052052344320e-01 -4.454818530607193017e-01 2.471680898664956744e-02 2.031826762666927078e+00 3.097313052989474347e-01 6.337730314382830077e-01 3.002821339810072751e-02 3.074605320403993591e-01 4.494833814500676095e-01 2.934010940419085056e-01 -4.355337817619244212e-01 2.504958399834274485e-01 2.033495735896486245e+00 3.530353688493505504e-01 -4.056782620266173867e-01 3.071223774603441536e-01 3.115466341469335099e-01 -1.446202595834839011e+00 3.110550425991016610e-01 3.484738427270294703e-01 4.028471888684607705e-01 1.959368510151094089e-01 3.198773537308283177e-01 2.260505904835045377e-01 3.134813551497625528e-01 -1.604739579893353363e-01 3.097046481298725285e-01 1.271688162558236301e-01 3.328436647795086079e-01 2.881882369214178174e-01 2.164449655296575223e-02 4.335924250943805069e-01 6.077836430634149245e-01 -1.361657122823847432e+00 -5.174794640186657357e-01 -1.067565725391924208e-01 6.380418732422760142e-02 2.849906844656561189e-01 4.262981044299496425e-01 3.625562904205165138e-01 7.266659796830505780e-01 -1.090343022375185461e-01 3.232023947153739862e-01 3.097524334546999936e-01 9.230630812688521425e-02 -1.603065251384915568e-01 2.977686327742631311e-01 4.433036492577347998e-01 4.789553808544339542e-01 3.138005218407068364e-01 2.630454602504790906e-01 3.119210294492181235e-01 2.582706463715313538e-01 3.083097517659155740e-01 5.111903212390503937e-01 4.280869925422067790e-01 3.161035973487222872e-01 6.861013833448448285e-01 3.221238170156204284e-01 7.265754042729997142e-01 8.246882016806313109e-02 5.003038883480309673e-01 2.248781883633542977e-01 -1.436598581562862353e+00 2.931732825895724259e-01 6.443956119343119404e-01 3.833823854445319590e-01 2.662468169332086187e-01 2.861633759424108692e-01 2.506659595567329313e-01 6.942526481753936718e-01 3.102933600424112592e-01 3.749379597752825477e-01 3.170777616319744863e-01 2.888893608708855143e-01 2.137437909344031273e-01 5.200676932563458310e-01 2.867649265570112460e-01 2.549959976867626210e-01 1.678988715105361740e-01 4.761194501460003226e-02 1.616288302414571998e+00 2.910422028800331851e-01 3.720630839450554395e-01 3.759266304659137359e-01 -8.277773251483462325e-01 4.191528008580169273e-01 3.214766904517297741e-01 4.997134520342456643e-01 -1.021244665708117422e-02 3.270705240085413634e-01 1.529617935921618876e+00 8.872941470342933235e-01 4.058161404041152887e-01 2.788072258448337504e-01 3.777919124602318046e-01 3.283301681744902334e-01 9.120565662839251742e-01 2.997997005569732920e+00 3.182032095711695430e-01 5.077191298367804417e-02 5.941476197060767683e-01 -1.765004917436942267e-01 3.173870544865798893e-01 3.249005790691830708e-01 1.058148788139999130e+00 3.038794748829113934e-01 -3.124468924375338741e-01 3.726958603949543369e-01 1.179573524130607953e-01 6.562371870511551908e-01 1.709622565449940623e+00 3.515359057143653820e-01 2.432431337612649402e-01 1.647917489697241278e+00 4.104459976473875393e-01 3.126507198095692108e-01 2.425079259880777438e-01 3.248479590973213371e-01 2.435282759713527576e-02 4.599074839975406670e-01 2.363716777245408462e-01 7.276532348084404633e-01 2.737957268874868233e-01 3.103143735900025790e-01 3.009144294480934900e-01 4.572350079201643047e-01 2.801518524018121181e-01 2.541169946679420200e-01 9.166749572969231652e-01 5.038191062148267285e-01 4.162672667956983652e-01 2.840991551075272570e-01 3.008675545918650940e-01 2.999419607663506016e-01 5.845668427566963476e-01 7.671783696676394149e-01 3.357759562401128051e-01 2.834386646766524631e-01 4.461325332280028921e-01 3.139833136108437506e-01 7.383138136104823168e-01 2.164481469383951473e-01 4.450650217917164198e-01 -3.167356061085770391e-01 3.180636478913115295e-01 2.628329808362455111e-01 4.141343165605956833e-01 3.287414645878980468e-01 2.347457702123771639e-01 1.756304353625274928e+00 1.111607682062934060e-01 2.718785626404348066e-01 -1.588158364531165878e-01 1.611055849760567593e+00 1.141077022843889122e+00 6.276537719354870204e-02 -4.609929904666076883e-01 3.792299244544055647e-01 3.661447664864248552e-01 5.156831037657788608e-01 3.150177816142891163e-01 3.211282970932536895e-01 1.945944826157413321e-01 3.424113560931048572e-01 3.733541192963637512e-01 2.444915170861263615e-02 -1.831531045417192360e-01 3.820940622125161279e-01 3.382472163906168894e-01 2.018723934531648778e-01 8.600338994062054487e-01 4.242780122075776594e-01 2.270637163601804398e-01 8.295628634258648271e-01 4.761636458606529065e-01 6.341968529197342663e-01 4.464078571416159047e-01 6.873538871497091307e-01 1.461696693893542731e+00 3.011683191693470540e-01 2.049006798254136008e+00 -1.851744753917345873e-02 1.364712030362094097e-01 3.151814956854509520e-01 2.764507951609251890e-01 3.279750860516353339e-01 3.541102255015193268e-01 3.228399114209080101e-01 3.148176578788587920e-01 3.557111748295457843e-01 1.834205859666446503e-01 -2.912003206307595127e-01 2.609949863206165732e-01 -7.748496223159334617e-02 2.859220911466046622e-01 4.499151874068099133e-01 4.242780122587496705e-01 2.025451591026979914e-01 2.154166361559000653e-01 -1.203047952552481314e+00 1.932888302815187087e+00 3.180856458185791213e-01 -7.015128981705391897e-01 2.978135832077076772e-01 3.117108993168554165e-01 3.174664576911340186e-01 -4.695212366528246584e+00 3.482198275732544257e+00 6.209147551289924127e-01 9.290554966999042819e-02 3.179114420727576218e-01 3.214908002917407082e-01 3.063012276056735761e-01 2.579126986503191610e+00 6.166878929525334563e-01 3.201869061876121414e-01 2.037101667310892705e-01 2.521959829806628695e-01 2.656749275995400894e-01 8.719825471813417161e-01 -3.783918114604765681e-01 -1.150751112303306067e+00 -1.191488854704653599e+00 3.135620976505341106e-01 3.211613395045642694e-01 7.094929543474088884e-01 3.469922165286158378e-01 1.303796117905759555e+00 4.661631606644599524e-01 3.146321132979092439e-01 3.027713162623136833e-01 3.207207408173313734e-01 2.811544779763798241e-01 2.868030233828841591e-01 6.511612082052190553e-01 2.771476911774151120e-01 6.453402719930297904e-01 2.180727455805001602e-01 2.509188349871412788e-02 2.867966643556824069e-01 2.001797666305072110e-01 3.468116647371677352e-01 3.242097426684651396e-01 6.858509181353831252e-01 5.457745183800649658e-01 4.562517603602694871e-01 3.822597272634272181e-01 3.168342268312562826e-01 2.572042185839346629e-01 1.529609920188099492e+00 1.839262087511651211e+00 2.871655935729237608e-01 3.589128429253837793e-01 3.192450610273800948e-01 1.692200950015720351e-01 2.359372995787608618e-01 2.219928232765307763e-01 3.090201068786229133e-01 3.213826093133516082e-01 7.911207842377669941e-01 8.685330744796384561e-01 2.417708416545964745e-01 1.840746091361439962e+00 2.080758862738383008e-01 -1.685750656824470672e-01 -2.719568668002860790e-01 -3.210355435487167175e-01 3.159574548246657510e-01 2.770163428939671491e-01 7.060057803395788367e-01 3.148808473476095715e-01 4.561326549635756344e-01 3.292289582491971789e-01 3.764304580678578538e-01 4.038040487371604703e-01 2.897991611218243835e-02 1.021889117930681934e+00 3.107779852387047015e-01 4.731433053424460855e-01 3.228580180833615088e-01 3.629513579301032467e-01 3.175241167172477286e-01 3.879783077713275796e-01 -1.141124141452930507e-01 2.233034299309726578e-01 3.179175961664828520e-01 2.493873831478637254e-02 4.242779420973831761e-01 1.116781108408912093e+00 9.462510526991968485e-01 -7.363050096364598396e-01 -3.406941651846894792e-01 6.451654429446022077e-01 -3.267264170743081841e+00 1.556941733697062569e+00 2.639812458123287908e-01 2.491656334817833260e-02 3.195948458811520565e-01 8.738188418458537887e-01 3.189461899730782757e-01 3.728626144677193444e-01 -4.358226707968794189e-01 8.281964856167024491e-01 2.618106962580060149e-01 8.859625641144152075e-01 2.063828778364992012e+00 -3.785766985947139340e-01 -1.433824492351941648e+00 2.667293997602788180e-01 2.747362638822024028e-01 7.749622748333161448e-01 3.168399299466587160e-01 7.010727339920522772e-01 4.690481910373722196e-01 1.624945516936170953e-01 3.165247390340571454e-01 3.277711751235634074e-01 2.194090178099082356e-01 3.466123175196513251e-01 1.383052249327616501e+00 1.594926219412069468e+00 3.081917727741100843e-01 2.524049407948226742e-01 5.441571602605118491e-02 -2.369307555591779746e-01 2.022475869438981888e-01 3.878595140459714045e-03 3.121441019188810340e-01 7.073560066352094777e-01 -4.361447234353206803e-01 2.875456415042725311e-01 3.409622810291144113e-01 1.559337512007344106e-01 3.037355621186340615e-01 2.605902829982985058e-01 3.110060173408447093e-01 3.192391058244007929e-01 -1.894008152710357357e-02 2.545121730209180533e-01 4.406154551220983207e-01 1.106027621395258453e+00 1.098469012375380416e+00 9.366192306005709511e-01 1.944234378503188199e-01 7.715681779745077185e-01 1.278204882461978498e-01 4.617782633960565986e-01 -2.070650601765198218e+00 2.863087603625155131e-01 6.518330501019439227e-01 2.706818319925946570e-01 9.574326995810870100e-01 1.357307904788345176e+00 2.037101596933365288e-01 2.864567696059836521e-01 3.725857267264897077e-01 2.536414103771060247e-01 5.551319767448867903e-01 8.265730878950542371e-01 -7.556546124189342795e-01 1.531368242135316138e-01 1.122703075060980937e-01 2.965517665884716547e-01 3.432630732986614031e-01 7.704290854866940874e-01 -1.720425849561912635e-01 3.906174871292336093e-01 3.177079457338362056e-01 2.903554025763060986e-01 8.873209871575803431e-01 4.234875949654225979e-01 -2.058415825736354954e-01 8.594136448663993733e-01 -4.550746587800659493e-02 5.732245123824815103e-01 2.766222224069158631e-01 1.275680997544886175e+00 5.528896972499927065e-01 7.260532667135058960e-01 4.374886069624219775e-01 4.820351346671022941e-01 -5.237616421152070378e-01 2.780409770415667170e-01 7.637876205287299491e-01 3.328628637513321165e-01 6.399415360625385629e-01 2.839196297449620987e-01 3.179449193690434550e-01 7.316219666115280074e-01 1.283830333262504508e-01 -2.022845381926087871e+00 2.678996764067338998e-01 2.817986675734188151e-01 7.670845238926785603e-01 3.994491645186724060e-01 4.011422854034164542e-01 2.840840271094386416e-01 2.531850464256644173e-01 3.698143768820709720e-01 3.638055429719084383e-02 -1.610119379725319044e+00 7.458409100870092567e-01 2.616333856527519597e-01 3.246907711709605127e-01 1.914232924056336604e-01 8.237400929531881744e-01 3.141823862423557823e-01 -1.328249211005173569e-01 3.184946155524295830e-01 1.115691339748917432e+00 2.867361169684025102e-01 4.147855575785168170e-01 1.062342154970723929e+00 3.366124187185117744e-01 2.725079627341572497e+00 3.025980952873448260e-01 2.923850630958376162e-01 6.888464195875042551e-01 2.969058473645334595e-01 2.961660522160855513e-01 -2.037516685661174165e+00 3.923401002246949543e-01 3.132731505927996429e-01 5.129660915935545518e-01 3.231704266768093969e-01 2.823864489772234809e-01 -2.362775180610922898e-01 2.025507276945245572e+00 -5.203611083808232785e-01 8.284217660458208510e-01 3.174749405721191131e-01 3.658944749990988288e-01 7.710950708758110839e-01 3.612513685148965870e-01 1.318917189163929748e+00 1.692591704088927118e-01 2.958899809589071173e-01 -8.791175269065909514e-01 -1.306537249866011607e-01 -3.174873371776320563e-01 -3.847945206103327020e+00 2.906775738843642376e+00 6.310442567987217810e-02 3.321855254659474843e-01 -1.593163733368925916e+00 3.127644545363413298e-01 2.389581795891012883e-01 3.071743590102989363e-01 1.424739375998664015e-01 6.383615359896845920e-01 5.936738485550205890e-01 9.995962535294572460e-01 -3.406941660633763802e-01 -2.165465762910075420e-01 2.101836222043238223e-01 -1.175944842306307914e+00 2.802954098759802837e-01 -6.333280130623120119e-01 2.923484921168092443e-01 4.755205996791617151e-01 5.071808915582680377e-02 4.289299858908019458e-01 2.718072337866492272e-01 -9.554808001462579414e-02 2.040784381588624519e-01 3.008485072082160428e-01 3.535683155339060524e-01 3.099754711323547407e-01 3.167997478966730895e-01 -7.361146445282475970e-01 5.621946654979931290e-01 1.528791663220046892e+00 5.787384872422893928e-02 2.411574737299125581e-01 4.061641053917829924e-01 1.213053437637285903e+00 3.102189822673225295e-01 1.501719123575874781e-01 8.959996209176858128e-01 3.132411554222870875e-01 1.836763565610955995e+00 3.648114485352378922e-01 1.209877586413659722e+00 3.041365543688178685e-01 7.368920378064698351e-01 1.343417061862697492e+00 3.040481937438950233e-01 4.046144425976448411e-01 9.118766394174752099e-01 -1.867744194846016337e-01 -5.131891415795779982e-02 1.683394822225562359e-01 2.970038035435136892e-01 3.476083004040244062e-01 1.418069043591898837e-01 2.185890126091201424e-01 -3.531652845117049244e-01 1.292550977082635777e+00 2.645490280977493280e-01 3.142520850350051798e-01 -3.112814245915768829e+00 4.973944488652453644e-01 3.596639400659802921e-01 4.527320572470952542e-01 4.316591840277544390e-01 4.976653167754725438e-01 -1.049130190378673388e+00 6.007800183447914444e-01 2.675355973358746198e-01 3.214865419753749065e-01 1.040707376151012609e+00 4.480241808647352775e-01 3.136666615963866200e-01 -1.386113641050239265e+00 4.423111928704986373e-01 8.874303639067219196e-01 2.991516584865299699e-01 3.099544160621677813e-01 3.419342241437688390e-01 7.011146777002813524e-01 -8.030397322305754537e-02 3.132434239090083339e-01 2.906195187942197111e-01 7.171496171008341636e-02 6.960026797888583250e-01 3.563829305393185765e-01 7.330731387195461579e-01 1.733328996331772176e-01 6.858591726548722844e-01 -2.133892017274651165e-01 -1.502147233106209789e+00 3.431337033861034946e-01 -1.558578538959272571e-02 3.211452751832621355e-01 3.497150055720621431e-01 5.537649106573996199e-02 5.457745213101649062e-01 3.234870957201845254e-01 8.624141648428707008e-02 4.573586941839077880e-01 2.609893966641352314e-01 3.277136599632177183e-01 2.704755394410801594e-01 -8.125553653240090712e-01 3.054508232833674786e-01 3.583878645580202416e-01 2.895118129277890473e-01 -1.281012488078682177e-01 3.127309036851471657e-01 7.997022848892890723e-01 -5.074239980222927660e-01 1.095088655172729242e+00 6.039159526251173249e-01 2.645352478964935194e-01 3.157613666222111037e-01 -2.023468594990576630e+00 3.077335931676823955e-01 1.833385063120439307e-01 2.372172992568891414e-01 5.457745115126786395e-01 3.157314008930333094e-01 2.624884477532039573e-01 1.077681658232614997e-01 3.183047439186568184e-01 4.360318259194134738e-01 4.142561246865306690e-01 3.739474420702153523e-01 3.001085139601858409e-01 3.176675606891404824e-01 3.107331196568346443e-01 2.719870437777265892e-01 2.785080504399642040e-02 3.214940440646344433e-01 5.945879004339469365e-01 2.150647045788873779e-01 3.310390790730124988e-01 -1.244365345450214599e-01 1.362450970049159382e-01 5.194430061924160125e-01 4.367000267719553186e+00 2.923478595115234779e-01 1.243205444157188533e-01 5.284057020725151377e-01 2.103517984672690078e-01 1.535206540848314427e+00 3.461931618098672003e-01 6.574566379656229254e-01 3.114250930392101213e-01
