# 
#                 ----------------------------------------------------
#                 Data from a 3D direct N-body simulation. 
# 
#                 rows are i-particle; 
#                 coumns are :mass, tag, x ,y, z, vx, vy, vz, ax, ay, az
# 
#                 NTHU, Computational Physics 
# 
#                 ----------------------------------------------------
#                 Time = 0.0
0.000000000000000000e+00 1.000000000000000000e+00 2.000000000000000000e+00 3.000000000000000000e+00 4.000000000000000000e+00 5.000000000000000000e+00 6.000000000000000000e+00 7.000000000000000000e+00 8.000000000000000000e+00 9.000000000000000000e+00 1.000000000000000000e+01 1.100000000000000000e+01 1.200000000000000000e+01 1.300000000000000000e+01 1.400000000000000000e+01 1.500000000000000000e+01 1.600000000000000000e+01 1.700000000000000000e+01 1.800000000000000000e+01 1.900000000000000000e+01 2.000000000000000000e+01 2.100000000000000000e+01 2.200000000000000000e+01 2.300000000000000000e+01 2.400000000000000000e+01 2.500000000000000000e+01 2.600000000000000000e+01 2.700000000000000000e+01 2.800000000000000000e+01 2.900000000000000000e+01 3.000000000000000000e+01 3.100000000000000000e+01 3.200000000000000000e+01 3.300000000000000000e+01 3.400000000000000000e+01 3.500000000000000000e+01 3.600000000000000000e+01 3.700000000000000000e+01 3.800000000000000000e+01 3.900000000000000000e+01 4.000000000000000000e+01 4.100000000000000000e+01 4.200000000000000000e+01 4.300000000000000000e+01 4.400000000000000000e+01 4.500000000000000000e+01 4.600000000000000000e+01 4.700000000000000000e+01 4.800000000000000000e+01 4.900000000000000000e+01 5.000000000000000000e+01 5.100000000000000000e+01 5.200000000000000000e+01 5.300000000000000000e+01 5.400000000000000000e+01 5.500000000000000000e+01 5.600000000000000000e+01 5.700000000000000000e+01 5.800000000000000000e+01 5.900000000000000000e+01 6.000000000000000000e+01 6.100000000000000000e+01 6.200000000000000000e+01 6.300000000000000000e+01 6.400000000000000000e+01 6.500000000000000000e+01 6.600000000000000000e+01 6.700000000000000000e+01 6.800000000000000000e+01 6.900000000000000000e+01 7.000000000000000000e+01 7.100000000000000000e+01 7.200000000000000000e+01 7.300000000000000000e+01 7.400000000000000000e+01 7.500000000000000000e+01 7.600000000000000000e+01 7.700000000000000000e+01 7.800000000000000000e+01 7.900000000000000000e+01 8.000000000000000000e+01 8.100000000000000000e+01 8.200000000000000000e+01 8.300000000000000000e+01 8.400000000000000000e+01 8.500000000000000000e+01 8.600000000000000000e+01 8.700000000000000000e+01 8.800000000000000000e+01 8.900000000000000000e+01 9.000000000000000000e+01 9.100000000000000000e+01 9.200000000000000000e+01 9.300000000000000000e+01 9.400000000000000000e+01 9.500000000000000000e+01 9.600000000000000000e+01 9.700000000000000000e+01 9.800000000000000000e+01 9.900000000000000000e+01 1.000000000000000000e+02 1.010000000000000000e+02 1.020000000000000000e+02 1.030000000000000000e+02 1.040000000000000000e+02 1.050000000000000000e+02 1.060000000000000000e+02 1.070000000000000000e+02 1.080000000000000000e+02 1.090000000000000000e+02 1.100000000000000000e+02 1.110000000000000000e+02 1.120000000000000000e+02 1.130000000000000000e+02 1.140000000000000000e+02 1.150000000000000000e+02 1.160000000000000000e+02 1.170000000000000000e+02 1.180000000000000000e+02 1.190000000000000000e+02 1.200000000000000000e+02 1.210000000000000000e+02 1.220000000000000000e+02 1.230000000000000000e+02 1.240000000000000000e+02 1.250000000000000000e+02 1.260000000000000000e+02 1.270000000000000000e+02 1.280000000000000000e+02 1.290000000000000000e+02 1.300000000000000000e+02 1.310000000000000000e+02 1.320000000000000000e+02 1.330000000000000000e+02 1.340000000000000000e+02 1.350000000000000000e+02 1.360000000000000000e+02 1.370000000000000000e+02 1.380000000000000000e+02 1.390000000000000000e+02 1.400000000000000000e+02 1.410000000000000000e+02 1.420000000000000000e+02 1.430000000000000000e+02 1.440000000000000000e+02 1.450000000000000000e+02 1.460000000000000000e+02 1.470000000000000000e+02 1.480000000000000000e+02 1.490000000000000000e+02 1.500000000000000000e+02 1.510000000000000000e+02 1.520000000000000000e+02 1.530000000000000000e+02 1.540000000000000000e+02 1.550000000000000000e+02 1.560000000000000000e+02 1.570000000000000000e+02 1.580000000000000000e+02 1.590000000000000000e+02 1.600000000000000000e+02 1.610000000000000000e+02 1.620000000000000000e+02 1.630000000000000000e+02 1.640000000000000000e+02 1.650000000000000000e+02 1.660000000000000000e+02 1.670000000000000000e+02 1.680000000000000000e+02 1.690000000000000000e+02 1.700000000000000000e+02 1.710000000000000000e+02 1.720000000000000000e+02 1.730000000000000000e+02 1.740000000000000000e+02 1.750000000000000000e+02 1.760000000000000000e+02 1.770000000000000000e+02 1.780000000000000000e+02 1.790000000000000000e+02 1.800000000000000000e+02 1.810000000000000000e+02 1.820000000000000000e+02 1.830000000000000000e+02 1.840000000000000000e+02 1.850000000000000000e+02 1.860000000000000000e+02 1.870000000000000000e+02 1.880000000000000000e+02 1.890000000000000000e+02 1.900000000000000000e+02 1.910000000000000000e+02 1.920000000000000000e+02 1.930000000000000000e+02 1.940000000000000000e+02 1.950000000000000000e+02 1.960000000000000000e+02 1.970000000000000000e+02 1.980000000000000000e+02 1.990000000000000000e+02 2.000000000000000000e+02 2.010000000000000000e+02 2.020000000000000000e+02 2.030000000000000000e+02 2.040000000000000000e+02 2.050000000000000000e+02 2.060000000000000000e+02 2.070000000000000000e+02 2.080000000000000000e+02 2.090000000000000000e+02 2.100000000000000000e+02 2.110000000000000000e+02 2.120000000000000000e+02 2.130000000000000000e+02 2.140000000000000000e+02 2.150000000000000000e+02 2.160000000000000000e+02 2.170000000000000000e+02 2.180000000000000000e+02 2.190000000000000000e+02 2.200000000000000000e+02 2.210000000000000000e+02 2.220000000000000000e+02 2.230000000000000000e+02 2.240000000000000000e+02 2.250000000000000000e+02 2.260000000000000000e+02 2.270000000000000000e+02 2.280000000000000000e+02 2.290000000000000000e+02 2.300000000000000000e+02 2.310000000000000000e+02 2.320000000000000000e+02 2.330000000000000000e+02 2.340000000000000000e+02 2.350000000000000000e+02 2.360000000000000000e+02 2.370000000000000000e+02 2.380000000000000000e+02 2.390000000000000000e+02 2.400000000000000000e+02 2.410000000000000000e+02 2.420000000000000000e+02 2.430000000000000000e+02 2.440000000000000000e+02 2.450000000000000000e+02 2.460000000000000000e+02 2.470000000000000000e+02 2.480000000000000000e+02 2.490000000000000000e+02 2.500000000000000000e+02 2.510000000000000000e+02 2.520000000000000000e+02 2.530000000000000000e+02 2.540000000000000000e+02 2.550000000000000000e+02 2.560000000000000000e+02 2.570000000000000000e+02 2.580000000000000000e+02 2.590000000000000000e+02 2.600000000000000000e+02 2.610000000000000000e+02 2.620000000000000000e+02 2.630000000000000000e+02 2.640000000000000000e+02 2.650000000000000000e+02 2.660000000000000000e+02 2.670000000000000000e+02 2.680000000000000000e+02 2.690000000000000000e+02 2.700000000000000000e+02 2.710000000000000000e+02 2.720000000000000000e+02 2.730000000000000000e+02 2.740000000000000000e+02 2.750000000000000000e+02 2.760000000000000000e+02 2.770000000000000000e+02 2.780000000000000000e+02 2.790000000000000000e+02 2.800000000000000000e+02 2.810000000000000000e+02 2.820000000000000000e+02 2.830000000000000000e+02 2.840000000000000000e+02 2.850000000000000000e+02 2.860000000000000000e+02 2.870000000000000000e+02 2.880000000000000000e+02 2.890000000000000000e+02 2.900000000000000000e+02 2.910000000000000000e+02 2.920000000000000000e+02 2.930000000000000000e+02 2.940000000000000000e+02 2.950000000000000000e+02 2.960000000000000000e+02 2.970000000000000000e+02 2.980000000000000000e+02 2.990000000000000000e+02 3.000000000000000000e+02 3.010000000000000000e+02 3.020000000000000000e+02 3.030000000000000000e+02 3.040000000000000000e+02 3.050000000000000000e+02 3.060000000000000000e+02 3.070000000000000000e+02 3.080000000000000000e+02 3.090000000000000000e+02 3.100000000000000000e+02 3.110000000000000000e+02 3.120000000000000000e+02 3.130000000000000000e+02 3.140000000000000000e+02 3.150000000000000000e+02 3.160000000000000000e+02 3.170000000000000000e+02 3.180000000000000000e+02 3.190000000000000000e+02 3.200000000000000000e+02 3.210000000000000000e+02 3.220000000000000000e+02 3.230000000000000000e+02 3.240000000000000000e+02 3.250000000000000000e+02 3.260000000000000000e+02 3.270000000000000000e+02 3.280000000000000000e+02 3.290000000000000000e+02 3.300000000000000000e+02 3.310000000000000000e+02 3.320000000000000000e+02 3.330000000000000000e+02 3.340000000000000000e+02 3.350000000000000000e+02 3.360000000000000000e+02 3.370000000000000000e+02 3.380000000000000000e+02 3.390000000000000000e+02 3.400000000000000000e+02 3.410000000000000000e+02 3.420000000000000000e+02 3.430000000000000000e+02 3.440000000000000000e+02 3.450000000000000000e+02 3.460000000000000000e+02 3.470000000000000000e+02 3.480000000000000000e+02 3.490000000000000000e+02 3.500000000000000000e+02 3.510000000000000000e+02 3.520000000000000000e+02 3.530000000000000000e+02 3.540000000000000000e+02 3.550000000000000000e+02 3.560000000000000000e+02 3.570000000000000000e+02 3.580000000000000000e+02 3.590000000000000000e+02 3.600000000000000000e+02 3.610000000000000000e+02 3.620000000000000000e+02 3.630000000000000000e+02 3.640000000000000000e+02 3.650000000000000000e+02 3.660000000000000000e+02 3.670000000000000000e+02 3.680000000000000000e+02 3.690000000000000000e+02 3.700000000000000000e+02 3.710000000000000000e+02 3.720000000000000000e+02 3.730000000000000000e+02 3.740000000000000000e+02 3.750000000000000000e+02 3.760000000000000000e+02 3.770000000000000000e+02 3.780000000000000000e+02 3.790000000000000000e+02 3.800000000000000000e+02 3.810000000000000000e+02 3.820000000000000000e+02 3.830000000000000000e+02 3.840000000000000000e+02 3.850000000000000000e+02 3.860000000000000000e+02 3.870000000000000000e+02 3.880000000000000000e+02 3.890000000000000000e+02 3.900000000000000000e+02 3.910000000000000000e+02 3.920000000000000000e+02 3.930000000000000000e+02 3.940000000000000000e+02 3.950000000000000000e+02 3.960000000000000000e+02 3.970000000000000000e+02 3.980000000000000000e+02 3.990000000000000000e+02 4.000000000000000000e+02 4.010000000000000000e+02 4.020000000000000000e+02 4.030000000000000000e+02 4.040000000000000000e+02 4.050000000000000000e+02 4.060000000000000000e+02 4.070000000000000000e+02 4.080000000000000000e+02 4.090000000000000000e+02 4.100000000000000000e+02 4.110000000000000000e+02 4.120000000000000000e+02 4.130000000000000000e+02 4.140000000000000000e+02 4.150000000000000000e+02 4.160000000000000000e+02 4.170000000000000000e+02 4.180000000000000000e+02 4.190000000000000000e+02 4.200000000000000000e+02 4.210000000000000000e+02 4.220000000000000000e+02 4.230000000000000000e+02 4.240000000000000000e+02 4.250000000000000000e+02 4.260000000000000000e+02 4.270000000000000000e+02 4.280000000000000000e+02 4.290000000000000000e+02 4.300000000000000000e+02 4.310000000000000000e+02 4.320000000000000000e+02 4.330000000000000000e+02 4.340000000000000000e+02 4.350000000000000000e+02 4.360000000000000000e+02 4.370000000000000000e+02 4.380000000000000000e+02 4.390000000000000000e+02 4.400000000000000000e+02 4.410000000000000000e+02 4.420000000000000000e+02 4.430000000000000000e+02 4.440000000000000000e+02 4.450000000000000000e+02 4.460000000000000000e+02 4.470000000000000000e+02 4.480000000000000000e+02 4.490000000000000000e+02 4.500000000000000000e+02 4.510000000000000000e+02 4.520000000000000000e+02 4.530000000000000000e+02 4.540000000000000000e+02 4.550000000000000000e+02 4.560000000000000000e+02 4.570000000000000000e+02 4.580000000000000000e+02 4.590000000000000000e+02 4.600000000000000000e+02 4.610000000000000000e+02 4.620000000000000000e+02 4.630000000000000000e+02 4.640000000000000000e+02 4.650000000000000000e+02 4.660000000000000000e+02 4.670000000000000000e+02 4.680000000000000000e+02 4.690000000000000000e+02 4.700000000000000000e+02 4.710000000000000000e+02 4.720000000000000000e+02 4.730000000000000000e+02 4.740000000000000000e+02 4.750000000000000000e+02 4.760000000000000000e+02 4.770000000000000000e+02 4.780000000000000000e+02 4.790000000000000000e+02 4.800000000000000000e+02 4.810000000000000000e+02 4.820000000000000000e+02 4.830000000000000000e+02 4.840000000000000000e+02 4.850000000000000000e+02 4.860000000000000000e+02 4.870000000000000000e+02 4.880000000000000000e+02 4.890000000000000000e+02 4.900000000000000000e+02 4.910000000000000000e+02 4.920000000000000000e+02 4.930000000000000000e+02 4.940000000000000000e+02 4.950000000000000000e+02 4.960000000000000000e+02 4.970000000000000000e+02 4.980000000000000000e+02 4.990000000000000000e+02 5.000000000000000000e+02 5.010000000000000000e+02 5.020000000000000000e+02 5.030000000000000000e+02 5.040000000000000000e+02 5.050000000000000000e+02 5.060000000000000000e+02 5.070000000000000000e+02 5.080000000000000000e+02 5.090000000000000000e+02 5.100000000000000000e+02 5.110000000000000000e+02 5.120000000000000000e+02 5.130000000000000000e+02 5.140000000000000000e+02 5.150000000000000000e+02 5.160000000000000000e+02 5.170000000000000000e+02 5.180000000000000000e+02 5.190000000000000000e+02 5.200000000000000000e+02 5.210000000000000000e+02 5.220000000000000000e+02 5.230000000000000000e+02 5.240000000000000000e+02 5.250000000000000000e+02 5.260000000000000000e+02 5.270000000000000000e+02 5.280000000000000000e+02 5.290000000000000000e+02 5.300000000000000000e+02 5.310000000000000000e+02 5.320000000000000000e+02 5.330000000000000000e+02 5.340000000000000000e+02 5.350000000000000000e+02 5.360000000000000000e+02 5.370000000000000000e+02 5.380000000000000000e+02 5.390000000000000000e+02 5.400000000000000000e+02 5.410000000000000000e+02 5.420000000000000000e+02 5.430000000000000000e+02 5.440000000000000000e+02 5.450000000000000000e+02 5.460000000000000000e+02 5.470000000000000000e+02 5.480000000000000000e+02 5.490000000000000000e+02 5.500000000000000000e+02 5.510000000000000000e+02 5.520000000000000000e+02 5.530000000000000000e+02 5.540000000000000000e+02 5.550000000000000000e+02 5.560000000000000000e+02 5.570000000000000000e+02 5.580000000000000000e+02 5.590000000000000000e+02 5.600000000000000000e+02 5.610000000000000000e+02 5.620000000000000000e+02 5.630000000000000000e+02 5.640000000000000000e+02 5.650000000000000000e+02 5.660000000000000000e+02 5.670000000000000000e+02 5.680000000000000000e+02 5.690000000000000000e+02 5.700000000000000000e+02 5.710000000000000000e+02 5.720000000000000000e+02 5.730000000000000000e+02 5.740000000000000000e+02 5.750000000000000000e+02 5.760000000000000000e+02 5.770000000000000000e+02 5.780000000000000000e+02 5.790000000000000000e+02 5.800000000000000000e+02 5.810000000000000000e+02 5.820000000000000000e+02 5.830000000000000000e+02 5.840000000000000000e+02 5.850000000000000000e+02 5.860000000000000000e+02 5.870000000000000000e+02 5.880000000000000000e+02 5.890000000000000000e+02 5.900000000000000000e+02 5.910000000000000000e+02 5.920000000000000000e+02 5.930000000000000000e+02 5.940000000000000000e+02 5.950000000000000000e+02 5.960000000000000000e+02 5.970000000000000000e+02 5.980000000000000000e+02 5.990000000000000000e+02 6.000000000000000000e+02 6.010000000000000000e+02 6.020000000000000000e+02 6.030000000000000000e+02 6.040000000000000000e+02 6.050000000000000000e+02 6.060000000000000000e+02 6.070000000000000000e+02 6.080000000000000000e+02 6.090000000000000000e+02 6.100000000000000000e+02 6.110000000000000000e+02 6.120000000000000000e+02 6.130000000000000000e+02 6.140000000000000000e+02 6.150000000000000000e+02 6.160000000000000000e+02 6.170000000000000000e+02 6.180000000000000000e+02 6.190000000000000000e+02 6.200000000000000000e+02 6.210000000000000000e+02 6.220000000000000000e+02 6.230000000000000000e+02 6.240000000000000000e+02 6.250000000000000000e+02 6.260000000000000000e+02 6.270000000000000000e+02 6.280000000000000000e+02 6.290000000000000000e+02 6.300000000000000000e+02 6.310000000000000000e+02 6.320000000000000000e+02 6.330000000000000000e+02 6.340000000000000000e+02 6.350000000000000000e+02 6.360000000000000000e+02 6.370000000000000000e+02 6.380000000000000000e+02 6.390000000000000000e+02 6.400000000000000000e+02 6.410000000000000000e+02 6.420000000000000000e+02 6.430000000000000000e+02 6.440000000000000000e+02 6.450000000000000000e+02 6.460000000000000000e+02 6.470000000000000000e+02 6.480000000000000000e+02 6.490000000000000000e+02 6.500000000000000000e+02 6.510000000000000000e+02 6.520000000000000000e+02 6.530000000000000000e+02 6.540000000000000000e+02 6.550000000000000000e+02 6.560000000000000000e+02 6.570000000000000000e+02 6.580000000000000000e+02 6.590000000000000000e+02 6.600000000000000000e+02 6.610000000000000000e+02 6.620000000000000000e+02 6.630000000000000000e+02 6.640000000000000000e+02 6.650000000000000000e+02 6.660000000000000000e+02 6.670000000000000000e+02 6.680000000000000000e+02 6.690000000000000000e+02 6.700000000000000000e+02 6.710000000000000000e+02 6.720000000000000000e+02 6.730000000000000000e+02 6.740000000000000000e+02 6.750000000000000000e+02 6.760000000000000000e+02 6.770000000000000000e+02 6.780000000000000000e+02 6.790000000000000000e+02 6.800000000000000000e+02 6.810000000000000000e+02 6.820000000000000000e+02 6.830000000000000000e+02 6.840000000000000000e+02 6.850000000000000000e+02 6.860000000000000000e+02 6.870000000000000000e+02 6.880000000000000000e+02 6.890000000000000000e+02 6.900000000000000000e+02 6.910000000000000000e+02 6.920000000000000000e+02 6.930000000000000000e+02 6.940000000000000000e+02 6.950000000000000000e+02 6.960000000000000000e+02 6.970000000000000000e+02 6.980000000000000000e+02 6.990000000000000000e+02 7.000000000000000000e+02 7.010000000000000000e+02 7.020000000000000000e+02 7.030000000000000000e+02 7.040000000000000000e+02 7.050000000000000000e+02 7.060000000000000000e+02 7.070000000000000000e+02 7.080000000000000000e+02 7.090000000000000000e+02 7.100000000000000000e+02 7.110000000000000000e+02 7.120000000000000000e+02 7.130000000000000000e+02 7.140000000000000000e+02 7.150000000000000000e+02 7.160000000000000000e+02 7.170000000000000000e+02 7.180000000000000000e+02 7.190000000000000000e+02 7.200000000000000000e+02 7.210000000000000000e+02 7.220000000000000000e+02 7.230000000000000000e+02 7.240000000000000000e+02 7.250000000000000000e+02 7.260000000000000000e+02 7.270000000000000000e+02 7.280000000000000000e+02 7.290000000000000000e+02 7.300000000000000000e+02 7.310000000000000000e+02 7.320000000000000000e+02 7.330000000000000000e+02 7.340000000000000000e+02 7.350000000000000000e+02 7.360000000000000000e+02 7.370000000000000000e+02 7.380000000000000000e+02 7.390000000000000000e+02 7.400000000000000000e+02 7.410000000000000000e+02 7.420000000000000000e+02 7.430000000000000000e+02 7.440000000000000000e+02 7.450000000000000000e+02 7.460000000000000000e+02 7.470000000000000000e+02 7.480000000000000000e+02 7.490000000000000000e+02 7.500000000000000000e+02 7.510000000000000000e+02 7.520000000000000000e+02 7.530000000000000000e+02 7.540000000000000000e+02 7.550000000000000000e+02 7.560000000000000000e+02 7.570000000000000000e+02 7.580000000000000000e+02 7.590000000000000000e+02 7.600000000000000000e+02 7.610000000000000000e+02 7.620000000000000000e+02 7.630000000000000000e+02 7.640000000000000000e+02 7.650000000000000000e+02 7.660000000000000000e+02 7.670000000000000000e+02 7.680000000000000000e+02 7.690000000000000000e+02 7.700000000000000000e+02 7.710000000000000000e+02 7.720000000000000000e+02 7.730000000000000000e+02 7.740000000000000000e+02 7.750000000000000000e+02 7.760000000000000000e+02 7.770000000000000000e+02 7.780000000000000000e+02 7.790000000000000000e+02 7.800000000000000000e+02 7.810000000000000000e+02 7.820000000000000000e+02 7.830000000000000000e+02 7.840000000000000000e+02 7.850000000000000000e+02 7.860000000000000000e+02 7.870000000000000000e+02 7.880000000000000000e+02 7.890000000000000000e+02 7.900000000000000000e+02 7.910000000000000000e+02 7.920000000000000000e+02 7.930000000000000000e+02 7.940000000000000000e+02 7.950000000000000000e+02 7.960000000000000000e+02 7.970000000000000000e+02 7.980000000000000000e+02 7.990000000000000000e+02 8.000000000000000000e+02 8.010000000000000000e+02 8.020000000000000000e+02 8.030000000000000000e+02 8.040000000000000000e+02 8.050000000000000000e+02 8.060000000000000000e+02 8.070000000000000000e+02 8.080000000000000000e+02 8.090000000000000000e+02 8.100000000000000000e+02 8.110000000000000000e+02 8.120000000000000000e+02 8.130000000000000000e+02 8.140000000000000000e+02 8.150000000000000000e+02 8.160000000000000000e+02 8.170000000000000000e+02 8.180000000000000000e+02 8.190000000000000000e+02 8.200000000000000000e+02 8.210000000000000000e+02 8.220000000000000000e+02 8.230000000000000000e+02 8.240000000000000000e+02 8.250000000000000000e+02 8.260000000000000000e+02 8.270000000000000000e+02 8.280000000000000000e+02 8.290000000000000000e+02 8.300000000000000000e+02 8.310000000000000000e+02 8.320000000000000000e+02 8.330000000000000000e+02 8.340000000000000000e+02 8.350000000000000000e+02 8.360000000000000000e+02 8.370000000000000000e+02 8.380000000000000000e+02 8.390000000000000000e+02 8.400000000000000000e+02 8.410000000000000000e+02 8.420000000000000000e+02 8.430000000000000000e+02 8.440000000000000000e+02 8.450000000000000000e+02 8.460000000000000000e+02 8.470000000000000000e+02 8.480000000000000000e+02 8.490000000000000000e+02 8.500000000000000000e+02 8.510000000000000000e+02 8.520000000000000000e+02 8.530000000000000000e+02 8.540000000000000000e+02 8.550000000000000000e+02 8.560000000000000000e+02 8.570000000000000000e+02 8.580000000000000000e+02 8.590000000000000000e+02 8.600000000000000000e+02 8.610000000000000000e+02 8.620000000000000000e+02 8.630000000000000000e+02 8.640000000000000000e+02 8.650000000000000000e+02 8.660000000000000000e+02 8.670000000000000000e+02 8.680000000000000000e+02 8.690000000000000000e+02 8.700000000000000000e+02 8.710000000000000000e+02 8.720000000000000000e+02 8.730000000000000000e+02 8.740000000000000000e+02 8.750000000000000000e+02 8.760000000000000000e+02 8.770000000000000000e+02 8.780000000000000000e+02 8.790000000000000000e+02 8.800000000000000000e+02 8.810000000000000000e+02 8.820000000000000000e+02 8.830000000000000000e+02 8.840000000000000000e+02 8.850000000000000000e+02 8.860000000000000000e+02 8.870000000000000000e+02 8.880000000000000000e+02 8.890000000000000000e+02 8.900000000000000000e+02 8.910000000000000000e+02 8.920000000000000000e+02 8.930000000000000000e+02 8.940000000000000000e+02 8.950000000000000000e+02 8.960000000000000000e+02 8.970000000000000000e+02 8.980000000000000000e+02 8.990000000000000000e+02 9.000000000000000000e+02 9.010000000000000000e+02 9.020000000000000000e+02 9.030000000000000000e+02 9.040000000000000000e+02 9.050000000000000000e+02 9.060000000000000000e+02 9.070000000000000000e+02 9.080000000000000000e+02 9.090000000000000000e+02 9.100000000000000000e+02 9.110000000000000000e+02 9.120000000000000000e+02 9.130000000000000000e+02 9.140000000000000000e+02 9.150000000000000000e+02 9.160000000000000000e+02 9.170000000000000000e+02 9.180000000000000000e+02 9.190000000000000000e+02 9.200000000000000000e+02 9.210000000000000000e+02 9.220000000000000000e+02 9.230000000000000000e+02 9.240000000000000000e+02 9.250000000000000000e+02 9.260000000000000000e+02 9.270000000000000000e+02 9.280000000000000000e+02 9.290000000000000000e+02 9.300000000000000000e+02 9.310000000000000000e+02 9.320000000000000000e+02 9.330000000000000000e+02 9.340000000000000000e+02 9.350000000000000000e+02 9.360000000000000000e+02 9.370000000000000000e+02 9.380000000000000000e+02 9.390000000000000000e+02 9.400000000000000000e+02 9.410000000000000000e+02 9.420000000000000000e+02 9.430000000000000000e+02 9.440000000000000000e+02 9.450000000000000000e+02 9.460000000000000000e+02 9.470000000000000000e+02 9.480000000000000000e+02 9.490000000000000000e+02 9.500000000000000000e+02 9.510000000000000000e+02 9.520000000000000000e+02 9.530000000000000000e+02 9.540000000000000000e+02 9.550000000000000000e+02 9.560000000000000000e+02 9.570000000000000000e+02 9.580000000000000000e+02 9.590000000000000000e+02 9.600000000000000000e+02 9.610000000000000000e+02 9.620000000000000000e+02 9.630000000000000000e+02 9.640000000000000000e+02 9.650000000000000000e+02 9.660000000000000000e+02 9.670000000000000000e+02 9.680000000000000000e+02 9.690000000000000000e+02 9.700000000000000000e+02 9.710000000000000000e+02 9.720000000000000000e+02 9.730000000000000000e+02 9.740000000000000000e+02 9.750000000000000000e+02 9.760000000000000000e+02 9.770000000000000000e+02 9.780000000000000000e+02 9.790000000000000000e+02 9.800000000000000000e+02 9.810000000000000000e+02 9.820000000000000000e+02 9.830000000000000000e+02 9.840000000000000000e+02 9.850000000000000000e+02 9.860000000000000000e+02 9.870000000000000000e+02 9.880000000000000000e+02 9.890000000000000000e+02 9.900000000000000000e+02 9.910000000000000000e+02 9.920000000000000000e+02 9.930000000000000000e+02 9.940000000000000000e+02 9.950000000000000000e+02 9.960000000000000000e+02 9.970000000000000000e+02 9.980000000000000000e+02 9.990000000000000000e+02
1.000000000000000000e+00 1.000000000000000000e+00 1.000000000000000000e+00 1.000000000000000000e+00 1.000000000000000000e+00 1.000000000000000000e+00 1.000000000000000000e+00 1.000000000000000000e+00 1.000000000000000000e+00 1.000000000000000000e+00 1.000000000000000000e+00 1.000000000000000000e+00 1.000000000000000000e+00 1.000000000000000000e+00 1.000000000000000000e+00 1.000000000000000000e+00 1.000000000000000000e+00 1.000000000000000000e+00 1.000000000000000000e+00 1.000000000000000000e+00 1.000000000000000000e+00 1.000000000000000000e+00 1.000000000000000000e+00 1.000000000000000000e+00 1.000000000000000000e+00 1.000000000000000000e+00 1.000000000000000000e+00 1.000000000000000000e+00 1.000000000000000000e+00 1.000000000000000000e+00 1.000000000000000000e+00 1.000000000000000000e+00 1.000000000000000000e+00 1.000000000000000000e+00 1.000000000000000000e+00 1.000000000000000000e+00 1.000000000000000000e+00 1.000000000000000000e+00 1.000000000000000000e+00 1.000000000000000000e+00 1.000000000000000000e+00 1.000000000000000000e+00 1.000000000000000000e+00 1.000000000000000000e+00 1.000000000000000000e+00 1.000000000000000000e+00 1.000000000000000000e+00 1.000000000000000000e+00 1.000000000000000000e+00 1.000000000000000000e+00 1.000000000000000000e+00 1.000000000000000000e+00 1.000000000000000000e+00 1.000000000000000000e+00 1.000000000000000000e+00 1.000000000000000000e+00 1.000000000000000000e+00 1.000000000000000000e+00 1.000000000000000000e+00 1.000000000000000000e+00 1.000000000000000000e+00 1.000000000000000000e+00 1.000000000000000000e+00 1.000000000000000000e+00 1.000000000000000000e+00 1.000000000000000000e+00 1.000000000000000000e+00 1.000000000000000000e+00 1.000000000000000000e+00 1.000000000000000000e+00 1.000000000000000000e+00 1.000000000000000000e+00 1.000000000000000000e+00 1.000000000000000000e+00 1.000000000000000000e+00 1.000000000000000000e+00 1.000000000000000000e+00 1.000000000000000000e+00 1.000000000000000000e+00 1.000000000000000000e+00 1.000000000000000000e+00 1.000000000000000000e+00 1.000000000000000000e+00 1.000000000000000000e+00 1.000000000000000000e+00 1.000000000000000000e+00 1.000000000000000000e+00 1.000000000000000000e+00 1.000000000000000000e+00 1.000000000000000000e+00 1.000000000000000000e+00 1.000000000000000000e+00 1.000000000000000000e+00 1.000000000000000000e+00 1.000000000000000000e+00 1.000000000000000000e+00 1.000000000000000000e+00 1.000000000000000000e+00 1.000000000000000000e+00 1.000000000000000000e+00 1.000000000000000000e+00 1.000000000000000000e+00 1.000000000000000000e+00 1.000000000000000000e+00 1.000000000000000000e+00 1.000000000000000000e+00 1.000000000000000000e+00 1.000000000000000000e+00 1.000000000000000000e+00 1.000000000000000000e+00 1.000000000000000000e+00 1.000000000000000000e+00 1.000000000000000000e+00 1.000000000000000000e+00 1.000000000000000000e+00 1.000000000000000000e+00 1.000000000000000000e+00 1.000000000000000000e+00 1.000000000000000000e+00 1.000000000000000000e+00 1.000000000000000000e+00 1.000000000000000000e+00 1.000000000000000000e+00 1.000000000000000000e+00 1.000000000000000000e+00 1.000000000000000000e+00 1.000000000000000000e+00 1.000000000000000000e+00 1.000000000000000000e+00 1.000000000000000000e+00 1.000000000000000000e+00 1.000000000000000000e+00 1.000000000000000000e+00 1.000000000000000000e+00 1.000000000000000000e+00 1.000000000000000000e+00 1.000000000000000000e+00 1.000000000000000000e+00 1.000000000000000000e+00 1.000000000000000000e+00 1.000000000000000000e+00 1.000000000000000000e+00 1.000000000000000000e+00 1.000000000000000000e+00 1.000000000000000000e+00 1.000000000000000000e+00 1.000000000000000000e+00 1.000000000000000000e+00 1.000000000000000000e+00 1.000000000000000000e+00 1.000000000000000000e+00 1.000000000000000000e+00 1.000000000000000000e+00 1.000000000000000000e+00 1.000000000000000000e+00 1.000000000000000000e+00 1.000000000000000000e+00 1.000000000000000000e+00 1.000000000000000000e+00 1.000000000000000000e+00 1.000000000000000000e+00 1.000000000000000000e+00 1.000000000000000000e+00 1.000000000000000000e+00 1.000000000000000000e+00 1.000000000000000000e+00 1.000000000000000000e+00 1.000000000000000000e+00 1.000000000000000000e+00 1.000000000000000000e+00 1.000000000000000000e+00 1.000000000000000000e+00 1.000000000000000000e+00 1.000000000000000000e+00 1.000000000000000000e+00 1.000000000000000000e+00 1.000000000000000000e+00 1.000000000000000000e+00 1.000000000000000000e+00 1.000000000000000000e+00 1.000000000000000000e+00 1.000000000000000000e+00 1.000000000000000000e+00 1.000000000000000000e+00 1.000000000000000000e+00 1.000000000000000000e+00 1.000000000000000000e+00 1.000000000000000000e+00 1.000000000000000000e+00 1.000000000000000000e+00 1.000000000000000000e+00 1.000000000000000000e+00 1.000000000000000000e+00 1.000000000000000000e+00 1.000000000000000000e+00 1.000000000000000000e+00 1.000000000000000000e+00 1.000000000000000000e+00 1.000000000000000000e+00 1.000000000000000000e+00 1.000000000000000000e+00 1.000000000000000000e+00 1.000000000000000000e+00 1.000000000000000000e+00 1.000000000000000000e+00 1.000000000000000000e+00 1.000000000000000000e+00 1.000000000000000000e+00 1.000000000000000000e+00 1.000000000000000000e+00 1.000000000000000000e+00 1.000000000000000000e+00 1.000000000000000000e+00 1.000000000000000000e+00 1.000000000000000000e+00 1.000000000000000000e+00 1.000000000000000000e+00 1.000000000000000000e+00 1.000000000000000000e+00 1.000000000000000000e+00 1.000000000000000000e+00 1.000000000000000000e+00 1.000000000000000000e+00 1.000000000000000000e+00 1.000000000000000000e+00 1.000000000000000000e+00 1.000000000000000000e+00 1.000000000000000000e+00 1.000000000000000000e+00 1.000000000000000000e+00 1.000000000000000000e+00 1.000000000000000000e+00 1.000000000000000000e+00 1.000000000000000000e+00 1.000000000000000000e+00 1.000000000000000000e+00 1.000000000000000000e+00 1.000000000000000000e+00 1.000000000000000000e+00 1.000000000000000000e+00 1.000000000000000000e+00 1.000000000000000000e+00 1.000000000000000000e+00 1.000000000000000000e+00 1.000000000000000000e+00 1.000000000000000000e+00 1.000000000000000000e+00 1.000000000000000000e+00 1.000000000000000000e+00 1.000000000000000000e+00 1.000000000000000000e+00 1.000000000000000000e+00 1.000000000000000000e+00 1.000000000000000000e+00 1.000000000000000000e+00 1.000000000000000000e+00 1.000000000000000000e+00 1.000000000000000000e+00 1.000000000000000000e+00 1.000000000000000000e+00 1.000000000000000000e+00 1.000000000000000000e+00 1.000000000000000000e+00 1.000000000000000000e+00 1.000000000000000000e+00 1.000000000000000000e+00 1.000000000000000000e+00 1.000000000000000000e+00 1.000000000000000000e+00 1.000000000000000000e+00 1.000000000000000000e+00 1.000000000000000000e+00 1.000000000000000000e+00 1.000000000000000000e+00 1.000000000000000000e+00 1.000000000000000000e+00 1.000000000000000000e+00 1.000000000000000000e+00 1.000000000000000000e+00 1.000000000000000000e+00 1.000000000000000000e+00 1.000000000000000000e+00 1.000000000000000000e+00 1.000000000000000000e+00 1.000000000000000000e+00 1.000000000000000000e+00 1.000000000000000000e+00 1.000000000000000000e+00 1.000000000000000000e+00 1.000000000000000000e+00 1.000000000000000000e+00 1.000000000000000000e+00 1.000000000000000000e+00 1.000000000000000000e+00 1.000000000000000000e+00 1.000000000000000000e+00 1.000000000000000000e+00 1.000000000000000000e+00 1.000000000000000000e+00 1.000000000000000000e+00 1.000000000000000000e+00 1.000000000000000000e+00 1.000000000000000000e+00 1.000000000000000000e+00 1.000000000000000000e+00 1.000000000000000000e+00 1.000000000000000000e+00 1.000000000000000000e+00 1.000000000000000000e+00 1.000000000000000000e+00 1.000000000000000000e+00 1.000000000000000000e+00 1.000000000000000000e+00 1.000000000000000000e+00 1.000000000000000000e+00 1.000000000000000000e+00 1.000000000000000000e+00 1.000000000000000000e+00 1.000000000000000000e+00 1.000000000000000000e+00 1.000000000000000000e+00 1.000000000000000000e+00 1.000000000000000000e+00 1.000000000000000000e+00 1.000000000000000000e+00 1.000000000000000000e+00 1.000000000000000000e+00 1.000000000000000000e+00 1.000000000000000000e+00 1.000000000000000000e+00 1.000000000000000000e+00 1.000000000000000000e+00 1.000000000000000000e+00 1.000000000000000000e+00 1.000000000000000000e+00 1.000000000000000000e+00 1.000000000000000000e+00 1.000000000000000000e+00 1.000000000000000000e+00 1.000000000000000000e+00 1.000000000000000000e+00 1.000000000000000000e+00 1.000000000000000000e+00 1.000000000000000000e+00 1.000000000000000000e+00 1.000000000000000000e+00 1.000000000000000000e+00 1.000000000000000000e+00 1.000000000000000000e+00 1.000000000000000000e+00 1.000000000000000000e+00 1.000000000000000000e+00 1.000000000000000000e+00 1.000000000000000000e+00 1.000000000000000000e+00 1.000000000000000000e+00 1.000000000000000000e+00 1.000000000000000000e+00 1.000000000000000000e+00 1.000000000000000000e+00 1.000000000000000000e+00 1.000000000000000000e+00 1.000000000000000000e+00 1.000000000000000000e+00 1.000000000000000000e+00 1.000000000000000000e+00 1.000000000000000000e+00 1.000000000000000000e+00 1.000000000000000000e+00 1.000000000000000000e+00 1.000000000000000000e+00 1.000000000000000000e+00 1.000000000000000000e+00 1.000000000000000000e+00 1.000000000000000000e+00 1.000000000000000000e+00 1.000000000000000000e+00 1.000000000000000000e+00 1.000000000000000000e+00 1.000000000000000000e+00 1.000000000000000000e+00 1.000000000000000000e+00 1.000000000000000000e+00 1.000000000000000000e+00 1.000000000000000000e+00 1.000000000000000000e+00 1.000000000000000000e+00 1.000000000000000000e+00 1.000000000000000000e+00 1.000000000000000000e+00 1.000000000000000000e+00 1.000000000000000000e+00 1.000000000000000000e+00 1.000000000000000000e+00 1.000000000000000000e+00 1.000000000000000000e+00 1.000000000000000000e+00 1.000000000000000000e+00 1.000000000000000000e+00 1.000000000000000000e+00 1.000000000000000000e+00 1.000000000000000000e+00 1.000000000000000000e+00 1.000000000000000000e+00 1.000000000000000000e+00 1.000000000000000000e+00 1.000000000000000000e+00 1.000000000000000000e+00 1.000000000000000000e+00 1.000000000000000000e+00 1.000000000000000000e+00 1.000000000000000000e+00 1.000000000000000000e+00 1.000000000000000000e+00 1.000000000000000000e+00 1.000000000000000000e+00 1.000000000000000000e+00 1.000000000000000000e+00 1.000000000000000000e+00 1.000000000000000000e+00 1.000000000000000000e+00 1.000000000000000000e+00 1.000000000000000000e+00 1.000000000000000000e+00 1.000000000000000000e+00 1.000000000000000000e+00 1.000000000000000000e+00 1.000000000000000000e+00 1.000000000000000000e+00 1.000000000000000000e+00 1.000000000000000000e+00 1.000000000000000000e+00 1.000000000000000000e+00 1.000000000000000000e+00 1.000000000000000000e+00 1.000000000000000000e+00 1.000000000000000000e+00 1.000000000000000000e+00 1.000000000000000000e+00 1.000000000000000000e+00 1.000000000000000000e+00 1.000000000000000000e+00 1.000000000000000000e+00 1.000000000000000000e+00 1.000000000000000000e+00 1.000000000000000000e+00 1.000000000000000000e+00 1.000000000000000000e+00 1.000000000000000000e+00 1.000000000000000000e+00 1.000000000000000000e+00 1.000000000000000000e+00 1.000000000000000000e+00 1.000000000000000000e+00 1.000000000000000000e+00 1.000000000000000000e+00 1.000000000000000000e+00 1.000000000000000000e+00 1.000000000000000000e+00 1.000000000000000000e+00 1.000000000000000000e+00 1.000000000000000000e+00 1.000000000000000000e+00 1.000000000000000000e+00 1.000000000000000000e+00 1.000000000000000000e+00 1.000000000000000000e+00 1.000000000000000000e+00 1.000000000000000000e+00 1.000000000000000000e+00 1.000000000000000000e+00 1.000000000000000000e+00 1.000000000000000000e+00 1.000000000000000000e+00 1.000000000000000000e+00 1.000000000000000000e+00 1.000000000000000000e+00 1.000000000000000000e+00 1.000000000000000000e+00 1.000000000000000000e+00 1.000000000000000000e+00 1.000000000000000000e+00 1.000000000000000000e+00 1.000000000000000000e+00 1.000000000000000000e+00 1.000000000000000000e+00 1.000000000000000000e+00 1.000000000000000000e+00 1.000000000000000000e+00 1.000000000000000000e+00 1.000000000000000000e+00 1.000000000000000000e+00 1.000000000000000000e+00 1.000000000000000000e+00 1.000000000000000000e+00 1.000000000000000000e+00 1.000000000000000000e+00 1.000000000000000000e+00 1.000000000000000000e+00 1.000000000000000000e+00 1.000000000000000000e+00 1.000000000000000000e+00 1.000000000000000000e+00 1.000000000000000000e+00 1.000000000000000000e+00 1.000000000000000000e+00 1.000000000000000000e+00 1.000000000000000000e+00 1.000000000000000000e+00 1.000000000000000000e+00 1.000000000000000000e+00 1.000000000000000000e+00 1.000000000000000000e+00 1.000000000000000000e+00 1.000000000000000000e+00 1.000000000000000000e+00 1.000000000000000000e+00 1.000000000000000000e+00 1.000000000000000000e+00 1.000000000000000000e+00 1.000000000000000000e+00 1.000000000000000000e+00 1.000000000000000000e+00 1.000000000000000000e+00 1.000000000000000000e+00 1.000000000000000000e+00 1.000000000000000000e+00 1.000000000000000000e+00 1.000000000000000000e+00 1.000000000000000000e+00 1.000000000000000000e+00 1.000000000000000000e+00 1.000000000000000000e+00 1.000000000000000000e+00 1.000000000000000000e+00 1.000000000000000000e+00 1.000000000000000000e+00 1.000000000000000000e+00 1.000000000000000000e+00 1.000000000000000000e+00 1.000000000000000000e+00 1.000000000000000000e+00 1.000000000000000000e+00 1.000000000000000000e+00 1.000000000000000000e+00 1.000000000000000000e+00 1.000000000000000000e+00 1.000000000000000000e+00 1.000000000000000000e+00 1.000000000000000000e+00 1.000000000000000000e+00 1.000000000000000000e+00 1.000000000000000000e+00 1.000000000000000000e+00 1.000000000000000000e+00 1.000000000000000000e+00 1.000000000000000000e+00 1.000000000000000000e+00 1.000000000000000000e+00 1.000000000000000000e+00 1.000000000000000000e+00 1.000000000000000000e+00 1.000000000000000000e+00 1.000000000000000000e+00 1.000000000000000000e+00 1.000000000000000000e+00 1.000000000000000000e+00 1.000000000000000000e+00 1.000000000000000000e+00 1.000000000000000000e+00 1.000000000000000000e+00 1.000000000000000000e+00 1.000000000000000000e+00 1.000000000000000000e+00 1.000000000000000000e+00 1.000000000000000000e+00 1.000000000000000000e+00 1.000000000000000000e+00 1.000000000000000000e+00 1.000000000000000000e+00 1.000000000000000000e+00 1.000000000000000000e+00 1.000000000000000000e+00 1.000000000000000000e+00 1.000000000000000000e+00 1.000000000000000000e+00 1.000000000000000000e+00 1.000000000000000000e+00 1.000000000000000000e+00 1.000000000000000000e+00 1.000000000000000000e+00 1.000000000000000000e+00 1.000000000000000000e+00 1.000000000000000000e+00 1.000000000000000000e+00 1.000000000000000000e+00 1.000000000000000000e+00 1.000000000000000000e+00 1.000000000000000000e+00 1.000000000000000000e+00 1.000000000000000000e+00 1.000000000000000000e+00 1.000000000000000000e+00 1.000000000000000000e+00 1.000000000000000000e+00 1.000000000000000000e+00 1.000000000000000000e+00 1.000000000000000000e+00 1.000000000000000000e+00 1.000000000000000000e+00 1.000000000000000000e+00 1.000000000000000000e+00 1.000000000000000000e+00 1.000000000000000000e+00 1.000000000000000000e+00 1.000000000000000000e+00 1.000000000000000000e+00 1.000000000000000000e+00 1.000000000000000000e+00 1.000000000000000000e+00 1.000000000000000000e+00 1.000000000000000000e+00 1.000000000000000000e+00 1.000000000000000000e+00 1.000000000000000000e+00 1.000000000000000000e+00 1.000000000000000000e+00 1.000000000000000000e+00 1.000000000000000000e+00 1.000000000000000000e+00 1.000000000000000000e+00 1.000000000000000000e+00 1.000000000000000000e+00 1.000000000000000000e+00 1.000000000000000000e+00 1.000000000000000000e+00 1.000000000000000000e+00 1.000000000000000000e+00 1.000000000000000000e+00 1.000000000000000000e+00 1.000000000000000000e+00 1.000000000000000000e+00 1.000000000000000000e+00 1.000000000000000000e+00 1.000000000000000000e+00 1.000000000000000000e+00 1.000000000000000000e+00 1.000000000000000000e+00 1.000000000000000000e+00 1.000000000000000000e+00 1.000000000000000000e+00 1.000000000000000000e+00 1.000000000000000000e+00 1.000000000000000000e+00 1.000000000000000000e+00 1.000000000000000000e+00 1.000000000000000000e+00 1.000000000000000000e+00 1.000000000000000000e+00 1.000000000000000000e+00 1.000000000000000000e+00 1.000000000000000000e+00 1.000000000000000000e+00 1.000000000000000000e+00 1.000000000000000000e+00 1.000000000000000000e+00 1.000000000000000000e+00 1.000000000000000000e+00 1.000000000000000000e+00 1.000000000000000000e+00 1.000000000000000000e+00 1.000000000000000000e+00 1.000000000000000000e+00 1.000000000000000000e+00 1.000000000000000000e+00 1.000000000000000000e+00 1.000000000000000000e+00 1.000000000000000000e+00 1.000000000000000000e+00 1.000000000000000000e+00 1.000000000000000000e+00 1.000000000000000000e+00 1.000000000000000000e+00 1.000000000000000000e+00 1.000000000000000000e+00 1.000000000000000000e+00 1.000000000000000000e+00 1.000000000000000000e+00 1.000000000000000000e+00 1.000000000000000000e+00 1.000000000000000000e+00 1.000000000000000000e+00 1.000000000000000000e+00 1.000000000000000000e+00 1.000000000000000000e+00 1.000000000000000000e+00 1.000000000000000000e+00 1.000000000000000000e+00 1.000000000000000000e+00 1.000000000000000000e+00 1.000000000000000000e+00 1.000000000000000000e+00 1.000000000000000000e+00 1.000000000000000000e+00 1.000000000000000000e+00 1.000000000000000000e+00 1.000000000000000000e+00 1.000000000000000000e+00 1.000000000000000000e+00 1.000000000000000000e+00 1.000000000000000000e+00 1.000000000000000000e+00 1.000000000000000000e+00 1.000000000000000000e+00 1.000000000000000000e+00 1.000000000000000000e+00 1.000000000000000000e+00 1.000000000000000000e+00 1.000000000000000000e+00 1.000000000000000000e+00 1.000000000000000000e+00 1.000000000000000000e+00 1.000000000000000000e+00 1.000000000000000000e+00 1.000000000000000000e+00 1.000000000000000000e+00 1.000000000000000000e+00 1.000000000000000000e+00 1.000000000000000000e+00 1.000000000000000000e+00 1.000000000000000000e+00 1.000000000000000000e+00 1.000000000000000000e+00 1.000000000000000000e+00 1.000000000000000000e+00 1.000000000000000000e+00 1.000000000000000000e+00 1.000000000000000000e+00 1.000000000000000000e+00 1.000000000000000000e+00 1.000000000000000000e+00 1.000000000000000000e+00 1.000000000000000000e+00 1.000000000000000000e+00 1.000000000000000000e+00 1.000000000000000000e+00 1.000000000000000000e+00 1.000000000000000000e+00 1.000000000000000000e+00 1.000000000000000000e+00 1.000000000000000000e+00 1.000000000000000000e+00 1.000000000000000000e+00 1.000000000000000000e+00 1.000000000000000000e+00 1.000000000000000000e+00 1.000000000000000000e+00 1.000000000000000000e+00 1.000000000000000000e+00 1.000000000000000000e+00 1.000000000000000000e+00 1.000000000000000000e+00 1.000000000000000000e+00 1.000000000000000000e+00 1.000000000000000000e+00 1.000000000000000000e+00 1.000000000000000000e+00 1.000000000000000000e+00 1.000000000000000000e+00 1.000000000000000000e+00 1.000000000000000000e+00 1.000000000000000000e+00 1.000000000000000000e+00 1.000000000000000000e+00 1.000000000000000000e+00 1.000000000000000000e+00 1.000000000000000000e+00 1.000000000000000000e+00 1.000000000000000000e+00 1.000000000000000000e+00 1.000000000000000000e+00 1.000000000000000000e+00 1.000000000000000000e+00 1.000000000000000000e+00 1.000000000000000000e+00 1.000000000000000000e+00 1.000000000000000000e+00 1.000000000000000000e+00 1.000000000000000000e+00 1.000000000000000000e+00 1.000000000000000000e+00 1.000000000000000000e+00 1.000000000000000000e+00 1.000000000000000000e+00 1.000000000000000000e+00 1.000000000000000000e+00 1.000000000000000000e+00 1.000000000000000000e+00 1.000000000000000000e+00 1.000000000000000000e+00 1.000000000000000000e+00 1.000000000000000000e+00 1.000000000000000000e+00 1.000000000000000000e+00 1.000000000000000000e+00 1.000000000000000000e+00 1.000000000000000000e+00 1.000000000000000000e+00 1.000000000000000000e+00 1.000000000000000000e+00 1.000000000000000000e+00 1.000000000000000000e+00 1.000000000000000000e+00 1.000000000000000000e+00 1.000000000000000000e+00 1.000000000000000000e+00 1.000000000000000000e+00 1.000000000000000000e+00 1.000000000000000000e+00 1.000000000000000000e+00 1.000000000000000000e+00 1.000000000000000000e+00 1.000000000000000000e+00 1.000000000000000000e+00 1.000000000000000000e+00 1.000000000000000000e+00 1.000000000000000000e+00 1.000000000000000000e+00 1.000000000000000000e+00 1.000000000000000000e+00 1.000000000000000000e+00 1.000000000000000000e+00 1.000000000000000000e+00 1.000000000000000000e+00 1.000000000000000000e+00 1.000000000000000000e+00 1.000000000000000000e+00 1.000000000000000000e+00 1.000000000000000000e+00 1.000000000000000000e+00 1.000000000000000000e+00 1.000000000000000000e+00 1.000000000000000000e+00 1.000000000000000000e+00 1.000000000000000000e+00 1.000000000000000000e+00 1.000000000000000000e+00 1.000000000000000000e+00 1.000000000000000000e+00 1.000000000000000000e+00 1.000000000000000000e+00 1.000000000000000000e+00 1.000000000000000000e+00 1.000000000000000000e+00 1.000000000000000000e+00 1.000000000000000000e+00 1.000000000000000000e+00 1.000000000000000000e+00 1.000000000000000000e+00 1.000000000000000000e+00 1.000000000000000000e+00 1.000000000000000000e+00 1.000000000000000000e+00 1.000000000000000000e+00 1.000000000000000000e+00 1.000000000000000000e+00 1.000000000000000000e+00 1.000000000000000000e+00 1.000000000000000000e+00 1.000000000000000000e+00 1.000000000000000000e+00 1.000000000000000000e+00 1.000000000000000000e+00 1.000000000000000000e+00 1.000000000000000000e+00 1.000000000000000000e+00 1.000000000000000000e+00 1.000000000000000000e+00 1.000000000000000000e+00 1.000000000000000000e+00 1.000000000000000000e+00 1.000000000000000000e+00 1.000000000000000000e+00 1.000000000000000000e+00 1.000000000000000000e+00 1.000000000000000000e+00 1.000000000000000000e+00 1.000000000000000000e+00 1.000000000000000000e+00 1.000000000000000000e+00 1.000000000000000000e+00 1.000000000000000000e+00 1.000000000000000000e+00 1.000000000000000000e+00 1.000000000000000000e+00 1.000000000000000000e+00 1.000000000000000000e+00 1.000000000000000000e+00 1.000000000000000000e+00 1.000000000000000000e+00 1.000000000000000000e+00 1.000000000000000000e+00 1.000000000000000000e+00 1.000000000000000000e+00 1.000000000000000000e+00 1.000000000000000000e+00 1.000000000000000000e+00 1.000000000000000000e+00 1.000000000000000000e+00 1.000000000000000000e+00 1.000000000000000000e+00 1.000000000000000000e+00 1.000000000000000000e+00 1.000000000000000000e+00 1.000000000000000000e+00 1.000000000000000000e+00 1.000000000000000000e+00 1.000000000000000000e+00 1.000000000000000000e+00 1.000000000000000000e+00 1.000000000000000000e+00 1.000000000000000000e+00 1.000000000000000000e+00 1.000000000000000000e+00 1.000000000000000000e+00 1.000000000000000000e+00 1.000000000000000000e+00 1.000000000000000000e+00 1.000000000000000000e+00 1.000000000000000000e+00 1.000000000000000000e+00 1.000000000000000000e+00 1.000000000000000000e+00 1.000000000000000000e+00 1.000000000000000000e+00 1.000000000000000000e+00 1.000000000000000000e+00 1.000000000000000000e+00 1.000000000000000000e+00 1.000000000000000000e+00 1.000000000000000000e+00 1.000000000000000000e+00 1.000000000000000000e+00 1.000000000000000000e+00 1.000000000000000000e+00 1.000000000000000000e+00 1.000000000000000000e+00 1.000000000000000000e+00 1.000000000000000000e+00 1.000000000000000000e+00 1.000000000000000000e+00 1.000000000000000000e+00 1.000000000000000000e+00 1.000000000000000000e+00 1.000000000000000000e+00 1.000000000000000000e+00 1.000000000000000000e+00 1.000000000000000000e+00 1.000000000000000000e+00 1.000000000000000000e+00 1.000000000000000000e+00 1.000000000000000000e+00 1.000000000000000000e+00 1.000000000000000000e+00 1.000000000000000000e+00 1.000000000000000000e+00 1.000000000000000000e+00 1.000000000000000000e+00 1.000000000000000000e+00 1.000000000000000000e+00 1.000000000000000000e+00 1.000000000000000000e+00 1.000000000000000000e+00 1.000000000000000000e+00 1.000000000000000000e+00 1.000000000000000000e+00 1.000000000000000000e+00 1.000000000000000000e+00 1.000000000000000000e+00 1.000000000000000000e+00 1.000000000000000000e+00 1.000000000000000000e+00 1.000000000000000000e+00 1.000000000000000000e+00 1.000000000000000000e+00 1.000000000000000000e+00 1.000000000000000000e+00 1.000000000000000000e+00 1.000000000000000000e+00 1.000000000000000000e+00 1.000000000000000000e+00 1.000000000000000000e+00 1.000000000000000000e+00 1.000000000000000000e+00 1.000000000000000000e+00 1.000000000000000000e+00 1.000000000000000000e+00 1.000000000000000000e+00 1.000000000000000000e+00 1.000000000000000000e+00
9.903741142853257629e-03 5.098495991515932246e-01 -4.484058371325175263e-02 5.579403327250168632e-01 5.171133601404855895e-01 6.297349918394364865e-01 7.181820039685020696e-01 1.909020686088562235e-01 4.820144233034319714e-01 5.297889531833357424e-01 1.062520538731643649e+00 -5.871941356571273030e-01 1.343962398305851291e+00 4.465254953677662009e-01 5.037938064248770331e-01 7.013913718969446709e-01 9.739528012970810611e-01 9.120162107269723650e-01 4.224613106167470766e-01 5.366309982874875040e-01 5.935720759219910159e-01 9.513191195127690403e-01 6.911356213394130865e-01 6.517058105557382852e-01 2.119995172021232888e-01 7.212785628655703496e-01 3.424154206539364309e-01 5.185860039872861593e-01 5.318821135931721678e-01 1.408970996361529560e+00 5.260681316670571261e-01 6.024704809372425363e-01 7.308679431339009103e-01 5.165852567790981675e-01 7.376149776368718936e-01 5.999880256806590095e-01 6.054210835414429726e-01 1.572923672029273856e+00 -2.785244828724095512e-02 5.082064761189563074e-01 -1.623025489724469819e-02 -5.430791074061136481e-01 7.554239866086278621e-01 2.125393205165307386e-01 2.432582150678739286e-01 4.954608776007822790e-01 5.575279749625409176e-01 5.131458625779178329e-01 4.577611816698000102e-01 2.388230951069070934e-02 1.293064444226392495e-02 8.604451414469973525e-01 6.405282094401734128e-01 5.619717503913498335e-01 4.392274847814855443e-01 4.834040779467245474e-03 6.115951376358377267e-01 5.628104687958100927e-01 1.697252440206293844e-01 5.039369150926518159e-01 8.834256809005234246e-01 5.006888141718909280e-01 5.198015233911602584e-01 6.911357895753293956e-01 6.842435423021209218e-01 3.951663784590042638e-01 5.050839876036122833e-01 3.027100117859936046e-01 4.828625909012503326e-01 1.426814364073916881e-02 4.671536351256643793e-01 5.299024163070927829e-01 5.391272308462767837e-01 1.903356535099899258e-02 1.444856260531093950e+00 5.502338680831090345e-01 6.231658121840606412e-01 7.686097319976644693e-01 5.183818604363081839e-01 1.362499965595498130e+00 5.088744532989795122e-01 2.084240176665398681e-01 1.260724151701394069e+00 4.555607918153533054e-01 4.667313592478075646e-01 7.594407578437869510e-01 8.305262140953699745e-01 4.976308534310778797e-01 3.767918240268029462e-01 5.735296392606665794e-01 2.418168035363881252e-01 1.998030422311554144e+00 4.595790032115003032e-01 -1.010597760294063424e-01 4.412060090917629962e-01 5.708697911034964489e-01 5.093349140518882434e-01 4.571072775879065908e-01 1.925810993940886839e-01 7.100986302416357754e-01 1.470046182303118787e+00 6.658688258213636413e-01 5.075624760951350511e-01 9.285532818704097524e-01 8.124952237031723978e-01 -1.821578435017489728e+00 -1.113061322380524354e+00 5.664813166799589350e-01 4.596736305143840906e-01 9.734675487820291240e-01 5.066465715274491854e-01 6.091614157518076000e-01 2.304869597961377303e-01 4.345725452708193992e-01 5.028688867640893623e-01 4.600148524985412379e-01 4.685973936206311308e-01 3.913862605607590917e-01 6.737185598076425030e-01 4.896934393599199353e-01 1.253598312378624291e+00 5.696421780644121968e-01 4.623581785795820576e-01 -9.429001156641392267e-02 5.322837887967399872e-01 1.846227234193859257e+00 5.129733326586923825e-01 5.250867842423189158e-01 6.186520946123226228e-01 5.144115071301779141e-01 6.671522400167705369e-01 5.302551684404306354e-01 3.910206976281708213e-01 1.231704039092960529e-01 3.604942389829066118e-02 -1.188172013634341551e-01 5.312522455978729852e-01 -1.013621070575768460e-02 9.652899127925210765e-01 6.987096414109692510e-01 5.051837310723902297e-01 8.286431679126260441e-01 6.403417419267720678e-01 4.972731350802399586e-01 5.256363522389465581e-01 -5.473452366140855313e-02 6.800413616443509168e-01 5.664508592491853678e-01 5.081825421731215320e-01 -7.715901960795561454e-01 7.876050404489032264e-01 -2.968726617936936485e-01 4.954594079414850749e-01 5.440208889187182484e-01 6.465444559163561200e-01 5.269413850377497877e-01 1.649415788060603516e+00 9.036082818766132119e-02 7.959284271391630083e-01 7.152809369278417817e-01 4.727363325737815036e-01 5.603599118241785471e-01 5.041687125555024407e-01 5.040547157188075555e-01 1.116402103856334316e+00 4.256363803493788678e-02 8.182171327228018320e-01 5.363321970094871993e-01 6.231684944263929937e-01 4.113365397546274171e-01 3.530747056088368030e-01 5.534427549770796206e-01 4.954723521684145093e-01 5.133794568496033994e-01 4.112434139224366292e-01 -5.002620340321169840e-04 1.450371036061076646e-01 4.753667247998704520e-02 7.114696369062987191e-01 1.129421999219436534e+00 7.351959077927978647e-01 5.779910427333130318e-01 -2.084013227129110357e-01 5.473844944868947460e-01 6.228758144059559632e-01 5.061497484441930261e-01 5.278581608086602150e-01 5.245191045128799745e-01 2.535806913852682865e+00 4.373260462680113037e-01 4.497222159478028725e-01 -7.676725204954262249e-01 5.076826561073527477e-01 4.797712189205597944e-01 1.521272035746211726e-01 5.098700052134346183e-01 8.973741366919933959e-01 5.153797316220614100e-01 7.644523985647843078e-01 6.106654821597387039e-01 4.059872001406431563e-01 5.714716422309894517e-01 1.050249391749952688e+00 5.942598232983260509e-01 5.433015065264527044e-01 7.644524054815725611e-01 4.560691775190437447e-01 1.243857927591639712e+00 5.588020085748852672e-01 3.409511235945761332e-01 5.168764573591202449e-01 -1.842081958870090200e-02 5.595928486690434633e-01 1.883214199330540128e-01 5.204896064161076419e-01 5.195856385593067284e-01 5.211792125596999004e-01 4.839883443309236366e-01 5.315503759957738161e-01 5.205516549491754352e-01 5.175840932858459809e-01 3.742999580212237887e-01 -6.468374323752877908e-01 4.514691903731760103e-01 2.085352155718540323e-01 5.054215415816312174e-01 3.688222085189087895e-01 1.177278917679668524e+00 9.151945936615908384e-01 5.352207725241298064e-01 -1.076448787175315475e-01 1.015152998963160247e+00 5.239729747285744033e-01 5.091250841227812352e-01 2.241041667662946602e-01 4.337273354647983026e-01 5.834428280192518468e-01 2.491022990865690290e-01 -1.164590127229187949e-01 -1.727390285664558156e-01 2.246626059850297397e-01 5.708445538879778347e-01 -6.933313422719808439e-02 6.228094488754413183e-01 5.104348836213894458e-01 6.125565546566664743e-01 -1.154824245335992483e-01 6.963167992853508403e-01 -1.960295992341240634e+00 4.921650714639588808e-01 -3.676182680195766439e-01 5.177018823225473243e-01 5.111185690522985769e-01 6.911360260574004322e-01 5.153339341403943008e-01 5.409090724675524875e-01 4.536069322352877520e-01 6.127758775089956478e-01 5.281208812007412989e-01 1.645964409379755855e+00 6.389841183813487202e-01 6.875166951638050916e-01 5.544583376032716782e-01 5.317708322835702495e-01 8.834258815528917008e-01 3.244277310911814483e-01 2.455431361433886295e+00 5.884232776070444926e-01 2.740503527751899648e-01 4.809357302123846711e-01 5.469933497317620574e-01 8.791722508752379817e-01 5.302147457371844119e-01 5.413503358691601486e-01 5.177230347954943079e-01 9.223012608182898919e-01 6.659241830162792031e-01 8.783448079704013756e-01 8.286062835985756880e-01 1.404696656025282431e-01 6.589197672715416676e-01 4.633985819892734170e-01 4.347551629571019260e-01 -6.272691486116318549e-01 3.702731387964756649e-01 8.234329217076701291e-01 4.678911134226119706e-01 5.850724658190030736e-01 4.600148449898352476e-01 6.084287888171899805e-01 5.074855569756546725e-01 -5.410604459811984013e-01 5.564674612960461841e-01 5.063032014306041440e-01 8.148220691590768450e-03 4.886159394595737671e-01 1.806696217532547610e+00 4.730819121925702864e-01 5.039972812334245766e-01 5.081810888796123304e-01 -3.096223822795021619e+00 5.202666646028881736e-01 2.358487945405614905e+00 5.543177774152681092e-01 5.237667239324582669e-01 -5.908228913370807689e-01 5.283003964083768933e-01 5.120167867334480816e-01 6.177979450991922805e-01 5.153816762152819697e-01 4.649565581510981538e-01 6.142190886490205282e-01 3.171667314383898595e-01 5.055990551625482166e-01 5.154605391762479005e-01 5.623242269885880829e-01 5.148456185619342262e-01 5.540316198206397535e-01 5.302083167781401762e-01 1.149383533135418967e+00 2.635161133568254127e-02 2.140091618704881071e+00 2.473215100313662429e+00 3.912069180828494086e-01 -1.369403637427809017e-01 5.041847905908173333e-01 4.261664339070520557e-01 6.861180480484276867e-01 1.304366297610545455e+00 5.482898497787184189e-01 1.088405939040833825e+00 5.121280153208731534e-01 1.559114502463040397e-01 1.215484208414374212e+00 4.641418477931272824e-01 4.911727517162995382e-01 5.063344551103816649e-01 7.100815057979374956e-01 -3.269757303938703341e+00 1.537998615384132295e+00 5.212404499425409288e-01 6.461256756878184238e-01 5.222614039774780004e-01 1.572923700835656691e+00 3.338721846516076730e-01 4.804114292712172163e-01 3.541975748931373569e-01 5.327430604790137636e-01 1.393294248430462012e+00 7.348313646051705117e-01 7.644523943913552610e-01 6.228101371779074524e-01 5.942598293497028950e-01 7.340283549596616774e-01 5.328093736322770946e-01 8.531350348911697079e-01 5.039622920961137620e-01 4.814017045063817557e-01 5.298440976684776205e-01 5.007750680849739622e-01 5.248789921022962712e-01 5.900111081926492362e-01 4.804114524930445107e-01 5.422786708347180351e-01 5.123712370458235466e-01 8.559206944549512253e-01 1.064580861180239868e+00 1.057373422034100008e+00 5.047179411427678009e-01 3.336202315968910814e-01 8.834387377681092168e-01 -1.119684036408341854e-01 9.270826755890000381e-01 6.138927984856370479e-01 2.346356753114121896e-02 4.458629228450395887e-01 1.095449072382522315e+00 4.155778978166310700e-01 5.934297551960001638e-01 2.507443442176651716e-01 -3.096456780522446328e-01 -2.247091615355571559e+00 4.474222444290299472e-01 5.942598225571988912e-01 5.942598230587156083e-01 5.646172862852905094e-01 6.500371511608824537e-01 -1.540982789327190183e-01 5.039166042495936138e-01 5.135623883611277751e-01 4.062987750232728845e-01 5.048129683847917271e-01 1.105779048768231965e+00 7.644524061910222823e-01 5.280534624233670371e-01 5.618841774803841060e-01 3.071815078245624386e-01 6.028431452909182031e-01 4.999373224669715343e-01 5.409446171120285696e-01 5.083679373326916995e-01 2.358932629884427923e-01 2.891666555135515015e-02 5.942598296999126450e-01 6.552685542434411037e-01 5.189841625412111581e-01 6.934525607208452680e-01 8.517630475047229810e-01 4.731749234374502677e-01 5.603827817429518632e-01 1.637367324798477686e+00 5.551839754757662559e-01 -2.630318651918500006e+00 5.590531045410225275e-01 1.430042457542830547e+00 5.615910050924027841e-01 -9.171887602405160989e-01 4.826101619197061821e-01 6.035151040375651421e-01 4.847885906118823418e-01 5.275583873123261824e-01 -5.274333288142585285e-03 5.367880770342688956e-01 1.041631809440430212e+00 4.899484403842865321e-01 -1.840638877045742972e-01 5.810716778565828688e-01 5.439537345195779583e-01 7.563539424154382962e-01 5.397442633535125545e-01 6.142292416702642699e-01 -4.210357788021600323e-01 5.277571751624193785e-01 5.214715112814467535e-01 7.180771723780412508e-01 4.989508032389337044e-01 7.542570393498022607e-01 5.271903012141523348e-01 4.515605882552311545e-01 8.979037533286080563e-01 5.241639271214453277e-01 5.632243871677020675e-01 1.854996707843300785e-01 2.103821865246297274e-01 9.226880166721208587e-01 5.250141427162866581e-01 2.985734700573837053e+00 6.384570410696692733e-01 4.509445490833628445e-01 5.795283451382930995e-01 7.164405763637931024e-01 2.241406200008527749e-02 4.849313137590699485e-01 4.967730542499443902e-01 5.229757729035299230e-01 1.166118622595164744e+00 7.541299091597103432e-01 5.077578732201133427e-01 5.628524113433474030e-01 1.094669904098859448e+00 5.091645040700845115e-01 5.389474771900554240e-01 5.063617128287895008e-01 4.151255983592505028e-01 5.259397702399788432e-01 8.702979233422029059e-01 5.317959797079051532e-01 5.145367930055640970e-01 2.700032695463273902e-02 5.025453285162819750e-01 1.366861943228897883e-02 5.299768599686857096e-01 5.499749690132487157e-01 4.795577575407721782e-01 7.483709572305161650e-01 5.334755065943233010e-01 4.658763824704477141e-01 -1.220725630675506719e-02 5.642897789047793822e-01 5.030623126735810358e-01 4.641222842374252422e-01 -1.594945805760061841e-02 5.212211687582495312e-01 3.214949488234474795e-01 5.030558947074776910e-01 5.964852912315834477e-01 1.203440387222023622e+00 7.843133892280752528e-01 5.379036764172622220e-01 3.755783805080426530e-01 3.756906536388909812e-01 4.119395020887061110e-01 9.587586208343350513e-01 4.459369633972641855e-01 3.637473533069702780e-01 6.503704257292352020e-01 1.864193912734005476e+00 4.943749404353274812e-01 3.675405852922222216e-01 5.128672004379642990e-01 5.561287202264616480e-01 5.343494001059916343e-01 7.455648389926976538e-01 -5.224546574865635007e-01 3.151654449891360121e-01 3.636585163406981236e-01 5.730368199790188966e-01 5.391486512172838363e-01 -5.241191405962059013e-01 3.987536076800776708e-01 5.033128197896913347e-01 7.018195379683357382e-01 6.510580182720523412e-01 1.191050480171203185e+00 5.199135940678376588e-01 5.091310767008838667e-01 -5.879588039185136283e-01 5.241871922343921408e-01 1.121300184100246122e+00 6.261895176335697810e-01 1.981914700605334478e-01 3.724268225634130847e-01 -1.130883269355183574e+00 5.382248449390036882e-01 3.067038492896689839e-01 1.061878934841143707e+00 8.084579698331185726e-01 5.132892677608059673e-01 4.849808743787356602e-01 4.163567178966707805e-01 5.581776298693217342e-01 5.986809693634285168e-01 5.854549689441082005e-01 2.668038587573870468e-02 5.696486874979882487e-01 3.973252493417349651e-01 7.364281559848185887e-01 5.607043491072916108e-01 5.080863806659490223e-01 1.062244485418284645e+00 -1.281271033829817219e-01 -1.953014170595347987e-01 5.814228971986069583e-01 5.308165228252307299e-01 4.006962096691992214e-01 5.893352210461063612e-01 -7.399838170306163310e-01 2.943684816285804473e+00 4.297503237933001374e-01 5.395812815950647989e-01 6.203062602709932261e-01 5.276450368816254510e-01 5.284840665554744188e-01 6.157737197912563909e-01 3.616338257876622331e-01 5.223060290774360626e-01 5.198139455378605334e-01 6.249535453411547703e-01 4.722750248359770531e-01 6.919655199567407156e-01 4.697107284182186482e-01 4.081805196293959992e-01 4.091027965712400460e-01 4.953461670152104479e-01 5.793724093388993301e-01 9.538506052217158304e-01 2.195108400354287781e+00 6.564201212064141311e-01 4.857184454705735788e-01 5.838501312540762545e-01 5.114859813082703877e-01 4.192149483644035945e-01 5.181937902733373402e-01 5.282870513104640509e-01 4.224748649584194604e-01 5.679849014540530039e-01 4.968957896573861222e-01 5.587147102841674151e-01 4.049775460769268198e-01 7.448092573806063266e-01 7.136341520264861682e-01 7.060907650046550632e-01 1.583135470917233223e-01 8.834257353607031238e-01 5.226812622909152717e-01 2.665455455833556919e-01 1.885698913850872183e+00 2.410528638419952296e-01 5.179391314397904234e-01 5.651498529231108181e-01 5.234308201724389986e-02 6.254833144662560462e-01 1.438666298877194327e+00 5.986170517059191676e-01 8.843125784295507996e-01 5.201017462563333194e-01 5.040110029408582104e-01 5.165876265152709035e-01 4.113739301901079282e-01 5.431061557780765270e-01 5.213723561787235727e-01 5.650900248296181205e-02 6.221235997225901260e-01 -9.996777766818766287e-01 5.334531175320715857e-01 4.656199049128111334e-01 5.120778769673064446e-01 5.081660510990776425e-01 8.834257344344665919e-01 2.948713896364111298e-01 4.328976611788954432e-01 1.208109776371813160e+00 -4.523886218603936360e-01 5.047066125232454459e-01 1.044610679201927850e+00 1.335145317268189524e+00 3.358514523961511622e-01 5.288345428333998122e-01 -1.083293214279077918e-02 -1.505156894270958112e+00 3.078763652456020239e-01 4.731554357093676333e-01 5.265620162713332553e-01 5.071756712912166565e-01 4.442791367904869171e-01 5.008637910953578354e-01 -3.267816042693512113e-01 7.828132438859852771e-01 4.600148402932713876e-01 4.382082653375858339e-01 5.052521285168943832e-01 -6.079505063050869018e-02 -1.873443125641260643e-01 1.620478380967568910e+00 4.276056572087143515e-01 3.857227332828000455e-01 5.093489937406764367e-01 3.515868076265694642e-01 4.205845061452062050e-01 1.842769317861960021e-01 -4.619880812848158880e-01 5.114422984899943403e-01 5.436141819302827694e-01 5.079488390577049373e-01 4.805572296700340029e-01 5.217420919231557930e-01 5.218857188944892034e-01 5.187111715707745097e-01 5.727540491680254142e-01 9.946901309662203872e-01 7.060372192968319416e-01 5.209065553575609187e-01 4.567703862674805659e-01 5.283095206898702489e-01 5.457734971510113109e-01 6.268651571159369884e-03 4.804114560024951852e-01 7.138085799871216608e-01 5.217174287049550774e-01 6.000899989059609307e-01 1.100435716629364791e+00 7.455379050969058730e-01 -3.409651980671111193e-01 5.204084694384520926e-01 5.976036438952574414e-01 5.217110383929526307e-01 4.377097367224238589e-01 8.367304017385894799e-01 4.943901645106559273e-01 4.942379663167840720e-01 -4.851569742607420022e-03 -7.383750435461170492e-01 2.091576317099070437e+00 5.457435372978632904e-01 8.583802753798305263e-01 6.657271300436907735e-01 5.439874535092973362e-01 3.118394686483154654e-01 1.461790494284346820e-01 4.967468492881640940e-01 5.087780468421198021e-01 2.808145256342480661e-02 5.113163010887717963e-01 5.144103676704474548e-01 5.057244313992423912e-01 9.390433339350392483e-01 5.530792608466572613e-01 5.162204945639456977e-01 3.290345504955905498e-01 5.497546579568911573e-01 2.077184977843536950e-01 5.183593054007740175e-01 6.308433515511716605e-01 4.976526462769029768e-01 -3.525440960795493406e-01 4.896471867800389899e-01 6.399683085897502899e-01 5.663932644196025823e-01 5.582176093524432448e-01 8.834209729416019341e-01 7.466612048588788797e-01 -5.200975530297635707e-01 1.010435948834188302e+00 1.572923672081912860e+00 4.446480351888494886e-01 4.640843148137399066e-01 1.035173607142805263e+00 5.433953062137151235e-01 5.565251841668192867e-01 5.044972731635094521e-01 1.616726250135604559e+00 5.196447698657385983e-01 6.228098878440440078e-01 1.228851242989651649e+00 -2.111046959299870546e-03 5.233809264854111243e-01 -1.335407556834510290e-01 -8.458194001979097987e-01 -1.873123149839671375e-01 7.482000317581449789e-01 5.389511393027244246e-01 6.218229837842462748e-01 -3.502563237759291348e-01 5.306987960163854767e-01 -3.109693675010356817e-02 -2.299899787018085673e-01 4.075595580125058737e-01 5.229951894051811934e-01 5.234584062766620693e-01 4.112615766744848189e-01 5.171788942798097866e-01 8.726326431503368397e-01 -2.753858522784776719e-01 5.096153596885073522e-01 5.062831627057207129e-01 6.540232364425107026e-01 1.129590033873965949e+00 5.853113477845065526e-01 4.873572685864183685e-01 5.340570717834369763e-01 1.345825194199879761e-02 -5.999883260196035850e-03 5.396403484565545083e-01 5.413717953399201921e-01 4.903666116600582936e-01 5.486880437211336670e-01 3.550222794417961514e-01 5.245758423809914195e-01 5.294692250488651775e-01 2.623032745245858499e-01 5.260056361796785485e-01 8.282423991908696159e-01 2.384873814421282656e+00 -2.092740977001553704e-01 6.750922920265487459e-01 5.417856223627401935e-01 2.850550749902927006e-01 7.203353931195763948e-01 -3.626391669221845637e-02 -1.301922648526329329e+00 5.189434079333878902e-01 2.443786394677276430e+00 4.588003280990780031e-01 1.249461096634508911e-01 2.235103923354723188e-01 4.600148526277246241e-01 4.924738425806534647e-01 1.450561782584474546e+00 5.314726719762287166e-01 1.213760112329141383e-01 5.006414670542584933e-01 1.527217382941500112e+00 5.186442262947068560e-01 4.313255747665901696e-01 5.371258314720814830e-01 7.616001272348508211e-01 4.406241942043025439e-01 5.394221732903525801e-01 -8.173264402039900900e-03 5.267572682094765479e-01 6.573566167350584077e-01 -5.230824840316576907e-01 1.100347199741656540e-01 1.137441132157081647e+00 2.301697551534685193e-01 5.274677272758548918e-01 5.371233337812728603e-01 4.952279899087373982e-01 1.922396491545325992e+00 7.071122959807378816e-01 2.107760972503201768e-02 2.197241469610463904e-01 4.919091446650429855e-01 1.003487000431593223e+00 4.231070323985842152e-01 2.417237062780819290e-02 5.042178123931295719e-01 -4.653998964244738384e-02 5.814009160956651323e-01 5.103925970016929270e-01 4.398553731735319050e-02 -1.162500252030164022e-01 6.376663346878058691e-01 4.162051567631069871e-01 5.414723898107818290e-01 5.127147902423718762e-01 5.268257404087195450e-01 5.941828862270092104e-01 4.862351666882422929e-01 4.853845328895483591e-01 5.025294566107431082e-01 7.115491373563590516e-01 9.988680927490571904e-01 2.928172239724124548e+00 6.864246164947362949e-01 5.380332982506784711e-01 6.504849207429066471e-01 1.992018485946575601e-01 5.211402287419214518e-01 7.795916901758771500e-01 5.355496217284185789e-01 1.310580008822084475e+00 4.807686202360375027e-01 -5.133510905498801513e-01 1.604126519446301760e-02 6.169672726978411292e-01 6.028429105535295651e-01 5.541595468134034030e-01 4.953550719155132009e-01 2.577275303667412448e-02 5.070128404400633393e-01 5.251643647630294121e-01 -3.080206212670322685e+00 5.805105583672590663e-01 5.210885369898933250e-01 1.080179995518719238e+00 5.555394151287063043e-01 5.431108988005137750e-01 7.274378997893927723e-01 -7.739997051614488921e-01 -5.095728813577187211e-01 8.503359448173521129e-02 5.038923027523150022e-01 4.431213695955574239e-01 2.787941640689720613e-01 5.578462891268638479e-01 -2.978215719091981684e-01 7.685284477051729235e-01 6.321105176914191270e-01 6.865700472181067715e-01 5.162520210136590793e-01 5.355818928399249668e-01 1.988429690032820218e-01 -6.387711259503443539e-01 5.161237299359727748e-01 5.014598841661901396e-01 1.867675943578258613e-01 5.174633541842860174e-01 5.466623465064606169e-01 5.079224749673275641e-01 6.331136133723490600e-01 5.446233499618552409e-01 5.136654801940496728e-01 4.865253320615851029e-01 1.572923673903195096e+00 4.089951832410134713e-01 5.056422777914187927e-01 -5.048738394819207720e-02 5.403908308563629692e-01 6.084848189629323834e-01 4.989033212395886374e-01 5.307853896364693735e-01 3.732325154536987877e-01 8.052924701628001447e-01 1.055096497128344746e+00 5.518462893093432076e-01 5.164877168257759887e-01 5.881057309266133348e-01 6.205763747690612453e-01 5.397516096333808688e-01 4.998085841522707518e-01 1.010494427150479879e+00 7.325313190273807784e-01 -4.160794151857472034e-01 4.115268162873643165e-01 9.267384982371249524e-01 5.484510554492618706e-01 5.756980016199413075e-02 5.210131288687814832e-01 6.653788073134001557e-01 -1.464541105394193687e-01 5.443525841859782055e-01 2.816577843866043818e-01 5.385200972668295893e-01 7.016026740545333595e-01 5.289499619023988464e-01 3.599873657697778562e-01 1.352237818818369242e+00 6.169926924156072801e-01 4.854513402805906153e-01 -4.499867257968696022e-01 5.079056250848857923e-01 1.050071992543959665e+00 5.178869991300895093e-01 2.466020362233338759e-01 8.364858089911461070e-01 -1.244331873530298005e-01 3.733866530651812621e-01 1.463027388937062634e+00 -8.144635305042995377e-01 5.113008217693197910e-01 5.087802499022877623e-01 -3.610138237853549592e-01 5.969514898080572340e-01 4.740570294579730115e-01 4.707287850105469351e-01 5.060979852411070512e-01 3.439698018837206717e-01 2.687742794772899901e-01 4.103750124247529385e-01 5.095719981281326971e-01 5.108735255644343276e-01 -2.924696183602122721e-03 1.491635589723728506e-01 5.170487234900743578e-01 1.040464572251959874e+00 2.783992060492079257e-01 -5.231685349369542548e-01 4.615301487515219292e-01 5.137382843213063044e-01 3.921523907922753738e-01 2.014541393323107058e-03 3.993454229391230625e-01 5.207478053750884683e-01 5.039301026536073813e-01 4.774031246769592784e-01 8.327859342246833260e-03 5.801881112747524494e-01 4.591556351129265634e-01 6.260464114668642388e-01 1.989433783311967741e+00 1.036192371140112201e-01 3.695492374280623937e-01 5.582733795998305881e-01 1.729124350274015010e+00 4.846874037445952910e-01 5.844532485650092424e-01 4.138898324679898821e-02 4.804114126057155709e-01 5.108323077933005774e-01 4.535677162118558758e-01 4.530116107814853299e-01 5.413597869362402060e-01 5.075011909488016393e-01 4.698412785128966984e-01 -4.092211603927206620e-01 5.178100741045933431e-01 5.117933592795110842e-01 5.296833048157152390e-01 4.776616263557397213e-01 5.263218431935641206e-01 -2.150456602653943172e-01 9.019808119342278552e-01 -1.057547733264982304e+00 -4.355753012875721031e-01 5.516834964089691873e-01 5.087860460909752192e-01 6.446648157641473587e-01 5.390509843798622081e-01 2.734057147125673604e-01 6.756392850293571062e-01 4.804114832351690234e-01 5.191957248033467476e-01 4.957169701727985323e-01 4.688768832387871233e-01 5.352151488325788131e-01 3.071135403174894973e-01 5.678299709245657745e-01 5.549189893603201362e-01 2.966577336992411995e-01 5.142284854823508944e-01 5.247206744261556643e-01 4.984068594396980911e-01 5.638719964557693531e-01 4.961122791720799508e-01 4.867742441243244622e-01 4.271201085945012244e-01 4.942254246897950787e-01 5.597695109526634738e-01 2.244193933940280550e-01 5.853050406114840287e-01 2.175585550582972871e+00 5.109604999295843664e-01 4.548925759356749476e-01 5.212518316993223211e-01 4.760379689642929568e-01 1.079941472394525093e+00 5.954507377527815670e-01 7.464008268763667742e-01 5.099900181335820237e-01
7.664400262616772874e-01 3.600360057113156653e-01 3.339781999264657686e-01 2.736418117413795814e-01 2.981446296489240755e-01 1.764226458596812874e-01 4.932540190846382289e-01 5.063221603865052378e-01 4.326119536545586231e-01 2.865742887200878330e-01 1.929879987034180955e+00 1.628537634261493006e+00 -1.308073788278377059e+00 5.283261358323279033e-01 3.003208613682419315e-01 2.575528045248408060e-01 1.336253738768217458e-01 3.881188472053901939e-01 3.879770633783826694e-01 2.844473889976166237e-01 3.640575991200796779e-01 1.958254527081909835e+00 3.661731172111351573e-01 1.974182498658962059e-01 6.029549097920496870e-01 -3.690661187740548743e-01 5.019535799971782675e-01 3.273267601424215134e-01 2.860283740572845956e-01 -6.846862455144843151e-01 3.151115134862206846e-01 8.770663131319936245e-02 2.962820748325394882e-01 3.149483479837497657e-01 -4.265214070296409199e-01 2.324233646816635246e-01 3.508505088548561912e-01 -2.157666103634000576e-01 -2.958440984208380087e+00 2.977110315005075392e-01 9.595581822768427527e-01 1.294142853082130007e-01 -1.496769085959246126e-01 7.851392602891845707e-01 7.582269430757967443e-01 3.423424554592710556e-01 2.745315253592143789e-01 3.084308791956403839e-01 4.452978615339995838e-01 7.640849786142269728e-01 7.554108443502788317e-01 3.224815449263393474e-01 -4.344537471737277556e-01 3.538048875612216926e-01 5.387324254421657077e-01 8.041058514402191770e-01 2.345735850778308540e-01 4.030882463349863554e-01 3.534446691034319743e-01 3.343794385514593515e-01 4.057245473892854837e-01 3.108209818123636170e-01 2.909324439350744473e-01 3.661730835248956928e-01 -3.174716296764015233e-01 4.368043852149168793e-01 3.163509096307224877e-01 3.815199655545932766e-01 3.135500658755582259e-01 7.050096391657300066e-01 2.563777932735538112e-01 3.217674937499582222e-01 2.891558312343677772e-01 6.667158049803769693e-01 1.797984538620848394e+00 5.469428507660439864e-01 4.478472948837574630e-01 4.656625246212325875e-01 3.091752077072512095e-01 -1.240456087383616124e+00 3.283281601719939546e-01 7.687093239841149561e-01 2.005870250323015913e+00 4.184332250345471627e-01 3.549939786036651057e-01 -5.255368659321185687e-01 7.839613081874495515e-02 3.205411072607874390e-01 -5.394046723706320545e-01 -7.791714669515807934e-01 7.577062543026190644e-01 1.430210621874625554e+00 3.537921507178433678e-01 7.582636178786797965e-01 3.954965330515349264e-01 2.186013640281385118e-01 3.044186390207592185e-01 6.065239745113383263e-01 7.432099738168296277e-01 -3.810211611079007410e-01 -1.327000982548725561e-01 7.607835169631504968e-02 3.225899413842809871e-01 2.310062661112958216e-01 1.642021801048750562e-01 2.823694737324856430e+00 -2.478726574492770562e-01 -1.910341633130070160e-01 4.276872769692205423e-01 7.911977727326779952e-01 3.613504329768650880e-01 2.214861838540903294e-01 2.224477273505199582e-01 5.021952992325742215e-01 -5.217881539236015609e-01 3.992754630400008331e-01 5.167634267277169124e-01 2.773654975756945640e-01 5.842731769693936261e-01 3.954730765095131328e-01 -1.345698091033126653e+00 4.515917827635075321e-01 4.002078739145972230e-01 9.866123316885448968e-01 2.719806063082993441e-01 2.008024337707824181e+00 1.871071410551539693e-01 2.962273439695120025e-01 2.804784611083719903e-01 3.273731387928970338e-01 2.252330506457373427e-01 2.966187579043693678e-01 6.228389712924710109e-01 3.179726304331920717e-01 2.274081741975088333e-01 9.170602357525081683e-01 5.989674439061989375e-01 7.282625536555438206e-01 -3.059997039871051316e-01 1.945610821154008796e-01 2.959528363153300923e-01 3.200380123056253967e-01 1.213991863794346288e-01 2.457422711998999143e-01 2.732675309090485949e-01 7.507060989740703683e-01 4.973161119941680447e-02 2.944058633015346760e-01 1.862435895742309000e-01 3.804261972148679227e-01 -3.983269914592032501e-01 1.621521454622731201e-02 3.423384410038569636e-01 2.901786158480078592e-01 4.625895156249883455e-01 2.941003732064256249e-01 -1.792198207948338062e+00 4.046394009667622083e-01 -5.424023786148786108e-01 -3.806549890004358172e-01 3.856059548615800581e-01 1.212715109932941127e-01 3.042403997676420002e-01 2.753802486929965432e-01 7.546431957528278167e-02 -1.687221114031301622e-02 3.160882808810686062e-01 2.034472084871393749e-01 1.855506668469293907e-01 2.149571924726404737e-01 3.661112848768872663e-01 2.723879313009387459e-01 3.422898818329755954e-01 3.027854235495866519e-01 -2.325211650298752097e+00 6.834535137616554179e-01 7.127124920615729442e-01 1.033171259857026403e+00 -4.328671584945317785e-01 1.150335322132632676e+00 -4.807617327156112758e-02 2.693172383442241080e-01 1.184393241230623062e+00 3.098677273085857498e-01 2.944353396698662362e-01 2.602275664526015886e-01 2.851182047064720892e-01 3.262035697843627680e-01 -3.808285876372779488e-01 4.028622151531939810e-01 1.042250058644517696e-01 7.595247850554331936e-01 3.265827728937748531e-01 3.877185879346305986e-01 1.797239209748893729e-01 2.937721529897639461e-01 -1.458176268996394409e+00 2.997446140017053784e-01 5.353958745380776180e-02 2.380541937851619327e-01 4.050104666626597738e-01 2.817268584070797277e-01 3.374424003162010410e-01 9.442487157249662699e-02 -8.634826700587502346e-01 5.353958607847720402e-02 3.416503833605592511e-01 -4.647411358309128104e-01 2.631162708930768201e-01 1.928065234031047237e-01 3.095848379693102448e-01 -2.950984693651545587e+00 2.729770213571622861e-01 9.536286830029873096e-01 2.996658064064193772e-01 3.035416895361324752e-01 3.164862067179658456e-01 3.486937720014685604e-01 2.883627098480898709e-01 3.126406174123559922e-01 2.960784667554714478e-01 3.824827503429145126e-01 6.293913691833932234e-01 3.771785117634568474e-01 5.387694987597152485e-01 2.939338004377655689e-01 3.324895880613822907e-01 -5.002203459452954082e-01 2.060410037888992019e+00 2.428742315901412097e-01 1.182665505972487097e+00 -1.329603475841969029e+00 3.177032440778050915e-01 3.579485587117716694e-01 3.163147244363109234e-01 1.032575221205041194e+00 1.168447275137272090e-01 7.164231701714162126e-01 2.608331811143616563e-01 6.634704845249991267e-01 4.955792567413999650e-01 2.676361261253059620e-01 -1.067348476840808136e+00 2.437974904187175107e-01 3.041065713464540798e-01 2.067684532492121696e-01 9.797153553811993598e-01 -2.355015705061232756e-01 2.808255632377147482e+00 2.062856381057984745e-01 1.048970516852173906e+00 3.525071939211221195e-01 3.237692276603809649e-01 3.661728081593027539e-01 2.820970750823077466e-01 2.897416089753755419e-01 2.352679671109930426e-01 1.253349965282650746e-01 3.818449177799510541e-01 5.553507873387895089e-01 3.578952029634432930e-01 1.110892262840538214e-01 3.739496424980901512e-01 1.402972701870671135e-01 4.057242047849169420e-01 3.143708020596587827e-01 2.912373573781220415e+00 3.414662005735562000e-01 6.626619875610281207e-01 4.591299018357022921e-01 2.805070113053672043e-01 4.093578815745351207e-01 2.887547725274215993e-01 2.887034679910241985e-01 3.070193034701434454e-01 -2.969791138417065546e-01 4.999143881952239910e-01 2.856437946958551022e-01 7.545391357431488477e-02 1.531980476093451893e-01 1.435807449400434255e+00 3.553411087305612392e-01 2.099677001125461462e-01 1.915397986492862969e+00 4.564666196115210739e-01 5.160431692880377286e-01 3.647243991691970222e-01 3.269762681912573576e-01 3.992754660658506816e-01 -1.970164498044536305e+00 3.324131040523096714e-01 1.246085305343007210e+00 2.209408732395726771e-01 -4.500378274215102031e-02 7.325034330343159761e-01 3.448262630738537227e-01 -6.709659681474462456e-01 4.628676326222071480e-01 3.101481867311710605e-01 1.861774913861352354e-01 -3.312121074181914038e-01 2.996257100910770244e-01 -1.705514093166481837e+00 2.722905997452910176e-01 2.999540423376259590e-01 6.214861067851564780e-01 3.056689815511914876e-01 3.032158798825098089e-01 2.401618748232845491e-01 4.106694158122492500e-01 -1.533796440606067790e-01 -7.067623367877879925e-01 2.304806768175314546e-02 6.262384954111026580e-01 2.935944593314867568e-01 2.595405149356079244e-01 3.017369762611107342e-01 2.732161786913795409e-01 3.116868292247718664e-01 2.257187048998192225e+00 7.672255542711319265e-01 2.453518284677083661e-01 -1.038276373222557281e+00 4.276061511070109455e-01 4.204226134095003786e+00 2.987514123608816519e-01 6.361440120204839288e-02 5.592497735947973281e-01 -5.066736792941405554e+00 4.452757537138484212e-01 1.401608719663094416e+00 3.060475702624627647e-01 5.657696907118138219e-01 -4.126737138483224654e-01 1.541439013409414971e-01 1.507998383703814393e-01 2.488291432540650772e-01 3.156219716989342450e-01 2.634974506178812792e+00 -3.257307333462755028e-01 3.617324596484689514e-01 -1.809655330633691772e+00 3.316708371333505490e-01 -2.157666297974858982e-01 7.012067183514126834e-01 5.786981920405813717e-01 4.555054526172873097e-01 3.976546321160889796e-01 1.315841709888684541e+00 1.277656748454899238e-01 5.353958749606956696e-02 2.437968758264363323e-01 9.442486027797004911e-02 1.624439929407934247e-01 4.099555714795222738e-01 -5.511066702412025231e-01 3.034405905171949080e-01 3.858802587729441846e-01 2.933900743348659135e-01 3.459258454517506465e-01 3.165131835007579664e-01 1.565018400349126593e-01 5.786980825257731498e-01 1.236624235724607668e-01 3.030746086412309803e-01 2.723208166722039247e-01 5.569769333590461891e-01 2.956981629883756568e+00 3.385719890402172916e-01 2.880433183984764112e-01 4.057068081122435776e-01 8.866588373434309833e-01 4.443877944473251240e-01 -1.463388792854917186e-01 7.688258413022057702e-01 2.504877611931117798e-01 1.070529354273399014e-01 3.317768215586863190e-01 5.477697345697062348e-01 7.656447311849187143e-01 7.293366843384966325e-01 7.788249414744251586e-01 3.655821722742519375e-01 9.442487285113154716e-02 9.442487230253744646e-02 2.774566264990570019e-01 1.134392172692690048e-01 1.118645918423401886e+00 4.094339162075789629e-01 3.111909336201623133e-01 4.661879588303944888e-01 3.205925506341862907e-01 8.350209563534571888e-01 5.353958598541175978e-02 2.997478984030690907e-01 2.739426524788108330e-01 4.520351575525198840e-01 -5.996458554715520251e-01 3.043043524772528485e-01 2.763565650869065360e-01 3.193410392779497675e-01 7.027621208023919763e-01 7.333973930426884724e-01 9.442486026069772664e-02 -8.521266070818789284e-02 2.979569700332779236e-01 9.491714362330795629e-02 -5.759391349285442052e-01 4.128723414332104436e-01 -3.197587627233100971e+00 1.687236017681301270e+00 4.512169853806206055e-01 -3.612694283876007884e-01 2.781434660313318319e-01 1.906475434551723636e+00 2.191274778486180519e-01 5.946772104146516025e-01 4.442302633652249200e-01 2.017251187108684285e-01 5.234820078721242886e-01 3.080560569762414991e-01 -1.736165343497576841e-01 2.902339760752435938e-01 1.901580533473672174e+00 2.565643130230328972e-01 -2.783892589902497439e-01 2.709816006531842181e-01 2.762535450777319213e-01 -1.352595725154474904e+00 2.855077847432105353e-01 7.647196417124101087e-02 4.009415351754226919e-01 4.230092056722958294e-01 3.204641793943645012e-01 3.464764167908285231e-01 3.338591723017989565e-01 -1.562451395299377377e-01 3.062802537323399688e-01 3.771490336837211022e-01 3.687737471332674932e-01 3.622881812271334656e-01 1.777941103944353229e-01 5.417087424849285071e-01 7.644616963095122175e-01 -1.226282422972278408e+00 -1.714118963323456590e-01 -7.935670124462725072e-02 -8.694216246514030466e-02 4.931895175653936980e-01 4.032496577158484197e-01 3.565288418409178206e-01 6.663274259338759498e-01 7.455225618515087804e-02 3.381220482249500114e-01 2.960796189182516303e-01 8.947558175516127921e-02 -1.564246934900268837e-01 3.120327923101054446e-01 2.657848308481587374e-01 4.729168550065933618e-01 3.075332442258817411e-01 2.912150775019332061e-01 2.980975873818353938e-01 2.865532080746782673e-01 3.027013224698176797e-01 5.296709012283735696e-01 2.911880902599466858e-01 3.133019856091001087e-01 7.691895040589947774e-01 3.356942366533932631e-01 6.711700750271016869e-01 3.679747297545019613e-01 2.783618202646023776e-01 3.543412648399215104e-01 -1.361450030049913718e+00 2.837683788270985441e-01 5.351832848440253310e-01 4.488314020086807687e-01 2.528363863088636809e-01 3.266246702481789277e-01 5.181978206836780343e-01 7.431864778336095823e-01 2.969452710453745481e-01 2.514685977994425281e-01 3.074352685404961871e-01 2.381603946632985525e-01 2.888213365030349311e-01 5.442634773513825852e-01 2.845722979315095658e-01 4.326065326455337812e-01 3.858782557995725782e-01 7.689558682118491882e-03 1.500956196258300013e+00 5.193879151571216823e-01 3.609411033923133894e-01 3.453425274417053492e-01 -7.426250331879676869e-01 3.960579502829126297e-01 4.695188204204358007e-01 6.297436512304672718e-01 2.206643732685620585e-01 3.620996425224642379e-01 1.162209640876147310e+00 8.692630575053944542e-01 2.230243699021497161e-01 3.683264791705674335e-01 2.012431759416699883e-01 2.603401770206743571e-01 8.595059808402443213e-01 2.791767509902281397e+00 3.151986503424679120e-01 1.711387931384280026e-01 6.055758042251031537e-01 -3.206706177800623669e-02 3.152225236888572812e-01 3.316019444300226104e-01 9.878078448320534166e-01 2.982255565042465362e-01 -2.404151455428336637e-01 3.328815040201238418e-01 8.122436907856867006e-02 6.864060909822791157e-01 1.385513216842602313e+00 2.301661991275163188e-01 1.981697464193153679e-01 1.587537141286072595e+00 4.499685321366775348e-01 3.021194127134069762e-01 2.882467953185021137e-01 4.916341493950075470e-01 2.763887088041292461e-01 1.263586106867503889e-01 2.184388934739897870e-01 6.649194680541630209e-01 4.913624959866556008e-01 3.699477962395240627e-01 2.962607395988137715e-01 1.920759463178195459e-01 2.609927945480923772e-01 2.358999461029381850e-01 9.719233558821636088e-01 4.737446188721161078e-01 2.751095009814750192e-01 2.741681300307714508e-01 2.713915139309175384e-01 2.645413408527000909e-01 5.667848924656705423e-01 7.324638439759842967e-01 2.156507034169449499e-01 3.012764052784518420e-01 1.831650668462639908e-01 3.026587944854469137e-01 7.588296886420151655e-01 2.516390609692732427e-01 3.568350930038212132e-01 -2.928221975763474205e-01 3.086067810087305685e-01 1.089008230482542000e-01 3.208869032465782589e-01 2.034713526309759601e-01 3.700062684294035953e-01 1.605650669230453964e+00 4.071753413812525535e-01 3.213266614764279661e-01 -1.611858525105844958e-03 1.439704097890511347e+00 1.091350418028772085e+00 2.900586163729756417e-01 -4.649382550747642173e-01 -1.152330761543415502e-02 8.162406986053184765e-02 4.146056354197156790e-01 2.954323461040216370e-01 3.000346834613790703e-01 4.378340897817807886e-01 2.299542292271194444e-01 3.250006765570274680e-01 2.753063868308893714e-01 -9.637572353788717572e-04 3.175110306789118986e-01 5.513948984854118995e-01 1.169803355271284984e-01 8.112974698265411622e-01 4.057243881643201600e-01 3.568986348745481485e-01 7.227674069972541693e-01 4.763490962735673073e-01 7.572430025568885892e-01 1.473072462012347261e-01 6.615815817600685378e-01 1.410965025687944463e+00 2.054242063908978955e-01 1.890688713230558538e+00 1.061710341562548676e-01 1.073538797250557092e-01 2.992587311892720980e-01 3.274648714508220371e-01 3.000910886524894017e-01 2.149671106494237538e-01 2.729940458539802939e-01 3.113763655143781395e-01 3.243410180536402398e-01 2.713432559240977482e-01 -1.540758936792621103e-01 2.866510086066938467e-01 -1.124747986035593700e-02 3.583340424954324366e-01 1.860739761112605584e-01 4.057243879512150153e-01 1.710709975254905146e-01 4.879006796628259646e-01 -9.938975235452524037e-01 1.815543741009447043e+00 3.086172458698579479e-01 -5.670951828567899478e-01 3.002386417090142090e-01 3.322474127810952638e-01 3.091044193687956798e-01 -4.338522462530460366e+00 3.256313125936982633e+00 5.910617602444053764e-01 4.100796317370427602e-01 4.387284373711538010e-01 3.044314839467776590e-01 4.405154466241543720e-01 2.405906509891919232e+00 5.856243610382509956e-01 3.277400801225393567e-01 3.992754689513037247e-01 1.821644277529965716e-01 3.234344275213962838e-01 9.027743989155145865e-01 -3.826238065137974598e-01 -9.776755268912605823e-01 -1.079516072303185803e+00 3.657445676775454291e-01 3.018253106231559846e-01 6.430521088388470030e-01 2.831057461876635983e-01 8.786786693481581922e-01 4.124733952636606138e-01 3.165494062415092347e-01 2.845182364941374886e-01 2.900124371761189090e-01 4.060976569689451754e-01 3.635422179533245868e-01 6.496471117878330759e-01 2.857931721889606091e-01 4.574037514639965329e-01 1.852984177254833886e-01 1.963225461141526393e-02 3.624357410200289009e-01 3.858864561537135307e-01 2.869600731757254164e-01 2.596763728796508963e-01 7.757545384480635242e-01 5.786980529349936564e-01 5.573092798188687969e-01 3.083434570144139020e-01 3.365277079744507516e-01 2.269710835006417127e-01 1.162216783214525595e+00 1.624274468084688117e+00 3.620176687136494875e-01 2.220607644850789431e-01 2.978437053461864270e-01 4.749958809786243297e-01 2.741969826204210259e-01 2.309523391474100906e-01 3.439096149242480971e-01 3.126100681670155867e-01 7.500959021867219523e-01 8.079740811420698110e-01 4.309719661543525149e-01 1.728152730540460258e+00 9.472212165573683229e-02 9.528148581182813159e-02 -2.335881375196780796e-01 -3.519383671941604952e-01 3.092074013732720728e-01 3.299194891948181718e-01 7.016761333360866937e-01 2.965776907302970500e-01 3.092414989316793483e-01 3.160164079262047232e-01 3.692494658493690740e-01 2.700439590586845573e-01 2.935968720395244480e-01 1.006827838334932723e+00 3.121623197369288727e-01 5.847517833713290480e-01 3.161852943260534676e-01 8.673875715968187849e-02 3.048255593079959858e-01 3.720279437518803078e-01 -1.795466251838085947e-01 2.267079525792669858e-01 2.493846503619705501e-01 2.755039017840715809e-01 4.057296897983513340e-01 1.149304618547313250e+00 8.912858304682503841e-01 -7.565263244861422098e-01 -2.157666104705165400e-01 5.340025388498010894e-01 -3.026987709860019304e+00 1.500176402728531366e+00 2.909027948526837770e-01 2.728595023123494001e-01 3.165975741517313424e-01 8.038121946002476648e-01 3.011722226618957499e-01 2.437968456567501108e-01 -4.078262598019818386e-01 8.068435704552815446e-01 3.493247313239471463e-01 9.053280648789215901e-01 1.955290622453697003e+00 -3.823879716121020844e-01 -1.359581160264742294e+00 2.906729831692966282e-01 1.344921920185337405e-01 8.265663003216267013e-01 2.932840438658560478e-01 7.259721342793751253e-01 4.671724412153280825e-01 9.014432346945101815e-02 3.116557853017549173e-01 3.022800078975751426e-01 3.873052113344678249e-01 4.332861850882774313e-01 1.269707297171279281e+00 1.436375775929189524e+00 3.194294909216928158e-01 3.156571770494983609e-01 -1.460125633709632442e-01 -1.947525847830628709e-01 1.763056418626537669e-01 2.008444679416968581e-01 2.906272268225605915e-01 7.078116285548525788e-01 -1.729177019012631544e-01 2.916678049557769881e-01 2.855227381543415377e-01 3.374379124148014775e-01 3.032187168559736246e-01 4.277583435731139860e-01 2.990861453529802816e-01 2.932618425950329066e-01 -9.119886156147533063e-02 2.375318350458651695e-01 4.550157094827806392e-01 1.042690355410171188e+00 1.069683366157224258e+00 9.439471434384446580e-01 3.318604400871116300e-01 6.655135910211007477e-01 6.326884414389610800e-02 3.705754976645093124e-01 -1.828063727050943443e+00 2.544439760158594410e-01 6.281630493573583385e-01 3.836896031818429198e-01 9.483211223020134861e-01 1.298464963628678248e+00 3.992754625032409188e-01 2.076603195669268764e-01 3.648210612942166531e-01 5.336852516917877515e-02 5.800228617322633617e-01 4.481905286547659961e-01 -6.145301863287183641e-01 3.403257372708512474e-01 3.634584115983617858e-01 3.135118989286180269e-01 3.492498423728934154e-01 6.979465622981489981e-01 9.309616177364007927e-02 3.477255504633240402e-01 2.939428973682826074e-01 2.173897770360662673e-01 8.686398478152129732e-01 3.972472866178778927e-01 -1.831520895488384926e-01 8.528159499482487194e-01 4.217907974374367208e-02 4.966540762792433505e-01 3.259359137112170512e-01 1.227117342033639869e+00 3.743919218990182651e-01 6.675522208985235073e-01 3.811543703908699121e-01 3.843231593287202985e-01 -3.651418297076642339e-01 3.919699511043517326e-01 7.280002952176747311e-01 2.985036742330042236e-01 7.070223145865944803e-01 2.589194617439783963e-01 3.385844675890807842e-01 7.278104295883559560e-01 6.283835568917821301e-02 -1.920623191757001358e+00 3.726390933960869178e-01 2.824399558014596412e-01 3.256200684770110265e-01 1.260637316408149133e-01 2.508200787165624224e-01 3.305782825706856665e-01 3.612579984959186086e-01 2.990503216594291302e-01 -4.292707523207072579e-02 -1.553590154218240871e+00 7.112197076502484450e-01 3.128364469009309867e-01 2.915930790349674506e-01 1.786559360785632544e-01 8.166893373543444579e-01 3.175372959181940180e-01 -6.350273220553663556e-02 3.060358522514529112e-01 1.089426445201246096e+00 2.970132822219536672e-01 4.111490322711380818e-01 1.073013045161951506e+00 2.597187199455066597e-01 2.456484510070318095e+00 2.556519180332864627e-01 3.379797857570551733e-01 7.602465790525445577e-01 2.993803605843934901e-01 2.542792133517286501e-01 -1.738338302464241814e+00 2.371892877301349789e-01 3.020837242793721344e-01 4.984841070154439890e-01 2.643380643984900025e-01 5.319781295427731260e-01 -3.677294802545499341e-01 1.899235031005513274e+00 -5.162573959506259191e-01 7.817923948913728660e-01 3.046072294157168292e-01 4.567029212140829575e-01 5.601917614555539382e-01 2.645086247168456639e-01 1.249546316262296175e+00 5.755357633171966081e-02 1.730070165233181523e-01 -8.454847958724639456e-01 -4.153879387235515780e-02 3.574542943281925900e-01 -3.370014773283727116e+00 2.692707911501516893e+00 3.558745334475996724e-01 3.373885889279755190e-01 -1.426058865466996117e+00 2.968668359119012723e-01 9.433420720661106831e-03 3.056791778253587499e-01 9.369571111908132910e-02 6.260968893500559185e-01 5.628401146468055005e-01 7.720100590356527848e-01 -2.157666110957312811e-01 -1.604350360672347209e-01 3.188342955837855652e-01 -1.116671373962270009e+00 2.892350545346058510e-01 -5.849541420249519952e-01 3.003879063399053639e-01 5.213429872527779452e-01 6.238658026109693625e-03 3.535177607051919746e-01 2.915377625658905347e-01 -1.753561556186851444e-01 3.794776052692567236e-01 3.363925013243031503e-01 1.660193612632052118e-01 2.335498366170905005e-01 3.053798136039675981e-01 -7.567790277866910387e-01 6.594976737861555360e-01 1.480185793797279326e+00 2.609651990817201533e-02 2.529883933223563974e-01 2.921054256086454415e-01 1.226942446810673548e+00 3.010998854316105922e-01 2.854986368377777084e-01 9.063069145585512798e-01 2.810424938814710116e-01 1.711894131797152330e+00 2.855917496837471758e-01 8.479091025092256872e-01 2.934006632202793563e-01 7.273618719393375454e-01 1.309079985363668985e+00 3.618238587734518563e-01 2.256216898640086566e-01 8.232695446434421527e-01 -1.129040430383829452e-01 -1.694994974955433414e-02 5.928309987471909459e-03 2.855290367879210756e-01 3.060530252953479469e-01 1.395704854167434117e-01 4.590375332091520266e-01 -2.760312251015987761e-01 1.289279714374737429e+00 3.266517097904989564e-01 3.000043315860264626e-01 -2.788949747025177395e+00 2.597277985722178939e-01 2.766394968269373922e-01 3.944257399994169910e-01 1.939245648436185576e-01 4.802903272343202468e-01 -8.748436357884419312e-01 4.315607874436627744e-01 3.305154234206070241e-01 3.183251964028925296e-01 1.097641450718190637e+00 3.904972596939818574e-01 2.912278152321737812e-01 -1.309731579104797650e+00 5.362117797531700258e-01 8.685708323847303181e-01 2.273939128690543321e-01 3.052697651483826657e-01 9.012346976645706220e-02 7.276402346694267331e-01 -1.056158446639365173e-01 2.938052295946873005e-01 3.127544647823655155e-01 6.435506429444955157e-02 7.729273987914990762e-01 2.138323113622291605e-01 7.785304867481646074e-01 2.437316264004728283e-01 6.678044857236459242e-01 -1.158170845021360001e-01 -1.471534731528683304e+00 2.491129793760117894e-01 -2.611122676835761491e-03 2.945509068469088221e-01 2.619997857848096467e-01 8.279699951979421768e-02 5.786980892213131611e-01 3.059026437758724515e-01 1.200475718589747720e-01 3.831695908707946630e-01 2.859243988987754115e-01 3.128652663644221343e-01 3.526571435867231763e-01 -6.920165762178304147e-01 3.063137655984002339e-01 3.514624235116062811e-01 3.105133602064825138e-01 3.322807379502603631e-01 3.091279213155517236e-01 7.097161243667517994e-01 -2.559239924462149429e-01 1.000800959911856358e+00 5.676334491202122967e-01 2.709133179072758524e-01 3.130266352048304834e-01 -1.912678771472599681e+00 2.891191132255214180e-01 1.952290281080507062e-01 1.878952962233896573e-01 5.786980289959255952e-01 2.958992382440255309e-01 2.852001452762218947e-01 3.838751005494620006e-01 2.908750981413145142e-01 3.948480255211095358e-01 2.685973792034300756e-01 2.769762445677426688e-01 3.416894063212134736e-01 3.212773370752169400e-01 2.996832004836512131e-01 3.212454522142997315e-01 -7.823685520861943521e-02 3.322318059943055735e-01 3.762622167198655387e-01 3.393826979132694710e-01 3.055902496749449693e-01 -5.793394624794608039e-02 3.529912365239117750e-02 4.981753952389032791e-02 3.909732319030728931e+00 3.039339829630484102e-01 3.151263644646842832e-01 3.026485830694981560e-01 4.384635205735030739e-01 1.452603238238696859e+00 1.719679631184941326e-01 7.001723881438692842e-01 2.988162815202163314e-01
