# 
#                 ----------------------------------------------------
#                 Data from a 3D direct N-body simulation. 
# 
#                 rows are i-particle; 
#                 coumns are :mass, tag, x ,y, z, vx, vy, vz, ax, ay, az
# 
#                 NTHU, Computational Physics 
# 
#                 ----------------------------------------------------
#                 Time = 0.0
0.000000000000000000e+00 1.000000000000000000e+00 2.000000000000000000e+00 3.000000000000000000e+00 4.000000000000000000e+00 5.000000000000000000e+00 6.000000000000000000e+00 7.000000000000000000e+00 8.000000000000000000e+00 9.000000000000000000e+00 1.000000000000000000e+01 1.100000000000000000e+01 1.200000000000000000e+01 1.300000000000000000e+01 1.400000000000000000e+01 1.500000000000000000e+01 1.600000000000000000e+01 1.700000000000000000e+01 1.800000000000000000e+01 1.900000000000000000e+01 2.000000000000000000e+01 2.100000000000000000e+01 2.200000000000000000e+01 2.300000000000000000e+01 2.400000000000000000e+01 2.500000000000000000e+01 2.600000000000000000e+01 2.700000000000000000e+01 2.800000000000000000e+01 2.900000000000000000e+01 3.000000000000000000e+01 3.100000000000000000e+01 3.200000000000000000e+01 3.300000000000000000e+01 3.400000000000000000e+01 3.500000000000000000e+01 3.600000000000000000e+01 3.700000000000000000e+01 3.800000000000000000e+01 3.900000000000000000e+01 4.000000000000000000e+01 4.100000000000000000e+01 4.200000000000000000e+01 4.300000000000000000e+01 4.400000000000000000e+01 4.500000000000000000e+01 4.600000000000000000e+01 4.700000000000000000e+01 4.800000000000000000e+01 4.900000000000000000e+01 5.000000000000000000e+01 5.100000000000000000e+01 5.200000000000000000e+01 5.300000000000000000e+01 5.400000000000000000e+01 5.500000000000000000e+01 5.600000000000000000e+01 5.700000000000000000e+01 5.800000000000000000e+01 5.900000000000000000e+01 6.000000000000000000e+01 6.100000000000000000e+01 6.200000000000000000e+01 6.300000000000000000e+01 6.400000000000000000e+01 6.500000000000000000e+01 6.600000000000000000e+01 6.700000000000000000e+01 6.800000000000000000e+01 6.900000000000000000e+01 7.000000000000000000e+01 7.100000000000000000e+01 7.200000000000000000e+01 7.300000000000000000e+01 7.400000000000000000e+01 7.500000000000000000e+01 7.600000000000000000e+01 7.700000000000000000e+01 7.800000000000000000e+01 7.900000000000000000e+01 8.000000000000000000e+01 8.100000000000000000e+01 8.200000000000000000e+01 8.300000000000000000e+01 8.400000000000000000e+01 8.500000000000000000e+01 8.600000000000000000e+01 8.700000000000000000e+01 8.800000000000000000e+01 8.900000000000000000e+01 9.000000000000000000e+01 9.100000000000000000e+01 9.200000000000000000e+01 9.300000000000000000e+01 9.400000000000000000e+01 9.500000000000000000e+01 9.600000000000000000e+01 9.700000000000000000e+01 9.800000000000000000e+01 9.900000000000000000e+01 1.000000000000000000e+02 1.010000000000000000e+02 1.020000000000000000e+02 1.030000000000000000e+02 1.040000000000000000e+02 1.050000000000000000e+02 1.060000000000000000e+02 1.070000000000000000e+02 1.080000000000000000e+02 1.090000000000000000e+02 1.100000000000000000e+02 1.110000000000000000e+02 1.120000000000000000e+02 1.130000000000000000e+02 1.140000000000000000e+02 1.150000000000000000e+02 1.160000000000000000e+02 1.170000000000000000e+02 1.180000000000000000e+02 1.190000000000000000e+02 1.200000000000000000e+02 1.210000000000000000e+02 1.220000000000000000e+02 1.230000000000000000e+02 1.240000000000000000e+02 1.250000000000000000e+02 1.260000000000000000e+02 1.270000000000000000e+02 1.280000000000000000e+02 1.290000000000000000e+02 1.300000000000000000e+02 1.310000000000000000e+02 1.320000000000000000e+02 1.330000000000000000e+02 1.340000000000000000e+02 1.350000000000000000e+02 1.360000000000000000e+02 1.370000000000000000e+02 1.380000000000000000e+02 1.390000000000000000e+02 1.400000000000000000e+02 1.410000000000000000e+02 1.420000000000000000e+02 1.430000000000000000e+02 1.440000000000000000e+02 1.450000000000000000e+02 1.460000000000000000e+02 1.470000000000000000e+02 1.480000000000000000e+02 1.490000000000000000e+02 1.500000000000000000e+02 1.510000000000000000e+02 1.520000000000000000e+02 1.530000000000000000e+02 1.540000000000000000e+02 1.550000000000000000e+02 1.560000000000000000e+02 1.570000000000000000e+02 1.580000000000000000e+02 1.590000000000000000e+02 1.600000000000000000e+02 1.610000000000000000e+02 1.620000000000000000e+02 1.630000000000000000e+02 1.640000000000000000e+02 1.650000000000000000e+02 1.660000000000000000e+02 1.670000000000000000e+02 1.680000000000000000e+02 1.690000000000000000e+02 1.700000000000000000e+02 1.710000000000000000e+02 1.720000000000000000e+02 1.730000000000000000e+02 1.740000000000000000e+02 1.750000000000000000e+02 1.760000000000000000e+02 1.770000000000000000e+02 1.780000000000000000e+02 1.790000000000000000e+02 1.800000000000000000e+02 1.810000000000000000e+02 1.820000000000000000e+02 1.830000000000000000e+02 1.840000000000000000e+02 1.850000000000000000e+02 1.860000000000000000e+02 1.870000000000000000e+02 1.880000000000000000e+02 1.890000000000000000e+02 1.900000000000000000e+02 1.910000000000000000e+02 1.920000000000000000e+02 1.930000000000000000e+02 1.940000000000000000e+02 1.950000000000000000e+02 1.960000000000000000e+02 1.970000000000000000e+02 1.980000000000000000e+02 1.990000000000000000e+02 2.000000000000000000e+02 2.010000000000000000e+02 2.020000000000000000e+02 2.030000000000000000e+02 2.040000000000000000e+02 2.050000000000000000e+02 2.060000000000000000e+02 2.070000000000000000e+02 2.080000000000000000e+02 2.090000000000000000e+02 2.100000000000000000e+02 2.110000000000000000e+02 2.120000000000000000e+02 2.130000000000000000e+02 2.140000000000000000e+02 2.150000000000000000e+02 2.160000000000000000e+02 2.170000000000000000e+02 2.180000000000000000e+02 2.190000000000000000e+02 2.200000000000000000e+02 2.210000000000000000e+02 2.220000000000000000e+02 2.230000000000000000e+02 2.240000000000000000e+02 2.250000000000000000e+02 2.260000000000000000e+02 2.270000000000000000e+02 2.280000000000000000e+02 2.290000000000000000e+02 2.300000000000000000e+02 2.310000000000000000e+02 2.320000000000000000e+02 2.330000000000000000e+02 2.340000000000000000e+02 2.350000000000000000e+02 2.360000000000000000e+02 2.370000000000000000e+02 2.380000000000000000e+02 2.390000000000000000e+02 2.400000000000000000e+02 2.410000000000000000e+02 2.420000000000000000e+02 2.430000000000000000e+02 2.440000000000000000e+02 2.450000000000000000e+02 2.460000000000000000e+02 2.470000000000000000e+02 2.480000000000000000e+02 2.490000000000000000e+02 2.500000000000000000e+02 2.510000000000000000e+02 2.520000000000000000e+02 2.530000000000000000e+02 2.540000000000000000e+02 2.550000000000000000e+02 2.560000000000000000e+02 2.570000000000000000e+02 2.580000000000000000e+02 2.590000000000000000e+02 2.600000000000000000e+02 2.610000000000000000e+02 2.620000000000000000e+02 2.630000000000000000e+02 2.640000000000000000e+02 2.650000000000000000e+02 2.660000000000000000e+02 2.670000000000000000e+02 2.680000000000000000e+02 2.690000000000000000e+02 2.700000000000000000e+02 2.710000000000000000e+02 2.720000000000000000e+02 2.730000000000000000e+02 2.740000000000000000e+02 2.750000000000000000e+02 2.760000000000000000e+02 2.770000000000000000e+02 2.780000000000000000e+02 2.790000000000000000e+02 2.800000000000000000e+02 2.810000000000000000e+02 2.820000000000000000e+02 2.830000000000000000e+02 2.840000000000000000e+02 2.850000000000000000e+02 2.860000000000000000e+02 2.870000000000000000e+02 2.880000000000000000e+02 2.890000000000000000e+02 2.900000000000000000e+02 2.910000000000000000e+02 2.920000000000000000e+02 2.930000000000000000e+02 2.940000000000000000e+02 2.950000000000000000e+02 2.960000000000000000e+02 2.970000000000000000e+02 2.980000000000000000e+02 2.990000000000000000e+02 3.000000000000000000e+02 3.010000000000000000e+02 3.020000000000000000e+02 3.030000000000000000e+02 3.040000000000000000e+02 3.050000000000000000e+02 3.060000000000000000e+02 3.070000000000000000e+02 3.080000000000000000e+02 3.090000000000000000e+02 3.100000000000000000e+02 3.110000000000000000e+02 3.120000000000000000e+02 3.130000000000000000e+02 3.140000000000000000e+02 3.150000000000000000e+02 3.160000000000000000e+02 3.170000000000000000e+02 3.180000000000000000e+02 3.190000000000000000e+02 3.200000000000000000e+02 3.210000000000000000e+02 3.220000000000000000e+02 3.230000000000000000e+02 3.240000000000000000e+02 3.250000000000000000e+02 3.260000000000000000e+02 3.270000000000000000e+02 3.280000000000000000e+02 3.290000000000000000e+02 3.300000000000000000e+02 3.310000000000000000e+02 3.320000000000000000e+02 3.330000000000000000e+02 3.340000000000000000e+02 3.350000000000000000e+02 3.360000000000000000e+02 3.370000000000000000e+02 3.380000000000000000e+02 3.390000000000000000e+02 3.400000000000000000e+02 3.410000000000000000e+02 3.420000000000000000e+02 3.430000000000000000e+02 3.440000000000000000e+02 3.450000000000000000e+02 3.460000000000000000e+02 3.470000000000000000e+02 3.480000000000000000e+02 3.490000000000000000e+02 3.500000000000000000e+02 3.510000000000000000e+02 3.520000000000000000e+02 3.530000000000000000e+02 3.540000000000000000e+02 3.550000000000000000e+02 3.560000000000000000e+02 3.570000000000000000e+02 3.580000000000000000e+02 3.590000000000000000e+02 3.600000000000000000e+02 3.610000000000000000e+02 3.620000000000000000e+02 3.630000000000000000e+02 3.640000000000000000e+02 3.650000000000000000e+02 3.660000000000000000e+02 3.670000000000000000e+02 3.680000000000000000e+02 3.690000000000000000e+02 3.700000000000000000e+02 3.710000000000000000e+02 3.720000000000000000e+02 3.730000000000000000e+02 3.740000000000000000e+02 3.750000000000000000e+02 3.760000000000000000e+02 3.770000000000000000e+02 3.780000000000000000e+02 3.790000000000000000e+02 3.800000000000000000e+02 3.810000000000000000e+02 3.820000000000000000e+02 3.830000000000000000e+02 3.840000000000000000e+02 3.850000000000000000e+02 3.860000000000000000e+02 3.870000000000000000e+02 3.880000000000000000e+02 3.890000000000000000e+02 3.900000000000000000e+02 3.910000000000000000e+02 3.920000000000000000e+02 3.930000000000000000e+02 3.940000000000000000e+02 3.950000000000000000e+02 3.960000000000000000e+02 3.970000000000000000e+02 3.980000000000000000e+02 3.990000000000000000e+02 4.000000000000000000e+02 4.010000000000000000e+02 4.020000000000000000e+02 4.030000000000000000e+02 4.040000000000000000e+02 4.050000000000000000e+02 4.060000000000000000e+02 4.070000000000000000e+02 4.080000000000000000e+02 4.090000000000000000e+02 4.100000000000000000e+02 4.110000000000000000e+02 4.120000000000000000e+02 4.130000000000000000e+02 4.140000000000000000e+02 4.150000000000000000e+02 4.160000000000000000e+02 4.170000000000000000e+02 4.180000000000000000e+02 4.190000000000000000e+02 4.200000000000000000e+02 4.210000000000000000e+02 4.220000000000000000e+02 4.230000000000000000e+02 4.240000000000000000e+02 4.250000000000000000e+02 4.260000000000000000e+02 4.270000000000000000e+02 4.280000000000000000e+02 4.290000000000000000e+02 4.300000000000000000e+02 4.310000000000000000e+02 4.320000000000000000e+02 4.330000000000000000e+02 4.340000000000000000e+02 4.350000000000000000e+02 4.360000000000000000e+02 4.370000000000000000e+02 4.380000000000000000e+02 4.390000000000000000e+02 4.400000000000000000e+02 4.410000000000000000e+02 4.420000000000000000e+02 4.430000000000000000e+02 4.440000000000000000e+02 4.450000000000000000e+02 4.460000000000000000e+02 4.470000000000000000e+02 4.480000000000000000e+02 4.490000000000000000e+02 4.500000000000000000e+02 4.510000000000000000e+02 4.520000000000000000e+02 4.530000000000000000e+02 4.540000000000000000e+02 4.550000000000000000e+02 4.560000000000000000e+02 4.570000000000000000e+02 4.580000000000000000e+02 4.590000000000000000e+02 4.600000000000000000e+02 4.610000000000000000e+02 4.620000000000000000e+02 4.630000000000000000e+02 4.640000000000000000e+02 4.650000000000000000e+02 4.660000000000000000e+02 4.670000000000000000e+02 4.680000000000000000e+02 4.690000000000000000e+02 4.700000000000000000e+02 4.710000000000000000e+02 4.720000000000000000e+02 4.730000000000000000e+02 4.740000000000000000e+02 4.750000000000000000e+02 4.760000000000000000e+02 4.770000000000000000e+02 4.780000000000000000e+02 4.790000000000000000e+02 4.800000000000000000e+02 4.810000000000000000e+02 4.820000000000000000e+02 4.830000000000000000e+02 4.840000000000000000e+02 4.850000000000000000e+02 4.860000000000000000e+02 4.870000000000000000e+02 4.880000000000000000e+02 4.890000000000000000e+02 4.900000000000000000e+02 4.910000000000000000e+02 4.920000000000000000e+02 4.930000000000000000e+02 4.940000000000000000e+02 4.950000000000000000e+02 4.960000000000000000e+02 4.970000000000000000e+02 4.980000000000000000e+02 4.990000000000000000e+02 5.000000000000000000e+02 5.010000000000000000e+02 5.020000000000000000e+02 5.030000000000000000e+02 5.040000000000000000e+02 5.050000000000000000e+02 5.060000000000000000e+02 5.070000000000000000e+02 5.080000000000000000e+02 5.090000000000000000e+02 5.100000000000000000e+02 5.110000000000000000e+02 5.120000000000000000e+02 5.130000000000000000e+02 5.140000000000000000e+02 5.150000000000000000e+02 5.160000000000000000e+02 5.170000000000000000e+02 5.180000000000000000e+02 5.190000000000000000e+02 5.200000000000000000e+02 5.210000000000000000e+02 5.220000000000000000e+02 5.230000000000000000e+02 5.240000000000000000e+02 5.250000000000000000e+02 5.260000000000000000e+02 5.270000000000000000e+02 5.280000000000000000e+02 5.290000000000000000e+02 5.300000000000000000e+02 5.310000000000000000e+02 5.320000000000000000e+02 5.330000000000000000e+02 5.340000000000000000e+02 5.350000000000000000e+02 5.360000000000000000e+02 5.370000000000000000e+02 5.380000000000000000e+02 5.390000000000000000e+02 5.400000000000000000e+02 5.410000000000000000e+02 5.420000000000000000e+02 5.430000000000000000e+02 5.440000000000000000e+02 5.450000000000000000e+02 5.460000000000000000e+02 5.470000000000000000e+02 5.480000000000000000e+02 5.490000000000000000e+02 5.500000000000000000e+02 5.510000000000000000e+02 5.520000000000000000e+02 5.530000000000000000e+02 5.540000000000000000e+02 5.550000000000000000e+02 5.560000000000000000e+02 5.570000000000000000e+02 5.580000000000000000e+02 5.590000000000000000e+02 5.600000000000000000e+02 5.610000000000000000e+02 5.620000000000000000e+02 5.630000000000000000e+02 5.640000000000000000e+02 5.650000000000000000e+02 5.660000000000000000e+02 5.670000000000000000e+02 5.680000000000000000e+02 5.690000000000000000e+02 5.700000000000000000e+02 5.710000000000000000e+02 5.720000000000000000e+02 5.730000000000000000e+02 5.740000000000000000e+02 5.750000000000000000e+02 5.760000000000000000e+02 5.770000000000000000e+02 5.780000000000000000e+02 5.790000000000000000e+02 5.800000000000000000e+02 5.810000000000000000e+02 5.820000000000000000e+02 5.830000000000000000e+02 5.840000000000000000e+02 5.850000000000000000e+02 5.860000000000000000e+02 5.870000000000000000e+02 5.880000000000000000e+02 5.890000000000000000e+02 5.900000000000000000e+02 5.910000000000000000e+02 5.920000000000000000e+02 5.930000000000000000e+02 5.940000000000000000e+02 5.950000000000000000e+02 5.960000000000000000e+02 5.970000000000000000e+02 5.980000000000000000e+02 5.990000000000000000e+02 6.000000000000000000e+02 6.010000000000000000e+02 6.020000000000000000e+02 6.030000000000000000e+02 6.040000000000000000e+02 6.050000000000000000e+02 6.060000000000000000e+02 6.070000000000000000e+02 6.080000000000000000e+02 6.090000000000000000e+02 6.100000000000000000e+02 6.110000000000000000e+02 6.120000000000000000e+02 6.130000000000000000e+02 6.140000000000000000e+02 6.150000000000000000e+02 6.160000000000000000e+02 6.170000000000000000e+02 6.180000000000000000e+02 6.190000000000000000e+02 6.200000000000000000e+02 6.210000000000000000e+02 6.220000000000000000e+02 6.230000000000000000e+02 6.240000000000000000e+02 6.250000000000000000e+02 6.260000000000000000e+02 6.270000000000000000e+02 6.280000000000000000e+02 6.290000000000000000e+02 6.300000000000000000e+02 6.310000000000000000e+02 6.320000000000000000e+02 6.330000000000000000e+02 6.340000000000000000e+02 6.350000000000000000e+02 6.360000000000000000e+02 6.370000000000000000e+02 6.380000000000000000e+02 6.390000000000000000e+02 6.400000000000000000e+02 6.410000000000000000e+02 6.420000000000000000e+02 6.430000000000000000e+02 6.440000000000000000e+02 6.450000000000000000e+02 6.460000000000000000e+02 6.470000000000000000e+02 6.480000000000000000e+02 6.490000000000000000e+02 6.500000000000000000e+02 6.510000000000000000e+02 6.520000000000000000e+02 6.530000000000000000e+02 6.540000000000000000e+02 6.550000000000000000e+02 6.560000000000000000e+02 6.570000000000000000e+02 6.580000000000000000e+02 6.590000000000000000e+02 6.600000000000000000e+02 6.610000000000000000e+02 6.620000000000000000e+02 6.630000000000000000e+02 6.640000000000000000e+02 6.650000000000000000e+02 6.660000000000000000e+02 6.670000000000000000e+02 6.680000000000000000e+02 6.690000000000000000e+02 6.700000000000000000e+02 6.710000000000000000e+02 6.720000000000000000e+02 6.730000000000000000e+02 6.740000000000000000e+02 6.750000000000000000e+02 6.760000000000000000e+02 6.770000000000000000e+02 6.780000000000000000e+02 6.790000000000000000e+02 6.800000000000000000e+02 6.810000000000000000e+02 6.820000000000000000e+02 6.830000000000000000e+02 6.840000000000000000e+02 6.850000000000000000e+02 6.860000000000000000e+02 6.870000000000000000e+02 6.880000000000000000e+02 6.890000000000000000e+02 6.900000000000000000e+02 6.910000000000000000e+02 6.920000000000000000e+02 6.930000000000000000e+02 6.940000000000000000e+02 6.950000000000000000e+02 6.960000000000000000e+02 6.970000000000000000e+02 6.980000000000000000e+02 6.990000000000000000e+02 7.000000000000000000e+02 7.010000000000000000e+02 7.020000000000000000e+02 7.030000000000000000e+02 7.040000000000000000e+02 7.050000000000000000e+02 7.060000000000000000e+02 7.070000000000000000e+02 7.080000000000000000e+02 7.090000000000000000e+02 7.100000000000000000e+02 7.110000000000000000e+02 7.120000000000000000e+02 7.130000000000000000e+02 7.140000000000000000e+02 7.150000000000000000e+02 7.160000000000000000e+02 7.170000000000000000e+02 7.180000000000000000e+02 7.190000000000000000e+02 7.200000000000000000e+02 7.210000000000000000e+02 7.220000000000000000e+02 7.230000000000000000e+02 7.240000000000000000e+02 7.250000000000000000e+02 7.260000000000000000e+02 7.270000000000000000e+02 7.280000000000000000e+02 7.290000000000000000e+02 7.300000000000000000e+02 7.310000000000000000e+02 7.320000000000000000e+02 7.330000000000000000e+02 7.340000000000000000e+02 7.350000000000000000e+02 7.360000000000000000e+02 7.370000000000000000e+02 7.380000000000000000e+02 7.390000000000000000e+02 7.400000000000000000e+02 7.410000000000000000e+02 7.420000000000000000e+02 7.430000000000000000e+02 7.440000000000000000e+02 7.450000000000000000e+02 7.460000000000000000e+02 7.470000000000000000e+02 7.480000000000000000e+02 7.490000000000000000e+02 7.500000000000000000e+02 7.510000000000000000e+02 7.520000000000000000e+02 7.530000000000000000e+02 7.540000000000000000e+02 7.550000000000000000e+02 7.560000000000000000e+02 7.570000000000000000e+02 7.580000000000000000e+02 7.590000000000000000e+02 7.600000000000000000e+02 7.610000000000000000e+02 7.620000000000000000e+02 7.630000000000000000e+02 7.640000000000000000e+02 7.650000000000000000e+02 7.660000000000000000e+02 7.670000000000000000e+02 7.680000000000000000e+02 7.690000000000000000e+02 7.700000000000000000e+02 7.710000000000000000e+02 7.720000000000000000e+02 7.730000000000000000e+02 7.740000000000000000e+02 7.750000000000000000e+02 7.760000000000000000e+02 7.770000000000000000e+02 7.780000000000000000e+02 7.790000000000000000e+02 7.800000000000000000e+02 7.810000000000000000e+02 7.820000000000000000e+02 7.830000000000000000e+02 7.840000000000000000e+02 7.850000000000000000e+02 7.860000000000000000e+02 7.870000000000000000e+02 7.880000000000000000e+02 7.890000000000000000e+02 7.900000000000000000e+02 7.910000000000000000e+02 7.920000000000000000e+02 7.930000000000000000e+02 7.940000000000000000e+02 7.950000000000000000e+02 7.960000000000000000e+02 7.970000000000000000e+02 7.980000000000000000e+02 7.990000000000000000e+02 8.000000000000000000e+02 8.010000000000000000e+02 8.020000000000000000e+02 8.030000000000000000e+02 8.040000000000000000e+02 8.050000000000000000e+02 8.060000000000000000e+02 8.070000000000000000e+02 8.080000000000000000e+02 8.090000000000000000e+02 8.100000000000000000e+02 8.110000000000000000e+02 8.120000000000000000e+02 8.130000000000000000e+02 8.140000000000000000e+02 8.150000000000000000e+02 8.160000000000000000e+02 8.170000000000000000e+02 8.180000000000000000e+02 8.190000000000000000e+02 8.200000000000000000e+02 8.210000000000000000e+02 8.220000000000000000e+02 8.230000000000000000e+02 8.240000000000000000e+02 8.250000000000000000e+02 8.260000000000000000e+02 8.270000000000000000e+02 8.280000000000000000e+02 8.290000000000000000e+02 8.300000000000000000e+02 8.310000000000000000e+02 8.320000000000000000e+02 8.330000000000000000e+02 8.340000000000000000e+02 8.350000000000000000e+02 8.360000000000000000e+02 8.370000000000000000e+02 8.380000000000000000e+02 8.390000000000000000e+02 8.400000000000000000e+02 8.410000000000000000e+02 8.420000000000000000e+02 8.430000000000000000e+02 8.440000000000000000e+02 8.450000000000000000e+02 8.460000000000000000e+02 8.470000000000000000e+02 8.480000000000000000e+02 8.490000000000000000e+02 8.500000000000000000e+02 8.510000000000000000e+02 8.520000000000000000e+02 8.530000000000000000e+02 8.540000000000000000e+02 8.550000000000000000e+02 8.560000000000000000e+02 8.570000000000000000e+02 8.580000000000000000e+02 8.590000000000000000e+02 8.600000000000000000e+02 8.610000000000000000e+02 8.620000000000000000e+02 8.630000000000000000e+02 8.640000000000000000e+02 8.650000000000000000e+02 8.660000000000000000e+02 8.670000000000000000e+02 8.680000000000000000e+02 8.690000000000000000e+02 8.700000000000000000e+02 8.710000000000000000e+02 8.720000000000000000e+02 8.730000000000000000e+02 8.740000000000000000e+02 8.750000000000000000e+02 8.760000000000000000e+02 8.770000000000000000e+02 8.780000000000000000e+02 8.790000000000000000e+02 8.800000000000000000e+02 8.810000000000000000e+02 8.820000000000000000e+02 8.830000000000000000e+02 8.840000000000000000e+02 8.850000000000000000e+02 8.860000000000000000e+02 8.870000000000000000e+02 8.880000000000000000e+02 8.890000000000000000e+02 8.900000000000000000e+02 8.910000000000000000e+02 8.920000000000000000e+02 8.930000000000000000e+02 8.940000000000000000e+02 8.950000000000000000e+02 8.960000000000000000e+02 8.970000000000000000e+02 8.980000000000000000e+02 8.990000000000000000e+02 9.000000000000000000e+02 9.010000000000000000e+02 9.020000000000000000e+02 9.030000000000000000e+02 9.040000000000000000e+02 9.050000000000000000e+02 9.060000000000000000e+02 9.070000000000000000e+02 9.080000000000000000e+02 9.090000000000000000e+02 9.100000000000000000e+02 9.110000000000000000e+02 9.120000000000000000e+02 9.130000000000000000e+02 9.140000000000000000e+02 9.150000000000000000e+02 9.160000000000000000e+02 9.170000000000000000e+02 9.180000000000000000e+02 9.190000000000000000e+02 9.200000000000000000e+02 9.210000000000000000e+02 9.220000000000000000e+02 9.230000000000000000e+02 9.240000000000000000e+02 9.250000000000000000e+02 9.260000000000000000e+02 9.270000000000000000e+02 9.280000000000000000e+02 9.290000000000000000e+02 9.300000000000000000e+02 9.310000000000000000e+02 9.320000000000000000e+02 9.330000000000000000e+02 9.340000000000000000e+02 9.350000000000000000e+02 9.360000000000000000e+02 9.370000000000000000e+02 9.380000000000000000e+02 9.390000000000000000e+02 9.400000000000000000e+02 9.410000000000000000e+02 9.420000000000000000e+02 9.430000000000000000e+02 9.440000000000000000e+02 9.450000000000000000e+02 9.460000000000000000e+02 9.470000000000000000e+02 9.480000000000000000e+02 9.490000000000000000e+02 9.500000000000000000e+02 9.510000000000000000e+02 9.520000000000000000e+02 9.530000000000000000e+02 9.540000000000000000e+02 9.550000000000000000e+02 9.560000000000000000e+02 9.570000000000000000e+02 9.580000000000000000e+02 9.590000000000000000e+02 9.600000000000000000e+02 9.610000000000000000e+02 9.620000000000000000e+02 9.630000000000000000e+02 9.640000000000000000e+02 9.650000000000000000e+02 9.660000000000000000e+02 9.670000000000000000e+02 9.680000000000000000e+02 9.690000000000000000e+02 9.700000000000000000e+02 9.710000000000000000e+02 9.720000000000000000e+02 9.730000000000000000e+02 9.740000000000000000e+02 9.750000000000000000e+02 9.760000000000000000e+02 9.770000000000000000e+02 9.780000000000000000e+02 9.790000000000000000e+02 9.800000000000000000e+02 9.810000000000000000e+02 9.820000000000000000e+02 9.830000000000000000e+02 9.840000000000000000e+02 9.850000000000000000e+02 9.860000000000000000e+02 9.870000000000000000e+02 9.880000000000000000e+02 9.890000000000000000e+02 9.900000000000000000e+02 9.910000000000000000e+02 9.920000000000000000e+02 9.930000000000000000e+02 9.940000000000000000e+02 9.950000000000000000e+02 9.960000000000000000e+02 9.970000000000000000e+02 9.980000000000000000e+02 9.990000000000000000e+02
1.000000000000000000e+00 1.000000000000000000e+00 1.000000000000000000e+00 1.000000000000000000e+00 1.000000000000000000e+00 1.000000000000000000e+00 1.000000000000000000e+00 1.000000000000000000e+00 1.000000000000000000e+00 1.000000000000000000e+00 1.000000000000000000e+00 1.000000000000000000e+00 1.000000000000000000e+00 1.000000000000000000e+00 1.000000000000000000e+00 1.000000000000000000e+00 1.000000000000000000e+00 1.000000000000000000e+00 1.000000000000000000e+00 1.000000000000000000e+00 1.000000000000000000e+00 1.000000000000000000e+00 1.000000000000000000e+00 1.000000000000000000e+00 1.000000000000000000e+00 1.000000000000000000e+00 1.000000000000000000e+00 1.000000000000000000e+00 1.000000000000000000e+00 1.000000000000000000e+00 1.000000000000000000e+00 1.000000000000000000e+00 1.000000000000000000e+00 1.000000000000000000e+00 1.000000000000000000e+00 1.000000000000000000e+00 1.000000000000000000e+00 1.000000000000000000e+00 1.000000000000000000e+00 1.000000000000000000e+00 1.000000000000000000e+00 1.000000000000000000e+00 1.000000000000000000e+00 1.000000000000000000e+00 1.000000000000000000e+00 1.000000000000000000e+00 1.000000000000000000e+00 1.000000000000000000e+00 1.000000000000000000e+00 1.000000000000000000e+00 1.000000000000000000e+00 1.000000000000000000e+00 1.000000000000000000e+00 1.000000000000000000e+00 1.000000000000000000e+00 1.000000000000000000e+00 1.000000000000000000e+00 1.000000000000000000e+00 1.000000000000000000e+00 1.000000000000000000e+00 1.000000000000000000e+00 1.000000000000000000e+00 1.000000000000000000e+00 1.000000000000000000e+00 1.000000000000000000e+00 1.000000000000000000e+00 1.000000000000000000e+00 1.000000000000000000e+00 1.000000000000000000e+00 1.000000000000000000e+00 1.000000000000000000e+00 1.000000000000000000e+00 1.000000000000000000e+00 1.000000000000000000e+00 1.000000000000000000e+00 1.000000000000000000e+00 1.000000000000000000e+00 1.000000000000000000e+00 1.000000000000000000e+00 1.000000000000000000e+00 1.000000000000000000e+00 1.000000000000000000e+00 1.000000000000000000e+00 1.000000000000000000e+00 1.000000000000000000e+00 1.000000000000000000e+00 1.000000000000000000e+00 1.000000000000000000e+00 1.000000000000000000e+00 1.000000000000000000e+00 1.000000000000000000e+00 1.000000000000000000e+00 1.000000000000000000e+00 1.000000000000000000e+00 1.000000000000000000e+00 1.000000000000000000e+00 1.000000000000000000e+00 1.000000000000000000e+00 1.000000000000000000e+00 1.000000000000000000e+00 1.000000000000000000e+00 1.000000000000000000e+00 1.000000000000000000e+00 1.000000000000000000e+00 1.000000000000000000e+00 1.000000000000000000e+00 1.000000000000000000e+00 1.000000000000000000e+00 1.000000000000000000e+00 1.000000000000000000e+00 1.000000000000000000e+00 1.000000000000000000e+00 1.000000000000000000e+00 1.000000000000000000e+00 1.000000000000000000e+00 1.000000000000000000e+00 1.000000000000000000e+00 1.000000000000000000e+00 1.000000000000000000e+00 1.000000000000000000e+00 1.000000000000000000e+00 1.000000000000000000e+00 1.000000000000000000e+00 1.000000000000000000e+00 1.000000000000000000e+00 1.000000000000000000e+00 1.000000000000000000e+00 1.000000000000000000e+00 1.000000000000000000e+00 1.000000000000000000e+00 1.000000000000000000e+00 1.000000000000000000e+00 1.000000000000000000e+00 1.000000000000000000e+00 1.000000000000000000e+00 1.000000000000000000e+00 1.000000000000000000e+00 1.000000000000000000e+00 1.000000000000000000e+00 1.000000000000000000e+00 1.000000000000000000e+00 1.000000000000000000e+00 1.000000000000000000e+00 1.000000000000000000e+00 1.000000000000000000e+00 1.000000000000000000e+00 1.000000000000000000e+00 1.000000000000000000e+00 1.000000000000000000e+00 1.000000000000000000e+00 1.000000000000000000e+00 1.000000000000000000e+00 1.000000000000000000e+00 1.000000000000000000e+00 1.000000000000000000e+00 1.000000000000000000e+00 1.000000000000000000e+00 1.000000000000000000e+00 1.000000000000000000e+00 1.000000000000000000e+00 1.000000000000000000e+00 1.000000000000000000e+00 1.000000000000000000e+00 1.000000000000000000e+00 1.000000000000000000e+00 1.000000000000000000e+00 1.000000000000000000e+00 1.000000000000000000e+00 1.000000000000000000e+00 1.000000000000000000e+00 1.000000000000000000e+00 1.000000000000000000e+00 1.000000000000000000e+00 1.000000000000000000e+00 1.000000000000000000e+00 1.000000000000000000e+00 1.000000000000000000e+00 1.000000000000000000e+00 1.000000000000000000e+00 1.000000000000000000e+00 1.000000000000000000e+00 1.000000000000000000e+00 1.000000000000000000e+00 1.000000000000000000e+00 1.000000000000000000e+00 1.000000000000000000e+00 1.000000000000000000e+00 1.000000000000000000e+00 1.000000000000000000e+00 1.000000000000000000e+00 1.000000000000000000e+00 1.000000000000000000e+00 1.000000000000000000e+00 1.000000000000000000e+00 1.000000000000000000e+00 1.000000000000000000e+00 1.000000000000000000e+00 1.000000000000000000e+00 1.000000000000000000e+00 1.000000000000000000e+00 1.000000000000000000e+00 1.000000000000000000e+00 1.000000000000000000e+00 1.000000000000000000e+00 1.000000000000000000e+00 1.000000000000000000e+00 1.000000000000000000e+00 1.000000000000000000e+00 1.000000000000000000e+00 1.000000000000000000e+00 1.000000000000000000e+00 1.000000000000000000e+00 1.000000000000000000e+00 1.000000000000000000e+00 1.000000000000000000e+00 1.000000000000000000e+00 1.000000000000000000e+00 1.000000000000000000e+00 1.000000000000000000e+00 1.000000000000000000e+00 1.000000000000000000e+00 1.000000000000000000e+00 1.000000000000000000e+00 1.000000000000000000e+00 1.000000000000000000e+00 1.000000000000000000e+00 1.000000000000000000e+00 1.000000000000000000e+00 1.000000000000000000e+00 1.000000000000000000e+00 1.000000000000000000e+00 1.000000000000000000e+00 1.000000000000000000e+00 1.000000000000000000e+00 1.000000000000000000e+00 1.000000000000000000e+00 1.000000000000000000e+00 1.000000000000000000e+00 1.000000000000000000e+00 1.000000000000000000e+00 1.000000000000000000e+00 1.000000000000000000e+00 1.000000000000000000e+00 1.000000000000000000e+00 1.000000000000000000e+00 1.000000000000000000e+00 1.000000000000000000e+00 1.000000000000000000e+00 1.000000000000000000e+00 1.000000000000000000e+00 1.000000000000000000e+00 1.000000000000000000e+00 1.000000000000000000e+00 1.000000000000000000e+00 1.000000000000000000e+00 1.000000000000000000e+00 1.000000000000000000e+00 1.000000000000000000e+00 1.000000000000000000e+00 1.000000000000000000e+00 1.000000000000000000e+00 1.000000000000000000e+00 1.000000000000000000e+00 1.000000000000000000e+00 1.000000000000000000e+00 1.000000000000000000e+00 1.000000000000000000e+00 1.000000000000000000e+00 1.000000000000000000e+00 1.000000000000000000e+00 1.000000000000000000e+00 1.000000000000000000e+00 1.000000000000000000e+00 1.000000000000000000e+00 1.000000000000000000e+00 1.000000000000000000e+00 1.000000000000000000e+00 1.000000000000000000e+00 1.000000000000000000e+00 1.000000000000000000e+00 1.000000000000000000e+00 1.000000000000000000e+00 1.000000000000000000e+00 1.000000000000000000e+00 1.000000000000000000e+00 1.000000000000000000e+00 1.000000000000000000e+00 1.000000000000000000e+00 1.000000000000000000e+00 1.000000000000000000e+00 1.000000000000000000e+00 1.000000000000000000e+00 1.000000000000000000e+00 1.000000000000000000e+00 1.000000000000000000e+00 1.000000000000000000e+00 1.000000000000000000e+00 1.000000000000000000e+00 1.000000000000000000e+00 1.000000000000000000e+00 1.000000000000000000e+00 1.000000000000000000e+00 1.000000000000000000e+00 1.000000000000000000e+00 1.000000000000000000e+00 1.000000000000000000e+00 1.000000000000000000e+00 1.000000000000000000e+00 1.000000000000000000e+00 1.000000000000000000e+00 1.000000000000000000e+00 1.000000000000000000e+00 1.000000000000000000e+00 1.000000000000000000e+00 1.000000000000000000e+00 1.000000000000000000e+00 1.000000000000000000e+00 1.000000000000000000e+00 1.000000000000000000e+00 1.000000000000000000e+00 1.000000000000000000e+00 1.000000000000000000e+00 1.000000000000000000e+00 1.000000000000000000e+00 1.000000000000000000e+00 1.000000000000000000e+00 1.000000000000000000e+00 1.000000000000000000e+00 1.000000000000000000e+00 1.000000000000000000e+00 1.000000000000000000e+00 1.000000000000000000e+00 1.000000000000000000e+00 1.000000000000000000e+00 1.000000000000000000e+00 1.000000000000000000e+00 1.000000000000000000e+00 1.000000000000000000e+00 1.000000000000000000e+00 1.000000000000000000e+00 1.000000000000000000e+00 1.000000000000000000e+00 1.000000000000000000e+00 1.000000000000000000e+00 1.000000000000000000e+00 1.000000000000000000e+00 1.000000000000000000e+00 1.000000000000000000e+00 1.000000000000000000e+00 1.000000000000000000e+00 1.000000000000000000e+00 1.000000000000000000e+00 1.000000000000000000e+00 1.000000000000000000e+00 1.000000000000000000e+00 1.000000000000000000e+00 1.000000000000000000e+00 1.000000000000000000e+00 1.000000000000000000e+00 1.000000000000000000e+00 1.000000000000000000e+00 1.000000000000000000e+00 1.000000000000000000e+00 1.000000000000000000e+00 1.000000000000000000e+00 1.000000000000000000e+00 1.000000000000000000e+00 1.000000000000000000e+00 1.000000000000000000e+00 1.000000000000000000e+00 1.000000000000000000e+00 1.000000000000000000e+00 1.000000000000000000e+00 1.000000000000000000e+00 1.000000000000000000e+00 1.000000000000000000e+00 1.000000000000000000e+00 1.000000000000000000e+00 1.000000000000000000e+00 1.000000000000000000e+00 1.000000000000000000e+00 1.000000000000000000e+00 1.000000000000000000e+00 1.000000000000000000e+00 1.000000000000000000e+00 1.000000000000000000e+00 1.000000000000000000e+00 1.000000000000000000e+00 1.000000000000000000e+00 1.000000000000000000e+00 1.000000000000000000e+00 1.000000000000000000e+00 1.000000000000000000e+00 1.000000000000000000e+00 1.000000000000000000e+00 1.000000000000000000e+00 1.000000000000000000e+00 1.000000000000000000e+00 1.000000000000000000e+00 1.000000000000000000e+00 1.000000000000000000e+00 1.000000000000000000e+00 1.000000000000000000e+00 1.000000000000000000e+00 1.000000000000000000e+00 1.000000000000000000e+00 1.000000000000000000e+00 1.000000000000000000e+00 1.000000000000000000e+00 1.000000000000000000e+00 1.000000000000000000e+00 1.000000000000000000e+00 1.000000000000000000e+00 1.000000000000000000e+00 1.000000000000000000e+00 1.000000000000000000e+00 1.000000000000000000e+00 1.000000000000000000e+00 1.000000000000000000e+00 1.000000000000000000e+00 1.000000000000000000e+00 1.000000000000000000e+00 1.000000000000000000e+00 1.000000000000000000e+00 1.000000000000000000e+00 1.000000000000000000e+00 1.000000000000000000e+00 1.000000000000000000e+00 1.000000000000000000e+00 1.000000000000000000e+00 1.000000000000000000e+00 1.000000000000000000e+00 1.000000000000000000e+00 1.000000000000000000e+00 1.000000000000000000e+00 1.000000000000000000e+00 1.000000000000000000e+00 1.000000000000000000e+00 1.000000000000000000e+00 1.000000000000000000e+00 1.000000000000000000e+00 1.000000000000000000e+00 1.000000000000000000e+00 1.000000000000000000e+00 1.000000000000000000e+00 1.000000000000000000e+00 1.000000000000000000e+00 1.000000000000000000e+00 1.000000000000000000e+00 1.000000000000000000e+00 1.000000000000000000e+00 1.000000000000000000e+00 1.000000000000000000e+00 1.000000000000000000e+00 1.000000000000000000e+00 1.000000000000000000e+00 1.000000000000000000e+00 1.000000000000000000e+00 1.000000000000000000e+00 1.000000000000000000e+00 1.000000000000000000e+00 1.000000000000000000e+00 1.000000000000000000e+00 1.000000000000000000e+00 1.000000000000000000e+00 1.000000000000000000e+00 1.000000000000000000e+00 1.000000000000000000e+00 1.000000000000000000e+00 1.000000000000000000e+00 1.000000000000000000e+00 1.000000000000000000e+00 1.000000000000000000e+00 1.000000000000000000e+00 1.000000000000000000e+00 1.000000000000000000e+00 1.000000000000000000e+00 1.000000000000000000e+00 1.000000000000000000e+00 1.000000000000000000e+00 1.000000000000000000e+00 1.000000000000000000e+00 1.000000000000000000e+00 1.000000000000000000e+00 1.000000000000000000e+00 1.000000000000000000e+00 1.000000000000000000e+00 1.000000000000000000e+00 1.000000000000000000e+00 1.000000000000000000e+00 1.000000000000000000e+00 1.000000000000000000e+00 1.000000000000000000e+00 1.000000000000000000e+00 1.000000000000000000e+00 1.000000000000000000e+00 1.000000000000000000e+00 1.000000000000000000e+00 1.000000000000000000e+00 1.000000000000000000e+00 1.000000000000000000e+00 1.000000000000000000e+00 1.000000000000000000e+00 1.000000000000000000e+00 1.000000000000000000e+00 1.000000000000000000e+00 1.000000000000000000e+00 1.000000000000000000e+00 1.000000000000000000e+00 1.000000000000000000e+00 1.000000000000000000e+00 1.000000000000000000e+00 1.000000000000000000e+00 1.000000000000000000e+00 1.000000000000000000e+00 1.000000000000000000e+00 1.000000000000000000e+00 1.000000000000000000e+00 1.000000000000000000e+00 1.000000000000000000e+00 1.000000000000000000e+00 1.000000000000000000e+00 1.000000000000000000e+00 1.000000000000000000e+00 1.000000000000000000e+00 1.000000000000000000e+00 1.000000000000000000e+00 1.000000000000000000e+00 1.000000000000000000e+00 1.000000000000000000e+00 1.000000000000000000e+00 1.000000000000000000e+00 1.000000000000000000e+00 1.000000000000000000e+00 1.000000000000000000e+00 1.000000000000000000e+00 1.000000000000000000e+00 1.000000000000000000e+00 1.000000000000000000e+00 1.000000000000000000e+00 1.000000000000000000e+00 1.000000000000000000e+00 1.000000000000000000e+00 1.000000000000000000e+00 1.000000000000000000e+00 1.000000000000000000e+00 1.000000000000000000e+00 1.000000000000000000e+00 1.000000000000000000e+00 1.000000000000000000e+00 1.000000000000000000e+00 1.000000000000000000e+00 1.000000000000000000e+00 1.000000000000000000e+00 1.000000000000000000e+00 1.000000000000000000e+00 1.000000000000000000e+00 1.000000000000000000e+00 1.000000000000000000e+00 1.000000000000000000e+00 1.000000000000000000e+00 1.000000000000000000e+00 1.000000000000000000e+00 1.000000000000000000e+00 1.000000000000000000e+00 1.000000000000000000e+00 1.000000000000000000e+00 1.000000000000000000e+00 1.000000000000000000e+00 1.000000000000000000e+00 1.000000000000000000e+00 1.000000000000000000e+00 1.000000000000000000e+00 1.000000000000000000e+00 1.000000000000000000e+00 1.000000000000000000e+00 1.000000000000000000e+00 1.000000000000000000e+00 1.000000000000000000e+00 1.000000000000000000e+00 1.000000000000000000e+00 1.000000000000000000e+00 1.000000000000000000e+00 1.000000000000000000e+00 1.000000000000000000e+00 1.000000000000000000e+00 1.000000000000000000e+00 1.000000000000000000e+00 1.000000000000000000e+00 1.000000000000000000e+00 1.000000000000000000e+00 1.000000000000000000e+00 1.000000000000000000e+00 1.000000000000000000e+00 1.000000000000000000e+00 1.000000000000000000e+00 1.000000000000000000e+00 1.000000000000000000e+00 1.000000000000000000e+00 1.000000000000000000e+00 1.000000000000000000e+00 1.000000000000000000e+00 1.000000000000000000e+00 1.000000000000000000e+00 1.000000000000000000e+00 1.000000000000000000e+00 1.000000000000000000e+00 1.000000000000000000e+00 1.000000000000000000e+00 1.000000000000000000e+00 1.000000000000000000e+00 1.000000000000000000e+00 1.000000000000000000e+00 1.000000000000000000e+00 1.000000000000000000e+00 1.000000000000000000e+00 1.000000000000000000e+00 1.000000000000000000e+00 1.000000000000000000e+00 1.000000000000000000e+00 1.000000000000000000e+00 1.000000000000000000e+00 1.000000000000000000e+00 1.000000000000000000e+00 1.000000000000000000e+00 1.000000000000000000e+00 1.000000000000000000e+00 1.000000000000000000e+00 1.000000000000000000e+00 1.000000000000000000e+00 1.000000000000000000e+00 1.000000000000000000e+00 1.000000000000000000e+00 1.000000000000000000e+00 1.000000000000000000e+00 1.000000000000000000e+00 1.000000000000000000e+00 1.000000000000000000e+00 1.000000000000000000e+00 1.000000000000000000e+00 1.000000000000000000e+00 1.000000000000000000e+00 1.000000000000000000e+00 1.000000000000000000e+00 1.000000000000000000e+00 1.000000000000000000e+00 1.000000000000000000e+00 1.000000000000000000e+00 1.000000000000000000e+00 1.000000000000000000e+00 1.000000000000000000e+00 1.000000000000000000e+00 1.000000000000000000e+00 1.000000000000000000e+00 1.000000000000000000e+00 1.000000000000000000e+00 1.000000000000000000e+00 1.000000000000000000e+00 1.000000000000000000e+00 1.000000000000000000e+00 1.000000000000000000e+00 1.000000000000000000e+00 1.000000000000000000e+00 1.000000000000000000e+00 1.000000000000000000e+00 1.000000000000000000e+00 1.000000000000000000e+00 1.000000000000000000e+00 1.000000000000000000e+00 1.000000000000000000e+00 1.000000000000000000e+00 1.000000000000000000e+00 1.000000000000000000e+00 1.000000000000000000e+00 1.000000000000000000e+00 1.000000000000000000e+00 1.000000000000000000e+00 1.000000000000000000e+00 1.000000000000000000e+00 1.000000000000000000e+00 1.000000000000000000e+00 1.000000000000000000e+00 1.000000000000000000e+00 1.000000000000000000e+00 1.000000000000000000e+00 1.000000000000000000e+00 1.000000000000000000e+00 1.000000000000000000e+00 1.000000000000000000e+00 1.000000000000000000e+00 1.000000000000000000e+00 1.000000000000000000e+00 1.000000000000000000e+00 1.000000000000000000e+00 1.000000000000000000e+00 1.000000000000000000e+00 1.000000000000000000e+00 1.000000000000000000e+00 1.000000000000000000e+00 1.000000000000000000e+00 1.000000000000000000e+00 1.000000000000000000e+00 1.000000000000000000e+00 1.000000000000000000e+00 1.000000000000000000e+00 1.000000000000000000e+00 1.000000000000000000e+00 1.000000000000000000e+00 1.000000000000000000e+00 1.000000000000000000e+00 1.000000000000000000e+00 1.000000000000000000e+00 1.000000000000000000e+00 1.000000000000000000e+00 1.000000000000000000e+00 1.000000000000000000e+00 1.000000000000000000e+00 1.000000000000000000e+00 1.000000000000000000e+00 1.000000000000000000e+00 1.000000000000000000e+00 1.000000000000000000e+00 1.000000000000000000e+00 1.000000000000000000e+00 1.000000000000000000e+00 1.000000000000000000e+00 1.000000000000000000e+00 1.000000000000000000e+00 1.000000000000000000e+00 1.000000000000000000e+00 1.000000000000000000e+00 1.000000000000000000e+00 1.000000000000000000e+00 1.000000000000000000e+00 1.000000000000000000e+00 1.000000000000000000e+00 1.000000000000000000e+00 1.000000000000000000e+00 1.000000000000000000e+00 1.000000000000000000e+00 1.000000000000000000e+00 1.000000000000000000e+00 1.000000000000000000e+00 1.000000000000000000e+00 1.000000000000000000e+00 1.000000000000000000e+00 1.000000000000000000e+00 1.000000000000000000e+00 1.000000000000000000e+00 1.000000000000000000e+00 1.000000000000000000e+00 1.000000000000000000e+00 1.000000000000000000e+00 1.000000000000000000e+00 1.000000000000000000e+00 1.000000000000000000e+00 1.000000000000000000e+00 1.000000000000000000e+00 1.000000000000000000e+00 1.000000000000000000e+00 1.000000000000000000e+00 1.000000000000000000e+00 1.000000000000000000e+00 1.000000000000000000e+00 1.000000000000000000e+00 1.000000000000000000e+00 1.000000000000000000e+00 1.000000000000000000e+00 1.000000000000000000e+00 1.000000000000000000e+00 1.000000000000000000e+00 1.000000000000000000e+00 1.000000000000000000e+00 1.000000000000000000e+00 1.000000000000000000e+00 1.000000000000000000e+00 1.000000000000000000e+00 1.000000000000000000e+00 1.000000000000000000e+00 1.000000000000000000e+00 1.000000000000000000e+00 1.000000000000000000e+00 1.000000000000000000e+00 1.000000000000000000e+00 1.000000000000000000e+00 1.000000000000000000e+00 1.000000000000000000e+00 1.000000000000000000e+00 1.000000000000000000e+00 1.000000000000000000e+00 1.000000000000000000e+00 1.000000000000000000e+00 1.000000000000000000e+00 1.000000000000000000e+00 1.000000000000000000e+00 1.000000000000000000e+00 1.000000000000000000e+00 1.000000000000000000e+00 1.000000000000000000e+00 1.000000000000000000e+00 1.000000000000000000e+00 1.000000000000000000e+00 1.000000000000000000e+00 1.000000000000000000e+00 1.000000000000000000e+00 1.000000000000000000e+00 1.000000000000000000e+00 1.000000000000000000e+00 1.000000000000000000e+00 1.000000000000000000e+00 1.000000000000000000e+00 1.000000000000000000e+00 1.000000000000000000e+00 1.000000000000000000e+00 1.000000000000000000e+00 1.000000000000000000e+00 1.000000000000000000e+00 1.000000000000000000e+00 1.000000000000000000e+00 1.000000000000000000e+00 1.000000000000000000e+00 1.000000000000000000e+00 1.000000000000000000e+00 1.000000000000000000e+00 1.000000000000000000e+00 1.000000000000000000e+00 1.000000000000000000e+00 1.000000000000000000e+00 1.000000000000000000e+00 1.000000000000000000e+00 1.000000000000000000e+00 1.000000000000000000e+00 1.000000000000000000e+00 1.000000000000000000e+00 1.000000000000000000e+00 1.000000000000000000e+00 1.000000000000000000e+00 1.000000000000000000e+00 1.000000000000000000e+00 1.000000000000000000e+00 1.000000000000000000e+00 1.000000000000000000e+00 1.000000000000000000e+00 1.000000000000000000e+00 1.000000000000000000e+00 1.000000000000000000e+00 1.000000000000000000e+00 1.000000000000000000e+00 1.000000000000000000e+00 1.000000000000000000e+00 1.000000000000000000e+00 1.000000000000000000e+00 1.000000000000000000e+00 1.000000000000000000e+00 1.000000000000000000e+00 1.000000000000000000e+00 1.000000000000000000e+00 1.000000000000000000e+00 1.000000000000000000e+00 1.000000000000000000e+00 1.000000000000000000e+00 1.000000000000000000e+00 1.000000000000000000e+00 1.000000000000000000e+00 1.000000000000000000e+00 1.000000000000000000e+00 1.000000000000000000e+00 1.000000000000000000e+00 1.000000000000000000e+00 1.000000000000000000e+00 1.000000000000000000e+00 1.000000000000000000e+00 1.000000000000000000e+00 1.000000000000000000e+00 1.000000000000000000e+00 1.000000000000000000e+00 1.000000000000000000e+00 1.000000000000000000e+00 1.000000000000000000e+00 1.000000000000000000e+00 1.000000000000000000e+00 1.000000000000000000e+00 1.000000000000000000e+00 1.000000000000000000e+00 1.000000000000000000e+00 1.000000000000000000e+00 1.000000000000000000e+00 1.000000000000000000e+00 1.000000000000000000e+00 1.000000000000000000e+00 1.000000000000000000e+00 1.000000000000000000e+00 1.000000000000000000e+00 1.000000000000000000e+00 1.000000000000000000e+00 1.000000000000000000e+00 1.000000000000000000e+00 1.000000000000000000e+00 1.000000000000000000e+00 1.000000000000000000e+00 1.000000000000000000e+00 1.000000000000000000e+00 1.000000000000000000e+00 1.000000000000000000e+00 1.000000000000000000e+00 1.000000000000000000e+00 1.000000000000000000e+00 1.000000000000000000e+00 1.000000000000000000e+00 1.000000000000000000e+00 1.000000000000000000e+00 1.000000000000000000e+00 1.000000000000000000e+00 1.000000000000000000e+00 1.000000000000000000e+00 1.000000000000000000e+00 1.000000000000000000e+00 1.000000000000000000e+00 1.000000000000000000e+00 1.000000000000000000e+00 1.000000000000000000e+00 1.000000000000000000e+00 1.000000000000000000e+00 1.000000000000000000e+00 1.000000000000000000e+00 1.000000000000000000e+00 1.000000000000000000e+00 1.000000000000000000e+00 1.000000000000000000e+00 1.000000000000000000e+00 1.000000000000000000e+00 1.000000000000000000e+00 1.000000000000000000e+00 1.000000000000000000e+00 1.000000000000000000e+00 1.000000000000000000e+00 1.000000000000000000e+00 1.000000000000000000e+00 1.000000000000000000e+00 1.000000000000000000e+00 1.000000000000000000e+00 1.000000000000000000e+00 1.000000000000000000e+00 1.000000000000000000e+00 1.000000000000000000e+00 1.000000000000000000e+00 1.000000000000000000e+00 1.000000000000000000e+00 1.000000000000000000e+00 1.000000000000000000e+00 1.000000000000000000e+00 1.000000000000000000e+00 1.000000000000000000e+00 1.000000000000000000e+00 1.000000000000000000e+00 1.000000000000000000e+00 1.000000000000000000e+00 1.000000000000000000e+00 1.000000000000000000e+00 1.000000000000000000e+00 1.000000000000000000e+00 1.000000000000000000e+00 1.000000000000000000e+00 1.000000000000000000e+00 1.000000000000000000e+00 1.000000000000000000e+00 1.000000000000000000e+00 1.000000000000000000e+00 1.000000000000000000e+00 1.000000000000000000e+00 1.000000000000000000e+00 1.000000000000000000e+00 1.000000000000000000e+00 1.000000000000000000e+00 1.000000000000000000e+00 1.000000000000000000e+00 1.000000000000000000e+00 1.000000000000000000e+00 1.000000000000000000e+00 1.000000000000000000e+00 1.000000000000000000e+00 1.000000000000000000e+00 1.000000000000000000e+00 1.000000000000000000e+00 1.000000000000000000e+00 1.000000000000000000e+00 1.000000000000000000e+00 1.000000000000000000e+00 1.000000000000000000e+00 1.000000000000000000e+00 1.000000000000000000e+00 1.000000000000000000e+00 1.000000000000000000e+00 1.000000000000000000e+00 1.000000000000000000e+00 1.000000000000000000e+00 1.000000000000000000e+00 1.000000000000000000e+00 1.000000000000000000e+00 1.000000000000000000e+00
2.881659144660845412e-02 5.234168398105250031e-01 8.173943888732685403e-01 4.841554662302952616e-01 5.160318419052087879e-01 5.294425915769702673e-01 5.261230680467003928e-01 2.699328425576196788e-01 4.138548644000936139e-01 5.019040865326149792e-01 1.016722091963951691e+00 -3.171331757949322760e-01 1.171798696031453257e+00 5.306489352902654666e-01 5.204890590179749310e-01 4.326013447381916177e-01 9.727037540372742708e-01 6.724727911190016005e-01 2.677199799807212233e-01 5.038372907179974325e-01 3.488333258147353066e-01 8.725864519009898235e-01 2.937149643232825902e-01 5.192279551555006867e-01 7.204309325604668635e-01 7.869686418995566202e-01 5.387899250500978177e-01 5.372441835248036313e-01 4.914927784036871028e-01 9.737720496844421980e-01 5.074976695141787397e-01 3.709510603155437014e-01 8.304731533094853457e-01 4.751591756493710461e-01 7.470043953404664760e-01 5.791747867143637318e-01 5.696347262044817450e-01 9.898231851249142954e-01 1.092416055144966036e-01 5.052039888572043003e-01 5.039978887310796463e-01 -3.984727160903384635e-01 7.499492910119290867e-01 1.978833725388841613e-01 2.315113594270563624e-01 5.458595621328836689e-01 4.852027703757889610e-01 5.434628589392737075e-01 5.724045040645567850e-01 4.258407228617902551e-02 2.782069420673069504e-02 2.711229093247174426e-01 5.292332573168040399e-01 4.847172300478831408e-01 4.958440698198236518e-01 2.221593621891603670e-02 4.992937658603698869e-01 6.958109932246497875e-01 1.613527370440045738e-01 5.191407670097267779e-01 7.550231886505779366e-01 4.643056182645923791e-01 4.884539879814480678e-01 2.937170070969151725e-01 5.950549000565150681e-01 6.436871664561125694e-01 5.046344201508242699e-01 6.097635165541299695e-01 4.648431233207267477e-01 -9.122066084187595986e-03 5.101901683364861162e-01 4.956580684353711908e-01 4.939010477702193702e-01 3.314554869620066867e-03 1.287492393467915663e+00 6.373914983737538620e-01 5.951879926838719026e-01 7.791535547676279316e-01 5.021599078534210170e-01 1.281322626035526824e+00 5.129471664972529155e-01 1.728952777537909880e-01 8.971709007145898251e-01 5.665939242628224015e-01 5.240083572543201562e-01 7.361137231059289299e-01 8.507181331011205438e-01 4.928102181284018113e-01 3.079083706250159702e-01 5.652975131383594087e-01 2.307777617535595460e-01 1.544756686101127263e+00 5.344327547471103834e-01 7.139015245192362191e-02 3.083219658534781527e-01 5.055269217217904787e-01 5.102300687567301596e-01 6.651225004947088904e-01 2.154430694415993275e-01 7.751809630830180931e-01 9.838584280240868507e-01 5.190284718219645432e-01 5.225962109671564715e-01 1.078935469751579612e+00 1.288600056190058463e-01 -1.219975466504566786e+00 -8.506518016692232731e-01 5.553922572822451720e-01 4.764908195483050779e-01 9.199085155460767771e-01 3.682191352126614747e-01 5.434999110617892981e-01 8.589617740770341126e-01 5.049729660948952814e-01 4.535801162482331339e-01 4.835866118982298234e-01 3.905058897651262351e-01 4.531779098077648449e-01 5.452550930445586586e-01 5.692830128597659023e-01 1.123433289790257250e+00 3.266096194390202267e-01 4.798887683351987787e-01 5.840365529167554914e-01 5.217741463505956023e-01 1.600801439615259225e+00 5.084127231993246232e-01 6.632837855439742691e-01 4.852359843083265400e-01 5.085681639788460773e-01 4.866881138199093404e-01 5.016332052668969199e-01 4.558509846219576112e-01 2.367762678081097583e-01 5.515881422583650551e-01 -2.357929633036387473e-02 8.496037046381870184e-01 -1.385152028176617027e-02 8.792993986519888061e-01 4.983729442955208699e-01 5.263795490558200729e-01 6.905439356116408467e-01 5.521219445949464566e-01 6.070915192752550649e-01 5.444088136830600444e-01 -3.658923149869239971e-02 5.228678169275513543e-01 4.992961468131046909e-01 4.856970362841844802e-01 -4.850730541920807992e-01 7.372864836771796382e-01 -1.158589302797774501e-01 5.458354535546429132e-01 4.962232225336170033e-01 8.170941313617040569e-01 4.417912940589999726e-01 9.058789418330387422e-01 5.660820018390154695e-01 8.048913046361477752e-01 7.931749954347353526e-01 4.124238916851450942e-01 4.141830802823774915e-01 4.929613106931498567e-01 5.464203322167606736e-01 1.137400922505230616e+00 -1.310792260259608100e-01 7.776431845408438015e-01 5.279429392186542058e-01 4.655147272875732600e-01 4.501921150408068062e-01 5.430769136002807640e-01 4.840883767752709455e-01 5.461100469049884332e-01 5.391525446754629192e-01 4.287478635074054023e-01 7.310363309950748678e-02 1.490063310850812395e-01 5.640240380664680170e-02 6.104952089138958593e-01 1.053861511039571042e+00 5.043412393550040784e-01 5.634389151005778640e-01 -2.368971695017434986e-01 7.319167197827906035e-01 6.172648172674457534e-01 4.378882982480222230e-01 5.353816228580821068e-01 5.216079895897496321e-01 1.876796558290018346e+00 8.250440008252223345e-01 5.374618760377796178e-01 -3.663789607779351920e-01 5.026496076760913478e-01 4.778908877174294356e-01 1.100470952209141873e-01 5.537582353073077224e-01 7.941484588342013762e-01 5.256233329757491468e-01 4.845191468281017100e-01 5.224161196738865698e-01 4.827149675387782946e-01 5.925610297039446417e-01 1.014020395309452427e+00 5.666969564745336640e-01 5.402204050940855318e-01 4.845191222259438435e-01 5.308907849527402245e-01 1.122026753346665240e+00 5.003310280810966404e-01 4.928676017691943079e-01 3.595287709816002431e-01 1.082696229933371584e-01 4.992001453643355458e-01 3.423494157827908224e-01 5.097812368955603191e-01 4.923111483256519261e-01 4.915193549229318615e-01 5.084630899549503757e-01 4.570735285052263674e-01 4.952279123236751346e-01 4.839039831463439190e-01 6.095400509994799432e-01 -4.161846472408213260e-01 5.805110590254860536e-01 7.196919039811946472e-01 5.492866711352409892e-01 5.263792419436466030e-01 7.336924773110330422e-01 8.047660115993393593e-01 8.203801802117198783e-01 -1.121414330945606358e-01 9.089564351840165868e-01 5.167378494700094471e-01 6.052635414121622093e-01 -6.596531535963910675e-02 5.350901061748887244e-01 4.064034512534304699e-01 4.089447751602803272e-01 -1.952528989766590464e-02 -1.470280709933784735e-01 5.014360847915556585e-01 5.133212635116388700e-01 4.742237992667302365e-02 4.670029431247437190e-01 5.106952990581462570e-01 1.058380564105405375e+00 -1.118557855861186806e-01 4.383453622822557350e-01 -1.179329710400940812e+00 4.526480422415297133e-01 3.310526525301392686e-01 4.704158517822331076e-01 4.777882417518516944e-01 2.937216151603883607e-01 5.039121673769578758e-01 4.970463345947298550e-01 4.520618388046371838e-01 5.225758832048008617e-01 6.338522898684610940e-01 1.471714116609589507e+00 5.548131373581373094e-01 4.608616361747043255e-01 2.823091499840817975e-01 6.510169848539083537e-01 7.496918102653408189e-01 5.067604227574998843e-01 1.911856377813234253e+00 5.397994337570604095e-01 3.732580939514263951e-01 8.769767216476387350e-01 5.042575747820641219e-01 7.615427062100816880e-01 4.902161245186099081e-01 4.976175753713548700e-01 5.124430859107477199e-01 4.733263038419974755e-01 1.485472460349283874e-01 8.843055952047125245e-01 8.518661862938813334e-01 -9.104684423219182310e-02 6.098954473305887580e-01 5.260905331545230323e-01 5.732843472856565814e-01 -3.867678520984235147e-01 3.462661041670963558e-01 8.246029330607910213e-01 4.574636365006323757e-01 5.266269442230827602e-01 4.835866723714408177e-01 6.232031268430934245e-01 4.967878735451103922e-01 2.675124652767323918e-01 4.455917724654053225e-01 5.379585849989962920e-01 1.620313021339297305e-02 5.477143333859348928e-01 1.642689454604166599e+00 6.879653801243245104e-01 5.208188067371255503e-01 4.856289923305360245e-01 -2.320546081080912426e+00 4.886570405842505238e-01 1.249184097404281824e+00 4.850887065900577055e-01 4.549575606051916021e-01 -5.587300219514645949e-01 5.208373580627865262e-01 5.030038145732943500e-01 4.700933657511116026e-01 4.967623447993653740e-01 7.313716122469626768e-01 5.539004662709731130e-01 3.313173773624262797e-01 5.435302689127510245e-01 5.476332227533762254e-01 5.232834551699802050e-01 5.328726685906012284e-01 4.839992344153634107e-01 5.105393850581979587e-01 1.027520075321859405e+00 4.437283259095530646e-02 1.922603462442568079e+00 2.048477796243640903e+00 5.189216482367237093e-01 4.858032147775462328e-02 5.064836668762426886e-01 4.308444731068388212e-01 5.465196942904023691e-01 1.131053558918540869e+00 5.349709661391210958e-01 9.949427896607659916e-01 5.260810442175373192e-01 3.345637435224298462e-01 1.148057042000155015e+00 3.838844128225483709e-01 4.517914829255835207e-01 5.370609348970581953e-01 5.956539725641608607e-01 -2.192537881858027671e+00 1.309186239941193985e+00 4.937512861104940698e-01 6.503301383185539075e-01 5.001808318702860578e-01 9.898232429909906704e-01 4.235641645247927856e-01 4.574454882707350567e-01 2.835926192659468104e-01 4.316353243049446120e-01 1.373688590021998390e+00 2.916126866616615687e-01 4.845192996245982764e-01 4.669896720829870285e-01 5.666969361219494905e-01 4.526598025491567756e-01 4.487631253303850931e-01 7.731549077383292889e-01 4.911056926752270790e-01 4.999911638633873223e-01 4.923186933373835950e-01 5.737284479582817065e-01 5.190660180067718787e-01 3.763764863867211652e-01 4.574459925737595078e-01 5.866120675230682702e-01 5.158206618392354725e-01 5.475740730368534592e-01 1.054543762308273402e+00 8.605066008382800113e-01 5.243317431478440316e-01 6.635509738541429670e-01 7.607930675926561914e-01 -2.692627205637804222e-02 8.077441748486696715e-01 4.431668392764607223e-01 4.119728415835870183e-02 5.414758124948342299e-01 1.075917408306525491e+00 5.478837215797616178e-01 3.620642059493676124e-01 2.328726230772096839e-01 -2.302221664291111414e-01 -1.715636878292191358e+00 5.630153742286827523e-01 5.666969564865103060e-01 5.666969564745051313e-01 4.906928690213722133e-01 2.753945027302951987e-01 1.477705336567952839e-02 4.871559391400551164e-01 5.108695735190219578e-01 2.064955231238371214e-01 5.270448210148893642e-01 1.160599010900798422e+00 4.845191348887482596e-01 5.160270717335911916e-01 4.925643562729595248e-01 4.835555922611751711e-01 5.253244170057838058e-01 4.765315668226426382e-01 4.173730826611354860e-01 7.664713952143287212e-01 5.770103334797059835e-01 4.162134117024798158e-02 5.666969633975423859e-01 5.903508079430971334e-01 5.194010480404307462e-01 7.625990541965861347e-01 7.359751176704717457e-01 6.483313030593983450e-01 5.512451248954457483e-01 1.098969250832824818e+00 4.232627508296366026e-01 -1.564284554184897091e+00 4.840149170939884171e-01 1.236255669122382495e+00 5.420192776563348414e-01 -5.283389525055947056e-01 4.785649009961518430e-01 2.889048797301418392e-01 8.278757799753140301e-01 5.250752349920415618e-01 7.022179644773175466e-01 4.909879241818245199e-01 9.729726757471582888e-01 4.912519789861429786e-01 3.264293123542861830e-01 5.114060745130956098e-01 5.254078062830604967e-01 6.796197774249451706e-01 5.075003304268154158e-01 8.301104067508502382e-01 -2.529568000808559564e-02 5.154421803172812844e-01 5.180664063334603497e-01 6.187804307417295036e-01 4.913218114522493463e-01 7.217624291025260819e-01 4.936308330011180967e-01 5.807118963744659634e-01 7.893723610494854936e-01 5.000631650692297647e-01 2.376005057482527827e-01 8.551316461310685957e-02 1.272350099206737972e-01 8.270200089096726437e-01 4.990468951161737277e-01 2.473182736211163135e+00 5.796089843890652737e-01 5.722907218089573478e-01 5.868406326970285747e-01 7.744515236506503975e-01 2.453172860896190091e-02 5.253111544440237646e-01 5.570000823188260286e-01 4.414650374538007793e-01 1.069420105581398550e+00 7.216702426052460373e-01 5.198442687326412237e-01 3.549629117093783814e-01 9.132012806909900471e-01 4.779898904812167615e-01 4.952475518360810458e-01 4.956476614816894277e-01 5.721040772061078972e-01 5.099602041208307623e-01 7.285448693919585050e-01 4.848276932686109153e-01 5.159041359236177238e-01 4.280125738013500908e-02 4.876137708110077629e-01 -8.638703358166922516e-04 5.252455993954946445e-01 5.333757181098747191e-01 5.136565934366312813e-01 6.901571659912358880e-01 4.797141118229568679e-01 5.294484629439648593e-01 1.457246444940144547e-01 5.523943044307937367e-01 5.095124985691812380e-01 3.867108833649895994e-01 3.587854701458241535e-02 4.844037672176627618e-01 6.627090003174591626e-01 5.144816283546057578e-01 5.478383299259150796e-01 7.603178890212339835e-01 3.431871092400587964e-01 5.470575019808339157e-01 4.926125770874164034e-01 5.440027034439233189e-01 5.437946226304455344e-01 8.684577406967235458e-01 6.395660404537818478e-01 5.609305301979894409e-01 5.806180549444418526e-01 1.555890970642198834e+00 4.973601474699759772e-01 5.031282092943648587e-01 6.276445755717182662e-01 4.458550697159876508e-01 2.865575177021209008e-01 4.377184202822704817e-01 -3.798869786649119451e-01 5.473180212895494279e-01 4.722405525394808290e-01 5.057257350495119042e-01 4.671138991008155217e-01 -2.104940747222305841e-01 4.244661636204649646e-01 5.055728238601686630e-01 4.261194568084249457e-01 5.867985982566918945e-01 5.157608662599654226e-01 5.129135272061308148e-01 5.426078915062220176e-01 -2.113956678322327087e-01 4.919260633758355539e-01 8.790681798841268879e-01 5.903997929886946050e-01 8.100975353834295734e-02 5.303200053218419807e-01 2.708679072477316874e-01 5.477908911810441817e-01 5.578410453045794526e-01 9.592841283783599682e-01 8.441223958771386648e-01 5.445540552442039717e-01 4.972264933377044671e-01 1.646319821986536036e-01 4.845550687134846379e-01 5.639192364470188013e-01 6.722209619000028002e-01 1.063813659520628299e-02 5.708439382827695807e-01 5.905661369583214970e-01 5.644538268212523358e-01 6.032359260428927783e-01 7.273250210228017210e-01 2.446029377913365443e-01 -9.031641645779846239e-02 -9.444152208459886955e-02 5.578086008248044347e-01 5.017628041626368551e-01 4.844376467716537960e-01 5.214203108883865845e-01 -4.641347601379341437e-01 2.435899673599124959e+00 2.995006319401311567e-01 5.243081545668646370e-01 1.012666287920669816e+00 5.152777018065131109e-01 4.765421546569811873e-01 5.094336743612635221e-01 4.767070994986452037e-01 4.389674389616076144e-01 5.218094858322763763e-01 4.147400325411719768e-01 3.717849937153925310e-01 5.374369992137604246e-01 4.865544050916533192e-01 4.151977242334729534e-01 5.940066728684485486e-01 4.909527663078965820e-01 4.755429282226522614e-01 7.692767845120263015e-01 1.874998474423521522e+00 4.473094236810430946e-01 4.879872251192843291e-01 5.564179772156602199e-01 3.284011178113329654e-01 4.128483555770120494e-01 5.326729421812859133e-01 4.753359568735459617e-01 5.659072801093298910e-01 4.762557483958275717e-01 4.637888565372311755e-01 4.846643901402030719e-01 5.308065727120589994e-01 5.122129348845506636e-01 1.002979884647802189e+00 9.450291353539262973e-01 2.618328977341469188e-01 7.526521298262751625e-01 4.867410813498883604e-01 4.426099741302064738e-01 1.739569923940685436e+00 2.287236083927450536e-01 5.484688946923266251e-01 5.060378883848301035e-01 3.312908990538544068e-02 5.368412586282054200e-01 1.236319888088884156e+00 4.839167278025255370e-01 9.082171159795869864e-01 5.048777686837775391e-01 5.015035598158567032e-01 4.915863926515677829e-01 4.502602568912397185e-01 5.303703004198156989e-01 5.173282142330346556e-01 5.304699321163938164e-01 5.841312475120213898e-01 1.631497837893601810e-01 5.520077358748527452e-01 4.488151669486870055e-01 4.925733575545546694e-01 4.855212755520190160e-01 7.527403848891740523e-01 6.946485462597959959e-01 5.699272578336249673e-01 8.475884047343236194e-01 -2.047536204455861208e-01 5.113297853500918810e-01 7.423963017676402654e-01 8.448229617603691954e-01 5.566242324991612644e-01 5.205021659847444138e-01 9.309601025378520800e-02 -1.089654765351923071e+00 3.828788166815533245e-01 5.948361164848405824e-01 6.886713358871174862e-01 5.234781195538742438e-01 5.400985752451680222e-01 5.391614657030672220e-01 -1.321186541467950226e-01 7.790069008586369970e-01 4.835866864698648571e-01 6.812045645361451962e-01 4.908909165495168869e-01 -1.302168962646033379e-01 -1.717511263958580725e-01 1.179994007515217547e+00 4.708515175909248618e-01 4.327520709277627442e-01 5.218608556924908548e-01 4.141512370536623022e-01 4.702504580754005570e-01 5.695966229407065651e-01 8.009547613635580321e-01 5.087332530277092202e-01 4.593811531254065605e-01 4.539607686272834064e-01 5.726487622397159472e-01 4.963505516688559993e-01 4.706055062068583705e-01 4.898998101296166419e-01 5.771656949148131766e-01 8.726904152954543248e-01 4.611026437603837902e-01 4.992703318887063424e-01 5.298572690208678271e-01 5.278006453490576844e-01 6.342625983149411395e-01 2.274009070778506419e-02 4.574455431869450805e-01 3.333468335138495831e-01 5.166418634161652479e-01 6.396620108309866160e-01 1.187566794910431822e+00 4.376925450371022541e-01 5.233258401165220841e-02 4.963685931120449535e-01 5.278736577339395719e-01 5.060180374827601968e-01 5.221274114218702467e-01 5.016943517537690855e-01 4.558469516738279936e-01 5.206055650037533233e-01 8.595113704589435466e-01 -4.327571148465175765e-01 1.562255206702027666e+00 7.035710845462787022e-01 7.697103044621812495e-01 2.575837992525462639e-01 4.104969179479609487e-01 3.864107619265157445e-01 1.631150658296860179e-01 5.481484374387377567e-01 4.650599622989042281e-01 5.210485615802858822e-02 5.287277447692730892e-01 5.293853069615982454e-01 5.112252541375301718e-01 1.017321785719863758e+00 5.054321417214986401e-01 3.284030151664663610e-01 2.399045788461215689e-01 4.832039367866825530e-01 2.855731336137451448e-01 5.134465579563221027e-01 5.531323453142861224e-01 5.445296345277091943e-01 -4.602121429632918259e-01 4.450718992704919552e-01 5.774575648481203860e-01 5.211260014113365813e-01 4.847296648505395877e-01 7.562180957165756112e-01 7.564630397432822173e-01 -3.335018557367057657e-01 1.016057494629621472e+00 9.898231698959053526e-01 5.233208819358554642e-01 4.648393825036571947e-01 9.316446432263699728e-01 4.995841722854830191e-01 4.840542455928326104e-01 5.308029910028161380e-01 1.068627772821582722e+00 5.230784481005809061e-01 4.669946588677939547e-01 1.156901778087077393e+00 -4.865364451897833536e-02 7.228677701224398566e-01 -6.443487307447681722e-02 -5.701919728721103198e-01 -1.717484814567946105e-01 6.876873941757659647e-01 5.102651822239200330e-01 4.185398636395887828e-01 -3.123565170066502361e-01 4.749075371200006668e-01 7.108660845079163917e-03 3.627256152341896689e-01 3.744727049323411938e-01 5.331926404488963600e-01 5.090233274205655523e-01 5.271405758608191938e-01 5.703223702367647974e-01 7.809869012106315234e-01 6.345391224624570559e-02 5.242662649735284619e-01 3.939598730578982577e-01 5.924392350556700881e-01 1.024437102632179464e+00 2.977349537074084340e-01 6.887501286355187657e-01 5.193355713157510323e-01 1.001442646751397880e-01 7.006609884610977002e-01 4.948535851291096521e-01 5.302762679569834603e-01 5.412884689041561614e-01 5.037579374305743984e-01 5.143351586684982157e-01 5.225235789739404169e-01 5.057793597982019884e-01 3.601039510020873635e-01 5.767774809250316714e-01 7.817863093561554511e-01 1.966957953574668849e+00 -1.147185489085067872e-01 6.043811416643363188e-01 5.327185695878733362e-01 4.659386049419776410e-01 7.228332178365894922e-01 2.483661932476783352e-01 -7.416226289455830623e-01 5.249516771928381953e-01 2.034066314316520074e+00 4.861047279698045287e-01 2.148530807709916612e-01 3.596930708158113665e-01 4.835865977594433485e-01 7.038328075506297132e-01 1.153471241091133415e+00 3.501462743306149594e-01 7.131190400033965426e-02 4.845501208661958659e-01 1.038784761414716540e+00 3.905803513296086660e-01 4.980954725169218222e-01 5.084534293911372460e-01 8.104963761564067948e-01 5.604972468051698797e-01 3.965116338230117443e-01 -1.615156977051399045e-02 5.322696747220625468e-01 4.900833430788397171e-01 -3.741733942378605016e-01 5.457459162563614852e-01 1.022772273120762021e+00 2.468989705716848615e-01 2.998534943396503616e-01 9.037391825549776492e-01 4.912483018017418934e-01 1.713106484718220690e+00 4.168605737461967276e-01 1.515367315888232341e-02 5.692990440745425706e-01 5.544680428899865232e-01 4.602668555637332015e-01 4.988288200299040853e-01 6.355875064780855399e-02 5.115342575397594516e-01 -7.967236768355732968e-02 5.075185444300193138e-01 5.673957787111709727e-01 5.467279601918386550e-02 -5.615580379455986648e-02 6.037966347309319248e-01 4.005418175039764939e-01 4.923374017131276204e-01 5.408533004216508067e-01 6.934504516583052114e-01 4.935818055246419256e-01 4.881081739968463618e-01 5.319114586943501921e-01 4.927060831906407978e-01 6.341709075588226607e-01 9.490913671276550723e-01 2.434193180661227807e+00 3.995246439892424783e-01 4.980363131715693781e-01 4.932172069659350733e-01 1.295326396613935560e-01 5.198209666797914963e-01 4.887594463144483981e-01 5.007253197979086856e-01 1.269424403109001398e+00 4.960610350362016363e-01 -3.536300376614745500e-01 7.678259214430288582e-02 6.527824813379526914e-01 5.783944959993027046e-01 5.279777644880301324e-01 5.137874238561489504e-01 6.777946603160123207e-02 5.258420897600575294e-01 5.757324190137342868e-01 -1.658276778823037034e+00 4.725892185628216002e-01 4.895511865913638738e-01 9.615171517276986934e-01 5.586119397022282218e-01 7.032234397875306575e-01 7.893086322162501389e-01 -5.105928767641256805e-01 -4.437448488460080109e-01 -1.956256566953412136e-03 4.913588601499989106e-01 5.204381911977010722e-01 1.048622896633293999e+00 5.043475893599808080e-01 -1.466566208134475469e-01 9.121877600740252445e-01 4.998029870867251589e-01 6.550591889427906933e-01 4.798232081524986814e-01 4.829360975888790097e-01 3.002320360452249703e-01 -3.574819173999506106e-01 5.352997593456068071e-01 5.241167402728297287e-01 2.653113930127067310e-01 5.763616134028772819e-01 3.927657474291186834e-01 5.129532694247410651e-01 4.569745590296011573e-01 4.903123739020002203e-01 4.458585834504838474e-01 4.936023989346071672e-01 9.898231881054792014e-01 5.421467160475812452e-01 5.281509099909094118e-01 9.851239158922095451e-02 4.981452903140242694e-01 5.289905007026400874e-01 5.082205885684899505e-01 3.503539462106282087e-01 2.858823281430332708e-01 6.757499732506456747e-01 2.826815916018322050e-01 5.300221556536354184e-01 4.889310567474634550e-01 4.583530173734174373e-01 5.387721460285797015e-01 5.296545933657332839e-01 5.254548470837874241e-01 1.016184637704339089e+00 5.494425380243439516e-01 -2.864712118281964037e-01 3.416251515653176973e-01 7.907875138232306478e-01 5.157423621483504528e-01 2.383561537183563062e-01 4.971374439020371239e-01 1.632054270099934368e-01 -1.913122270404186628e-02 8.240199721725542936e-01 3.769518361555617147e-01 5.701940637627562758e-01 4.459561181909768024e-01 4.774602874890299664e-01 4.009420211307752613e-01 1.227198151959310701e+00 5.209660693895856731e-01 3.901123616255573467e-01 1.545238314871456298e-01 2.482606426261818044e-01 1.050204691718142236e+00 3.618754396660972539e-01 5.048675048418227451e-01 3.632393315972250458e-01 -2.276844726986099188e-01 5.826475901130570012e-01 1.037188092331650546e+00 -6.714997768165134051e-01 5.893400297612003680e-01 4.877657139940414499e-01 -1.321970180416818241e-01 4.880201326571216858e-01 5.860819858015992034e-01 4.773244563520273043e-01 5.142490510731044795e-01 3.820340744374692843e-01 3.176671944271073911e-01 5.154351141379093226e-01 4.962695225821834311e-01 5.294233659716911511e-01 8.474339090012097953e-02 1.046834534222413238e+00 5.067061167062145710e-01 9.772459832278903580e-01 6.497456533221195318e-01 -3.747270469819335426e-01 7.106893686583034553e-01 5.161390456314551844e-01 3.164294478493055451e-01 2.763892954000545660e-03 6.228065636196954413e-01 5.125752181737551760e-01 5.158161326417797232e-01 3.692089467953652004e-01 4.621148927478403723e-02 5.007640018055234954e-01 3.734387293660876850e-01 5.398112372550666338e-01 1.747936719969474417e+00 7.388932317733817312e-01 3.390722057540973555e-01 5.161212771841499070e-01 1.470282826543096721e+00 2.223297695500742743e-01 4.972649533105591990e-01 7.517606314676470447e-01 4.574454927456748088e-01 5.038463294937557402e-01 4.637444925685826336e-01 5.628920939102337595e-01 4.973987104672020765e-01 4.944177150234339013e-01 5.220378099588542931e-01 -6.498212096935952753e-02 4.969416125590438993e-01 6.984339081325595666e-01 4.376297548245018931e-01 5.408964785327446956e-01 5.123054824690789211e-01 -5.099807228194802589e-02 3.436935846079309242e-01 -5.596612586999508698e-01 -2.307045789030409133e-01 5.085061741681287106e-01 5.152670739840341518e-01 5.847887926043761064e-01 4.982112025897708629e-01 5.053598735007899245e-01 4.210569684692234693e-01 4.574454725978469027e-01 5.163871934399453245e-01 6.164744191130161477e-01 5.160525325828548837e-01 5.149116767664921879e-01 9.561563013598382010e-01 5.598470067264178507e-01 5.374294169913418351e-01 1.522057122855467182e-01 5.172259590544538987e-01 5.269672076853654241e-01 4.919829564540261768e-01 5.177599969565389593e-01 4.916311534236555425e-01 7.762933013927546533e-01 7.445157227495435848e-01 5.190007758788247605e-01 4.669906625817237256e-01 1.634792453862671247e-01 6.955614507091738563e-01 1.613055952150424410e+00 4.843527033262888803e-01 2.528755274310976464e-01 5.918130707838440419e-01 5.305846815470203204e-01 1.005905791566331198e+00 4.450282159687695138e-01 7.991364547307286958e-01 5.193857263006200764e-01
7.131339766187293483e-01 2.837967416598622394e-01 5.496736883838043708e-01 4.510036087479877831e-01 3.003836798818432241e-01 2.728764051348537278e-01 2.607797438824550063e-01 5.247808848631927425e-01 4.220057824852067041e-01 3.257981823207746763e-01 1.637133506157180785e+00 1.419480319401353885e+00 -9.472946064383798159e-01 3.087930879347468016e-01 2.968748796349642838e-01 2.810145122847391708e-01 2.230480820781779172e-01 3.638984371907226234e-01 1.704790877225213774e-01 3.211158346491188587e-01 5.197601199411205908e-01 1.590464456335101140e+00 3.580301817482353655e-01 2.866612594237372691e-01 1.707599413502335628e-01 -5.796395318625506832e-01 2.911933442724253251e-01 2.810852111636722439e-01 3.458007287011557462e-01 -2.041957373465804193e-01 2.923465778129023529e-01 3.654914263221476500e-01 3.484781179564439557e-01 3.183744178919064027e-01 -2.288850759482745911e-01 2.391651819786903277e-01 2.425141288073401069e-01 1.356645521503315466e-01 -2.291036868230289958e+00 3.203523666457274155e-01 3.418897854209613785e-01 1.231133409056530403e-01 -7.213662816467428240e-02 6.965597572009677441e-01 9.036319984058845955e-01 2.522365112255439135e-01 4.515122323986586195e-01 2.947835646631102868e-01 2.480036392625381558e-01 7.941366104473273069e-01 7.928013352795362234e-01 3.622684180274430843e-01 -6.967483722510158239e-01 3.710134719355704935e-01 2.980116249728460565e-01 7.697277450813078126e-01 3.248713047918121988e-01 1.458079074593828239e-01 3.764080334667027072e-01 3.051973121355751051e-01 3.408667010002116582e-01 3.062018161557659712e-01 3.244216108174176050e-01 3.580298749651140700e-01 8.705372528566940327e-02 1.841920563669893485e-01 3.148608865104782217e-01 1.932503892438675319e-01 3.275876916695601992e-01 8.388715237862357510e-01 2.045165711612926540e-01 3.518400958786106481e-01 3.390477687951238828e-01 7.749422362156592747e-01 1.513214272078500455e+00 2.023987325702697737e-01 3.910309526315434714e-01 3.807524294494342709e-01 3.021886738835877217e-01 -9.656009916188401654e-01 2.873376919038941324e-01 9.330296108860790527e-01 1.231226790776201119e+00 2.557815637335465464e-01 2.619588337083448293e-01 -6.848879118899153795e-01 -2.864906459980353509e-02 3.488461289835258494e-01 -4.077798632768097620e-01 -4.771599982966031051e-01 8.998072131123470152e-01 1.075650976136691472e+00 2.028555154520073345e-01 7.431890372381761978e-01 5.661593432914140411e-01 3.305271378539884064e-01 1.897945024884591103e-01 2.649432991984936314e-01 7.772358867880621025e-01 -5.973642802486432979e-01 3.196338024955376611e-02 2.230454673966051349e-01 2.978856874518713838e-01 2.916596830381215089e-01 3.123529351323752201e-01 2.169649187055885164e+00 -1.560864396429240963e-01 -5.820727183688114703e-01 3.523436349228198927e-01 6.904070378700584154e-01 4.688172822334022438e-01 2.867884802866255689e-01 4.233440951779700034e-01 3.258033848467130067e-01 -5.599595853172947280e-01 3.044055901903287564e-01 5.275985590564412631e-01 2.344577865395041649e-01 -2.419336339078672071e-01 3.377929705076080924e-01 -1.084801989895661123e+00 2.833230331106933453e-01 3.559918535719995836e-01 6.254164000503420473e-02 2.880478789655129823e-01 1.637139271311396804e+00 3.702230889282923654e-01 3.247298636956829632e-01 4.606374874695720600e-01 3.090653704520338052e-01 3.113690469949514927e-01 3.331324262270994319e-01 3.041362993814220594e-01 1.467110370947309617e-01 2.856866138131681776e-01 9.268647916832956080e-01 7.698140521125697300e-02 8.092840090597588354e-01 -2.289871889145583539e-01 3.308156722581198639e-01 2.873251796074438036e-01 3.193814182623539999e-01 2.017232867473348068e-01 3.245006773619573681e-01 3.312469619632270601e-01 7.431007040208456038e-01 6.786935459130380988e-01 3.084249542353494911e-01 4.066530011154997903e-01 3.380815786281611279e-01 -5.332965911392626435e-01 6.781324443642339217e-02 2.522922855819863530e-01 3.457656073584542966e-01 4.782945978481862870e-01 4.310180913714142248e-01 -4.371269886774651892e-01 2.884015541027821761e-01 -4.789166891135755444e-01 -5.953787465978691573e-01 3.221597751985808555e-01 1.253424693148192104e-01 3.375440616364831503e-01 2.919572968302121541e-01 8.320080804571148084e-03 -1.219107499131066447e-01 3.784850113832075036e-01 4.109708541692501105e-01 3.773665377844477309e-01 1.947913111978099576e-01 7.408633506790962553e-01 4.512539190584091142e-01 2.517830421249681039e-01 2.719907963075861579e-01 -1.894032527650718389e+00 7.379512761649174024e-01 8.315312027573280584e-01 1.019207052059746710e+00 -3.288808859181141520e-01 1.043479960610382395e+00 3.230270088721378108e-01 2.361435692357823635e-01 1.000454672327318439e+00 2.487560806041391459e-01 2.384944526982293589e-01 4.277936577760788062e-01 2.867318809505654542e-01 2.992412052336758665e-01 -1.447180115195968175e-01 1.310680141718734704e-01 4.312324251989057555e-01 6.052215043600873701e-01 3.270156729319769751e-01 3.388794358040240762e-01 7.394231700517427119e-02 3.122883473845640689e-01 -9.511843776029653696e-01 3.188482306725553550e-01 4.232822875618405534e-01 2.853431085335492168e-01 2.733100848779380088e-01 1.840314967216971909e-01 2.064742511143944359e-01 4.733069723507002391e-02 -9.374504956305725889e-01 4.232833413128693212e-01 2.799087765099917968e-01 -3.453632574995121329e-01 2.914856643025722227e-01 2.054789475690857736e-01 5.097283486597179447e-01 -2.293043655482972731e+00 3.356689580893577052e-01 8.201423720569077647e-01 3.076042044400357778e-01 3.421100757983031038e-01 3.479959774219553714e-01 3.131540789240642719e-01 3.278958129337872784e-01 2.896745174247023491e-01 3.733201940353359505e-01 4.514163048601176897e-01 5.320511436140441530e-01 2.134565456611456913e-01 2.563130589567112483e-01 2.762542428186584020e-01 2.905358965612157562e-01 4.170400389605455338e-02 1.534438278599818961e+00 -7.175588701216772947e-02 1.044540329337932061e+00 -1.165508192981986602e+00 3.011349316333624682e-01 1.860598237046304504e-01 2.633503880405491104e-01 2.487950617573878587e-01 -2.053049660876750393e-01 4.916502923994037766e-01 2.146679329407000514e-01 5.588214359466042724e-01 5.386517679190863106e-01 3.075131103614077710e-01 -8.674711984081909799e-01 3.810398859631997093e-01 3.075879957679871768e-01 3.876697721153585935e-02 1.050577717372264352e+00 4.849168160691793572e-01 2.022147117583512177e+00 3.569067625084266782e-01 4.526227045132237281e-01 4.054086261491809950e-01 3.004977254064223890e-01 3.580278389031710251e-01 3.232982863140599905e-01 3.479641785550524058e-01 1.458506108329182260e-01 2.882704781509923264e-01 3.328148768625777132e-01 5.254228008736133715e-01 2.687333171096652484e-01 4.371658117968960089e-01 3.735100211637703005e-01 4.864179597726802085e-01 3.502693529485651491e-01 1.181282054987287805e-01 2.178942786930987641e+00 3.237905696532597521e-01 6.711533362229881172e-01 2.232085009910213247e-02 3.043332741747770132e-01 3.742560928973627243e-01 3.532187530911272133e-01 3.450827833331338579e-01 2.981460663052337701e-01 4.158180232026849610e-01 1.813359399637066161e-01 2.821685589762829571e-01 -2.633310567188465456e-02 8.585425064335232281e-02 1.207268576940549565e+00 2.692913910678075839e-01 2.296251151843220484e-02 1.712479806746569855e+00 3.557541367616477990e-01 7.273630498165084557e-01 3.951487781821548806e-01 3.103861611519320163e-01 3.044057200159193677e-01 -1.615081695382899474e+00 3.418608651325411030e-01 5.137649239718498073e-01 4.721021506022380909e-01 -4.542330588389144608e-01 7.384134851712185199e-01 2.903390445822606192e-01 -5.140477228955709910e-01 1.867045224852825480e-01 2.981664192080334952e-01 4.059989612993641916e-01 -1.943200191176986946e-01 3.070316699097245250e-01 -4.837127303911937792e-01 4.515353691273536474e-01 3.396065683894006204e-01 6.511198710792599487e-01 3.028072830306170471e-01 3.219508425645218330e-01 3.096181437068678544e-01 3.199571722870823698e-01 4.347242036657954223e-02 -5.601610888625452311e-01 8.123366211919083590e-02 2.822843914846532298e-01 2.982475298222957427e-01 3.077653308801151510e-01 2.837764566002572986e-01 4.512636337034526268e-01 2.924992827065259204e-01 1.840382240782667989e+00 7.964879620039427843e-01 2.422361151576288840e-01 -7.505460086738398040e-01 2.691700008701237712e-01 3.119560779118458971e+00 3.306923784373209108e-01 1.391471279338122868e-01 5.211504072395015674e-01 -3.913466770974194819e+00 2.882936085001235327e-01 1.088793562366761947e+00 2.999612121521417762e-01 5.714640751429956866e-01 -3.193801233204170420e-01 2.756103977573520769e-01 3.513118576382983083e-01 3.114553066465161058e-01 3.425098088672333674e-01 1.971248313512678596e+00 -2.187560603160594030e-01 3.361093799975866103e-01 -1.581908245662074108e+00 3.046203867984985103e-01 1.356645291827832944e-01 5.331039123863499096e-01 3.822272577531526938e-01 4.044277223008144739e-01 5.119713497635364208e-01 1.341960160968592941e+00 4.373603893088552352e-01 4.232815218026415582e-01 3.810479301038123823e-01 4.733071000785719212e-02 1.571479917129624260e-01 4.200369974089016023e-01 -4.392508288534124339e-01 3.482809005485449361e-01 5.561709536340246895e-01 3.012391112056478359e-01 2.542174626339946952e-01 3.023165908429572002e-01 1.740734703239987802e-01 3.822268424529774444e-01 5.068307334753862081e-01 3.079767946062633155e-01 2.975090206748431387e-01 7.402799703696973932e-01 1.900481003144053105e+00 3.000882097736118914e-01 4.052543958539143176e-01 3.472218088858308738e-01 9.163054476449266073e-01 3.490235300072263014e-01 4.144810312441556954e-01 8.001209326100234831e-01 1.410375711988411385e-01 1.767408993549689222e-01 2.544048480697362336e-01 4.110021824150158487e-01 9.082630278108078103e-01 6.002017918183610856e-01 6.968067108598532400e-01 2.825859954500055116e-01 4.733069717277845617e-02 4.733069723398753564e-02 3.417292388946620019e-01 3.975214344483053441e-01 1.096467932740090356e+00 -1.426034979536986158e-01 2.705698061449497982e-01 3.816774646777889579e-01 2.930971946851351762e-01 9.076544013888712126e-01 4.232837060778443794e-01 3.007523382786846389e-01 3.376269644517008173e-01 4.435108613600111105e-02 -4.856090687765550751e-01 4.510939752715411033e-01 2.856174016651237269e-01 2.023307855221848639e-01 2.633410450236698952e-01 7.353040480252130973e-01 4.733067867113157495e-02 -3.548566199871516780e-01 3.041397862775733762e-01 1.806570953278552674e-02 -4.315061024388163746e-01 2.094373393896326874e-01 -2.491363361853427882e+00 1.050531851328750710e+00 2.954476839700260205e-01 -1.345116745653398282e-01 4.511085095974589065e-01 1.525070927923339870e+00 3.028820663388218093e-01 4.901841395228455633e-01 8.112144928714969394e-01 4.389441915223226687e-01 1.479970480866482085e-01 3.147670023575657727e-01 6.772135489058508373e-01 3.404224954683345850e-01 1.549963663851968931e+00 2.853491655171234709e-01 1.449333069322050471e-01 3.090938031476520576e-01 2.907140843615418357e-01 -1.125934583444211601e+00 3.096802517812158873e-01 5.221133377618841082e-02 3.865598801286627140e-01 3.766432213198593337e-01 2.979039555198521039e-01 2.384145281010490725e-01 3.492383528770590106e-01 -1.319411652121079415e-01 2.964024464429121930e-01 2.133644715616647425e-01 3.094130087458451528e-01 3.181208066157434344e-01 6.774159727277808685e-01 7.233468939864108327e-01 8.528917866991330143e-01 -8.614151713656764686e-01 5.034669927360515551e-01 -5.303761131659590067e-03 -3.499477725137598583e-01 1.953828958897553536e-01 3.423537914489683809e-01 3.230633407970237569e-01 7.565083316478471431e-01 3.188669233601643116e-01 3.045711830782001917e-01 3.947808878511382957e-01 1.148384283903611663e-01 -1.324935409441094503e-01 2.980068515702934961e-01 5.205736425364071440e-01 4.204779158395900440e-01 3.229007763237561890e-01 3.374565104025842310e-01 2.852828638331115774e-01 4.411755038988993682e-01 3.088929013610700047e-01 4.362439869390045688e-01 3.497008478296483314e-01 3.053208790259274719e-01 7.874188392685681492e-01 3.350596511669390321e-01 7.495393137897058411e-01 4.835170580846943900e-02 2.864454101417722720e-01 3.086447945577767693e-01 -1.112149661502330300e+00 3.253180545044087046e-01 2.456924545633558665e-01 5.272079203785713375e-01 2.536770872732270754e-01 3.374057981189409472e-01 5.113381580548557181e-01 7.999952358650054274e-01 3.194437395213495789e-01 3.403357738085279749e-01 3.116291767369207544e-01 5.517176798114872827e-02 4.393153980624512900e-01 1.636624558075054914e-01 3.122208828326119567e-01 1.984892705390300591e-02 2.782667120709552133e-01 1.725980137234268408e-01 1.177430576094816939e+00 2.332194234878380013e-01 2.631640739326041034e-01 2.762385163141767297e-01 -5.160330204784290276e-01 2.766644641204384358e-01 3.326202504399615179e-01 3.317160493574208280e-01 4.720310696196038935e-01 5.039883932421193036e-01 1.286295688876141347e-02 8.066107344804945845e-01 5.323280913277630422e-01 3.041342489471706156e-01 2.994495802345426005e-01 3.771528754921915083e-01 6.789583282631804773e-01 2.243665426068034208e+00 3.011463848705921986e-01 4.124169383326677929e-01 5.847151838645203714e-01 3.931078139820292083e-01 2.833815190035267606e-01 2.879576175517498116e-01 7.442228716850440851e-01 3.571472173788176607e-01 -3.831809437272603452e-02 2.272052668046354307e-01 3.794500435882017242e-02 2.015503154962859644e-02 4.747967065794708175e-01 2.979840255512959946e-01 4.413348231256040144e-01 1.397439869896810460e+00 4.695152200199069203e-01 2.574233605873897379e-01 5.148531349010488922e-01 3.157066569828300695e-01 4.513780465620135796e-01 2.876285345361455636e-01 2.070317483149642923e-01 7.682746448504325087e-01 3.136535178246117050e-01 4.039896176719878218e-01 2.869851845876102980e-01 2.943268268561282097e-01 1.315321153791612907e-01 3.895010562948102439e-01 9.451083717267001472e-01 3.913354599692997482e-01 3.141299101598098997e-01 3.281391425996619260e-01 2.963771939279919443e-01 2.544204047454237672e-01 5.237667348042839288e-01 6.084020108850601849e-01 4.088283980439431642e-01 3.329225801267120533e-01 4.340496076265402126e-01 2.981814814258007540e-01 2.161553965383765097e-01 2.939238975297421286e-01 3.405603282995389169e-01 2.471931320355508221e-01 2.985940096077057127e-01 2.956240367163410210e-01 5.209207416362978682e-01 2.475814854510653973e-01 3.588403716415506928e-01 1.194670861644555160e+00 2.629508995054074538e-01 3.392807048257435731e-01 3.714129546570656970e-01 8.757976364927118063e-01 9.445632020496358416e-01 1.273299435463185747e-01 -2.025210175150270187e-01 -1.532101904615414956e-01 5.223431079721855275e-01 4.561067498859487368e-01 3.176866043756214619e-01 3.588506900635778374e-01 2.807232386484979636e-01 3.684548328379649296e-01 2.794760304194844891e-01 4.514292152920323931e-01 2.572207681239239152e-01 4.706842232660254366e-01 7.958096598939661259e-01 -2.176160200618978274e-02 6.742314792125891909e-01 3.453944684689467803e-01 3.513635400285837207e-01 1.803187201141298601e-02 4.646204713513752971e-01 8.981152405647776504e-01 2.712055388709238013e-01 5.934497212861260529e-01 1.255757020049005801e+00 2.901030566243721354e-01 1.518107015883055189e+00 5.714030173686691638e-01 1.287753938716464930e-01 3.028863223122169046e-01 3.494919642954244510e-01 3.414695617584613818e-01 1.948002914489743720e-01 3.301105589386335026e-01 3.034156418548954459e-01 2.862177512033861060e-01 3.185429525391382799e-01 2.224773122487428145e-01 2.842530331986845016e-01 4.441754331157166669e-01 3.365576847998448251e-01 4.048438330933067930e-01 3.452503202208916933e-01 2.770168550599051427e-01 3.847669387722479351e-01 -3.496527431946584996e-01 1.498298318382599748e+00 3.056510123036177418e-01 -6.591283936221165041e-02 3.062568662478112880e-01 2.872727731099289361e-01 2.858879743921196592e-01 -3.386694755046723682e+00 2.644615762784747748e+00 5.105094046708380517e-01 2.187297362664314404e-01 1.299222434397771242e-01 2.988245517873693302e-01 2.646007598521128990e-01 1.945789746695256950e+00 5.019397222477195442e-01 3.911317920299961504e-01 3.044056010686724267e-01 8.044616038918851464e-01 3.429629577660410211e-01 9.286608112331764531e-01 -3.425355373878313237e-01 -4.785446417889615001e-01 -6.938768769841869855e-01 7.907858157697031376e-02 2.855059676298784543e-01 4.512294586528503570e-01 2.398176897035191324e-01 2.524345231943804779e-01 1.666229902682432040e-01 3.237559658591384060e-01 3.942712450854301554e-01 3.409078849397717548e-01 1.553116105293436133e-01 3.441389384391522754e-01 3.910783175658469890e-01 3.799832838952958980e-01 2.784388302616894739e-01 1.131051691712470775e-01 3.987380985250935650e-01 3.345032076436491586e-01 2.988313810073646715e-01 2.729290164093204352e-01 2.758489439734032600e-01 8.319957503492846351e-01 3.822272148944249603e-01 3.209896519097528711e-01 3.055615539487900323e-01 1.658587383646085989e-01 1.919383997911012218e-01 1.285943384039971160e-02 1.040450378383860119e+00 3.374481283700352940e-01 2.897967913125293338e-01 3.167393843900321859e-01 3.207648045164729345e-01 1.079879326218523283e-01 7.548955063109741292e-02 3.015130539177062197e-01 2.235381840721034907e-01 6.364929596084719643e-01 6.306680995306906956e-01 1.812700179399376610e-01 1.426709694233599501e+00 2.660379095662785964e-01 2.057308813752221910e-01 2.556252814323966560e-01 -3.971135640959719826e-01 2.848555945525728106e-01 3.212839907174531717e-01 8.017976567884256278e-01 2.876525704290254226e-01 2.976845543596850496e-01 2.932310252406148399e-01 2.621313451878877210e-01 3.263165909131696130e-01 6.772077095553854509e-01 6.718886978189860804e-01 3.880931420743682358e-01 4.436521037164827264e-01 2.979000388418230338e-01 1.864543388678268077e-01 1.495514201802203846e-01 3.442486818889027300e-01 -3.082625585143800584e-01 2.123801726012490565e-01 3.461363251444987132e-01 4.512624302426813672e-01 3.490284998267479954e-01 1.164955770542414282e+00 7.424052186886288540e-01 -7.199289637892887228e-01 1.356645294906356214e-01 2.786081818500583118e-01 -2.382541043968288363e+00 1.346385191662992309e+00 3.438494625229184254e-01 4.511498189502004541e-01 2.941696288911632706e-01 5.971548579959972125e-01 2.976956096421418119e-01 3.810426531640689340e-01 -3.375710124229424625e-01 7.232761844808350826e-01 -2.456727999012946542e-02 9.346581614736195753e-01 1.657924054275217829e+00 -3.420352766239341258e-01 -1.131879431491789045e+00 3.136637342570753328e-01 6.137946220629818539e-01 9.401609707674754013e-01 3.523660320356126197e-01 7.228952215212598453e-01 4.114550243246500871e-01 2.718469176701187040e-01 2.971953723544232817e-01 3.107016384637111273e-01 2.944594453066881612e-01 2.443759582351386420e-02 9.606318325344057607e-01 9.832092417527100725e-01 2.957833788111312590e-01 4.675584587686321125e-01 -1.113323968060862118e-01 -5.628184624881332754e-02 5.257644729303980746e-01 2.349480939617212827e-01 2.994204146302990033e-01 7.137420042154789535e-01 6.785730628363417782e-01 3.452070651861451900e-01 3.197008667053838904e-01 2.711417549362229451e-01 2.953686280165667144e-01 1.721542689498338219e-01 2.979741086755639534e-01 3.236960990896801116e-01 1.412878030326101819e-01 2.793766378801037509e-01 4.789793238657629737e-01 8.678263959630554414e-01 9.750958291881004492e-01 6.373901602108108522e-01 3.190138521719820264e-01 3.811024128032023950e-01 -4.345980768507776149e-02 1.579865991309355455e-01 -1.168223435930729970e+00 3.035497472211409198e-01 5.651903705324005101e-01 3.508551353536334960e-01 6.775192984942141061e-01 1.094537600007322142e+00 3.044054573933304142e-01 5.658484843682646398e-02 3.412968554785097419e-01 3.191651746308417636e-01 7.095384168968515981e-01 2.977110918856448740e-01 -1.714157913944265033e-01 5.317835288545235128e-01 3.685913269936698100e-01 3.212216271590793704e-01 3.532491185960900948e-01 2.669615478139862885e-01 1.989243451298608190e-01 2.419136986167207681e-01 2.888912357782347229e-01 3.428677094410499393e-01 8.086065850073075323e-01 3.156916158583412679e-01 -1.273920344595917686e-01 7.609456371363837457e-01 3.740538375631959900e-01 2.375369832851728646e-01 3.136747776910768781e-01 1.088648267768988154e+00 -2.080406373533459294e-02 7.728022547931066022e-01 3.454530126866250939e-01 2.972377741974660537e-01 3.641635834702427466e-01 3.000006037307201834e-01 7.000101183567533081e-01 2.854596468760141059e-01 8.968955282193217249e-01 3.128672501179604604e-01 2.451409427877257463e-01 7.718730216249710674e-01 -1.914959057401212708e-02 -1.629874394358021616e+00 3.159994249918307019e-01 3.501431866943998106e-01 2.865980504091821812e-01 6.641355488044652366e-01 3.481738989062779233e-01 3.313093258252807205e-01 2.811042111491805495e-01 3.786379112183573814e-01 1.905687290414362633e-01 -1.371154602111074317e+00 6.493674742355149965e-01 3.382574917316854002e-01 3.447247299797268627e-01 3.511754586824638591e-01 7.112375984110296256e-01 3.012250841699561366e-01 3.929552903528806818e-01 3.431279541627114682e-01 9.953216533745335992e-01 4.488307697195483836e-01 4.020349884233044291e-01 1.082832338593666677e+00 3.910050362806905544e-01 1.732697065795470781e+00 3.119738756039923677e-01 3.036939173858574925e-01 7.496444969462744412e-01 2.868517285116816140e-01 2.648455371487594689e-01 -9.391835538159131191e-01 2.214322553919257086e-01 3.355699412087808642e-01 4.570663099374884797e-01 2.001250826357654222e-01 3.774637201228827621e-01 -5.956269976526282761e-01 1.560394916483619054e+00 -4.443974300223840768e-01 5.293458859900787017e-01 3.491954847872572043e-01 3.934993849145899114e-01 3.658059612330556987e-01 3.174801206064214454e-01 1.000397157982652940e+00 -7.795589782102062271e-02 3.345878598904636347e-01 -6.386321831188521703e-01 5.790823160597179386e-01 3.202836598486139552e-01 -2.091225386337378644e+00 2.106978755855261731e+00 2.656847593577089661e-01 2.970516705761511722e-01 -9.220139447003088407e-01 2.625966181022805213e-01 -1.013565148482750353e-02 3.045004375850856593e-01 3.752596909534809955e-01 5.771638802216947362e-01 4.035612563317765300e-01 3.442294188318617554e-01 1.356645762712985204e-01 1.963936859845251126e-01 2.852882674693392739e-01 -9.050211738061378908e-01 3.415441838290801946e-01 -4.689628955335427563e-01 2.843718108964338742e-01 3.196409966398587599e-02 3.439724085112140783e-01 2.747044673791285141e-01 3.999951638195679005e-01 2.588976141875897197e-01 3.439781181857434200e-01 2.880747058202443589e-01 2.198546821116105221e-01 3.193568556064977915e-01 2.844195267070234734e-01 -7.204637546686987193e-01 1.689310636015671774e-01 1.302903073870798289e+00 -3.418131852270918803e-03 2.774963217959823814e-01 3.028833521290087427e-01 1.214042888624085492e+00 3.494416001977495578e-01 2.552491265575858592e-01 9.282294210280235269e-01 1.519733958648949723e-01 1.301116691192812258e+00 2.988140150571333420e-01 2.879994125178161890e-01 3.525480473423767136e-01 5.335667339343694859e-01 1.205495874786550070e+00 2.634982010574851707e-01 3.943575779039207863e-01 5.309603925723074269e-01 4.757044395602177955e-01 6.945931444124345266e-02 -2.715027447125140103e-01 3.658347096685343747e-01 5.713064563370240379e-01 1.665266076693572295e-01 4.696588918085780051e-01 -3.221782592797393929e-02 1.251369271214963552e+00 2.448840152272111215e-01 3.572865228255858727e-01 -1.910049739145938785e+00 3.782442551882209680e-01 3.020643391868120253e-01 3.268436595495323727e-01 -9.671928506778805501e-02 2.674609270208055389e-01 -2.994378141282126315e-01 1.501813643362537865e-01 3.360389741691439114e-01 2.982972018167389661e-01 1.106051483570753557e+00 1.689921360783883941e-01 3.131584295392284001e-01 -1.085522159840708101e+00 1.953728159429118649e-01 8.099710885914834790e-01 7.608825473807442341e-01 2.958679924581407161e-01 -2.143697679181817417e-01 7.537204809649536985e-01 3.122446755094475668e-01 3.008971996344441124e-01 3.035630592337140166e-01 6.046808604705378176e-01 7.980224684337141605e-01 3.233034964500202668e-01 5.536352050740592778e-01 2.925038369427028218e-01 6.156691799454863112e-01 4.651564414296748273e-01 -1.331495551315915904e+00 2.915428774911452692e-01 3.742884650782881545e-02 4.562620256165255128e-01 3.343553688783210687e-01 3.181247491996168075e-01 3.822272553372094706e-01 3.048251491368712540e-01 3.866847226720185327e-01 2.440891859081998072e-01 2.793607464265097651e-01 3.560812259350675246e-01 2.615180118124728614e-01 -3.110033467106435578e-01 3.378988931369257820e-01 3.038767746324880226e-01 3.343657259976757223e-01 2.386633972930115311e-01 3.121441835648233187e-01 4.372681093391377338e-01 3.720266323780085926e-01 7.467779379437425868e-01 4.711720355565060525e-01 3.354122454114265572e-01 2.859213212912618540e-01 -1.624344357013539408e+00 3.454316431959812972e-01 4.257630909688297494e-01 3.112221666883661642e-01 3.822272716864981157e-01 3.121199993125394201e-01 2.357729962777582178e-01 2.901809099010432269e-01 3.033322513470891324e-01 2.100571995799496716e-01 2.589249420272321522e-01 2.973904747920805836e-01 4.545165737574257125e-01 2.963569918336058095e-01 3.036099579579333296e-01 3.472023548079295474e-01 3.762656922920293856e-01 3.556265177196780702e-01 2.470573970971969291e-01 7.521969004699272099e-02 3.287265226608541147e-01 3.515746656449481589e-01 1.366500358581565662e-02 -3.733665891324056685e-01 2.691558210666698425e+00 3.138129757294815247e-01 6.947966401772763811e-01 1.979765561233149396e-01 2.902860001183328875e-01 1.217519237470941595e+00 4.871951921865060320e-01 7.575191806750795065e-01 3.020482258428437983e-01
