# 
#                 ----------------------------------------------------
#                 Data from a 3D direct N-body simulation. 
# 
#                 rows are i-particle; 
#                 coumns are :mass, tag, x ,y, z, vx, vy, vz, ax, ay, az
# 
#                 NTHU, Computational Physics 
# 
#                 ----------------------------------------------------
#                 Time = 0.0
0.000000000000000000e+00 1.000000000000000000e+00 2.000000000000000000e+00 3.000000000000000000e+00 4.000000000000000000e+00 5.000000000000000000e+00 6.000000000000000000e+00 7.000000000000000000e+00 8.000000000000000000e+00 9.000000000000000000e+00 1.000000000000000000e+01 1.100000000000000000e+01 1.200000000000000000e+01 1.300000000000000000e+01 1.400000000000000000e+01 1.500000000000000000e+01 1.600000000000000000e+01 1.700000000000000000e+01 1.800000000000000000e+01 1.900000000000000000e+01 2.000000000000000000e+01 2.100000000000000000e+01 2.200000000000000000e+01 2.300000000000000000e+01 2.400000000000000000e+01 2.500000000000000000e+01 2.600000000000000000e+01 2.700000000000000000e+01 2.800000000000000000e+01 2.900000000000000000e+01 3.000000000000000000e+01 3.100000000000000000e+01 3.200000000000000000e+01 3.300000000000000000e+01 3.400000000000000000e+01 3.500000000000000000e+01 3.600000000000000000e+01 3.700000000000000000e+01 3.800000000000000000e+01 3.900000000000000000e+01 4.000000000000000000e+01 4.100000000000000000e+01 4.200000000000000000e+01 4.300000000000000000e+01 4.400000000000000000e+01 4.500000000000000000e+01 4.600000000000000000e+01 4.700000000000000000e+01 4.800000000000000000e+01 4.900000000000000000e+01 5.000000000000000000e+01 5.100000000000000000e+01 5.200000000000000000e+01 5.300000000000000000e+01 5.400000000000000000e+01 5.500000000000000000e+01 5.600000000000000000e+01 5.700000000000000000e+01 5.800000000000000000e+01 5.900000000000000000e+01 6.000000000000000000e+01 6.100000000000000000e+01 6.200000000000000000e+01 6.300000000000000000e+01 6.400000000000000000e+01 6.500000000000000000e+01 6.600000000000000000e+01 6.700000000000000000e+01 6.800000000000000000e+01 6.900000000000000000e+01 7.000000000000000000e+01 7.100000000000000000e+01 7.200000000000000000e+01 7.300000000000000000e+01 7.400000000000000000e+01 7.500000000000000000e+01 7.600000000000000000e+01 7.700000000000000000e+01 7.800000000000000000e+01 7.900000000000000000e+01 8.000000000000000000e+01 8.100000000000000000e+01 8.200000000000000000e+01 8.300000000000000000e+01 8.400000000000000000e+01 8.500000000000000000e+01 8.600000000000000000e+01 8.700000000000000000e+01 8.800000000000000000e+01 8.900000000000000000e+01 9.000000000000000000e+01 9.100000000000000000e+01 9.200000000000000000e+01 9.300000000000000000e+01 9.400000000000000000e+01 9.500000000000000000e+01 9.600000000000000000e+01 9.700000000000000000e+01 9.800000000000000000e+01 9.900000000000000000e+01 1.000000000000000000e+02 1.010000000000000000e+02 1.020000000000000000e+02 1.030000000000000000e+02 1.040000000000000000e+02 1.050000000000000000e+02 1.060000000000000000e+02 1.070000000000000000e+02 1.080000000000000000e+02 1.090000000000000000e+02 1.100000000000000000e+02 1.110000000000000000e+02 1.120000000000000000e+02 1.130000000000000000e+02 1.140000000000000000e+02 1.150000000000000000e+02 1.160000000000000000e+02 1.170000000000000000e+02 1.180000000000000000e+02 1.190000000000000000e+02 1.200000000000000000e+02 1.210000000000000000e+02 1.220000000000000000e+02 1.230000000000000000e+02 1.240000000000000000e+02 1.250000000000000000e+02 1.260000000000000000e+02 1.270000000000000000e+02 1.280000000000000000e+02 1.290000000000000000e+02 1.300000000000000000e+02 1.310000000000000000e+02 1.320000000000000000e+02 1.330000000000000000e+02 1.340000000000000000e+02 1.350000000000000000e+02 1.360000000000000000e+02 1.370000000000000000e+02 1.380000000000000000e+02 1.390000000000000000e+02 1.400000000000000000e+02 1.410000000000000000e+02 1.420000000000000000e+02 1.430000000000000000e+02 1.440000000000000000e+02 1.450000000000000000e+02 1.460000000000000000e+02 1.470000000000000000e+02 1.480000000000000000e+02 1.490000000000000000e+02 1.500000000000000000e+02 1.510000000000000000e+02 1.520000000000000000e+02 1.530000000000000000e+02 1.540000000000000000e+02 1.550000000000000000e+02 1.560000000000000000e+02 1.570000000000000000e+02 1.580000000000000000e+02 1.590000000000000000e+02 1.600000000000000000e+02 1.610000000000000000e+02 1.620000000000000000e+02 1.630000000000000000e+02 1.640000000000000000e+02 1.650000000000000000e+02 1.660000000000000000e+02 1.670000000000000000e+02 1.680000000000000000e+02 1.690000000000000000e+02 1.700000000000000000e+02 1.710000000000000000e+02 1.720000000000000000e+02 1.730000000000000000e+02 1.740000000000000000e+02 1.750000000000000000e+02 1.760000000000000000e+02 1.770000000000000000e+02 1.780000000000000000e+02 1.790000000000000000e+02 1.800000000000000000e+02 1.810000000000000000e+02 1.820000000000000000e+02 1.830000000000000000e+02 1.840000000000000000e+02 1.850000000000000000e+02 1.860000000000000000e+02 1.870000000000000000e+02 1.880000000000000000e+02 1.890000000000000000e+02 1.900000000000000000e+02 1.910000000000000000e+02 1.920000000000000000e+02 1.930000000000000000e+02 1.940000000000000000e+02 1.950000000000000000e+02 1.960000000000000000e+02 1.970000000000000000e+02 1.980000000000000000e+02 1.990000000000000000e+02 2.000000000000000000e+02 2.010000000000000000e+02 2.020000000000000000e+02 2.030000000000000000e+02 2.040000000000000000e+02 2.050000000000000000e+02 2.060000000000000000e+02 2.070000000000000000e+02 2.080000000000000000e+02 2.090000000000000000e+02 2.100000000000000000e+02 2.110000000000000000e+02 2.120000000000000000e+02 2.130000000000000000e+02 2.140000000000000000e+02 2.150000000000000000e+02 2.160000000000000000e+02 2.170000000000000000e+02 2.180000000000000000e+02 2.190000000000000000e+02 2.200000000000000000e+02 2.210000000000000000e+02 2.220000000000000000e+02 2.230000000000000000e+02 2.240000000000000000e+02 2.250000000000000000e+02 2.260000000000000000e+02 2.270000000000000000e+02 2.280000000000000000e+02 2.290000000000000000e+02 2.300000000000000000e+02 2.310000000000000000e+02 2.320000000000000000e+02 2.330000000000000000e+02 2.340000000000000000e+02 2.350000000000000000e+02 2.360000000000000000e+02 2.370000000000000000e+02 2.380000000000000000e+02 2.390000000000000000e+02 2.400000000000000000e+02 2.410000000000000000e+02 2.420000000000000000e+02 2.430000000000000000e+02 2.440000000000000000e+02 2.450000000000000000e+02 2.460000000000000000e+02 2.470000000000000000e+02 2.480000000000000000e+02 2.490000000000000000e+02 2.500000000000000000e+02 2.510000000000000000e+02 2.520000000000000000e+02 2.530000000000000000e+02 2.540000000000000000e+02 2.550000000000000000e+02 2.560000000000000000e+02 2.570000000000000000e+02 2.580000000000000000e+02 2.590000000000000000e+02 2.600000000000000000e+02 2.610000000000000000e+02 2.620000000000000000e+02 2.630000000000000000e+02 2.640000000000000000e+02 2.650000000000000000e+02 2.660000000000000000e+02 2.670000000000000000e+02 2.680000000000000000e+02 2.690000000000000000e+02 2.700000000000000000e+02 2.710000000000000000e+02 2.720000000000000000e+02 2.730000000000000000e+02 2.740000000000000000e+02 2.750000000000000000e+02 2.760000000000000000e+02 2.770000000000000000e+02 2.780000000000000000e+02 2.790000000000000000e+02 2.800000000000000000e+02 2.810000000000000000e+02 2.820000000000000000e+02 2.830000000000000000e+02 2.840000000000000000e+02 2.850000000000000000e+02 2.860000000000000000e+02 2.870000000000000000e+02 2.880000000000000000e+02 2.890000000000000000e+02 2.900000000000000000e+02 2.910000000000000000e+02 2.920000000000000000e+02 2.930000000000000000e+02 2.940000000000000000e+02 2.950000000000000000e+02 2.960000000000000000e+02 2.970000000000000000e+02 2.980000000000000000e+02 2.990000000000000000e+02 3.000000000000000000e+02 3.010000000000000000e+02 3.020000000000000000e+02 3.030000000000000000e+02 3.040000000000000000e+02 3.050000000000000000e+02 3.060000000000000000e+02 3.070000000000000000e+02 3.080000000000000000e+02 3.090000000000000000e+02 3.100000000000000000e+02 3.110000000000000000e+02 3.120000000000000000e+02 3.130000000000000000e+02 3.140000000000000000e+02 3.150000000000000000e+02 3.160000000000000000e+02 3.170000000000000000e+02 3.180000000000000000e+02 3.190000000000000000e+02 3.200000000000000000e+02 3.210000000000000000e+02 3.220000000000000000e+02 3.230000000000000000e+02 3.240000000000000000e+02 3.250000000000000000e+02 3.260000000000000000e+02 3.270000000000000000e+02 3.280000000000000000e+02 3.290000000000000000e+02 3.300000000000000000e+02 3.310000000000000000e+02 3.320000000000000000e+02 3.330000000000000000e+02 3.340000000000000000e+02 3.350000000000000000e+02 3.360000000000000000e+02 3.370000000000000000e+02 3.380000000000000000e+02 3.390000000000000000e+02 3.400000000000000000e+02 3.410000000000000000e+02 3.420000000000000000e+02 3.430000000000000000e+02 3.440000000000000000e+02 3.450000000000000000e+02 3.460000000000000000e+02 3.470000000000000000e+02 3.480000000000000000e+02 3.490000000000000000e+02 3.500000000000000000e+02 3.510000000000000000e+02 3.520000000000000000e+02 3.530000000000000000e+02 3.540000000000000000e+02 3.550000000000000000e+02 3.560000000000000000e+02 3.570000000000000000e+02 3.580000000000000000e+02 3.590000000000000000e+02 3.600000000000000000e+02 3.610000000000000000e+02 3.620000000000000000e+02 3.630000000000000000e+02 3.640000000000000000e+02 3.650000000000000000e+02 3.660000000000000000e+02 3.670000000000000000e+02 3.680000000000000000e+02 3.690000000000000000e+02 3.700000000000000000e+02 3.710000000000000000e+02 3.720000000000000000e+02 3.730000000000000000e+02 3.740000000000000000e+02 3.750000000000000000e+02 3.760000000000000000e+02 3.770000000000000000e+02 3.780000000000000000e+02 3.790000000000000000e+02 3.800000000000000000e+02 3.810000000000000000e+02 3.820000000000000000e+02 3.830000000000000000e+02 3.840000000000000000e+02 3.850000000000000000e+02 3.860000000000000000e+02 3.870000000000000000e+02 3.880000000000000000e+02 3.890000000000000000e+02 3.900000000000000000e+02 3.910000000000000000e+02 3.920000000000000000e+02 3.930000000000000000e+02 3.940000000000000000e+02 3.950000000000000000e+02 3.960000000000000000e+02 3.970000000000000000e+02 3.980000000000000000e+02 3.990000000000000000e+02 4.000000000000000000e+02 4.010000000000000000e+02 4.020000000000000000e+02 4.030000000000000000e+02 4.040000000000000000e+02 4.050000000000000000e+02 4.060000000000000000e+02 4.070000000000000000e+02 4.080000000000000000e+02 4.090000000000000000e+02 4.100000000000000000e+02 4.110000000000000000e+02 4.120000000000000000e+02 4.130000000000000000e+02 4.140000000000000000e+02 4.150000000000000000e+02 4.160000000000000000e+02 4.170000000000000000e+02 4.180000000000000000e+02 4.190000000000000000e+02 4.200000000000000000e+02 4.210000000000000000e+02 4.220000000000000000e+02 4.230000000000000000e+02 4.240000000000000000e+02 4.250000000000000000e+02 4.260000000000000000e+02 4.270000000000000000e+02 4.280000000000000000e+02 4.290000000000000000e+02 4.300000000000000000e+02 4.310000000000000000e+02 4.320000000000000000e+02 4.330000000000000000e+02 4.340000000000000000e+02 4.350000000000000000e+02 4.360000000000000000e+02 4.370000000000000000e+02 4.380000000000000000e+02 4.390000000000000000e+02 4.400000000000000000e+02 4.410000000000000000e+02 4.420000000000000000e+02 4.430000000000000000e+02 4.440000000000000000e+02 4.450000000000000000e+02 4.460000000000000000e+02 4.470000000000000000e+02 4.480000000000000000e+02 4.490000000000000000e+02 4.500000000000000000e+02 4.510000000000000000e+02 4.520000000000000000e+02 4.530000000000000000e+02 4.540000000000000000e+02 4.550000000000000000e+02 4.560000000000000000e+02 4.570000000000000000e+02 4.580000000000000000e+02 4.590000000000000000e+02 4.600000000000000000e+02 4.610000000000000000e+02 4.620000000000000000e+02 4.630000000000000000e+02 4.640000000000000000e+02 4.650000000000000000e+02 4.660000000000000000e+02 4.670000000000000000e+02 4.680000000000000000e+02 4.690000000000000000e+02 4.700000000000000000e+02 4.710000000000000000e+02 4.720000000000000000e+02 4.730000000000000000e+02 4.740000000000000000e+02 4.750000000000000000e+02 4.760000000000000000e+02 4.770000000000000000e+02 4.780000000000000000e+02 4.790000000000000000e+02 4.800000000000000000e+02 4.810000000000000000e+02 4.820000000000000000e+02 4.830000000000000000e+02 4.840000000000000000e+02 4.850000000000000000e+02 4.860000000000000000e+02 4.870000000000000000e+02 4.880000000000000000e+02 4.890000000000000000e+02 4.900000000000000000e+02 4.910000000000000000e+02 4.920000000000000000e+02 4.930000000000000000e+02 4.940000000000000000e+02 4.950000000000000000e+02 4.960000000000000000e+02 4.970000000000000000e+02 4.980000000000000000e+02 4.990000000000000000e+02 5.000000000000000000e+02 5.010000000000000000e+02 5.020000000000000000e+02 5.030000000000000000e+02 5.040000000000000000e+02 5.050000000000000000e+02 5.060000000000000000e+02 5.070000000000000000e+02 5.080000000000000000e+02 5.090000000000000000e+02 5.100000000000000000e+02 5.110000000000000000e+02 5.120000000000000000e+02 5.130000000000000000e+02 5.140000000000000000e+02 5.150000000000000000e+02 5.160000000000000000e+02 5.170000000000000000e+02 5.180000000000000000e+02 5.190000000000000000e+02 5.200000000000000000e+02 5.210000000000000000e+02 5.220000000000000000e+02 5.230000000000000000e+02 5.240000000000000000e+02 5.250000000000000000e+02 5.260000000000000000e+02 5.270000000000000000e+02 5.280000000000000000e+02 5.290000000000000000e+02 5.300000000000000000e+02 5.310000000000000000e+02 5.320000000000000000e+02 5.330000000000000000e+02 5.340000000000000000e+02 5.350000000000000000e+02 5.360000000000000000e+02 5.370000000000000000e+02 5.380000000000000000e+02 5.390000000000000000e+02 5.400000000000000000e+02 5.410000000000000000e+02 5.420000000000000000e+02 5.430000000000000000e+02 5.440000000000000000e+02 5.450000000000000000e+02 5.460000000000000000e+02 5.470000000000000000e+02 5.480000000000000000e+02 5.490000000000000000e+02 5.500000000000000000e+02 5.510000000000000000e+02 5.520000000000000000e+02 5.530000000000000000e+02 5.540000000000000000e+02 5.550000000000000000e+02 5.560000000000000000e+02 5.570000000000000000e+02 5.580000000000000000e+02 5.590000000000000000e+02 5.600000000000000000e+02 5.610000000000000000e+02 5.620000000000000000e+02 5.630000000000000000e+02 5.640000000000000000e+02 5.650000000000000000e+02 5.660000000000000000e+02 5.670000000000000000e+02 5.680000000000000000e+02 5.690000000000000000e+02 5.700000000000000000e+02 5.710000000000000000e+02 5.720000000000000000e+02 5.730000000000000000e+02 5.740000000000000000e+02 5.750000000000000000e+02 5.760000000000000000e+02 5.770000000000000000e+02 5.780000000000000000e+02 5.790000000000000000e+02 5.800000000000000000e+02 5.810000000000000000e+02 5.820000000000000000e+02 5.830000000000000000e+02 5.840000000000000000e+02 5.850000000000000000e+02 5.860000000000000000e+02 5.870000000000000000e+02 5.880000000000000000e+02 5.890000000000000000e+02 5.900000000000000000e+02 5.910000000000000000e+02 5.920000000000000000e+02 5.930000000000000000e+02 5.940000000000000000e+02 5.950000000000000000e+02 5.960000000000000000e+02 5.970000000000000000e+02 5.980000000000000000e+02 5.990000000000000000e+02 6.000000000000000000e+02 6.010000000000000000e+02 6.020000000000000000e+02 6.030000000000000000e+02 6.040000000000000000e+02 6.050000000000000000e+02 6.060000000000000000e+02 6.070000000000000000e+02 6.080000000000000000e+02 6.090000000000000000e+02 6.100000000000000000e+02 6.110000000000000000e+02 6.120000000000000000e+02 6.130000000000000000e+02 6.140000000000000000e+02 6.150000000000000000e+02 6.160000000000000000e+02 6.170000000000000000e+02 6.180000000000000000e+02 6.190000000000000000e+02 6.200000000000000000e+02 6.210000000000000000e+02 6.220000000000000000e+02 6.230000000000000000e+02 6.240000000000000000e+02 6.250000000000000000e+02 6.260000000000000000e+02 6.270000000000000000e+02 6.280000000000000000e+02 6.290000000000000000e+02 6.300000000000000000e+02 6.310000000000000000e+02 6.320000000000000000e+02 6.330000000000000000e+02 6.340000000000000000e+02 6.350000000000000000e+02 6.360000000000000000e+02 6.370000000000000000e+02 6.380000000000000000e+02 6.390000000000000000e+02 6.400000000000000000e+02 6.410000000000000000e+02 6.420000000000000000e+02 6.430000000000000000e+02 6.440000000000000000e+02 6.450000000000000000e+02 6.460000000000000000e+02 6.470000000000000000e+02 6.480000000000000000e+02 6.490000000000000000e+02 6.500000000000000000e+02 6.510000000000000000e+02 6.520000000000000000e+02 6.530000000000000000e+02 6.540000000000000000e+02 6.550000000000000000e+02 6.560000000000000000e+02 6.570000000000000000e+02 6.580000000000000000e+02 6.590000000000000000e+02 6.600000000000000000e+02 6.610000000000000000e+02 6.620000000000000000e+02 6.630000000000000000e+02 6.640000000000000000e+02 6.650000000000000000e+02 6.660000000000000000e+02 6.670000000000000000e+02 6.680000000000000000e+02 6.690000000000000000e+02 6.700000000000000000e+02 6.710000000000000000e+02 6.720000000000000000e+02 6.730000000000000000e+02 6.740000000000000000e+02 6.750000000000000000e+02 6.760000000000000000e+02 6.770000000000000000e+02 6.780000000000000000e+02 6.790000000000000000e+02 6.800000000000000000e+02 6.810000000000000000e+02 6.820000000000000000e+02 6.830000000000000000e+02 6.840000000000000000e+02 6.850000000000000000e+02 6.860000000000000000e+02 6.870000000000000000e+02 6.880000000000000000e+02 6.890000000000000000e+02 6.900000000000000000e+02 6.910000000000000000e+02 6.920000000000000000e+02 6.930000000000000000e+02 6.940000000000000000e+02 6.950000000000000000e+02 6.960000000000000000e+02 6.970000000000000000e+02 6.980000000000000000e+02 6.990000000000000000e+02 7.000000000000000000e+02 7.010000000000000000e+02 7.020000000000000000e+02 7.030000000000000000e+02 7.040000000000000000e+02 7.050000000000000000e+02 7.060000000000000000e+02 7.070000000000000000e+02 7.080000000000000000e+02 7.090000000000000000e+02 7.100000000000000000e+02 7.110000000000000000e+02 7.120000000000000000e+02 7.130000000000000000e+02 7.140000000000000000e+02 7.150000000000000000e+02 7.160000000000000000e+02 7.170000000000000000e+02 7.180000000000000000e+02 7.190000000000000000e+02 7.200000000000000000e+02 7.210000000000000000e+02 7.220000000000000000e+02 7.230000000000000000e+02 7.240000000000000000e+02 7.250000000000000000e+02 7.260000000000000000e+02 7.270000000000000000e+02 7.280000000000000000e+02 7.290000000000000000e+02 7.300000000000000000e+02 7.310000000000000000e+02 7.320000000000000000e+02 7.330000000000000000e+02 7.340000000000000000e+02 7.350000000000000000e+02 7.360000000000000000e+02 7.370000000000000000e+02 7.380000000000000000e+02 7.390000000000000000e+02 7.400000000000000000e+02 7.410000000000000000e+02 7.420000000000000000e+02 7.430000000000000000e+02 7.440000000000000000e+02 7.450000000000000000e+02 7.460000000000000000e+02 7.470000000000000000e+02 7.480000000000000000e+02 7.490000000000000000e+02 7.500000000000000000e+02 7.510000000000000000e+02 7.520000000000000000e+02 7.530000000000000000e+02 7.540000000000000000e+02 7.550000000000000000e+02 7.560000000000000000e+02 7.570000000000000000e+02 7.580000000000000000e+02 7.590000000000000000e+02 7.600000000000000000e+02 7.610000000000000000e+02 7.620000000000000000e+02 7.630000000000000000e+02 7.640000000000000000e+02 7.650000000000000000e+02 7.660000000000000000e+02 7.670000000000000000e+02 7.680000000000000000e+02 7.690000000000000000e+02 7.700000000000000000e+02 7.710000000000000000e+02 7.720000000000000000e+02 7.730000000000000000e+02 7.740000000000000000e+02 7.750000000000000000e+02 7.760000000000000000e+02 7.770000000000000000e+02 7.780000000000000000e+02 7.790000000000000000e+02 7.800000000000000000e+02 7.810000000000000000e+02 7.820000000000000000e+02 7.830000000000000000e+02 7.840000000000000000e+02 7.850000000000000000e+02 7.860000000000000000e+02 7.870000000000000000e+02 7.880000000000000000e+02 7.890000000000000000e+02 7.900000000000000000e+02 7.910000000000000000e+02 7.920000000000000000e+02 7.930000000000000000e+02 7.940000000000000000e+02 7.950000000000000000e+02 7.960000000000000000e+02 7.970000000000000000e+02 7.980000000000000000e+02 7.990000000000000000e+02 8.000000000000000000e+02 8.010000000000000000e+02 8.020000000000000000e+02 8.030000000000000000e+02 8.040000000000000000e+02 8.050000000000000000e+02 8.060000000000000000e+02 8.070000000000000000e+02 8.080000000000000000e+02 8.090000000000000000e+02 8.100000000000000000e+02 8.110000000000000000e+02 8.120000000000000000e+02 8.130000000000000000e+02 8.140000000000000000e+02 8.150000000000000000e+02 8.160000000000000000e+02 8.170000000000000000e+02 8.180000000000000000e+02 8.190000000000000000e+02 8.200000000000000000e+02 8.210000000000000000e+02 8.220000000000000000e+02 8.230000000000000000e+02 8.240000000000000000e+02 8.250000000000000000e+02 8.260000000000000000e+02 8.270000000000000000e+02 8.280000000000000000e+02 8.290000000000000000e+02 8.300000000000000000e+02 8.310000000000000000e+02 8.320000000000000000e+02 8.330000000000000000e+02 8.340000000000000000e+02 8.350000000000000000e+02 8.360000000000000000e+02 8.370000000000000000e+02 8.380000000000000000e+02 8.390000000000000000e+02 8.400000000000000000e+02 8.410000000000000000e+02 8.420000000000000000e+02 8.430000000000000000e+02 8.440000000000000000e+02 8.450000000000000000e+02 8.460000000000000000e+02 8.470000000000000000e+02 8.480000000000000000e+02 8.490000000000000000e+02 8.500000000000000000e+02 8.510000000000000000e+02 8.520000000000000000e+02 8.530000000000000000e+02 8.540000000000000000e+02 8.550000000000000000e+02 8.560000000000000000e+02 8.570000000000000000e+02 8.580000000000000000e+02 8.590000000000000000e+02 8.600000000000000000e+02 8.610000000000000000e+02 8.620000000000000000e+02 8.630000000000000000e+02 8.640000000000000000e+02 8.650000000000000000e+02 8.660000000000000000e+02 8.670000000000000000e+02 8.680000000000000000e+02 8.690000000000000000e+02 8.700000000000000000e+02 8.710000000000000000e+02 8.720000000000000000e+02 8.730000000000000000e+02 8.740000000000000000e+02 8.750000000000000000e+02 8.760000000000000000e+02 8.770000000000000000e+02 8.780000000000000000e+02 8.790000000000000000e+02 8.800000000000000000e+02 8.810000000000000000e+02 8.820000000000000000e+02 8.830000000000000000e+02 8.840000000000000000e+02 8.850000000000000000e+02 8.860000000000000000e+02 8.870000000000000000e+02 8.880000000000000000e+02 8.890000000000000000e+02 8.900000000000000000e+02 8.910000000000000000e+02 8.920000000000000000e+02 8.930000000000000000e+02 8.940000000000000000e+02 8.950000000000000000e+02 8.960000000000000000e+02 8.970000000000000000e+02 8.980000000000000000e+02 8.990000000000000000e+02 9.000000000000000000e+02 9.010000000000000000e+02 9.020000000000000000e+02 9.030000000000000000e+02 9.040000000000000000e+02 9.050000000000000000e+02 9.060000000000000000e+02 9.070000000000000000e+02 9.080000000000000000e+02 9.090000000000000000e+02 9.100000000000000000e+02 9.110000000000000000e+02 9.120000000000000000e+02 9.130000000000000000e+02 9.140000000000000000e+02 9.150000000000000000e+02 9.160000000000000000e+02 9.170000000000000000e+02 9.180000000000000000e+02 9.190000000000000000e+02 9.200000000000000000e+02 9.210000000000000000e+02 9.220000000000000000e+02 9.230000000000000000e+02 9.240000000000000000e+02 9.250000000000000000e+02 9.260000000000000000e+02 9.270000000000000000e+02 9.280000000000000000e+02 9.290000000000000000e+02 9.300000000000000000e+02 9.310000000000000000e+02 9.320000000000000000e+02 9.330000000000000000e+02 9.340000000000000000e+02 9.350000000000000000e+02 9.360000000000000000e+02 9.370000000000000000e+02 9.380000000000000000e+02 9.390000000000000000e+02 9.400000000000000000e+02 9.410000000000000000e+02 9.420000000000000000e+02 9.430000000000000000e+02 9.440000000000000000e+02 9.450000000000000000e+02 9.460000000000000000e+02 9.470000000000000000e+02 9.480000000000000000e+02 9.490000000000000000e+02 9.500000000000000000e+02 9.510000000000000000e+02 9.520000000000000000e+02 9.530000000000000000e+02 9.540000000000000000e+02 9.550000000000000000e+02 9.560000000000000000e+02 9.570000000000000000e+02 9.580000000000000000e+02 9.590000000000000000e+02 9.600000000000000000e+02 9.610000000000000000e+02 9.620000000000000000e+02 9.630000000000000000e+02 9.640000000000000000e+02 9.650000000000000000e+02 9.660000000000000000e+02 9.670000000000000000e+02 9.680000000000000000e+02 9.690000000000000000e+02 9.700000000000000000e+02 9.710000000000000000e+02 9.720000000000000000e+02 9.730000000000000000e+02 9.740000000000000000e+02 9.750000000000000000e+02 9.760000000000000000e+02 9.770000000000000000e+02 9.780000000000000000e+02 9.790000000000000000e+02 9.800000000000000000e+02 9.810000000000000000e+02 9.820000000000000000e+02 9.830000000000000000e+02 9.840000000000000000e+02 9.850000000000000000e+02 9.860000000000000000e+02 9.870000000000000000e+02 9.880000000000000000e+02 9.890000000000000000e+02 9.900000000000000000e+02 9.910000000000000000e+02 9.920000000000000000e+02 9.930000000000000000e+02 9.940000000000000000e+02 9.950000000000000000e+02 9.960000000000000000e+02 9.970000000000000000e+02 9.980000000000000000e+02 9.990000000000000000e+02
1.000000000000000000e+00 1.000000000000000000e+00 1.000000000000000000e+00 1.000000000000000000e+00 1.000000000000000000e+00 1.000000000000000000e+00 1.000000000000000000e+00 1.000000000000000000e+00 1.000000000000000000e+00 1.000000000000000000e+00 1.000000000000000000e+00 1.000000000000000000e+00 1.000000000000000000e+00 1.000000000000000000e+00 1.000000000000000000e+00 1.000000000000000000e+00 1.000000000000000000e+00 1.000000000000000000e+00 1.000000000000000000e+00 1.000000000000000000e+00 1.000000000000000000e+00 1.000000000000000000e+00 1.000000000000000000e+00 1.000000000000000000e+00 1.000000000000000000e+00 1.000000000000000000e+00 1.000000000000000000e+00 1.000000000000000000e+00 1.000000000000000000e+00 1.000000000000000000e+00 1.000000000000000000e+00 1.000000000000000000e+00 1.000000000000000000e+00 1.000000000000000000e+00 1.000000000000000000e+00 1.000000000000000000e+00 1.000000000000000000e+00 1.000000000000000000e+00 1.000000000000000000e+00 1.000000000000000000e+00 1.000000000000000000e+00 1.000000000000000000e+00 1.000000000000000000e+00 1.000000000000000000e+00 1.000000000000000000e+00 1.000000000000000000e+00 1.000000000000000000e+00 1.000000000000000000e+00 1.000000000000000000e+00 1.000000000000000000e+00 1.000000000000000000e+00 1.000000000000000000e+00 1.000000000000000000e+00 1.000000000000000000e+00 1.000000000000000000e+00 1.000000000000000000e+00 1.000000000000000000e+00 1.000000000000000000e+00 1.000000000000000000e+00 1.000000000000000000e+00 1.000000000000000000e+00 1.000000000000000000e+00 1.000000000000000000e+00 1.000000000000000000e+00 1.000000000000000000e+00 1.000000000000000000e+00 1.000000000000000000e+00 1.000000000000000000e+00 1.000000000000000000e+00 1.000000000000000000e+00 1.000000000000000000e+00 1.000000000000000000e+00 1.000000000000000000e+00 1.000000000000000000e+00 1.000000000000000000e+00 1.000000000000000000e+00 1.000000000000000000e+00 1.000000000000000000e+00 1.000000000000000000e+00 1.000000000000000000e+00 1.000000000000000000e+00 1.000000000000000000e+00 1.000000000000000000e+00 1.000000000000000000e+00 1.000000000000000000e+00 1.000000000000000000e+00 1.000000000000000000e+00 1.000000000000000000e+00 1.000000000000000000e+00 1.000000000000000000e+00 1.000000000000000000e+00 1.000000000000000000e+00 1.000000000000000000e+00 1.000000000000000000e+00 1.000000000000000000e+00 1.000000000000000000e+00 1.000000000000000000e+00 1.000000000000000000e+00 1.000000000000000000e+00 1.000000000000000000e+00 1.000000000000000000e+00 1.000000000000000000e+00 1.000000000000000000e+00 1.000000000000000000e+00 1.000000000000000000e+00 1.000000000000000000e+00 1.000000000000000000e+00 1.000000000000000000e+00 1.000000000000000000e+00 1.000000000000000000e+00 1.000000000000000000e+00 1.000000000000000000e+00 1.000000000000000000e+00 1.000000000000000000e+00 1.000000000000000000e+00 1.000000000000000000e+00 1.000000000000000000e+00 1.000000000000000000e+00 1.000000000000000000e+00 1.000000000000000000e+00 1.000000000000000000e+00 1.000000000000000000e+00 1.000000000000000000e+00 1.000000000000000000e+00 1.000000000000000000e+00 1.000000000000000000e+00 1.000000000000000000e+00 1.000000000000000000e+00 1.000000000000000000e+00 1.000000000000000000e+00 1.000000000000000000e+00 1.000000000000000000e+00 1.000000000000000000e+00 1.000000000000000000e+00 1.000000000000000000e+00 1.000000000000000000e+00 1.000000000000000000e+00 1.000000000000000000e+00 1.000000000000000000e+00 1.000000000000000000e+00 1.000000000000000000e+00 1.000000000000000000e+00 1.000000000000000000e+00 1.000000000000000000e+00 1.000000000000000000e+00 1.000000000000000000e+00 1.000000000000000000e+00 1.000000000000000000e+00 1.000000000000000000e+00 1.000000000000000000e+00 1.000000000000000000e+00 1.000000000000000000e+00 1.000000000000000000e+00 1.000000000000000000e+00 1.000000000000000000e+00 1.000000000000000000e+00 1.000000000000000000e+00 1.000000000000000000e+00 1.000000000000000000e+00 1.000000000000000000e+00 1.000000000000000000e+00 1.000000000000000000e+00 1.000000000000000000e+00 1.000000000000000000e+00 1.000000000000000000e+00 1.000000000000000000e+00 1.000000000000000000e+00 1.000000000000000000e+00 1.000000000000000000e+00 1.000000000000000000e+00 1.000000000000000000e+00 1.000000000000000000e+00 1.000000000000000000e+00 1.000000000000000000e+00 1.000000000000000000e+00 1.000000000000000000e+00 1.000000000000000000e+00 1.000000000000000000e+00 1.000000000000000000e+00 1.000000000000000000e+00 1.000000000000000000e+00 1.000000000000000000e+00 1.000000000000000000e+00 1.000000000000000000e+00 1.000000000000000000e+00 1.000000000000000000e+00 1.000000000000000000e+00 1.000000000000000000e+00 1.000000000000000000e+00 1.000000000000000000e+00 1.000000000000000000e+00 1.000000000000000000e+00 1.000000000000000000e+00 1.000000000000000000e+00 1.000000000000000000e+00 1.000000000000000000e+00 1.000000000000000000e+00 1.000000000000000000e+00 1.000000000000000000e+00 1.000000000000000000e+00 1.000000000000000000e+00 1.000000000000000000e+00 1.000000000000000000e+00 1.000000000000000000e+00 1.000000000000000000e+00 1.000000000000000000e+00 1.000000000000000000e+00 1.000000000000000000e+00 1.000000000000000000e+00 1.000000000000000000e+00 1.000000000000000000e+00 1.000000000000000000e+00 1.000000000000000000e+00 1.000000000000000000e+00 1.000000000000000000e+00 1.000000000000000000e+00 1.000000000000000000e+00 1.000000000000000000e+00 1.000000000000000000e+00 1.000000000000000000e+00 1.000000000000000000e+00 1.000000000000000000e+00 1.000000000000000000e+00 1.000000000000000000e+00 1.000000000000000000e+00 1.000000000000000000e+00 1.000000000000000000e+00 1.000000000000000000e+00 1.000000000000000000e+00 1.000000000000000000e+00 1.000000000000000000e+00 1.000000000000000000e+00 1.000000000000000000e+00 1.000000000000000000e+00 1.000000000000000000e+00 1.000000000000000000e+00 1.000000000000000000e+00 1.000000000000000000e+00 1.000000000000000000e+00 1.000000000000000000e+00 1.000000000000000000e+00 1.000000000000000000e+00 1.000000000000000000e+00 1.000000000000000000e+00 1.000000000000000000e+00 1.000000000000000000e+00 1.000000000000000000e+00 1.000000000000000000e+00 1.000000000000000000e+00 1.000000000000000000e+00 1.000000000000000000e+00 1.000000000000000000e+00 1.000000000000000000e+00 1.000000000000000000e+00 1.000000000000000000e+00 1.000000000000000000e+00 1.000000000000000000e+00 1.000000000000000000e+00 1.000000000000000000e+00 1.000000000000000000e+00 1.000000000000000000e+00 1.000000000000000000e+00 1.000000000000000000e+00 1.000000000000000000e+00 1.000000000000000000e+00 1.000000000000000000e+00 1.000000000000000000e+00 1.000000000000000000e+00 1.000000000000000000e+00 1.000000000000000000e+00 1.000000000000000000e+00 1.000000000000000000e+00 1.000000000000000000e+00 1.000000000000000000e+00 1.000000000000000000e+00 1.000000000000000000e+00 1.000000000000000000e+00 1.000000000000000000e+00 1.000000000000000000e+00 1.000000000000000000e+00 1.000000000000000000e+00 1.000000000000000000e+00 1.000000000000000000e+00 1.000000000000000000e+00 1.000000000000000000e+00 1.000000000000000000e+00 1.000000000000000000e+00 1.000000000000000000e+00 1.000000000000000000e+00 1.000000000000000000e+00 1.000000000000000000e+00 1.000000000000000000e+00 1.000000000000000000e+00 1.000000000000000000e+00 1.000000000000000000e+00 1.000000000000000000e+00 1.000000000000000000e+00 1.000000000000000000e+00 1.000000000000000000e+00 1.000000000000000000e+00 1.000000000000000000e+00 1.000000000000000000e+00 1.000000000000000000e+00 1.000000000000000000e+00 1.000000000000000000e+00 1.000000000000000000e+00 1.000000000000000000e+00 1.000000000000000000e+00 1.000000000000000000e+00 1.000000000000000000e+00 1.000000000000000000e+00 1.000000000000000000e+00 1.000000000000000000e+00 1.000000000000000000e+00 1.000000000000000000e+00 1.000000000000000000e+00 1.000000000000000000e+00 1.000000000000000000e+00 1.000000000000000000e+00 1.000000000000000000e+00 1.000000000000000000e+00 1.000000000000000000e+00 1.000000000000000000e+00 1.000000000000000000e+00 1.000000000000000000e+00 1.000000000000000000e+00 1.000000000000000000e+00 1.000000000000000000e+00 1.000000000000000000e+00 1.000000000000000000e+00 1.000000000000000000e+00 1.000000000000000000e+00 1.000000000000000000e+00 1.000000000000000000e+00 1.000000000000000000e+00 1.000000000000000000e+00 1.000000000000000000e+00 1.000000000000000000e+00 1.000000000000000000e+00 1.000000000000000000e+00 1.000000000000000000e+00 1.000000000000000000e+00 1.000000000000000000e+00 1.000000000000000000e+00 1.000000000000000000e+00 1.000000000000000000e+00 1.000000000000000000e+00 1.000000000000000000e+00 1.000000000000000000e+00 1.000000000000000000e+00 1.000000000000000000e+00 1.000000000000000000e+00 1.000000000000000000e+00 1.000000000000000000e+00 1.000000000000000000e+00 1.000000000000000000e+00 1.000000000000000000e+00 1.000000000000000000e+00 1.000000000000000000e+00 1.000000000000000000e+00 1.000000000000000000e+00 1.000000000000000000e+00 1.000000000000000000e+00 1.000000000000000000e+00 1.000000000000000000e+00 1.000000000000000000e+00 1.000000000000000000e+00 1.000000000000000000e+00 1.000000000000000000e+00 1.000000000000000000e+00 1.000000000000000000e+00 1.000000000000000000e+00 1.000000000000000000e+00 1.000000000000000000e+00 1.000000000000000000e+00 1.000000000000000000e+00 1.000000000000000000e+00 1.000000000000000000e+00 1.000000000000000000e+00 1.000000000000000000e+00 1.000000000000000000e+00 1.000000000000000000e+00 1.000000000000000000e+00 1.000000000000000000e+00 1.000000000000000000e+00 1.000000000000000000e+00 1.000000000000000000e+00 1.000000000000000000e+00 1.000000000000000000e+00 1.000000000000000000e+00 1.000000000000000000e+00 1.000000000000000000e+00 1.000000000000000000e+00 1.000000000000000000e+00 1.000000000000000000e+00 1.000000000000000000e+00 1.000000000000000000e+00 1.000000000000000000e+00 1.000000000000000000e+00 1.000000000000000000e+00 1.000000000000000000e+00 1.000000000000000000e+00 1.000000000000000000e+00 1.000000000000000000e+00 1.000000000000000000e+00 1.000000000000000000e+00 1.000000000000000000e+00 1.000000000000000000e+00 1.000000000000000000e+00 1.000000000000000000e+00 1.000000000000000000e+00 1.000000000000000000e+00 1.000000000000000000e+00 1.000000000000000000e+00 1.000000000000000000e+00 1.000000000000000000e+00 1.000000000000000000e+00 1.000000000000000000e+00 1.000000000000000000e+00 1.000000000000000000e+00 1.000000000000000000e+00 1.000000000000000000e+00 1.000000000000000000e+00 1.000000000000000000e+00 1.000000000000000000e+00 1.000000000000000000e+00 1.000000000000000000e+00 1.000000000000000000e+00 1.000000000000000000e+00 1.000000000000000000e+00 1.000000000000000000e+00 1.000000000000000000e+00 1.000000000000000000e+00 1.000000000000000000e+00 1.000000000000000000e+00 1.000000000000000000e+00 1.000000000000000000e+00 1.000000000000000000e+00 1.000000000000000000e+00 1.000000000000000000e+00 1.000000000000000000e+00 1.000000000000000000e+00 1.000000000000000000e+00 1.000000000000000000e+00 1.000000000000000000e+00 1.000000000000000000e+00 1.000000000000000000e+00 1.000000000000000000e+00 1.000000000000000000e+00 1.000000000000000000e+00 1.000000000000000000e+00 1.000000000000000000e+00 1.000000000000000000e+00 1.000000000000000000e+00 1.000000000000000000e+00 1.000000000000000000e+00 1.000000000000000000e+00 1.000000000000000000e+00 1.000000000000000000e+00 1.000000000000000000e+00 1.000000000000000000e+00 1.000000000000000000e+00 1.000000000000000000e+00 1.000000000000000000e+00 1.000000000000000000e+00 1.000000000000000000e+00 1.000000000000000000e+00 1.000000000000000000e+00 1.000000000000000000e+00 1.000000000000000000e+00 1.000000000000000000e+00 1.000000000000000000e+00 1.000000000000000000e+00 1.000000000000000000e+00 1.000000000000000000e+00 1.000000000000000000e+00 1.000000000000000000e+00 1.000000000000000000e+00 1.000000000000000000e+00 1.000000000000000000e+00 1.000000000000000000e+00 1.000000000000000000e+00 1.000000000000000000e+00 1.000000000000000000e+00 1.000000000000000000e+00 1.000000000000000000e+00 1.000000000000000000e+00 1.000000000000000000e+00 1.000000000000000000e+00 1.000000000000000000e+00 1.000000000000000000e+00 1.000000000000000000e+00 1.000000000000000000e+00 1.000000000000000000e+00 1.000000000000000000e+00 1.000000000000000000e+00 1.000000000000000000e+00 1.000000000000000000e+00 1.000000000000000000e+00 1.000000000000000000e+00 1.000000000000000000e+00 1.000000000000000000e+00 1.000000000000000000e+00 1.000000000000000000e+00 1.000000000000000000e+00 1.000000000000000000e+00 1.000000000000000000e+00 1.000000000000000000e+00 1.000000000000000000e+00 1.000000000000000000e+00 1.000000000000000000e+00 1.000000000000000000e+00 1.000000000000000000e+00 1.000000000000000000e+00 1.000000000000000000e+00 1.000000000000000000e+00 1.000000000000000000e+00 1.000000000000000000e+00 1.000000000000000000e+00 1.000000000000000000e+00 1.000000000000000000e+00 1.000000000000000000e+00 1.000000000000000000e+00 1.000000000000000000e+00 1.000000000000000000e+00 1.000000000000000000e+00 1.000000000000000000e+00 1.000000000000000000e+00 1.000000000000000000e+00 1.000000000000000000e+00 1.000000000000000000e+00 1.000000000000000000e+00 1.000000000000000000e+00 1.000000000000000000e+00 1.000000000000000000e+00 1.000000000000000000e+00 1.000000000000000000e+00 1.000000000000000000e+00 1.000000000000000000e+00 1.000000000000000000e+00 1.000000000000000000e+00 1.000000000000000000e+00 1.000000000000000000e+00 1.000000000000000000e+00 1.000000000000000000e+00 1.000000000000000000e+00 1.000000000000000000e+00 1.000000000000000000e+00 1.000000000000000000e+00 1.000000000000000000e+00 1.000000000000000000e+00 1.000000000000000000e+00 1.000000000000000000e+00 1.000000000000000000e+00 1.000000000000000000e+00 1.000000000000000000e+00 1.000000000000000000e+00 1.000000000000000000e+00 1.000000000000000000e+00 1.000000000000000000e+00 1.000000000000000000e+00 1.000000000000000000e+00 1.000000000000000000e+00 1.000000000000000000e+00 1.000000000000000000e+00 1.000000000000000000e+00 1.000000000000000000e+00 1.000000000000000000e+00 1.000000000000000000e+00 1.000000000000000000e+00 1.000000000000000000e+00 1.000000000000000000e+00 1.000000000000000000e+00 1.000000000000000000e+00 1.000000000000000000e+00 1.000000000000000000e+00 1.000000000000000000e+00 1.000000000000000000e+00 1.000000000000000000e+00 1.000000000000000000e+00 1.000000000000000000e+00 1.000000000000000000e+00 1.000000000000000000e+00 1.000000000000000000e+00 1.000000000000000000e+00 1.000000000000000000e+00 1.000000000000000000e+00 1.000000000000000000e+00 1.000000000000000000e+00 1.000000000000000000e+00 1.000000000000000000e+00 1.000000000000000000e+00 1.000000000000000000e+00 1.000000000000000000e+00 1.000000000000000000e+00 1.000000000000000000e+00 1.000000000000000000e+00 1.000000000000000000e+00 1.000000000000000000e+00 1.000000000000000000e+00 1.000000000000000000e+00 1.000000000000000000e+00 1.000000000000000000e+00 1.000000000000000000e+00 1.000000000000000000e+00 1.000000000000000000e+00 1.000000000000000000e+00 1.000000000000000000e+00 1.000000000000000000e+00 1.000000000000000000e+00 1.000000000000000000e+00 1.000000000000000000e+00 1.000000000000000000e+00 1.000000000000000000e+00 1.000000000000000000e+00 1.000000000000000000e+00 1.000000000000000000e+00 1.000000000000000000e+00 1.000000000000000000e+00 1.000000000000000000e+00 1.000000000000000000e+00 1.000000000000000000e+00 1.000000000000000000e+00 1.000000000000000000e+00 1.000000000000000000e+00 1.000000000000000000e+00 1.000000000000000000e+00 1.000000000000000000e+00 1.000000000000000000e+00 1.000000000000000000e+00 1.000000000000000000e+00 1.000000000000000000e+00 1.000000000000000000e+00 1.000000000000000000e+00 1.000000000000000000e+00 1.000000000000000000e+00 1.000000000000000000e+00 1.000000000000000000e+00 1.000000000000000000e+00 1.000000000000000000e+00 1.000000000000000000e+00 1.000000000000000000e+00 1.000000000000000000e+00 1.000000000000000000e+00 1.000000000000000000e+00 1.000000000000000000e+00 1.000000000000000000e+00 1.000000000000000000e+00 1.000000000000000000e+00 1.000000000000000000e+00 1.000000000000000000e+00 1.000000000000000000e+00 1.000000000000000000e+00 1.000000000000000000e+00 1.000000000000000000e+00 1.000000000000000000e+00 1.000000000000000000e+00 1.000000000000000000e+00 1.000000000000000000e+00 1.000000000000000000e+00 1.000000000000000000e+00 1.000000000000000000e+00 1.000000000000000000e+00 1.000000000000000000e+00 1.000000000000000000e+00 1.000000000000000000e+00 1.000000000000000000e+00 1.000000000000000000e+00 1.000000000000000000e+00 1.000000000000000000e+00 1.000000000000000000e+00 1.000000000000000000e+00 1.000000000000000000e+00 1.000000000000000000e+00 1.000000000000000000e+00 1.000000000000000000e+00 1.000000000000000000e+00 1.000000000000000000e+00 1.000000000000000000e+00 1.000000000000000000e+00 1.000000000000000000e+00 1.000000000000000000e+00 1.000000000000000000e+00 1.000000000000000000e+00 1.000000000000000000e+00 1.000000000000000000e+00 1.000000000000000000e+00 1.000000000000000000e+00 1.000000000000000000e+00 1.000000000000000000e+00 1.000000000000000000e+00 1.000000000000000000e+00 1.000000000000000000e+00 1.000000000000000000e+00 1.000000000000000000e+00 1.000000000000000000e+00 1.000000000000000000e+00 1.000000000000000000e+00 1.000000000000000000e+00 1.000000000000000000e+00 1.000000000000000000e+00 1.000000000000000000e+00 1.000000000000000000e+00 1.000000000000000000e+00 1.000000000000000000e+00 1.000000000000000000e+00 1.000000000000000000e+00 1.000000000000000000e+00 1.000000000000000000e+00 1.000000000000000000e+00 1.000000000000000000e+00 1.000000000000000000e+00 1.000000000000000000e+00 1.000000000000000000e+00 1.000000000000000000e+00 1.000000000000000000e+00 1.000000000000000000e+00 1.000000000000000000e+00 1.000000000000000000e+00 1.000000000000000000e+00 1.000000000000000000e+00 1.000000000000000000e+00 1.000000000000000000e+00 1.000000000000000000e+00 1.000000000000000000e+00 1.000000000000000000e+00 1.000000000000000000e+00 1.000000000000000000e+00 1.000000000000000000e+00 1.000000000000000000e+00 1.000000000000000000e+00 1.000000000000000000e+00 1.000000000000000000e+00 1.000000000000000000e+00 1.000000000000000000e+00 1.000000000000000000e+00 1.000000000000000000e+00 1.000000000000000000e+00 1.000000000000000000e+00 1.000000000000000000e+00 1.000000000000000000e+00 1.000000000000000000e+00 1.000000000000000000e+00 1.000000000000000000e+00 1.000000000000000000e+00 1.000000000000000000e+00 1.000000000000000000e+00 1.000000000000000000e+00 1.000000000000000000e+00 1.000000000000000000e+00 1.000000000000000000e+00 1.000000000000000000e+00 1.000000000000000000e+00 1.000000000000000000e+00 1.000000000000000000e+00 1.000000000000000000e+00 1.000000000000000000e+00 1.000000000000000000e+00 1.000000000000000000e+00 1.000000000000000000e+00 1.000000000000000000e+00 1.000000000000000000e+00 1.000000000000000000e+00 1.000000000000000000e+00 1.000000000000000000e+00 1.000000000000000000e+00 1.000000000000000000e+00 1.000000000000000000e+00 1.000000000000000000e+00 1.000000000000000000e+00 1.000000000000000000e+00 1.000000000000000000e+00 1.000000000000000000e+00 1.000000000000000000e+00 1.000000000000000000e+00 1.000000000000000000e+00 1.000000000000000000e+00 1.000000000000000000e+00 1.000000000000000000e+00 1.000000000000000000e+00 1.000000000000000000e+00 1.000000000000000000e+00 1.000000000000000000e+00 1.000000000000000000e+00 1.000000000000000000e+00 1.000000000000000000e+00 1.000000000000000000e+00 1.000000000000000000e+00 1.000000000000000000e+00 1.000000000000000000e+00 1.000000000000000000e+00 1.000000000000000000e+00 1.000000000000000000e+00 1.000000000000000000e+00 1.000000000000000000e+00 1.000000000000000000e+00 1.000000000000000000e+00 1.000000000000000000e+00 1.000000000000000000e+00 1.000000000000000000e+00 1.000000000000000000e+00 1.000000000000000000e+00 1.000000000000000000e+00 1.000000000000000000e+00 1.000000000000000000e+00 1.000000000000000000e+00 1.000000000000000000e+00 1.000000000000000000e+00 1.000000000000000000e+00 1.000000000000000000e+00 1.000000000000000000e+00 1.000000000000000000e+00 1.000000000000000000e+00 1.000000000000000000e+00 1.000000000000000000e+00 1.000000000000000000e+00 1.000000000000000000e+00 1.000000000000000000e+00 1.000000000000000000e+00 1.000000000000000000e+00 1.000000000000000000e+00 1.000000000000000000e+00 1.000000000000000000e+00 1.000000000000000000e+00 1.000000000000000000e+00 1.000000000000000000e+00 1.000000000000000000e+00 1.000000000000000000e+00 1.000000000000000000e+00 1.000000000000000000e+00 1.000000000000000000e+00 1.000000000000000000e+00 1.000000000000000000e+00 1.000000000000000000e+00 1.000000000000000000e+00 1.000000000000000000e+00 1.000000000000000000e+00 1.000000000000000000e+00 1.000000000000000000e+00 1.000000000000000000e+00 1.000000000000000000e+00 1.000000000000000000e+00 1.000000000000000000e+00 1.000000000000000000e+00 1.000000000000000000e+00 1.000000000000000000e+00 1.000000000000000000e+00 1.000000000000000000e+00 1.000000000000000000e+00 1.000000000000000000e+00 1.000000000000000000e+00 1.000000000000000000e+00 1.000000000000000000e+00 1.000000000000000000e+00 1.000000000000000000e+00 1.000000000000000000e+00 1.000000000000000000e+00 1.000000000000000000e+00 1.000000000000000000e+00 1.000000000000000000e+00 1.000000000000000000e+00 1.000000000000000000e+00 1.000000000000000000e+00 1.000000000000000000e+00 1.000000000000000000e+00 1.000000000000000000e+00 1.000000000000000000e+00 1.000000000000000000e+00 1.000000000000000000e+00 1.000000000000000000e+00 1.000000000000000000e+00 1.000000000000000000e+00 1.000000000000000000e+00 1.000000000000000000e+00 1.000000000000000000e+00 1.000000000000000000e+00 1.000000000000000000e+00 1.000000000000000000e+00 1.000000000000000000e+00 1.000000000000000000e+00 1.000000000000000000e+00 1.000000000000000000e+00 1.000000000000000000e+00 1.000000000000000000e+00 1.000000000000000000e+00 1.000000000000000000e+00 1.000000000000000000e+00 1.000000000000000000e+00 1.000000000000000000e+00 1.000000000000000000e+00 1.000000000000000000e+00 1.000000000000000000e+00 1.000000000000000000e+00 1.000000000000000000e+00 1.000000000000000000e+00 1.000000000000000000e+00 1.000000000000000000e+00 1.000000000000000000e+00 1.000000000000000000e+00 1.000000000000000000e+00 1.000000000000000000e+00 1.000000000000000000e+00 1.000000000000000000e+00 1.000000000000000000e+00 1.000000000000000000e+00 1.000000000000000000e+00 1.000000000000000000e+00 1.000000000000000000e+00 1.000000000000000000e+00 1.000000000000000000e+00 1.000000000000000000e+00 1.000000000000000000e+00 1.000000000000000000e+00 1.000000000000000000e+00 1.000000000000000000e+00 1.000000000000000000e+00 1.000000000000000000e+00 1.000000000000000000e+00 1.000000000000000000e+00 1.000000000000000000e+00 1.000000000000000000e+00 1.000000000000000000e+00 1.000000000000000000e+00 1.000000000000000000e+00 1.000000000000000000e+00 1.000000000000000000e+00 1.000000000000000000e+00 1.000000000000000000e+00 1.000000000000000000e+00 1.000000000000000000e+00 1.000000000000000000e+00 1.000000000000000000e+00 1.000000000000000000e+00 1.000000000000000000e+00 1.000000000000000000e+00 1.000000000000000000e+00 1.000000000000000000e+00 1.000000000000000000e+00 1.000000000000000000e+00 1.000000000000000000e+00 1.000000000000000000e+00 1.000000000000000000e+00 1.000000000000000000e+00 1.000000000000000000e+00 1.000000000000000000e+00 1.000000000000000000e+00 1.000000000000000000e+00 1.000000000000000000e+00 1.000000000000000000e+00 1.000000000000000000e+00 1.000000000000000000e+00 1.000000000000000000e+00 1.000000000000000000e+00 1.000000000000000000e+00 1.000000000000000000e+00 1.000000000000000000e+00 1.000000000000000000e+00 1.000000000000000000e+00 1.000000000000000000e+00 1.000000000000000000e+00 1.000000000000000000e+00 1.000000000000000000e+00 1.000000000000000000e+00 1.000000000000000000e+00 1.000000000000000000e+00 1.000000000000000000e+00 1.000000000000000000e+00 1.000000000000000000e+00 1.000000000000000000e+00 1.000000000000000000e+00 1.000000000000000000e+00 1.000000000000000000e+00 1.000000000000000000e+00 1.000000000000000000e+00 1.000000000000000000e+00 1.000000000000000000e+00 1.000000000000000000e+00 1.000000000000000000e+00 1.000000000000000000e+00 1.000000000000000000e+00 1.000000000000000000e+00 1.000000000000000000e+00 1.000000000000000000e+00 1.000000000000000000e+00 1.000000000000000000e+00 1.000000000000000000e+00 1.000000000000000000e+00 1.000000000000000000e+00 1.000000000000000000e+00 1.000000000000000000e+00 1.000000000000000000e+00 1.000000000000000000e+00 1.000000000000000000e+00 1.000000000000000000e+00 1.000000000000000000e+00 1.000000000000000000e+00 1.000000000000000000e+00 1.000000000000000000e+00 1.000000000000000000e+00 1.000000000000000000e+00
6.158661404193349620e-02 5.367594360884964111e-01 -2.976244831268665680e-01 7.817732655751408188e-01 5.191081965335241355e-01 5.615211180499289911e-01 5.627119919072200993e-01 4.208016494159142473e-01 5.671355215164082253e-01 5.182862501079835704e-01 1.088004320289416293e+00 -7.406668163267425831e-01 1.428097059802378777e+00 4.707477316634845477e-01 5.219057819489313355e-01 4.272259893460694791e-01 8.261919171442694276e-01 9.797102454233298507e-01 7.513173469591806208e-01 5.087394705983199206e-01 3.718450518584089370e-01 9.971479175950506146e-01 3.505913145737727943e-01 5.693439704059855000e-01 6.289769025125872826e-02 6.601355760518096139e-01 4.291678979106868796e-01 7.190871912577936342e-01 5.194750023079399703e-01 1.646705170097065185e+00 4.886704799172675306e-01 6.007916609027126320e-01 7.184539529800491042e-01 5.085155590562673300e-01 6.868009061864015496e-01 4.647722065232751665e-01 5.819670327983463842e-01 1.877673256570036919e+00 -9.883251779546521620e-02 5.074975479618729635e-01 -2.352666664947368202e-01 -5.622165376320217289e-01 7.452928845064659136e-01 2.322453639719996576e-01 3.346671951875841433e-01 4.956993972209928212e-01 7.814830537905823604e-01 5.508389634533086276e-01 6.864301998481403544e-01 9.474655595270491115e-03 4.014924098425114163e-02 7.439513845434911898e-01 6.843482979592387938e-01 4.151169317260502978e-01 4.682261239108964079e-01 2.449533819121512898e-02 5.750147414852770922e-01 5.063209640764906316e-01 2.026280227265123135e-01 5.410756292239496945e-01 9.315318998856667587e-01 4.460088438623393547e-01 4.965899670884579842e-01 3.505912904490822712e-01 6.739651908973748329e-01 6.697059692122281360e-01 5.120415351218887690e-01 4.615158682888518826e-01 5.427904228078724858e-01 5.245254823771016567e-02 4.796942855904016145e-01 5.916554407562234497e-01 5.290161458965516594e-01 1.836692242969605732e-02 1.532493519400405013e+00 5.228407616713077743e-01 6.396616215441350839e-01 7.121778421938395054e-01 5.191328302849328447e-01 1.390253817344633713e+00 5.379992836260804046e-01 3.693452578806324382e-01 1.461307788596810209e+00 7.729217987056168360e-01 5.252447686598947785e-01 7.497828486132359638e-01 7.957019572710334332e-01 5.098142078842861080e-01 4.287129178504056615e-01 5.768724374662562715e-01 3.380468470293307437e-01 2.251855365130076336e+00 7.923218210307525489e-01 7.137191094190145635e-02 4.851376554706942623e-01 5.292747938593745927e-01 5.564351888759759834e-01 4.863107499882194373e-01 1.905199078966780812e-01 6.590602407837584664e-01 1.655144175586889421e+00 6.867426132910584569e-01 5.027130405746219610e-01 5.426396810737635912e-01 8.518950943751956162e-01 -2.168272222929324311e+00 -1.260221089936064187e+00 5.038714653277194255e-01 6.304161905998260096e-01 9.667617679852194001e-01 5.888165640288124392e-01 4.174075824452356809e-01 1.901837855715828307e-01 5.162201962138676103e-01 5.299408708561548220e-01 5.122365664689408904e-01 4.502243296889750224e-01 4.821134691453797805e-01 1.020482021567296504e+00 5.117245790129539840e-01 1.322905120915707000e+00 5.335208378581820510e-01 6.534337277213141393e-01 -5.772597555486524978e-01 5.239055447700226020e-01 1.987605286734391852e+00 4.751063644909168660e-01 5.076599479013508276e-01 6.675571147412925344e-01 5.053055578746963317e-01 5.871856891871776174e-01 5.210130635752581174e-01 4.436175171987273291e-01 5.367715946889088929e-01 -4.078076213910096226e-01 -1.725515376942786117e-01 6.827618135698433344e-01 4.554858052026360821e-02 1.014219489152311526e+00 5.186229374158330963e-01 5.441266282405392563e-01 8.779786864821709225e-01 4.576103694857498461e-01 4.680629708225599317e-01 5.221620793124778226e-01 2.553487460695756314e-02 9.909138651630075012e-01 -2.052656535301862206e-01 4.169259714525304639e-01 -9.372404422032041271e-01 7.464276993460201570e-01 -2.805538709614752158e-01 4.956831773178343448e-01 5.077124460508980475e-01 5.730549857573573602e-01 5.201827674818906289e-01 2.067826971488759824e+00 -1.847886605018941586e-01 8.307914845216584077e-01 6.496591350440884538e-01 5.670837084993538557e-01 4.774199728187891179e-01 5.112890584258299453e-01 5.202258304844250558e-01 1.061948907154673494e+00 2.711518859412054838e-01 8.519900975882545024e-01 2.915132732841747010e-01 3.753429626887067605e-01 6.172085645534775011e-01 6.365259114192672874e-01 7.837942020584267588e-01 4.957355772628853630e-01 5.172906220134350086e-01 4.022217819488360657e-01 4.339720940480729094e-02 2.311280302460052283e-01 1.166502773457986225e-01 7.604349285111903223e-01 1.144551018420506105e+00 6.549046497723424176e-01 5.211849354443023330e-01 -1.629533153613269281e-01 4.520363587366458269e-01 4.147230987338708652e-01 5.061478862613714158e-01 5.344799712568480965e-01 5.095911314784945523e-01 2.893784556760455651e+00 4.756218041041242461e-01 5.757836370503391921e-01 -9.354411481326572186e-01 5.150986180035498352e-01 4.932410885816875257e-01 2.056419425783921895e-01 5.187939208532537094e-01 9.495189578350754500e-01 5.438291870322035093e-01 3.928810710495532210e-01 5.693531886830345279e-01 6.335710674664823960e-01 5.397425788750459530e-01 8.245271947482648578e-01 6.026407703856515585e-01 5.432039665191044087e-01 3.928810301145864714e-01 1.811548015502389419e-01 1.305588290345629732e+00 5.393286983298020143e-01 5.161157491084826798e-01 4.194837240668704559e-01 -9.931085975386243214e-02 5.034557229523152211e-01 1.538914644077582494e-01 5.134844341514216426e-01 5.224717982766249325e-01 5.214664272088894714e-01 5.265385099986523709e-01 5.271127750149069424e-01 5.187847404840250087e-01 4.449201940777843256e-01 5.473562749060677524e-01 -7.263581889737238395e-01 6.308071241587022149e-01 5.010361930919170481e-01 3.451578821149880461e-01 -1.522472906308221414e-02 1.351501047760786278e+00 9.768242068405053047e-01 4.883596158478878957e-01 -1.015158531922334961e-01 1.071419853248952503e+00 5.225253895410061356e-01 4.884746699579415319e-01 6.735946044688009282e-01 4.049264925248933222e-01 2.310865079082241036e-01 1.583867437659091937e-01 -1.692455036262784096e-01 -5.349183346049329879e-02 5.556484831542441993e-01 5.226492674867215804e-01 -1.236679732009326321e-01 4.498384717461046400e-01 5.209414997006579506e-01 5.356772056225133083e-01 -9.073002115072399676e-02 7.658267253339445801e-01 -2.407142159511510116e+00 6.151173392566487985e-01 -6.912489068902665235e-01 5.014030235587461082e-01 5.237261179064767180e-01 3.505897529631902820e-01 4.999637328984424256e-01 5.385693790821169946e-01 4.993782687870828019e-01 7.949486278438075981e-01 5.763623935436325008e-01 1.705420473144509730e+00 6.847143474946930652e-01 6.723121361630082227e-01 4.494945767379288082e-01 4.250520142848566163e-01 9.315319338484009393e-01 5.042286409433386352e-01 2.765907865829534629e+00 4.396032442635970372e-01 2.162297248135051919e-01 7.795092986723545225e-01 5.219939758043973255e-01 9.312557731756569979e-01 5.213986476947789495e-01 5.776450401203926388e-01 5.205740341789426573e-01 1.168576919253935698e+00 7.633159172146697369e-01 8.543711176540191854e-01 7.953014065254845333e-01 5.898479504124071182e-01 6.871783240871641718e-01 5.073221226557077523e-01 3.692877477281069076e-01 -7.573873366896917148e-01 3.927844754425422469e-01 4.060540953076117177e-01 5.265535341621313536e-01 4.927374379014599626e-01 5.122365581928046696e-01 6.134919507387369686e-01 5.085612237024363935e-01 -9.532081409344966838e-01 7.746344340103900050e-01 4.915097689082384425e-01 -1.675932840549608505e-02 4.521267238568629221e-01 1.863273517281173186e+00 5.076017666080905322e-01 5.200757243156880483e-01 4.169212299412976552e-01 -3.538143660039229754e+00 5.159167006119648180e-01 2.991183820415815653e+00 7.831658398569405488e-01 5.495689158257359708e-01 -5.675803611267903337e-01 5.280501167013622599e-01 5.206988854374745568e-01 4.594096669924145893e-01 4.496701324287338264e-01 3.308415690338266102e-01 6.541595036727583246e-01 3.136741316658311352e-01 5.264340204890767261e-01 5.214169961597604486e-01 3.614146308790239792e-01 5.203307678722428609e-01 7.826214522102232785e-01 5.227692780509736181e-01 1.218858969759187838e+00 5.090930177867445533e-02 2.248174025850234070e+00 2.701119318579781936e+00 4.787748447108747252e-01 -2.437843569880581429e-01 3.850777488823179384e-01 3.996695126141645571e-01 7.455384451006311641e-01 1.405142608645590929e+00 5.298461809672571077e-01 1.139538933476500926e+00 5.235231482793356594e-01 1.179344538334383963e-01 1.264075775530574486e+00 5.887359661561625268e-01 5.715457054910224599e-01 5.376719448970118664e-01 9.103253810476500396e-01 -3.891301580636238544e+00 1.669774749561523386e+00 5.362241788839026135e-01 6.343566999338769996e-01 5.320300381753548802e-01 1.877673255495833082e+00 2.930807237301152335e-01 5.680350948479202522e-01 4.655874856845605980e-01 6.383358839502226711e-01 1.367567399193474031e+00 5.104312041662422139e-01 3.928808530688144840e-01 4.498389525991220994e-01 6.026407736603383025e-01 3.909888012520521539e-01 5.702104648720098812e-01 9.055712182656862064e-01 5.226421455727960907e-01 3.811597040382189161e-01 1.334845647618115583e-01 6.506737931691364274e-01 5.218437315465718207e-01 2.642869809185882102e-01 5.680351318685490369e-01 6.101436983903923972e-01 5.199322194902609162e-01 1.054448670615744099e+00 9.197493595347598916e-01 1.167816541295961574e+00 5.260311112029756320e-01 2.108773473131175247e-01 9.315322421846856660e-01 -1.100832693537158041e-01 9.340486078994928443e-01 6.307767151568652864e-01 4.969789209740143460e-02 4.179588806636559961e-01 8.703090400215919287e-01 3.831169418476917943e-01 4.727239906380357737e-01 3.301700687241257426e-01 -3.431249747463323563e-01 -2.548759180624279974e+00 5.581198153151387675e-01 6.026407735034026159e-01 6.026407556586069747e-01 5.250907247390494970e-01 3.471796798403364859e-01 -2.449041277225067481e-01 2.748114967522680696e-01 5.228206557986988523e-01 7.102335446442518130e-01 5.188843602348769402e-01 1.014685998688270807e+00 3.928815629442644064e-01 5.205921092720330323e-01 5.019458656275773700e-01 3.010353536660561602e-01 6.634135246615169290e-01 5.165620069900499489e-01 5.260195107058399655e-01 4.869584069087325995e-01 3.275721007021821229e-01 2.412360401970439772e-02 6.026407729061451501e-01 6.638057483805238634e-01 5.228527073506956668e-01 3.883918609348867568e-01 8.603141375734566498e-01 7.713175174463047234e-01 5.649402833659876721e-01 1.942237946901824275e+00 4.831080487684439873e-01 -3.241284121250751937e+00 7.818087410652796443e-01 1.555194977994663663e+00 5.872008512184471174e-01 -1.129195765787768480e+00 8.656706076776850001e-01 4.336576884630740647e-01 5.357489403857567112e-01 5.425041507176928679e-01 -4.705040473786255562e-01 5.045148729925982289e-01 1.081019917513043493e+00 4.448565284334950465e-01 -4.233783855454308354e-01 5.111961402715639036e-01 5.353876583397452205e-01 7.965513207463010836e-01 5.281976018081565583e-01 6.177532751608802997e-01 -5.555555176683040219e-01 5.608013285667670100e-01 5.244920340267754666e-01 4.972773543163518384e-01 5.110466987082719070e-01 7.717053632373207517e-01 5.205495564245153917e-01 6.307923202830696408e-01 3.860515305565199173e-01 5.292283584600735447e-01 2.217262298749033689e-01 3.462542243737702363e-01 3.772469943481018828e-01 9.773303837649888193e-01 5.609837150603025346e-01 3.280800650008214081e+00 6.542645384899870020e-01 6.704090364895415322e-01 5.417439611559243806e-01 5.225249536689468011e-01 1.074762822479699564e-02 4.972753366567001510e-01 5.495582618425208787e-01 5.311747066280407825e-01 1.153889809726602378e+00 7.720213921946704749e-01 5.256183909775260510e-01 4.355368812328301864e-01 1.120329745585024517e+00 5.275927385622950494e-01 5.519426634334124726e-01 5.342089566719263605e-01 8.713361449644922985e-01 5.268900206173827705e-01 9.519469400917981439e-01 4.851292407670908524e-01 5.200363262743562531e-01 4.923900302901365600e-02 5.262077679040061406e-01 2.229479465069632987e-02 2.764420981931927090e-01 3.968776600290026546e-01 5.674306860986866319e-01 7.925125277811576607e-01 5.244875313188094301e-01 3.822291236027344219e-01 1.396268901605741408e-01 5.029423537962445234e-01 5.010550375316316085e-01 4.413769358767527518e-01 -3.284492390526033354e-03 5.227940301973662551e-01 2.761939070823515863e-01 5.182422609321574170e-01 4.080077512118019945e-01 1.265224154046939553e+00 7.428347124630477749e-01 5.184478849488051155e-01 2.432163370941903269e-01 8.349089036278340981e-01 4.582138513472147623e-01 1.006618392052431643e+00 5.611229270830114801e-01 6.206882975497272081e-01 7.128129039026001035e-01 2.043111001010891048e+00 5.224796179855233369e-01 5.855843833242955210e-01 5.339234574737464767e-01 7.746420315114888044e-01 6.123224044218591455e-01 8.790782031160081500e-01 -5.900553141972143534e-01 4.350097971884325787e-01 5.236600058979353767e-01 4.439512393944338164e-01 4.839500851137452098e-01 -6.471015146981391464e-01 3.839906000200657421e-01 5.158400578525014213e-01 7.178245037718565813e-01 6.708445089457150123e-01 1.581267751472181349e+00 5.217850667506730433e-01 5.237563621168147554e-01 -7.434908145466315732e-01 5.302574244436024653e-01 1.255503925014463285e+00 7.310074758156231978e-01 2.992448628652026876e-01 2.244304037853676326e-01 -1.901333715371730015e+00 5.634479037329953588e-01 1.994861393816531880e-01 1.113662306401583812e+00 8.323461582590291341e-01 5.546487611920406513e-01 5.702805673666468955e-01 5.204278380417817207e-01 7.821290511198545348e-01 4.136541797585487346e-01 5.507495840376438467e-01 9.708677729415098392e-03 6.174330453797544083e-01 4.828097702542481495e-01 3.654180560656447030e-01 5.166555023825948334e-01 4.268651202226899088e-01 1.245448379908782766e+00 -9.391412772755727834e-02 -2.502824625283293081e-01 4.100607320725137561e-01 5.007968518706644723e-01 5.248573186076190833e-01 5.346312308819280990e-01 -8.997843118549417873e-01 3.244315188785718451e+00 4.485370973509565373e-01 4.359398022761112879e-01 4.650743923293161330e-01 5.244722923175059170e-01 5.026670584201012870e-01 4.577495662439363122e-01 3.302187443320509508e-01 6.208033438455097253e-01 5.206309928617286475e-01 4.483451861466187238e-01 3.058841202981522622e-01 4.080173077129032322e-01 5.571715542661771492e-01 4.049071017539428441e-01 5.661651741318831643e-01 5.104178142446769151e-01 6.892537992770229049e-01 1.031068297190085525e+00 2.360140068586851658e+00 4.812593998731916622e-01 5.024571473042277470e-01 3.150827758969171333e-01 4.758617080442023584e-01 3.971642452644924548e-01 5.229156688291113353e-01 5.148832551277956471e-01 4.843686850087418061e-01 5.906580188675795151e-01 5.769347482984105158e-01 7.822522769212584270e-01 3.646615175768849748e-01 3.817740740109790143e-01 3.861015175590908344e-01 4.704928731783246665e-01 1.012319013848557436e-01 9.315319217955950748e-01 4.774850560719164916e-01 7.646753733782832296e-02 1.915392740423597084e+00 3.385990186486523834e-01 4.000584782467185296e-01 5.997735755857832585e-01 6.727088723012347726e-02 5.536936214975187731e-01 1.543261864994562416e+00 8.122209290886404087e-01 6.698376216327269761e-01 5.187583171042128294e-01 5.083513638309741234e-01 4.143886051167854356e-01 6.171958178241520043e-01 5.228526107919935217e-01 5.178927162212725310e-01 -2.939072725899530836e-01 4.552593272215127995e-01 -1.656808291877488015e+00 5.307677170872548977e-01 5.299373415212329519e-01 5.336784142937970321e-01 4.169095405409063426e-01 9.315319217923746509e-01 2.294657804703836013e-01 4.995758058647370436e-01 1.386271322747036017e+00 -5.943242632537616421e-01 5.183558626275770465e-01 1.166437632200715724e+00 1.581286596189646954e+00 6.004715386994173842e-01 5.181185632565322718e-01 -7.083961406800201588e-02 -1.741643229079569810e+00 2.647869321964033129e-01 8.606494443405070527e-01 5.404212546266715655e-01 5.226795659672799355e-01 6.168071969038563251e-01 4.785160533949309736e-01 -4.360499795585437433e-01 8.432550518662550454e-01 5.122373607454649980e-01 3.234560822885390041e-01 5.053641868964787731e-01 7.108076715365471351e-03 -1.615866549219046044e-01 1.851906029051370028e+00 4.094144472509229638e-01 4.849776697514735502e-01 5.204785977346468862e-01 3.175396130551085272e-01 4.681030407957559869e-01 -1.667513377788190643e-01 -1.405580605724863430e+00 5.265480437616909537e-01 4.781134221544907081e-01 5.077675069211471381e-01 5.092708146815260184e-01 5.354202794861465664e-01 5.473452282095994104e-01 5.221970770457354805e-01 5.525171628610852093e-01 1.043770963772349791e+00 7.061324739938146244e-01 5.355560551974254402e-01 6.448932647361974579e-01 5.562969864684395027e-01 5.826681910167375023e-01 6.364966505507378691e-02 5.680350746384804639e-01 4.265824926377056459e-01 5.828367671209427892e-01 7.436010148289052824e-01 8.065036847941227105e-01 8.790915810059326541e-01 -5.635029530115907015e-01 5.342176071343662791e-01 4.973227499146059549e-01 5.280814788367167445e-01 5.982697470489009017e-01 9.175081240519474823e-01 4.619414819427807850e-01 5.205313859589028036e-01 -3.269799861191468593e-01 -9.158930926321476873e-01 2.367401781161603935e+00 5.232131239403631229e-01 9.095964623016302708e-01 4.227582410217829434e-01 5.816285821302266124e-01 4.093829800046849821e-01 1.535030058929623686e-01 5.205908521959741186e-01 5.044620663698747842e-01 4.246626555776959050e-03 5.221777628166450747e-01 4.668431480973252445e-01 5.207283403107588748e-01 4.400134131645930258e-01 5.272281094013759883e-01 6.479463460462955293e-01 4.370277243073737994e-01 5.396355153490464129e-01 5.509405895528012298e-01 5.140318447340989083e-01 4.181959556185314564e-01 5.280732560353907923e-01 -2.389214539298734064e-01 5.198158617682192562e-01 6.410337700361188329e-01 5.374181540065876561e-01 7.814998852523722395e-01 9.315318981691982358e-01 7.230558017658609282e-01 -6.253739293975189018e-01 9.750640003045121240e-01 1.877673256563005877e+00 5.157478248465312554e-01 4.637252688018477231e-01 1.093321093810112776e+00 5.525421080075937352e-01 7.812776271421647545e-01 5.192274912088328254e-01 1.907091100192116917e+00 5.179963637788490560e-01 4.498381567960003102e-01 1.237959275205533727e+00 -6.989214954570632798e-02 5.070152738316067165e-01 -1.500314064460871455e-01 -1.001308052139136207e+00 -1.618296308633016267e-01 7.780551030958701153e-01 5.551361208027973948e-01 5.332857422715540086e-01 -3.142575997504647445e-01 5.398952987525664771e-01 4.353673698200963282e-02 -4.274751214785028619e-01 5.537452603481816116e-01 5.204637626118473470e-01 5.224098896374114176e-01 4.979134413546343896e-01 4.697208920685072564e-01 9.230249586014149799e-01 -4.589434373679854295e-01 5.194366905347044261e-01 5.012777648587762869e-01 5.596836556921395145e-01 1.180850887339820465e+00 4.757824752344925745e-01 7.062054590304660540e-01 5.193734378685255226e-01 4.860706135721715171e-02 -4.698537576104516722e-01 5.222388790054152130e-01 4.931952918628823568e-01 6.872403688635306818e-01 5.251963377390121979e-01 3.892141198213467379e-01 5.185322612793082930e-01 5.234205247914933690e-01 4.310992509891847790e-01 5.447153402505877651e-01 8.419992533462031803e-01 2.616505238965398661e+00 -2.543651340098132541e-01 6.535387843267023156e-01 3.602870328242258058e-01 1.967279019475416946e-01 6.450254921209416237e-01 -5.347523431742946809e-02 -1.618911123037607425e+00 5.074783022225256568e-01 2.679690430567284398e+00 5.907554321694945543e-01 1.757573721577813941e-01 1.493457569875327740e-01 5.122365673496706018e-01 5.951779943644939230e-01 1.597696497275530092e+00 5.286463483000025665e-01 1.257852848845003590e-01 4.081762262228925131e-01 1.760529199385101773e+00 5.858699555949747895e-01 8.065110547912784922e-01 5.120071858523856934e-01 7.375844342419248800e-01 4.684903465612130224e-01 5.860128125003952748e-01 3.010775092554993787e-02 5.271403435853495578e-01 6.003866319735500223e-01 -5.903738992846089273e-01 -1.187622354199020652e-01 1.186276199770378348e+00 2.416612730209579951e-01 4.771999270182485930e-01 7.287850591797917499e-01 5.059799732545224860e-01 2.032476983950485039e+00 6.482268250384863872e-01 1.276579549847393739e-02 4.011155081896723429e-01 4.016977874955485195e-01 1.154317201571608553e+00 5.038800306507051907e-01 -2.063756222270127921e-02 5.291057776937359014e-01 -3.187932015578593629e-03 4.982657131652895588e-01 5.156731021094289602e-01 1.964095469069727234e-02 -1.263347178456925013e-02 6.573333595153002529e-01 4.713732291253827089e-01 5.874494882858377620e-01 1.674186837988161647e-01 3.989906875142966713e-01 5.341260738244162365e-01 4.348745672612525093e-01 4.901796981555202604e-01 4.802985200107469099e-01 5.691576858789699767e-01 1.023070051931399327e+00 3.204929327127366889e+00 9.750130969793516789e-01 5.263415726695417352e-01 5.301043237229401406e-01 2.203330231097775094e-01 5.238702527419940580e-01 8.643943764181477585e-01 5.142233745601908490e-01 1.317307207388455526e+00 5.374157109527144538e-01 -6.002530336917573095e-01 -2.135370451783103959e-02 4.392206912460087653e-01 6.169223973464400546e-01 5.826525748772345414e-01 5.179236824011096418e-01 5.696887725647590411e-02 5.092785017642512679e-01 5.796561047599536609e-01 -3.901693182253779923e+00 4.780332865106119433e-01 5.376992230625357028e-01 1.144972601206686091e+00 5.169986693960942903e-01 3.928833186105872843e-01 6.633756924274771816e-01 -9.251919900735713354e-01 -4.967511284985967612e-01 1.855742594761267128e-02 5.234488895973702371e-01 6.323651680237176720e-01 2.083761608813745891e-01 5.089851222361404526e-01 -3.499714331395569200e-01 5.317459661089881662e-01 5.711078064313269698e-01 6.973583787018098334e-01 5.586112072619165980e-01 4.653573207569023928e-01 1.405855656300205037e-01 -7.971742084411005402e-01 6.539025525731593236e-01 5.597722268022093939e-01 1.524841593319286037e-01 5.206018595114548786e-01 5.019845190742590058e-01 5.188982202188093806e-01 6.624364461792288106e-01 5.838943994115083358e-01 5.528614339081846518e-01 5.055686845142424168e-01 1.877673263072754173e+00 3.459604315277899356e-01 5.249683411332880523e-01 -1.437336109179210009e-01 5.066128043355681010e-01 6.473604616038169945e-01 5.289410279300191808e-01 4.794458600963655837e-01 3.815499506226243676e-01 9.654514740112666304e-01 1.235271632061718972e+00 5.528904923271480421e-01 5.783529942734285667e-01 5.972492508023017344e-01 5.056285929388365519e-01 5.102888723376157731e-01 5.216345035645898465e-01 9.750623012692816172e-01 6.683156475680239739e-01 -4.687645086879468903e-01 4.697967513557206320e-01 8.976196383216311636e-01 5.122246443192245424e-01 -4.484108334993869988e-02 5.250140473097825167e-01 1.561687081059144777e+00 -1.377116572390085503e-01 6.728431145261273283e-01 2.314306828028108443e-01 4.823694688365780525e-01 8.821690300547855301e-01 5.211387846244174282e-01 3.756938624868930154e-01 1.416397723084603211e+00 4.708628046313619864e-01 5.126875404984266860e-01 -7.289822417115846553e-01 4.382025702005939438e-01 1.038368404059364591e+00 6.315952336123363819e-01 6.210476833077096387e-02 1.001002321043398258e+00 -8.725091702300524082e-03 7.585165144032102180e-01 1.672248190819432878e+00 -8.712693905123904958e-01 5.650017390322976674e-01 5.210123015334944263e-01 -4.899877903821650005e-01 3.010217428550151508e-01 5.468898854577431967e-01 5.268896320067018024e-01 4.659315016421720079e-01 4.532311239494863364e-01 2.625332257020744908e-01 3.518557210359758991e-01 5.670143841425280273e-01 5.247560994296321946e-01 9.779103919111185525e-03 -1.746240905353261819e-01 5.031520354119384253e-01 1.070989271715874436e+00 5.688931253792277598e-01 -5.900246637017531048e-01 4.265846359166861612e-01 5.197189798461062660e-01 5.695667279153989737e-01 4.863543660710204636e-02 3.229541327237435699e-01 5.182156787569428547e-01 5.133403845515474018e-01 4.547665440201061893e-01 -1.540753495574470611e-02 5.482847049044076160e-01 5.377099495241364213e-01 5.546415328385535526e-01 2.118652603482833019e+00 -1.942314453210660860e-02 3.908811869232310388e-01 5.659646960346422784e-01 1.866787337352204146e+00 4.856703353959084812e-01 5.706454025913516581e-01 3.177484040712730967e-02 5.680351034319589543e-01 5.223057249388263212e-01 4.781358440243496655e-01 4.105331269181120013e-01 5.372033804390345946e-01 4.490685961960667050e-01 5.319483697451483639e-01 -5.730282169360512157e-01 5.204180973305522206e-01 5.070770139015917666e-01 5.337449184188624018e-01 1.311962481200809272e+00 5.282987806940891984e-01 -2.509363401391354054e-01 1.144741634253008122e+00 -1.339639484924388224e+00 -5.531574874256514063e-01 5.212609171033727451e-01 5.205678100765512850e-01 6.705446561024794860e-01 5.280450352374097545e-01 5.424989519830278883e-01 4.989143610384081939e-01 5.680350952386151731e-01 5.216040320539895303e-01 5.430290255131869914e-01 6.082240750971920074e-01 5.240067488240881532e-01 3.281108286506078109e-01 5.276336475756256972e-01 5.378801664621487566e-01 4.169997337719346664e-01 5.191886748711976862e-01 5.189114129843861445e-01 5.082918651312584579e-01 6.528345919146595344e-01 5.228551235746520254e-01 7.302953691101488065e-01 5.229740792346970757e-01 5.316794581034938183e-01 5.356095948793788697e-01 4.368735039942437948e-01 3.439456590147643156e-01 2.501337036402315306e+00 5.375586947243017333e-01 6.377124165761479668e-01 2.968752812263262819e-01 5.763814149074820703e-01 1.124793632159824863e+00 4.186939190162065616e-01 6.853361009537046744e-01 5.210476520798413835e-01
7.175971928762275853e-01 2.906596902788930459e-01 4.577978985671421475e-01 -4.447570173723563308e-02 3.034324464847857339e-01 4.108230905405670375e-01 5.404846837230043999e-01 3.757493865990076953e-01 3.946111455061789286e-01 3.152585854359570283e-01 2.094562352424671481e+00 1.745419558938192006e+00 -1.487992960921054708e+00 5.713351854665897900e-01 3.018237419774107422e-01 4.684825588069161939e-01 1.384599985373283493e-01 4.531388426615010623e-01 3.948920705564750167e-01 3.237032283217225470e-01 3.946172058877071565e-01 2.170015946014093533e+00 3.412054590563776690e-01 3.345899192728298832e-01 7.605305991858588577e-01 -1.531219372683751412e-01 3.912241456985500188e-01 1.784055225556947233e-01 3.430112966813277375e-01 -9.487624556218536842e-01 4.629725164234214096e-01 -1.687262748547530278e-01 2.896038518861421274e-01 2.957489435782885701e-01 -4.053028871582656234e-01 5.079323832326947397e-01 3.328332482147617899e-01 -4.075180345967343576e-01 -3.338920845714599572e+00 3.106507124822565635e-01 1.218030803071480594e+00 1.480006285789292886e-01 -1.702750703020032841e-01 7.912888239596858053e-01 5.319567202755151047e-01 3.112866581447282233e-01 -4.405679506942477425e-02 3.234571493203227677e-01 1.125139543145042970e-01 6.560647721550002531e-01 6.968013588799488733e-01 5.131543498995780883e-01 -1.215987972648469445e-01 2.551840699183794969e-01 5.839426863853146576e-01 6.684330178247596121e-01 2.788439146649193678e-01 2.836257766635966737e-01 3.445062270885433375e-01 2.874306934576575379e-01 4.363218727572693023e-01 4.342241728199862649e-01 3.399761389755796004e-01 3.412054687578918166e-01 -3.390423879516151762e-01 1.115263193418206261e-01 3.127932164905184442e-01 3.035991735325663798e-01 2.753076437486141059e-01 6.936511230493124236e-01 1.862945457001001781e-01 2.546979768153864732e-01 3.065456201070472786e-01 7.155314758010868914e-01 1.959370142598291897e+00 3.809533626114027238e-01 4.807021945223474146e-01 4.832940713243082942e-01 3.035967057267218716e-01 -1.367807204487918149e+00 3.262754105584905195e-01 5.122608513159285781e-01 2.433058905222380552e+00 6.150915333248761774e-02 2.417152344982657630e-01 -3.353609704548040638e-01 1.486910648577196015e-01 3.632903009614060208e-01 -5.875690201414262015e-01 -9.224116698282029958e-01 5.320099881143508513e-01 1.628504248300851831e+00 4.730846337942968410e-02 6.824861639246041500e-01 3.735625084270358665e-01 3.565796768461969024e-01 2.837678517440324066e-01 7.963683895482959185e-01 7.359912735296302300e-01 -1.441798888069372175e-01 -1.854231618176616359e-01 5.724957746359645577e-02 3.473626125206129567e-01 2.246231219687276071e-01 -7.254546671274851588e-02 3.200763152603642858e+00 -2.991682884078428195e-01 3.961646387482122278e-01 6.582923389607978071e-02 8.129096258887796855e-01 2.922085393057505254e-01 5.422078256392819373e-01 1.619931416257203438e-01 3.259586682986818640e-01 -4.685070264807834062e-01 3.209489135457597175e-01 6.421314571500881530e-02 3.845772047538777993e-01 1.224131289766949182e+00 3.371997107396364490e-01 -1.487016247010490178e+00 1.003674407127021495e-01 5.477596594991791107e-02 1.517811106416382172e+00 3.158032458849940327e-01 2.222737030082743814e+00 4.076533424810925843e-01 2.003004347084010039e-01 3.176119330470340008e-01 3.098669901635420776e-01 3.442372618511695403e-01 3.034781662518189482e-01 6.676689367651653662e-01 4.002578003659785777e-01 1.558758534611337787e-01 8.510806008363415165e-01 7.335536247665498388e-01 6.991786948357360254e-01 -3.432200599455686452e-01 2.381498451193682087e-01 3.225333128088949119e-01 3.222797029533718272e-01 3.684025503238729238e-01 2.877440836135663482e-01 3.062666061946019980e-01 7.009944679537520873e-01 -1.934751058457370998e-01 3.195383696233302651e-01 4.099713016259838305e-01 4.054942255349985869e-01 -1.781477503282694885e-01 3.066745344600246490e-02 3.113015479156762133e-01 3.182088670552057352e-01 2.656285274652457895e-01 3.079207109680541232e-01 -2.555690525245239986e+00 4.744584940034136111e-01 -6.144435155470778787e-01 -1.452813168538312771e-01 1.256577112684853781e-01 4.151080226052317190e-01 3.135455517017951554e-01 3.046007292935744570e-01 1.346773700984045530e-01 1.331040829455170105e-01 3.217217850298889625e-01 5.015641883920769484e-01 4.843465060715331227e-01 2.599582195183566258e-01 2.515515075771729836e-01 -4.198446473863362560e-02 3.111894409950051732e-01 2.996011779336562042e-01 -2.556226162315454520e+00 6.648442727909331662e-01 5.593959018637841840e-01 9.233103221854285225e-01 -4.623621050137655675e-01 1.175909392956878907e+00 6.513935254067072800e-02 3.088400798999103025e-01 1.250849654673365619e+00 3.840712722061980777e-01 3.169588563880545440e-01 3.593755947724673883e-01 2.643910174248160216e-01 3.087625001690011972e-01 -5.103796138232288282e-01 3.584892803162955111e-01 3.612796371684970365e-01 8.298276130145446627e-01 3.506462854581667288e-01 3.716753939491423409e-01 2.554042019691653009e-01 3.049701730871234306e-01 -1.714691097508863837e+00 2.947004441725891155e-01 3.798417684059431920e-01 2.405524649430360040e-01 2.453380702613771822e-02 3.869289356968477200e-01 3.916595528595703257e-01 1.570297996006441432e-01 -7.474594675482438833e-01 3.798417998054823830e-01 5.010205107931177126e-01 -5.291008288172893703e-01 3.205172539082367100e-01 2.553370931282269440e-01 2.236511187267336276e-01 -3.337131386965862756e+00 4.052679495137503918e-01 9.063815863523725369e-01 2.876244869905660306e-01 3.020114331463104596e-01 3.047709236089781726e-01 3.363090884067149178e-01 3.076909900770966599e-01 3.073743700660021005e-01 3.846308761628757233e-01 8.128364637851452634e-02 6.754528690762791054e-01 1.111201554342371306e-01 4.182528595545798589e-01 5.404257678538006981e-01 4.161551113212133557e-01 -7.204404756249825903e-01 2.356862726785974971e+00 4.146712796988534233e-01 1.258068100115882659e+00 -1.407788273348343111e+00 3.069431670480622376e-01 2.921718700296662696e-01 3.412856937596189799e-01 1.203674769229386987e+00 5.336049512378998605e-01 8.434898629251114111e-01 2.907418079724349291e-01 6.650008361501512644e-01 2.125916146004045992e-01 2.978640378319032389e-01 -1.203217020734887566e+00 4.190067104610468718e-01 3.031860665574523384e-01 5.073535129504329610e-01 8.674298585200614919e-01 -3.907722761548701462e-01 3.258085474720939345e+00 4.985298094315001038e-01 1.325640050466968534e+00 -3.296663518631440803e-01 3.065355795107811976e-01 3.412026476036333356e-01 3.603496627801311414e-01 2.882809706386283422e-01 2.561844742094835925e-01 -1.674422891644574418e-01 8.076080110486030805e-02 5.630904190646063290e-01 2.283897036745551890e-01 1.080391861738265041e-01 2.415102652964434271e-01 5.052962894357290180e-01 4.363218556479999122e-01 2.590991641842991799e-01 3.331680568301204293e+00 3.321339206143518741e-01 6.499259374755494978e-01 5.148935423594518390e-01 2.934003498153653355e-01 4.364716457946129502e-01 3.039255907917234323e-01 2.993835143412769684e-01 3.040394517241924444e-01 -6.446553081123259643e-01 4.034536818383167023e-01 2.850496304475529930e-01 1.494203648607857204e-01 3.538254035660290397e-01 1.563906567664933744e+00 3.637561647033465961e-01 3.283494503602775172e-01 2.018993726925395471e+00 5.149169648221780804e-01 3.159523971237347961e-01 3.024373320565501011e-01 3.063211377871384311e-01 3.209484951560961918e-01 -2.082451576241623581e+00 3.466142736231787591e-01 1.621219696461691395e+00 -1.010838401564125716e-01 3.543938321937603053e-01 6.552548780787412763e-01 3.411848529551612108e-01 -7.357479882954219841e-01 3.489530268142383429e-01 3.030271754361706926e-01 4.099642178548919547e-01 -4.091414695972172000e-01 3.273317708296140660e-01 -2.403441880700737165e+00 -4.263937105909457875e-02 2.868369693580010704e-01 5.955839773711073537e-01 3.028740271992274025e-01 3.019722457702272433e-01 4.972230938234294406e-01 1.617695706817176560e-01 -7.012782119608955422e-02 -7.809141642865630173e-01 -5.519972354322959587e-03 6.879677809557583901e-01 2.926876239591162943e-01 4.951550449708883028e-01 2.957138634352182160e-01 -4.342794487553629235e-02 2.966474608256380874e-01 2.495955332969732599e+00 6.816461803729635394e-01 2.473172831898053647e-01 -1.193460556453031840e+00 2.467991779075850434e-01 4.827963291222226339e+00 4.190234158887895521e-01 -2.024639439008964759e-01 5.724921898906116802e-01 -5.737307110433084389e+00 5.378227715254223495e-01 1.592957539242069398e+00 3.068181045086494363e-01 5.211182681508597092e-01 -4.586175775786514031e-01 4.239192688865489056e-01 2.397189982159871890e-01 3.472500401575224771e-01 2.089872678790298255e-01 3.018075773025210573e+00 -3.868233637678984982e-01 3.068408523984999525e-01 -1.946770220562383580e+00 2.739829695872875726e-01 -4.075180316249394363e-01 7.622138032709266930e-01 4.863350563638968449e-01 2.597457441095727404e-01 2.858933505194463098e-01 1.259826757998286917e+00 1.619880640773405656e-01 3.798420303141557541e-01 4.190049060035296868e-01 1.570297955628373876e-01 3.905178979954931906e-01 3.839521250202710956e-01 -6.285897616451282532e-01 3.025491412875523922e-01 5.637223313814087033e-01 4.088817311219103412e-01 1.836447645052536881e-01 3.061436296957849579e-01 5.136524729053276728e-01 4.863351019794232011e-01 5.157843874552989760e-01 3.089079118099524179e-01 1.603400402680577874e-01 3.694023261289104965e-01 3.553949412870029967e+00 2.851546526860359587e-01 9.851529926671875881e-02 4.363215451987304538e-01 8.344665742780844608e-01 4.704709892626053325e-01 -1.927715922873741161e-01 6.906286919473624275e-01 3.469808591818572263e-01 1.297791844568282615e-01 4.274838970308857955e-01 6.829202068451163399e-01 5.164333094712827421e-01 8.009723550489359356e-01 8.254503973252917959e-01 2.210353289403359789e-01 1.570297997049288075e-01 1.570298272652105587e-01 2.838477908299933405e-01 2.347140093173738506e-01 1.119535513132070559e+00 3.838841900010166452e-01 3.164630317845760765e-01 2.583922169417373627e-01 3.017037079332099414e-01 7.409294883256672959e-01 3.798418239512323935e-01 3.036913124655961083e-01 4.123388638219585012e-01 1.907200132056947051e-01 -6.439310884890838693e-01 3.027315774927668568e-01 3.073236958825864007e-01 3.609883526158685352e-01 6.623327511150483016e-01 6.548376370463845353e-01 1.570298001856559045e-01 1.488235301256848053e-01 3.114564659161825899e-01 5.174399303816284990e-01 -5.968607911661749643e-01 1.706180523304454966e-01 -3.605765554394020800e+00 2.048191199041291988e+00 6.265916091744857530e-01 -4.910724335502879567e-01 -4.460320975720329095e-02 2.098402191468089040e+00 3.259384919783308021e-01 6.548973197613000563e-01 -7.106158504106507845e-02 4.080386315210229875e-01 3.894767365420450655e-01 3.268938616966292066e-01 -5.717896289843620306e-01 3.498841840036001627e-01 2.105104311015578489e+00 2.075406691744066945e-01 -4.720615907142127754e-01 2.900022693478119806e-01 3.090125813635533625e-01 -1.471390760441376289e+00 3.085789757722979809e-01 3.727576966184946716e-01 4.036574416898779383e-01 1.080490668522560149e-01 3.071559574570779660e-01 2.227216157949566122e-01 2.947853323803928949e-01 -1.615432126013912340e-01 3.167057410384808147e-01 1.110752379549850011e-01 3.006889168791289646e-01 3.053540505702481145e-01 1.206416343913482327e-02 3.666147087171453545e-01 4.847602381072360633e-01 -1.434884316438312046e+00 -6.921654035705289143e-01 -1.215597605131958081e-01 1.564171965454645985e-01 1.412605636133061338e-01 4.370568284211820420e-01 3.566345983141649412e-01 7.082887821299291842e-01 -1.442031409926146923e-01 3.341650719220731203e-01 3.024813005802511334e-01 9.658229422968603317e-02 -1.617162010540153794e-01 2.888397537806188797e-01 4.605832079378369692e-01 4.801286818587909844e-01 3.516940275825101159e-01 2.975320979333309079e-01 2.996754157768365401e-01 2.427295336355652644e-01 3.032274073171917217e-01 4.802950305200444081e-01 2.344478982920983889e-01 3.047733513422899443e-01 6.900081250177793057e-01 3.159622236568826459e-01 7.082104084146070289e-01 -3.358111107625907921e-02 5.852751846559842708e-01 3.059665038633996303e-01 -1.480443427477200480e+00 3.078203807870797948e-01 6.281322713709928118e-01 3.438612253823378206e-01 3.383310131435894319e-01 3.618349478968917454e-01 1.618252087743503320e-01 6.862207285702538462e-01 3.085256611941813443e-01 4.336981635055329187e-01 3.027912101892964447e-01 2.725311441079267816e-01 1.735296193357543093e-01 4.688376176424408071e-01 3.106007019032090977e-01 1.549161304516399607e-01 1.682283247277537377e-02 1.182638064459435312e-01 1.677832672923612600e+00 1.566560234131781082e-01 3.295251226308841264e-01 3.930708632979952877e-01 -8.740293393618512319e-01 2.909376451859175816e-01 2.206835075884533148e-01 2.505237984108465432e-01 -1.005187217413753276e-01 2.628370070327717967e-01 1.720551040961548095e+00 8.965043123404735637e-01 4.746560559393990797e-01 2.598924371063884298e-01 3.100589238439321882e-01 3.461026232801582836e-01 9.376066088731374037e-01 3.110059127987193417e+00 3.046097012247050984e-01 9.861690433355581667e-03 5.831139589945354418e-01 -2.497002747613686902e-01 3.024709221157868000e-01 3.066762381746510058e-01 1.092625079594222282e+00 2.975239494454396394e-01 -3.510228600885100247e-01 3.935477647339015173e-01 1.420708716057558774e-01 6.115581726123925366e-01 1.884556869598575934e+00 2.574290063987642596e-01 2.883841346290259566e-01 1.678209043005692402e+00 3.873860629796484489e-01 2.501953695249161669e-01 1.472595525084343937e-01 1.711394849481976399e-01 -4.432209864552379835e-02 5.261701188088302450e-01 2.467057640106964100e-01 7.092188991023029576e-01 2.837808631563679684e-01 1.978650214860811773e-01 3.348216530330852536e-01 3.337947367621635908e-01 4.469049558958079205e-01 2.653169725739253360e-01 8.736189775303979665e-01 5.199398587983992126e-01 5.177006444460456880e-01 3.421361172967261055e-01 2.415633019830547845e-01 3.075396025022800184e-01 5.945323411325068585e-01 7.821818038841116261e-01 3.737238728337201055e-01 3.343859963091582732e-01 6.140881292365402144e-01 3.081876827260623397e-01 6.881846867803237400e-01 3.510068447886814380e-01 4.855262767275224101e-01 -3.022681984799145960e-01 3.002793821912598249e-01 3.296208159206976407e-01 4.582084878508536629e-01 1.996993014684586565e-01 3.658501093343168864e-01 1.837531802235445433e+00 -8.638080908346045320e-03 3.632668755437776231e-01 -2.287772111534743524e-01 1.698356985832009780e+00 1.167066590161213613e+00 3.825400564633332084e-02 -4.368056107858129811e-01 4.505936210671013797e-01 2.633537630637175497e-01 4.772653509996316878e-01 3.039333848512167369e-01 3.010180967487848802e-01 2.392648987515881009e-01 3.311586337842432060e-01 2.577521156375582323e-01 -4.481427392703789259e-02 -2.403383622071731118e-01 3.006428278890571071e-01 2.183468125346355038e-01 2.587464721819881519e-01 8.860929583773107243e-01 4.363218625677265372e-01 3.229445230432523295e-01 8.628940141498397942e-01 4.750645775406221460e-01 5.316013730288823291e-01 4.484081770447196913e-01 7.013837644855456244e-01 1.487734335465428215e+00 4.022535906922507509e-01 2.136565046331946771e+00 -2.085280618029402774e-02 1.607535787954205153e-01 3.019413976527257626e-01 3.492371628053650978e-01 3.890120888302086022e-01 2.599588619685263557e-01 2.880082525098328072e-01 3.029641354966776667e-01 3.723355287922361367e-01 2.320092895976730296e-01 -3.654432725915496283e-01 3.171099140944467765e-01 -5.146986892839100491e-02 3.072333389064007547e-01 4.099562623650542803e-01 4.363218624687223435e-01 2.372706812833203227e-01 2.393060069624569908e-01 -1.312038712815836616e+00 1.996267685249425217e+00 3.019275168350508687e-01 -7.668341127110973598e-01 2.967450744002574359e-01 3.373487947778747720e-01 3.010261041185556263e-01 -4.888759273620954637e+00 3.604146958597493011e+00 6.369516943550619370e-01 1.387456055460064251e-02 3.279578186554423236e-01 3.007649226398580455e-01 2.503825625965782065e-01 2.673270274236800415e+00 6.334829709470509718e-01 3.192000720264212554e-01 3.209486896657049448e-01 3.155364189031629185e-01 3.410416222709455325e-01 8.531703803567273203e-01 -3.717959514984129354e-01 -1.242537164021879637e+00 -1.246394218035761225e+00 3.035132693119361180e-01 2.981606737771558269e-01 7.447737652070434144e-01 3.611108915084234594e-01 1.524212745462063312e+00 4.949608017062642196e-01 3.051303921365736693e-01 3.413050538068337914e-01 3.028485266851451141e-01 3.435588304713812491e-01 3.069042319264865815e-01 6.362122959000474642e-01 3.341035357164177100e-01 6.605982060531794264e-01 2.366189076652087941e-01 6.845154654372460901e-02 3.068036915110744500e-01 1.764188329818565937e-01 2.474968252636330912e-01 2.986615372100236976e-01 6.280243508663030383e-01 4.863350571965017743e-01 2.478428636507560567e-01 2.363476327184588499e-01 3.025197589458231140e-01 2.784787478403860650e-01 1.720567088721661975e+00 1.955477898985445551e+00 3.065133797053248843e-01 3.092669449362375200e-01 3.058248665729479954e-01 1.714787279443404366e-01 2.202077314970516675e-01 4.361500108971383405e-01 2.891535144933883306e-01 3.294955239893566090e-01 8.130905947584667892e-01 9.004207896949588674e-01 3.317619429758591476e-01 1.901778340519414190e+00 3.740335660200152512e-01 -2.869472408301615429e-01 -2.699328917139571238e-01 -3.009959582382282228e-01 3.034070393513921826e-01 3.521232693271400538e-01 7.095376694130371975e-01 2.952405672908349765e-01 4.369523302073385906e-01 2.805315657201626345e-01 3.048088586172941206e-01 2.650227682335560830e-01 -7.753320553703786644e-02 1.006073898713391035e+00 2.981553121379611482e-01 2.997057479146334469e-01 3.090129390791049868e-01 3.484073803397801927e-01 3.132621360798687471e-01 3.983730690894545790e-01 -7.473078326425433571e-02 2.220720624060661952e-01 2.818201618662581898e-01 -4.383643624568566571e-02 4.363218084302779021e-01 1.092284148597719495e+00 9.759205357335442033e-01 -7.171484591712420364e-01 -4.075180346551805499e-01 6.617943267870557422e-01 -3.397420197426614497e+00 1.587859575973116888e+00 2.973759938363042532e-01 -4.474279984211011058e-02 2.998067152833656102e-01 9.108174844121966762e-01 2.998201056673865383e-01 4.190065198068780861e-01 -4.390237850374656414e-01 8.129231376791439256e-01 3.096210732353382178e-01 8.546815590298179055e-01 2.122168157692238211e+00 -3.719425067338486546e-01 -1.492637679956680286e+00 2.638693195690530735e-01 3.028039396973435382e-01 7.452129431749666688e-01 2.833347202294367317e-01 6.967835060479191656e-01 4.690864598412025077e-01 3.492206341548091397e-01 3.095150561004057499e-01 3.103276190931865686e-01 3.287754305354761986e-01 3.137893930553015687e-01 1.444204183421268883e+00 1.679262770203004074e+00 2.961033235228998084e-01 3.467257695423561215e-01 2.746137405398766385e-01 -2.518505149654274855e-01 2.327342117839186764e-01 -6.388459828353650061e-02 3.048788986437682702e-01 7.045251663124546537e-01 -5.730606627914544005e-01 3.034707017477398794e-01 3.206530251893899286e-01 1.561542687941775420e-01 3.207244831670472140e-01 1.771889186993591547e-01 3.029041141404755222e-01 3.033290432364764699e-01 6.779078308162721223e-02 3.057842065711779966e-01 4.318051525811585911e-01 1.140015897210650220e+00 1.112917076451257703e+00 9.077242920394111847e-01 2.203036566752955561e-01 7.960928513235349113e-01 1.628623340430144228e-01 5.091161809830602181e-01 -2.201538903861314456e+00 2.964244213100830083e-01 6.646895508468081415e-01 3.000953829200007639e-01 9.430779647030310686e-01 1.385154835796908790e+00 3.209489203625548459e-01 2.376333193397532628e-01 3.764218968898856432e-01 4.252986064416019452e-01 5.471856908650959417e-01 9.762020306447857232e-01 -8.285808748216355601e-01 2.837354989781792347e-01 1.358660809221636304e-02 3.151913847572336280e-01 3.401210288354781786e-01 7.586906270638558158e-01 -2.852713590876220229e-01 4.140218442695864365e-01 2.943030902337878119e-01 3.596712059402136785e-01 8.964876638475174353e-01 4.353687591097732956e-01 -2.249499638342639940e-01 8.576537220947654250e-01 -3.242261342411058983e-02 5.570547294883565481e-01 3.460668392182006392e-01 1.301401986530470678e+00 6.039291789880026906e-01 7.077942735574431765e-01 4.311663624382133242e-01 4.805403364720634563e-01 -5.997519849144841153e-01 2.196170591765010116e-01 7.459919907944179140e-01 2.925359709975893785e-01 6.032779925351873240e-01 3.109647991725497662e-01 3.081820458625923465e-01 7.083857957283167250e-01 1.707038121939489783e-01 -2.079084027322918526e+00 2.144056056429139157e-01 2.498556917421067280e-01 9.542193276700904336e-01 3.269102788931672054e-01 3.263478737312703881e-01 3.796868633053925302e-01 3.083686029816814500e-01 4.078931636472578059e-01 1.195687145596262824e-01 -1.638392880656352801e+00 7.683967334113058767e-01 2.385033661379530323e-01 3.147391669648558765e-01 2.763949775176781087e-01 8.179907926586672540e-01 3.085398367597966263e-01 -1.602807315358320550e-01 3.559858103963668974e-01 1.127935415281308140e+00 3.195198859901546284e-01 4.168171259981047760e-01 1.035818621296094921e+00 4.321498456730413773e-01 2.870460185114163565e+00 3.171284185084177754e-01 3.279195080032685783e-01 7.160344521176026378e-01 2.913739217203989429e-01 3.301471945535203179e-01 -2.199899640608731222e+00 4.641297079011540982e-01 3.066805380160938510e-01 5.206019448514476178e-01 3.021708498725420577e-01 1.904219690530977449e-01 -1.581586083451933800e-01 2.093892124517424236e+00 -5.174250357761338570e-01 8.233420344505698596e-01 3.028761106774054412e-01 3.184310144484779337e-01 8.621035050342387152e-01 2.757531728288579176e-01 1.351917476224948622e+00 2.408104025505945489e-01 4.148690111917858747e-01 -8.884612436035732586e-01 -1.280097472832996686e-01 -6.401648223403009208e-01 -4.107196252553498184e+00 3.022004188665588398e+00 1.609396500137449254e-02 2.814465331638125178e-01 -1.679903746198857073e+00 2.991090457433951411e-01 4.644482469383117151e-01 3.195554326366911169e-01 1.918907355610948162e-01 6.437509207676392897e-01 6.057938616249657349e-01 1.114192765727233025e+00 -4.075180371919583378e-01 -2.409770412127157924e-01 2.720059941949209414e-01 -1.202274576426664909e+00 3.671898933996978753e-01 -6.630014268927076904e-01 3.099088291823354213e-01 4.370556539326745926e-01 1.295139755337401943e-01 4.627518759166509565e-01 2.606087380495594186e-01 1.629259891635378901e-03 2.748389016042874222e-01 2.798385986170853768e-01 3.677353335399792811e-01 2.956814065907251710e-01 3.060679534833893323e-01 -7.169255939376224518e-01 4.479907667884818756e-01 1.551571098541833615e+00 8.052489105963363258e-02 2.342936554610659805e-01 2.410498410835519578e-01 1.201654330388953529e+00 3.280898006716680415e-01 8.038419110864200579e-02 8.813770574705930283e-01 2.182650751446739423e-01 1.899328483786350663e+00 3.003740123445179377e-01 1.391398734923192881e+00 2.839977159300178244e-01 7.332231307568730649e-01 1.361086420288709631e+00 4.138787922174499423e-01 2.476757661593214643e-01 9.572335757823663416e-01 -1.813695900856044374e-01 -7.041733084105833429e-02 2.622958904029014660e-01 3.078515860283006500e-01 3.669902826552762787e-01 1.465818260735693435e-01 9.589223512445119169e-02 -3.930642810257309328e-01 1.292006976339852953e+00 2.990172116334808838e-01 3.039378198481215709e-01 -3.287643698146691662e+00 5.702799536108525968e-01 2.072818250553633279e-01 3.260408983048494469e-01 3.551565215031326495e-01 4.068784265009363077e-01 -1.137587417525993461e+00 6.375764892333497524e-01 2.990226080054133040e-01 2.943731496891724975e-01 1.015793077721578674e+00 4.720196907114420637e-01 3.187671803973033402e-01 -1.426056037992144088e+00 3.368860466471743642e-01 8.965885762869200137e-01 3.792076858096486980e-01 3.159723583437051286e-01 2.725617732471021237e-01 7.093279949963521291e-01 -3.846885341384789075e-02 3.009786987093847621e-01 3.176024616754577479e-01 1.064473603208394709e-01 6.659140334520958771e-01 2.412479382951988882e-01 6.785609933799970905e-01 1.954136107473177786e-01 6.953339734821445406e-01 -2.545602790701219087e-01 -1.514164078167409500e+00 2.808279366604045091e-01 -2.221290690151630706e-02 2.595203796507818406e-01 3.402240967189743559e-01 5.671997159144662876e-02 4.863351582256057459e-01 2.958098522748098258e-01 8.505635208420715687e-02 4.143433619054367467e-01 3.298244074762644029e-01 2.791439209368010710e-01 3.548905357580254272e-01 -8.742341368677684077e-01 3.046578872316224595e-01 3.365908968056700035e-01 2.797309198075317860e-01 -3.704649410918978703e-01 3.025720943468461210e-01 8.458247909104547047e-01 -6.376680019659070053e-01 1.146115565731787411e+00 6.236245164620352055e-01 3.345374059936868649e-01 3.074078074664574056e-01 -2.079422524876470835e+00 3.060157520138841458e-01 2.917555445588878027e-01 3.316230588038687199e-01 4.863350399439367866e-01 3.026843881580897344e-01 3.473953918800160579e-01 5.022732837646359111e-02 3.060473169242664548e-01 4.320850112085696804e-01 2.877778603426859871e-01 2.403876098653237314e-01 2.794400213779099085e-01 3.127105493196974950e-01 3.094574603029078275e-01 3.615102858785752549e-01 1.576995337682566278e-01 3.078523587654889426e-01 6.318389973389320069e-01 1.484668078180991779e-01 3.123369452493510723e-01 -1.541159225948710021e-01 2.088133422351367008e-01 6.644671875187257992e-01 4.615344348809990116e+00 3.196217817953885820e-01 5.825903494884979855e-02 5.747340744092687137e-01 1.730442911393191840e-01 1.579065781525747392e+00 3.183427977837236522e-01 6.273729179444241799e-01 3.101521173447040480e-01
