# 
#                 ----------------------------------------------------
#                 Data from a 3D direct N-body simulation. 
# 
#                 rows are i-particle; 
#                 coumns are :mass, tag, x ,y, z, vx, vy, vz, ax, ay, az
# 
#                 NTHU, Computational Physics 
# 
#                 ----------------------------------------------------
#                 Time = 0.0
0.000000000000000000e+00 1.000000000000000000e+00 2.000000000000000000e+00 3.000000000000000000e+00 4.000000000000000000e+00 5.000000000000000000e+00 6.000000000000000000e+00 7.000000000000000000e+00 8.000000000000000000e+00 9.000000000000000000e+00 1.000000000000000000e+01 1.100000000000000000e+01 1.200000000000000000e+01 1.300000000000000000e+01 1.400000000000000000e+01 1.500000000000000000e+01 1.600000000000000000e+01 1.700000000000000000e+01 1.800000000000000000e+01 1.900000000000000000e+01 2.000000000000000000e+01 2.100000000000000000e+01 2.200000000000000000e+01 2.300000000000000000e+01 2.400000000000000000e+01 2.500000000000000000e+01 2.600000000000000000e+01 2.700000000000000000e+01 2.800000000000000000e+01 2.900000000000000000e+01 3.000000000000000000e+01 3.100000000000000000e+01 3.200000000000000000e+01 3.300000000000000000e+01 3.400000000000000000e+01 3.500000000000000000e+01 3.600000000000000000e+01 3.700000000000000000e+01 3.800000000000000000e+01 3.900000000000000000e+01 4.000000000000000000e+01 4.100000000000000000e+01 4.200000000000000000e+01 4.300000000000000000e+01 4.400000000000000000e+01 4.500000000000000000e+01 4.600000000000000000e+01 4.700000000000000000e+01 4.800000000000000000e+01 4.900000000000000000e+01 5.000000000000000000e+01 5.100000000000000000e+01 5.200000000000000000e+01 5.300000000000000000e+01 5.400000000000000000e+01 5.500000000000000000e+01 5.600000000000000000e+01 5.700000000000000000e+01 5.800000000000000000e+01 5.900000000000000000e+01 6.000000000000000000e+01 6.100000000000000000e+01 6.200000000000000000e+01 6.300000000000000000e+01 6.400000000000000000e+01 6.500000000000000000e+01 6.600000000000000000e+01 6.700000000000000000e+01 6.800000000000000000e+01 6.900000000000000000e+01 7.000000000000000000e+01 7.100000000000000000e+01 7.200000000000000000e+01 7.300000000000000000e+01 7.400000000000000000e+01 7.500000000000000000e+01 7.600000000000000000e+01 7.700000000000000000e+01 7.800000000000000000e+01 7.900000000000000000e+01 8.000000000000000000e+01 8.100000000000000000e+01 8.200000000000000000e+01 8.300000000000000000e+01 8.400000000000000000e+01 8.500000000000000000e+01 8.600000000000000000e+01 8.700000000000000000e+01 8.800000000000000000e+01 8.900000000000000000e+01 9.000000000000000000e+01 9.100000000000000000e+01 9.200000000000000000e+01 9.300000000000000000e+01 9.400000000000000000e+01 9.500000000000000000e+01 9.600000000000000000e+01 9.700000000000000000e+01 9.800000000000000000e+01 9.900000000000000000e+01 1.000000000000000000e+02 1.010000000000000000e+02 1.020000000000000000e+02 1.030000000000000000e+02 1.040000000000000000e+02 1.050000000000000000e+02 1.060000000000000000e+02 1.070000000000000000e+02 1.080000000000000000e+02 1.090000000000000000e+02 1.100000000000000000e+02 1.110000000000000000e+02 1.120000000000000000e+02 1.130000000000000000e+02 1.140000000000000000e+02 1.150000000000000000e+02 1.160000000000000000e+02 1.170000000000000000e+02 1.180000000000000000e+02 1.190000000000000000e+02 1.200000000000000000e+02 1.210000000000000000e+02 1.220000000000000000e+02 1.230000000000000000e+02 1.240000000000000000e+02 1.250000000000000000e+02 1.260000000000000000e+02 1.270000000000000000e+02 1.280000000000000000e+02 1.290000000000000000e+02 1.300000000000000000e+02 1.310000000000000000e+02 1.320000000000000000e+02 1.330000000000000000e+02 1.340000000000000000e+02 1.350000000000000000e+02 1.360000000000000000e+02 1.370000000000000000e+02 1.380000000000000000e+02 1.390000000000000000e+02 1.400000000000000000e+02 1.410000000000000000e+02 1.420000000000000000e+02 1.430000000000000000e+02 1.440000000000000000e+02 1.450000000000000000e+02 1.460000000000000000e+02 1.470000000000000000e+02 1.480000000000000000e+02 1.490000000000000000e+02 1.500000000000000000e+02 1.510000000000000000e+02 1.520000000000000000e+02 1.530000000000000000e+02 1.540000000000000000e+02 1.550000000000000000e+02 1.560000000000000000e+02 1.570000000000000000e+02 1.580000000000000000e+02 1.590000000000000000e+02 1.600000000000000000e+02 1.610000000000000000e+02 1.620000000000000000e+02 1.630000000000000000e+02 1.640000000000000000e+02 1.650000000000000000e+02 1.660000000000000000e+02 1.670000000000000000e+02 1.680000000000000000e+02 1.690000000000000000e+02 1.700000000000000000e+02 1.710000000000000000e+02 1.720000000000000000e+02 1.730000000000000000e+02 1.740000000000000000e+02 1.750000000000000000e+02 1.760000000000000000e+02 1.770000000000000000e+02 1.780000000000000000e+02 1.790000000000000000e+02 1.800000000000000000e+02 1.810000000000000000e+02 1.820000000000000000e+02 1.830000000000000000e+02 1.840000000000000000e+02 1.850000000000000000e+02 1.860000000000000000e+02 1.870000000000000000e+02 1.880000000000000000e+02 1.890000000000000000e+02 1.900000000000000000e+02 1.910000000000000000e+02 1.920000000000000000e+02 1.930000000000000000e+02 1.940000000000000000e+02 1.950000000000000000e+02 1.960000000000000000e+02 1.970000000000000000e+02 1.980000000000000000e+02 1.990000000000000000e+02 2.000000000000000000e+02 2.010000000000000000e+02 2.020000000000000000e+02 2.030000000000000000e+02 2.040000000000000000e+02 2.050000000000000000e+02 2.060000000000000000e+02 2.070000000000000000e+02 2.080000000000000000e+02 2.090000000000000000e+02 2.100000000000000000e+02 2.110000000000000000e+02 2.120000000000000000e+02 2.130000000000000000e+02 2.140000000000000000e+02 2.150000000000000000e+02 2.160000000000000000e+02 2.170000000000000000e+02 2.180000000000000000e+02 2.190000000000000000e+02 2.200000000000000000e+02 2.210000000000000000e+02 2.220000000000000000e+02 2.230000000000000000e+02 2.240000000000000000e+02 2.250000000000000000e+02 2.260000000000000000e+02 2.270000000000000000e+02 2.280000000000000000e+02 2.290000000000000000e+02 2.300000000000000000e+02 2.310000000000000000e+02 2.320000000000000000e+02 2.330000000000000000e+02 2.340000000000000000e+02 2.350000000000000000e+02 2.360000000000000000e+02 2.370000000000000000e+02 2.380000000000000000e+02 2.390000000000000000e+02 2.400000000000000000e+02 2.410000000000000000e+02 2.420000000000000000e+02 2.430000000000000000e+02 2.440000000000000000e+02 2.450000000000000000e+02 2.460000000000000000e+02 2.470000000000000000e+02 2.480000000000000000e+02 2.490000000000000000e+02 2.500000000000000000e+02 2.510000000000000000e+02 2.520000000000000000e+02 2.530000000000000000e+02 2.540000000000000000e+02 2.550000000000000000e+02 2.560000000000000000e+02 2.570000000000000000e+02 2.580000000000000000e+02 2.590000000000000000e+02 2.600000000000000000e+02 2.610000000000000000e+02 2.620000000000000000e+02 2.630000000000000000e+02 2.640000000000000000e+02 2.650000000000000000e+02 2.660000000000000000e+02 2.670000000000000000e+02 2.680000000000000000e+02 2.690000000000000000e+02 2.700000000000000000e+02 2.710000000000000000e+02 2.720000000000000000e+02 2.730000000000000000e+02 2.740000000000000000e+02 2.750000000000000000e+02 2.760000000000000000e+02 2.770000000000000000e+02 2.780000000000000000e+02 2.790000000000000000e+02 2.800000000000000000e+02 2.810000000000000000e+02 2.820000000000000000e+02 2.830000000000000000e+02 2.840000000000000000e+02 2.850000000000000000e+02 2.860000000000000000e+02 2.870000000000000000e+02 2.880000000000000000e+02 2.890000000000000000e+02 2.900000000000000000e+02 2.910000000000000000e+02 2.920000000000000000e+02 2.930000000000000000e+02 2.940000000000000000e+02 2.950000000000000000e+02 2.960000000000000000e+02 2.970000000000000000e+02 2.980000000000000000e+02 2.990000000000000000e+02 3.000000000000000000e+02 3.010000000000000000e+02 3.020000000000000000e+02 3.030000000000000000e+02 3.040000000000000000e+02 3.050000000000000000e+02 3.060000000000000000e+02 3.070000000000000000e+02 3.080000000000000000e+02 3.090000000000000000e+02 3.100000000000000000e+02 3.110000000000000000e+02 3.120000000000000000e+02 3.130000000000000000e+02 3.140000000000000000e+02 3.150000000000000000e+02 3.160000000000000000e+02 3.170000000000000000e+02 3.180000000000000000e+02 3.190000000000000000e+02 3.200000000000000000e+02 3.210000000000000000e+02 3.220000000000000000e+02 3.230000000000000000e+02 3.240000000000000000e+02 3.250000000000000000e+02 3.260000000000000000e+02 3.270000000000000000e+02 3.280000000000000000e+02 3.290000000000000000e+02 3.300000000000000000e+02 3.310000000000000000e+02 3.320000000000000000e+02 3.330000000000000000e+02 3.340000000000000000e+02 3.350000000000000000e+02 3.360000000000000000e+02 3.370000000000000000e+02 3.380000000000000000e+02 3.390000000000000000e+02 3.400000000000000000e+02 3.410000000000000000e+02 3.420000000000000000e+02 3.430000000000000000e+02 3.440000000000000000e+02 3.450000000000000000e+02 3.460000000000000000e+02 3.470000000000000000e+02 3.480000000000000000e+02 3.490000000000000000e+02 3.500000000000000000e+02 3.510000000000000000e+02 3.520000000000000000e+02 3.530000000000000000e+02 3.540000000000000000e+02 3.550000000000000000e+02 3.560000000000000000e+02 3.570000000000000000e+02 3.580000000000000000e+02 3.590000000000000000e+02 3.600000000000000000e+02 3.610000000000000000e+02 3.620000000000000000e+02 3.630000000000000000e+02 3.640000000000000000e+02 3.650000000000000000e+02 3.660000000000000000e+02 3.670000000000000000e+02 3.680000000000000000e+02 3.690000000000000000e+02 3.700000000000000000e+02 3.710000000000000000e+02 3.720000000000000000e+02 3.730000000000000000e+02 3.740000000000000000e+02 3.750000000000000000e+02 3.760000000000000000e+02 3.770000000000000000e+02 3.780000000000000000e+02 3.790000000000000000e+02 3.800000000000000000e+02 3.810000000000000000e+02 3.820000000000000000e+02 3.830000000000000000e+02 3.840000000000000000e+02 3.850000000000000000e+02 3.860000000000000000e+02 3.870000000000000000e+02 3.880000000000000000e+02 3.890000000000000000e+02 3.900000000000000000e+02 3.910000000000000000e+02 3.920000000000000000e+02 3.930000000000000000e+02 3.940000000000000000e+02 3.950000000000000000e+02 3.960000000000000000e+02 3.970000000000000000e+02 3.980000000000000000e+02 3.990000000000000000e+02 4.000000000000000000e+02 4.010000000000000000e+02 4.020000000000000000e+02 4.030000000000000000e+02 4.040000000000000000e+02 4.050000000000000000e+02 4.060000000000000000e+02 4.070000000000000000e+02 4.080000000000000000e+02 4.090000000000000000e+02 4.100000000000000000e+02 4.110000000000000000e+02 4.120000000000000000e+02 4.130000000000000000e+02 4.140000000000000000e+02 4.150000000000000000e+02 4.160000000000000000e+02 4.170000000000000000e+02 4.180000000000000000e+02 4.190000000000000000e+02 4.200000000000000000e+02 4.210000000000000000e+02 4.220000000000000000e+02 4.230000000000000000e+02 4.240000000000000000e+02 4.250000000000000000e+02 4.260000000000000000e+02 4.270000000000000000e+02 4.280000000000000000e+02 4.290000000000000000e+02 4.300000000000000000e+02 4.310000000000000000e+02 4.320000000000000000e+02 4.330000000000000000e+02 4.340000000000000000e+02 4.350000000000000000e+02 4.360000000000000000e+02 4.370000000000000000e+02 4.380000000000000000e+02 4.390000000000000000e+02 4.400000000000000000e+02 4.410000000000000000e+02 4.420000000000000000e+02 4.430000000000000000e+02 4.440000000000000000e+02 4.450000000000000000e+02 4.460000000000000000e+02 4.470000000000000000e+02 4.480000000000000000e+02 4.490000000000000000e+02 4.500000000000000000e+02 4.510000000000000000e+02 4.520000000000000000e+02 4.530000000000000000e+02 4.540000000000000000e+02 4.550000000000000000e+02 4.560000000000000000e+02 4.570000000000000000e+02 4.580000000000000000e+02 4.590000000000000000e+02 4.600000000000000000e+02 4.610000000000000000e+02 4.620000000000000000e+02 4.630000000000000000e+02 4.640000000000000000e+02 4.650000000000000000e+02 4.660000000000000000e+02 4.670000000000000000e+02 4.680000000000000000e+02 4.690000000000000000e+02 4.700000000000000000e+02 4.710000000000000000e+02 4.720000000000000000e+02 4.730000000000000000e+02 4.740000000000000000e+02 4.750000000000000000e+02 4.760000000000000000e+02 4.770000000000000000e+02 4.780000000000000000e+02 4.790000000000000000e+02 4.800000000000000000e+02 4.810000000000000000e+02 4.820000000000000000e+02 4.830000000000000000e+02 4.840000000000000000e+02 4.850000000000000000e+02 4.860000000000000000e+02 4.870000000000000000e+02 4.880000000000000000e+02 4.890000000000000000e+02 4.900000000000000000e+02 4.910000000000000000e+02 4.920000000000000000e+02 4.930000000000000000e+02 4.940000000000000000e+02 4.950000000000000000e+02 4.960000000000000000e+02 4.970000000000000000e+02 4.980000000000000000e+02 4.990000000000000000e+02 5.000000000000000000e+02 5.010000000000000000e+02 5.020000000000000000e+02 5.030000000000000000e+02 5.040000000000000000e+02 5.050000000000000000e+02 5.060000000000000000e+02 5.070000000000000000e+02 5.080000000000000000e+02 5.090000000000000000e+02 5.100000000000000000e+02 5.110000000000000000e+02 5.120000000000000000e+02 5.130000000000000000e+02 5.140000000000000000e+02 5.150000000000000000e+02 5.160000000000000000e+02 5.170000000000000000e+02 5.180000000000000000e+02 5.190000000000000000e+02 5.200000000000000000e+02 5.210000000000000000e+02 5.220000000000000000e+02 5.230000000000000000e+02 5.240000000000000000e+02 5.250000000000000000e+02 5.260000000000000000e+02 5.270000000000000000e+02 5.280000000000000000e+02 5.290000000000000000e+02 5.300000000000000000e+02 5.310000000000000000e+02 5.320000000000000000e+02 5.330000000000000000e+02 5.340000000000000000e+02 5.350000000000000000e+02 5.360000000000000000e+02 5.370000000000000000e+02 5.380000000000000000e+02 5.390000000000000000e+02 5.400000000000000000e+02 5.410000000000000000e+02 5.420000000000000000e+02 5.430000000000000000e+02 5.440000000000000000e+02 5.450000000000000000e+02 5.460000000000000000e+02 5.470000000000000000e+02 5.480000000000000000e+02 5.490000000000000000e+02 5.500000000000000000e+02 5.510000000000000000e+02 5.520000000000000000e+02 5.530000000000000000e+02 5.540000000000000000e+02 5.550000000000000000e+02 5.560000000000000000e+02 5.570000000000000000e+02 5.580000000000000000e+02 5.590000000000000000e+02 5.600000000000000000e+02 5.610000000000000000e+02 5.620000000000000000e+02 5.630000000000000000e+02 5.640000000000000000e+02 5.650000000000000000e+02 5.660000000000000000e+02 5.670000000000000000e+02 5.680000000000000000e+02 5.690000000000000000e+02 5.700000000000000000e+02 5.710000000000000000e+02 5.720000000000000000e+02 5.730000000000000000e+02 5.740000000000000000e+02 5.750000000000000000e+02 5.760000000000000000e+02 5.770000000000000000e+02 5.780000000000000000e+02 5.790000000000000000e+02 5.800000000000000000e+02 5.810000000000000000e+02 5.820000000000000000e+02 5.830000000000000000e+02 5.840000000000000000e+02 5.850000000000000000e+02 5.860000000000000000e+02 5.870000000000000000e+02 5.880000000000000000e+02 5.890000000000000000e+02 5.900000000000000000e+02 5.910000000000000000e+02 5.920000000000000000e+02 5.930000000000000000e+02 5.940000000000000000e+02 5.950000000000000000e+02 5.960000000000000000e+02 5.970000000000000000e+02 5.980000000000000000e+02 5.990000000000000000e+02 6.000000000000000000e+02 6.010000000000000000e+02 6.020000000000000000e+02 6.030000000000000000e+02 6.040000000000000000e+02 6.050000000000000000e+02 6.060000000000000000e+02 6.070000000000000000e+02 6.080000000000000000e+02 6.090000000000000000e+02 6.100000000000000000e+02 6.110000000000000000e+02 6.120000000000000000e+02 6.130000000000000000e+02 6.140000000000000000e+02 6.150000000000000000e+02 6.160000000000000000e+02 6.170000000000000000e+02 6.180000000000000000e+02 6.190000000000000000e+02 6.200000000000000000e+02 6.210000000000000000e+02 6.220000000000000000e+02 6.230000000000000000e+02 6.240000000000000000e+02 6.250000000000000000e+02 6.260000000000000000e+02 6.270000000000000000e+02 6.280000000000000000e+02 6.290000000000000000e+02 6.300000000000000000e+02 6.310000000000000000e+02 6.320000000000000000e+02 6.330000000000000000e+02 6.340000000000000000e+02 6.350000000000000000e+02 6.360000000000000000e+02 6.370000000000000000e+02 6.380000000000000000e+02 6.390000000000000000e+02 6.400000000000000000e+02 6.410000000000000000e+02 6.420000000000000000e+02 6.430000000000000000e+02 6.440000000000000000e+02 6.450000000000000000e+02 6.460000000000000000e+02 6.470000000000000000e+02 6.480000000000000000e+02 6.490000000000000000e+02 6.500000000000000000e+02 6.510000000000000000e+02 6.520000000000000000e+02 6.530000000000000000e+02 6.540000000000000000e+02 6.550000000000000000e+02 6.560000000000000000e+02 6.570000000000000000e+02 6.580000000000000000e+02 6.590000000000000000e+02 6.600000000000000000e+02 6.610000000000000000e+02 6.620000000000000000e+02 6.630000000000000000e+02 6.640000000000000000e+02 6.650000000000000000e+02 6.660000000000000000e+02 6.670000000000000000e+02 6.680000000000000000e+02 6.690000000000000000e+02 6.700000000000000000e+02 6.710000000000000000e+02 6.720000000000000000e+02 6.730000000000000000e+02 6.740000000000000000e+02 6.750000000000000000e+02 6.760000000000000000e+02 6.770000000000000000e+02 6.780000000000000000e+02 6.790000000000000000e+02 6.800000000000000000e+02 6.810000000000000000e+02 6.820000000000000000e+02 6.830000000000000000e+02 6.840000000000000000e+02 6.850000000000000000e+02 6.860000000000000000e+02 6.870000000000000000e+02 6.880000000000000000e+02 6.890000000000000000e+02 6.900000000000000000e+02 6.910000000000000000e+02 6.920000000000000000e+02 6.930000000000000000e+02 6.940000000000000000e+02 6.950000000000000000e+02 6.960000000000000000e+02 6.970000000000000000e+02 6.980000000000000000e+02 6.990000000000000000e+02 7.000000000000000000e+02 7.010000000000000000e+02 7.020000000000000000e+02 7.030000000000000000e+02 7.040000000000000000e+02 7.050000000000000000e+02 7.060000000000000000e+02 7.070000000000000000e+02 7.080000000000000000e+02 7.090000000000000000e+02 7.100000000000000000e+02 7.110000000000000000e+02 7.120000000000000000e+02 7.130000000000000000e+02 7.140000000000000000e+02 7.150000000000000000e+02 7.160000000000000000e+02 7.170000000000000000e+02 7.180000000000000000e+02 7.190000000000000000e+02 7.200000000000000000e+02 7.210000000000000000e+02 7.220000000000000000e+02 7.230000000000000000e+02 7.240000000000000000e+02 7.250000000000000000e+02 7.260000000000000000e+02 7.270000000000000000e+02 7.280000000000000000e+02 7.290000000000000000e+02 7.300000000000000000e+02 7.310000000000000000e+02 7.320000000000000000e+02 7.330000000000000000e+02 7.340000000000000000e+02 7.350000000000000000e+02 7.360000000000000000e+02 7.370000000000000000e+02 7.380000000000000000e+02 7.390000000000000000e+02 7.400000000000000000e+02 7.410000000000000000e+02 7.420000000000000000e+02 7.430000000000000000e+02 7.440000000000000000e+02 7.450000000000000000e+02 7.460000000000000000e+02 7.470000000000000000e+02 7.480000000000000000e+02 7.490000000000000000e+02 7.500000000000000000e+02 7.510000000000000000e+02 7.520000000000000000e+02 7.530000000000000000e+02 7.540000000000000000e+02 7.550000000000000000e+02 7.560000000000000000e+02 7.570000000000000000e+02 7.580000000000000000e+02 7.590000000000000000e+02 7.600000000000000000e+02 7.610000000000000000e+02 7.620000000000000000e+02 7.630000000000000000e+02 7.640000000000000000e+02 7.650000000000000000e+02 7.660000000000000000e+02 7.670000000000000000e+02 7.680000000000000000e+02 7.690000000000000000e+02 7.700000000000000000e+02 7.710000000000000000e+02 7.720000000000000000e+02 7.730000000000000000e+02 7.740000000000000000e+02 7.750000000000000000e+02 7.760000000000000000e+02 7.770000000000000000e+02 7.780000000000000000e+02 7.790000000000000000e+02 7.800000000000000000e+02 7.810000000000000000e+02 7.820000000000000000e+02 7.830000000000000000e+02 7.840000000000000000e+02 7.850000000000000000e+02 7.860000000000000000e+02 7.870000000000000000e+02 7.880000000000000000e+02 7.890000000000000000e+02 7.900000000000000000e+02 7.910000000000000000e+02 7.920000000000000000e+02 7.930000000000000000e+02 7.940000000000000000e+02 7.950000000000000000e+02 7.960000000000000000e+02 7.970000000000000000e+02 7.980000000000000000e+02 7.990000000000000000e+02 8.000000000000000000e+02 8.010000000000000000e+02 8.020000000000000000e+02 8.030000000000000000e+02 8.040000000000000000e+02 8.050000000000000000e+02 8.060000000000000000e+02 8.070000000000000000e+02 8.080000000000000000e+02 8.090000000000000000e+02 8.100000000000000000e+02 8.110000000000000000e+02 8.120000000000000000e+02 8.130000000000000000e+02 8.140000000000000000e+02 8.150000000000000000e+02 8.160000000000000000e+02 8.170000000000000000e+02 8.180000000000000000e+02 8.190000000000000000e+02 8.200000000000000000e+02 8.210000000000000000e+02 8.220000000000000000e+02 8.230000000000000000e+02 8.240000000000000000e+02 8.250000000000000000e+02 8.260000000000000000e+02 8.270000000000000000e+02 8.280000000000000000e+02 8.290000000000000000e+02 8.300000000000000000e+02 8.310000000000000000e+02 8.320000000000000000e+02 8.330000000000000000e+02 8.340000000000000000e+02 8.350000000000000000e+02 8.360000000000000000e+02 8.370000000000000000e+02 8.380000000000000000e+02 8.390000000000000000e+02 8.400000000000000000e+02 8.410000000000000000e+02 8.420000000000000000e+02 8.430000000000000000e+02 8.440000000000000000e+02 8.450000000000000000e+02 8.460000000000000000e+02 8.470000000000000000e+02 8.480000000000000000e+02 8.490000000000000000e+02 8.500000000000000000e+02 8.510000000000000000e+02 8.520000000000000000e+02 8.530000000000000000e+02 8.540000000000000000e+02 8.550000000000000000e+02 8.560000000000000000e+02 8.570000000000000000e+02 8.580000000000000000e+02 8.590000000000000000e+02 8.600000000000000000e+02 8.610000000000000000e+02 8.620000000000000000e+02 8.630000000000000000e+02 8.640000000000000000e+02 8.650000000000000000e+02 8.660000000000000000e+02 8.670000000000000000e+02 8.680000000000000000e+02 8.690000000000000000e+02 8.700000000000000000e+02 8.710000000000000000e+02 8.720000000000000000e+02 8.730000000000000000e+02 8.740000000000000000e+02 8.750000000000000000e+02 8.760000000000000000e+02 8.770000000000000000e+02 8.780000000000000000e+02 8.790000000000000000e+02 8.800000000000000000e+02 8.810000000000000000e+02 8.820000000000000000e+02 8.830000000000000000e+02 8.840000000000000000e+02 8.850000000000000000e+02 8.860000000000000000e+02 8.870000000000000000e+02 8.880000000000000000e+02 8.890000000000000000e+02 8.900000000000000000e+02 8.910000000000000000e+02 8.920000000000000000e+02 8.930000000000000000e+02 8.940000000000000000e+02 8.950000000000000000e+02 8.960000000000000000e+02 8.970000000000000000e+02 8.980000000000000000e+02 8.990000000000000000e+02 9.000000000000000000e+02 9.010000000000000000e+02 9.020000000000000000e+02 9.030000000000000000e+02 9.040000000000000000e+02 9.050000000000000000e+02 9.060000000000000000e+02 9.070000000000000000e+02 9.080000000000000000e+02 9.090000000000000000e+02 9.100000000000000000e+02 9.110000000000000000e+02 9.120000000000000000e+02 9.130000000000000000e+02 9.140000000000000000e+02 9.150000000000000000e+02 9.160000000000000000e+02 9.170000000000000000e+02 9.180000000000000000e+02 9.190000000000000000e+02 9.200000000000000000e+02 9.210000000000000000e+02 9.220000000000000000e+02 9.230000000000000000e+02 9.240000000000000000e+02 9.250000000000000000e+02 9.260000000000000000e+02 9.270000000000000000e+02 9.280000000000000000e+02 9.290000000000000000e+02 9.300000000000000000e+02 9.310000000000000000e+02 9.320000000000000000e+02 9.330000000000000000e+02 9.340000000000000000e+02 9.350000000000000000e+02 9.360000000000000000e+02 9.370000000000000000e+02 9.380000000000000000e+02 9.390000000000000000e+02 9.400000000000000000e+02 9.410000000000000000e+02 9.420000000000000000e+02 9.430000000000000000e+02 9.440000000000000000e+02 9.450000000000000000e+02 9.460000000000000000e+02 9.470000000000000000e+02 9.480000000000000000e+02 9.490000000000000000e+02 9.500000000000000000e+02 9.510000000000000000e+02 9.520000000000000000e+02 9.530000000000000000e+02 9.540000000000000000e+02 9.550000000000000000e+02 9.560000000000000000e+02 9.570000000000000000e+02 9.580000000000000000e+02 9.590000000000000000e+02 9.600000000000000000e+02 9.610000000000000000e+02 9.620000000000000000e+02 9.630000000000000000e+02 9.640000000000000000e+02 9.650000000000000000e+02 9.660000000000000000e+02 9.670000000000000000e+02 9.680000000000000000e+02 9.690000000000000000e+02 9.700000000000000000e+02 9.710000000000000000e+02 9.720000000000000000e+02 9.730000000000000000e+02 9.740000000000000000e+02 9.750000000000000000e+02 9.760000000000000000e+02 9.770000000000000000e+02 9.780000000000000000e+02 9.790000000000000000e+02 9.800000000000000000e+02 9.810000000000000000e+02 9.820000000000000000e+02 9.830000000000000000e+02 9.840000000000000000e+02 9.850000000000000000e+02 9.860000000000000000e+02 9.870000000000000000e+02 9.880000000000000000e+02 9.890000000000000000e+02 9.900000000000000000e+02 9.910000000000000000e+02 9.920000000000000000e+02 9.930000000000000000e+02 9.940000000000000000e+02 9.950000000000000000e+02 9.960000000000000000e+02 9.970000000000000000e+02 9.980000000000000000e+02 9.990000000000000000e+02
1.000000000000000000e+00 1.000000000000000000e+00 1.000000000000000000e+00 1.000000000000000000e+00 1.000000000000000000e+00 1.000000000000000000e+00 1.000000000000000000e+00 1.000000000000000000e+00 1.000000000000000000e+00 1.000000000000000000e+00 1.000000000000000000e+00 1.000000000000000000e+00 1.000000000000000000e+00 1.000000000000000000e+00 1.000000000000000000e+00 1.000000000000000000e+00 1.000000000000000000e+00 1.000000000000000000e+00 1.000000000000000000e+00 1.000000000000000000e+00 1.000000000000000000e+00 1.000000000000000000e+00 1.000000000000000000e+00 1.000000000000000000e+00 1.000000000000000000e+00 1.000000000000000000e+00 1.000000000000000000e+00 1.000000000000000000e+00 1.000000000000000000e+00 1.000000000000000000e+00 1.000000000000000000e+00 1.000000000000000000e+00 1.000000000000000000e+00 1.000000000000000000e+00 1.000000000000000000e+00 1.000000000000000000e+00 1.000000000000000000e+00 1.000000000000000000e+00 1.000000000000000000e+00 1.000000000000000000e+00 1.000000000000000000e+00 1.000000000000000000e+00 1.000000000000000000e+00 1.000000000000000000e+00 1.000000000000000000e+00 1.000000000000000000e+00 1.000000000000000000e+00 1.000000000000000000e+00 1.000000000000000000e+00 1.000000000000000000e+00 1.000000000000000000e+00 1.000000000000000000e+00 1.000000000000000000e+00 1.000000000000000000e+00 1.000000000000000000e+00 1.000000000000000000e+00 1.000000000000000000e+00 1.000000000000000000e+00 1.000000000000000000e+00 1.000000000000000000e+00 1.000000000000000000e+00 1.000000000000000000e+00 1.000000000000000000e+00 1.000000000000000000e+00 1.000000000000000000e+00 1.000000000000000000e+00 1.000000000000000000e+00 1.000000000000000000e+00 1.000000000000000000e+00 1.000000000000000000e+00 1.000000000000000000e+00 1.000000000000000000e+00 1.000000000000000000e+00 1.000000000000000000e+00 1.000000000000000000e+00 1.000000000000000000e+00 1.000000000000000000e+00 1.000000000000000000e+00 1.000000000000000000e+00 1.000000000000000000e+00 1.000000000000000000e+00 1.000000000000000000e+00 1.000000000000000000e+00 1.000000000000000000e+00 1.000000000000000000e+00 1.000000000000000000e+00 1.000000000000000000e+00 1.000000000000000000e+00 1.000000000000000000e+00 1.000000000000000000e+00 1.000000000000000000e+00 1.000000000000000000e+00 1.000000000000000000e+00 1.000000000000000000e+00 1.000000000000000000e+00 1.000000000000000000e+00 1.000000000000000000e+00 1.000000000000000000e+00 1.000000000000000000e+00 1.000000000000000000e+00 1.000000000000000000e+00 1.000000000000000000e+00 1.000000000000000000e+00 1.000000000000000000e+00 1.000000000000000000e+00 1.000000000000000000e+00 1.000000000000000000e+00 1.000000000000000000e+00 1.000000000000000000e+00 1.000000000000000000e+00 1.000000000000000000e+00 1.000000000000000000e+00 1.000000000000000000e+00 1.000000000000000000e+00 1.000000000000000000e+00 1.000000000000000000e+00 1.000000000000000000e+00 1.000000000000000000e+00 1.000000000000000000e+00 1.000000000000000000e+00 1.000000000000000000e+00 1.000000000000000000e+00 1.000000000000000000e+00 1.000000000000000000e+00 1.000000000000000000e+00 1.000000000000000000e+00 1.000000000000000000e+00 1.000000000000000000e+00 1.000000000000000000e+00 1.000000000000000000e+00 1.000000000000000000e+00 1.000000000000000000e+00 1.000000000000000000e+00 1.000000000000000000e+00 1.000000000000000000e+00 1.000000000000000000e+00 1.000000000000000000e+00 1.000000000000000000e+00 1.000000000000000000e+00 1.000000000000000000e+00 1.000000000000000000e+00 1.000000000000000000e+00 1.000000000000000000e+00 1.000000000000000000e+00 1.000000000000000000e+00 1.000000000000000000e+00 1.000000000000000000e+00 1.000000000000000000e+00 1.000000000000000000e+00 1.000000000000000000e+00 1.000000000000000000e+00 1.000000000000000000e+00 1.000000000000000000e+00 1.000000000000000000e+00 1.000000000000000000e+00 1.000000000000000000e+00 1.000000000000000000e+00 1.000000000000000000e+00 1.000000000000000000e+00 1.000000000000000000e+00 1.000000000000000000e+00 1.000000000000000000e+00 1.000000000000000000e+00 1.000000000000000000e+00 1.000000000000000000e+00 1.000000000000000000e+00 1.000000000000000000e+00 1.000000000000000000e+00 1.000000000000000000e+00 1.000000000000000000e+00 1.000000000000000000e+00 1.000000000000000000e+00 1.000000000000000000e+00 1.000000000000000000e+00 1.000000000000000000e+00 1.000000000000000000e+00 1.000000000000000000e+00 1.000000000000000000e+00 1.000000000000000000e+00 1.000000000000000000e+00 1.000000000000000000e+00 1.000000000000000000e+00 1.000000000000000000e+00 1.000000000000000000e+00 1.000000000000000000e+00 1.000000000000000000e+00 1.000000000000000000e+00 1.000000000000000000e+00 1.000000000000000000e+00 1.000000000000000000e+00 1.000000000000000000e+00 1.000000000000000000e+00 1.000000000000000000e+00 1.000000000000000000e+00 1.000000000000000000e+00 1.000000000000000000e+00 1.000000000000000000e+00 1.000000000000000000e+00 1.000000000000000000e+00 1.000000000000000000e+00 1.000000000000000000e+00 1.000000000000000000e+00 1.000000000000000000e+00 1.000000000000000000e+00 1.000000000000000000e+00 1.000000000000000000e+00 1.000000000000000000e+00 1.000000000000000000e+00 1.000000000000000000e+00 1.000000000000000000e+00 1.000000000000000000e+00 1.000000000000000000e+00 1.000000000000000000e+00 1.000000000000000000e+00 1.000000000000000000e+00 1.000000000000000000e+00 1.000000000000000000e+00 1.000000000000000000e+00 1.000000000000000000e+00 1.000000000000000000e+00 1.000000000000000000e+00 1.000000000000000000e+00 1.000000000000000000e+00 1.000000000000000000e+00 1.000000000000000000e+00 1.000000000000000000e+00 1.000000000000000000e+00 1.000000000000000000e+00 1.000000000000000000e+00 1.000000000000000000e+00 1.000000000000000000e+00 1.000000000000000000e+00 1.000000000000000000e+00 1.000000000000000000e+00 1.000000000000000000e+00 1.000000000000000000e+00 1.000000000000000000e+00 1.000000000000000000e+00 1.000000000000000000e+00 1.000000000000000000e+00 1.000000000000000000e+00 1.000000000000000000e+00 1.000000000000000000e+00 1.000000000000000000e+00 1.000000000000000000e+00 1.000000000000000000e+00 1.000000000000000000e+00 1.000000000000000000e+00 1.000000000000000000e+00 1.000000000000000000e+00 1.000000000000000000e+00 1.000000000000000000e+00 1.000000000000000000e+00 1.000000000000000000e+00 1.000000000000000000e+00 1.000000000000000000e+00 1.000000000000000000e+00 1.000000000000000000e+00 1.000000000000000000e+00 1.000000000000000000e+00 1.000000000000000000e+00 1.000000000000000000e+00 1.000000000000000000e+00 1.000000000000000000e+00 1.000000000000000000e+00 1.000000000000000000e+00 1.000000000000000000e+00 1.000000000000000000e+00 1.000000000000000000e+00 1.000000000000000000e+00 1.000000000000000000e+00 1.000000000000000000e+00 1.000000000000000000e+00 1.000000000000000000e+00 1.000000000000000000e+00 1.000000000000000000e+00 1.000000000000000000e+00 1.000000000000000000e+00 1.000000000000000000e+00 1.000000000000000000e+00 1.000000000000000000e+00 1.000000000000000000e+00 1.000000000000000000e+00 1.000000000000000000e+00 1.000000000000000000e+00 1.000000000000000000e+00 1.000000000000000000e+00 1.000000000000000000e+00 1.000000000000000000e+00 1.000000000000000000e+00 1.000000000000000000e+00 1.000000000000000000e+00 1.000000000000000000e+00 1.000000000000000000e+00 1.000000000000000000e+00 1.000000000000000000e+00 1.000000000000000000e+00 1.000000000000000000e+00 1.000000000000000000e+00 1.000000000000000000e+00 1.000000000000000000e+00 1.000000000000000000e+00 1.000000000000000000e+00 1.000000000000000000e+00 1.000000000000000000e+00 1.000000000000000000e+00 1.000000000000000000e+00 1.000000000000000000e+00 1.000000000000000000e+00 1.000000000000000000e+00 1.000000000000000000e+00 1.000000000000000000e+00 1.000000000000000000e+00 1.000000000000000000e+00 1.000000000000000000e+00 1.000000000000000000e+00 1.000000000000000000e+00 1.000000000000000000e+00 1.000000000000000000e+00 1.000000000000000000e+00 1.000000000000000000e+00 1.000000000000000000e+00 1.000000000000000000e+00 1.000000000000000000e+00 1.000000000000000000e+00 1.000000000000000000e+00 1.000000000000000000e+00 1.000000000000000000e+00 1.000000000000000000e+00 1.000000000000000000e+00 1.000000000000000000e+00 1.000000000000000000e+00 1.000000000000000000e+00 1.000000000000000000e+00 1.000000000000000000e+00 1.000000000000000000e+00 1.000000000000000000e+00 1.000000000000000000e+00 1.000000000000000000e+00 1.000000000000000000e+00 1.000000000000000000e+00 1.000000000000000000e+00 1.000000000000000000e+00 1.000000000000000000e+00 1.000000000000000000e+00 1.000000000000000000e+00 1.000000000000000000e+00 1.000000000000000000e+00 1.000000000000000000e+00 1.000000000000000000e+00 1.000000000000000000e+00 1.000000000000000000e+00 1.000000000000000000e+00 1.000000000000000000e+00 1.000000000000000000e+00 1.000000000000000000e+00 1.000000000000000000e+00 1.000000000000000000e+00 1.000000000000000000e+00 1.000000000000000000e+00 1.000000000000000000e+00 1.000000000000000000e+00 1.000000000000000000e+00 1.000000000000000000e+00 1.000000000000000000e+00 1.000000000000000000e+00 1.000000000000000000e+00 1.000000000000000000e+00 1.000000000000000000e+00 1.000000000000000000e+00 1.000000000000000000e+00 1.000000000000000000e+00 1.000000000000000000e+00 1.000000000000000000e+00 1.000000000000000000e+00 1.000000000000000000e+00 1.000000000000000000e+00 1.000000000000000000e+00 1.000000000000000000e+00 1.000000000000000000e+00 1.000000000000000000e+00 1.000000000000000000e+00 1.000000000000000000e+00 1.000000000000000000e+00 1.000000000000000000e+00 1.000000000000000000e+00 1.000000000000000000e+00 1.000000000000000000e+00 1.000000000000000000e+00 1.000000000000000000e+00 1.000000000000000000e+00 1.000000000000000000e+00 1.000000000000000000e+00 1.000000000000000000e+00 1.000000000000000000e+00 1.000000000000000000e+00 1.000000000000000000e+00 1.000000000000000000e+00 1.000000000000000000e+00 1.000000000000000000e+00 1.000000000000000000e+00 1.000000000000000000e+00 1.000000000000000000e+00 1.000000000000000000e+00 1.000000000000000000e+00 1.000000000000000000e+00 1.000000000000000000e+00 1.000000000000000000e+00 1.000000000000000000e+00 1.000000000000000000e+00 1.000000000000000000e+00 1.000000000000000000e+00 1.000000000000000000e+00 1.000000000000000000e+00 1.000000000000000000e+00 1.000000000000000000e+00 1.000000000000000000e+00 1.000000000000000000e+00 1.000000000000000000e+00 1.000000000000000000e+00 1.000000000000000000e+00 1.000000000000000000e+00 1.000000000000000000e+00 1.000000000000000000e+00 1.000000000000000000e+00 1.000000000000000000e+00 1.000000000000000000e+00 1.000000000000000000e+00 1.000000000000000000e+00 1.000000000000000000e+00 1.000000000000000000e+00 1.000000000000000000e+00 1.000000000000000000e+00 1.000000000000000000e+00 1.000000000000000000e+00 1.000000000000000000e+00 1.000000000000000000e+00 1.000000000000000000e+00 1.000000000000000000e+00 1.000000000000000000e+00 1.000000000000000000e+00 1.000000000000000000e+00 1.000000000000000000e+00 1.000000000000000000e+00 1.000000000000000000e+00 1.000000000000000000e+00 1.000000000000000000e+00 1.000000000000000000e+00 1.000000000000000000e+00 1.000000000000000000e+00 1.000000000000000000e+00 1.000000000000000000e+00 1.000000000000000000e+00 1.000000000000000000e+00 1.000000000000000000e+00 1.000000000000000000e+00 1.000000000000000000e+00 1.000000000000000000e+00 1.000000000000000000e+00 1.000000000000000000e+00 1.000000000000000000e+00 1.000000000000000000e+00 1.000000000000000000e+00 1.000000000000000000e+00 1.000000000000000000e+00 1.000000000000000000e+00 1.000000000000000000e+00 1.000000000000000000e+00 1.000000000000000000e+00 1.000000000000000000e+00 1.000000000000000000e+00 1.000000000000000000e+00 1.000000000000000000e+00 1.000000000000000000e+00 1.000000000000000000e+00 1.000000000000000000e+00 1.000000000000000000e+00 1.000000000000000000e+00 1.000000000000000000e+00 1.000000000000000000e+00 1.000000000000000000e+00 1.000000000000000000e+00 1.000000000000000000e+00 1.000000000000000000e+00 1.000000000000000000e+00 1.000000000000000000e+00 1.000000000000000000e+00 1.000000000000000000e+00 1.000000000000000000e+00 1.000000000000000000e+00 1.000000000000000000e+00 1.000000000000000000e+00 1.000000000000000000e+00 1.000000000000000000e+00 1.000000000000000000e+00 1.000000000000000000e+00 1.000000000000000000e+00 1.000000000000000000e+00 1.000000000000000000e+00 1.000000000000000000e+00 1.000000000000000000e+00 1.000000000000000000e+00 1.000000000000000000e+00 1.000000000000000000e+00 1.000000000000000000e+00 1.000000000000000000e+00 1.000000000000000000e+00 1.000000000000000000e+00 1.000000000000000000e+00 1.000000000000000000e+00 1.000000000000000000e+00 1.000000000000000000e+00 1.000000000000000000e+00 1.000000000000000000e+00 1.000000000000000000e+00 1.000000000000000000e+00 1.000000000000000000e+00 1.000000000000000000e+00 1.000000000000000000e+00 1.000000000000000000e+00 1.000000000000000000e+00 1.000000000000000000e+00 1.000000000000000000e+00 1.000000000000000000e+00 1.000000000000000000e+00 1.000000000000000000e+00 1.000000000000000000e+00 1.000000000000000000e+00 1.000000000000000000e+00 1.000000000000000000e+00 1.000000000000000000e+00 1.000000000000000000e+00 1.000000000000000000e+00 1.000000000000000000e+00 1.000000000000000000e+00 1.000000000000000000e+00 1.000000000000000000e+00 1.000000000000000000e+00 1.000000000000000000e+00 1.000000000000000000e+00 1.000000000000000000e+00 1.000000000000000000e+00 1.000000000000000000e+00 1.000000000000000000e+00 1.000000000000000000e+00 1.000000000000000000e+00 1.000000000000000000e+00 1.000000000000000000e+00 1.000000000000000000e+00 1.000000000000000000e+00 1.000000000000000000e+00 1.000000000000000000e+00 1.000000000000000000e+00 1.000000000000000000e+00 1.000000000000000000e+00 1.000000000000000000e+00 1.000000000000000000e+00 1.000000000000000000e+00 1.000000000000000000e+00 1.000000000000000000e+00 1.000000000000000000e+00 1.000000000000000000e+00 1.000000000000000000e+00 1.000000000000000000e+00 1.000000000000000000e+00 1.000000000000000000e+00 1.000000000000000000e+00 1.000000000000000000e+00 1.000000000000000000e+00 1.000000000000000000e+00 1.000000000000000000e+00 1.000000000000000000e+00 1.000000000000000000e+00 1.000000000000000000e+00 1.000000000000000000e+00 1.000000000000000000e+00 1.000000000000000000e+00 1.000000000000000000e+00 1.000000000000000000e+00 1.000000000000000000e+00 1.000000000000000000e+00 1.000000000000000000e+00 1.000000000000000000e+00 1.000000000000000000e+00 1.000000000000000000e+00 1.000000000000000000e+00 1.000000000000000000e+00 1.000000000000000000e+00 1.000000000000000000e+00 1.000000000000000000e+00 1.000000000000000000e+00 1.000000000000000000e+00 1.000000000000000000e+00 1.000000000000000000e+00 1.000000000000000000e+00 1.000000000000000000e+00 1.000000000000000000e+00 1.000000000000000000e+00 1.000000000000000000e+00 1.000000000000000000e+00 1.000000000000000000e+00 1.000000000000000000e+00 1.000000000000000000e+00 1.000000000000000000e+00 1.000000000000000000e+00 1.000000000000000000e+00 1.000000000000000000e+00 1.000000000000000000e+00 1.000000000000000000e+00 1.000000000000000000e+00 1.000000000000000000e+00 1.000000000000000000e+00 1.000000000000000000e+00 1.000000000000000000e+00 1.000000000000000000e+00 1.000000000000000000e+00 1.000000000000000000e+00 1.000000000000000000e+00 1.000000000000000000e+00 1.000000000000000000e+00 1.000000000000000000e+00 1.000000000000000000e+00 1.000000000000000000e+00 1.000000000000000000e+00 1.000000000000000000e+00 1.000000000000000000e+00 1.000000000000000000e+00 1.000000000000000000e+00 1.000000000000000000e+00 1.000000000000000000e+00 1.000000000000000000e+00 1.000000000000000000e+00 1.000000000000000000e+00 1.000000000000000000e+00 1.000000000000000000e+00 1.000000000000000000e+00 1.000000000000000000e+00 1.000000000000000000e+00 1.000000000000000000e+00 1.000000000000000000e+00 1.000000000000000000e+00 1.000000000000000000e+00 1.000000000000000000e+00 1.000000000000000000e+00 1.000000000000000000e+00 1.000000000000000000e+00 1.000000000000000000e+00 1.000000000000000000e+00 1.000000000000000000e+00 1.000000000000000000e+00 1.000000000000000000e+00 1.000000000000000000e+00 1.000000000000000000e+00 1.000000000000000000e+00 1.000000000000000000e+00 1.000000000000000000e+00 1.000000000000000000e+00 1.000000000000000000e+00 1.000000000000000000e+00 1.000000000000000000e+00 1.000000000000000000e+00 1.000000000000000000e+00 1.000000000000000000e+00 1.000000000000000000e+00 1.000000000000000000e+00 1.000000000000000000e+00 1.000000000000000000e+00 1.000000000000000000e+00 1.000000000000000000e+00 1.000000000000000000e+00 1.000000000000000000e+00 1.000000000000000000e+00 1.000000000000000000e+00 1.000000000000000000e+00 1.000000000000000000e+00 1.000000000000000000e+00 1.000000000000000000e+00 1.000000000000000000e+00 1.000000000000000000e+00 1.000000000000000000e+00 1.000000000000000000e+00 1.000000000000000000e+00 1.000000000000000000e+00 1.000000000000000000e+00 1.000000000000000000e+00 1.000000000000000000e+00 1.000000000000000000e+00 1.000000000000000000e+00 1.000000000000000000e+00 1.000000000000000000e+00 1.000000000000000000e+00 1.000000000000000000e+00 1.000000000000000000e+00 1.000000000000000000e+00 1.000000000000000000e+00 1.000000000000000000e+00 1.000000000000000000e+00 1.000000000000000000e+00 1.000000000000000000e+00 1.000000000000000000e+00 1.000000000000000000e+00 1.000000000000000000e+00 1.000000000000000000e+00 1.000000000000000000e+00 1.000000000000000000e+00 1.000000000000000000e+00 1.000000000000000000e+00 1.000000000000000000e+00 1.000000000000000000e+00 1.000000000000000000e+00 1.000000000000000000e+00 1.000000000000000000e+00 1.000000000000000000e+00 1.000000000000000000e+00 1.000000000000000000e+00 1.000000000000000000e+00 1.000000000000000000e+00 1.000000000000000000e+00 1.000000000000000000e+00 1.000000000000000000e+00 1.000000000000000000e+00 1.000000000000000000e+00 1.000000000000000000e+00 1.000000000000000000e+00 1.000000000000000000e+00 1.000000000000000000e+00 1.000000000000000000e+00 1.000000000000000000e+00 1.000000000000000000e+00 1.000000000000000000e+00 1.000000000000000000e+00 1.000000000000000000e+00 1.000000000000000000e+00 1.000000000000000000e+00 1.000000000000000000e+00 1.000000000000000000e+00 1.000000000000000000e+00 1.000000000000000000e+00 1.000000000000000000e+00 1.000000000000000000e+00 1.000000000000000000e+00 1.000000000000000000e+00 1.000000000000000000e+00 1.000000000000000000e+00 1.000000000000000000e+00 1.000000000000000000e+00 1.000000000000000000e+00 1.000000000000000000e+00 1.000000000000000000e+00 1.000000000000000000e+00 1.000000000000000000e+00 1.000000000000000000e+00 1.000000000000000000e+00 1.000000000000000000e+00 1.000000000000000000e+00 1.000000000000000000e+00 1.000000000000000000e+00 1.000000000000000000e+00 1.000000000000000000e+00 1.000000000000000000e+00 1.000000000000000000e+00 1.000000000000000000e+00 1.000000000000000000e+00 1.000000000000000000e+00 1.000000000000000000e+00 1.000000000000000000e+00 1.000000000000000000e+00 1.000000000000000000e+00 1.000000000000000000e+00 1.000000000000000000e+00 1.000000000000000000e+00 1.000000000000000000e+00 1.000000000000000000e+00 1.000000000000000000e+00 1.000000000000000000e+00 1.000000000000000000e+00 1.000000000000000000e+00 1.000000000000000000e+00 1.000000000000000000e+00 1.000000000000000000e+00 1.000000000000000000e+00 1.000000000000000000e+00 1.000000000000000000e+00 1.000000000000000000e+00 1.000000000000000000e+00 1.000000000000000000e+00 1.000000000000000000e+00 1.000000000000000000e+00 1.000000000000000000e+00 1.000000000000000000e+00 1.000000000000000000e+00 1.000000000000000000e+00 1.000000000000000000e+00 1.000000000000000000e+00 1.000000000000000000e+00 1.000000000000000000e+00 1.000000000000000000e+00 1.000000000000000000e+00 1.000000000000000000e+00 1.000000000000000000e+00 1.000000000000000000e+00 1.000000000000000000e+00 1.000000000000000000e+00 1.000000000000000000e+00 1.000000000000000000e+00 1.000000000000000000e+00 1.000000000000000000e+00 1.000000000000000000e+00 1.000000000000000000e+00 1.000000000000000000e+00 1.000000000000000000e+00 1.000000000000000000e+00 1.000000000000000000e+00 1.000000000000000000e+00 1.000000000000000000e+00 1.000000000000000000e+00 1.000000000000000000e+00 1.000000000000000000e+00 1.000000000000000000e+00 1.000000000000000000e+00 1.000000000000000000e+00 1.000000000000000000e+00 1.000000000000000000e+00 1.000000000000000000e+00 1.000000000000000000e+00 1.000000000000000000e+00 1.000000000000000000e+00 1.000000000000000000e+00 1.000000000000000000e+00 1.000000000000000000e+00 1.000000000000000000e+00 1.000000000000000000e+00 1.000000000000000000e+00 1.000000000000000000e+00 1.000000000000000000e+00 1.000000000000000000e+00 1.000000000000000000e+00 1.000000000000000000e+00 1.000000000000000000e+00 1.000000000000000000e+00 1.000000000000000000e+00 1.000000000000000000e+00 1.000000000000000000e+00 1.000000000000000000e+00 1.000000000000000000e+00 1.000000000000000000e+00 1.000000000000000000e+00 1.000000000000000000e+00 1.000000000000000000e+00 1.000000000000000000e+00 1.000000000000000000e+00 1.000000000000000000e+00 1.000000000000000000e+00 1.000000000000000000e+00 1.000000000000000000e+00 1.000000000000000000e+00 1.000000000000000000e+00 1.000000000000000000e+00 1.000000000000000000e+00 1.000000000000000000e+00 1.000000000000000000e+00 1.000000000000000000e+00 1.000000000000000000e+00 1.000000000000000000e+00 1.000000000000000000e+00 1.000000000000000000e+00 1.000000000000000000e+00 1.000000000000000000e+00 1.000000000000000000e+00 1.000000000000000000e+00 1.000000000000000000e+00 1.000000000000000000e+00 1.000000000000000000e+00 1.000000000000000000e+00 1.000000000000000000e+00 1.000000000000000000e+00 1.000000000000000000e+00 1.000000000000000000e+00 1.000000000000000000e+00 1.000000000000000000e+00 1.000000000000000000e+00 1.000000000000000000e+00 1.000000000000000000e+00 1.000000000000000000e+00 1.000000000000000000e+00 1.000000000000000000e+00 1.000000000000000000e+00 1.000000000000000000e+00 1.000000000000000000e+00 1.000000000000000000e+00 1.000000000000000000e+00 1.000000000000000000e+00 1.000000000000000000e+00 1.000000000000000000e+00 1.000000000000000000e+00 1.000000000000000000e+00 1.000000000000000000e+00 1.000000000000000000e+00 1.000000000000000000e+00 1.000000000000000000e+00 1.000000000000000000e+00 1.000000000000000000e+00 1.000000000000000000e+00 1.000000000000000000e+00 1.000000000000000000e+00 1.000000000000000000e+00 1.000000000000000000e+00 1.000000000000000000e+00 1.000000000000000000e+00 1.000000000000000000e+00 1.000000000000000000e+00 1.000000000000000000e+00 1.000000000000000000e+00 1.000000000000000000e+00 1.000000000000000000e+00 1.000000000000000000e+00 1.000000000000000000e+00 1.000000000000000000e+00 1.000000000000000000e+00 1.000000000000000000e+00 1.000000000000000000e+00 1.000000000000000000e+00 1.000000000000000000e+00 1.000000000000000000e+00 1.000000000000000000e+00 1.000000000000000000e+00 1.000000000000000000e+00 1.000000000000000000e+00 1.000000000000000000e+00 1.000000000000000000e+00 1.000000000000000000e+00 1.000000000000000000e+00 1.000000000000000000e+00 1.000000000000000000e+00 1.000000000000000000e+00 1.000000000000000000e+00 1.000000000000000000e+00 1.000000000000000000e+00 1.000000000000000000e+00 1.000000000000000000e+00 1.000000000000000000e+00 1.000000000000000000e+00 1.000000000000000000e+00 1.000000000000000000e+00 1.000000000000000000e+00 1.000000000000000000e+00 1.000000000000000000e+00 1.000000000000000000e+00 1.000000000000000000e+00 1.000000000000000000e+00 1.000000000000000000e+00 1.000000000000000000e+00 1.000000000000000000e+00 1.000000000000000000e+00 1.000000000000000000e+00 1.000000000000000000e+00 1.000000000000000000e+00 1.000000000000000000e+00 1.000000000000000000e+00 1.000000000000000000e+00 1.000000000000000000e+00 1.000000000000000000e+00 1.000000000000000000e+00 1.000000000000000000e+00 1.000000000000000000e+00 1.000000000000000000e+00 1.000000000000000000e+00 1.000000000000000000e+00 1.000000000000000000e+00 1.000000000000000000e+00 1.000000000000000000e+00 1.000000000000000000e+00 1.000000000000000000e+00 1.000000000000000000e+00 1.000000000000000000e+00 1.000000000000000000e+00 1.000000000000000000e+00 1.000000000000000000e+00 1.000000000000000000e+00 1.000000000000000000e+00 1.000000000000000000e+00 1.000000000000000000e+00 1.000000000000000000e+00 1.000000000000000000e+00 1.000000000000000000e+00 1.000000000000000000e+00 1.000000000000000000e+00 1.000000000000000000e+00 1.000000000000000000e+00 1.000000000000000000e+00 1.000000000000000000e+00 1.000000000000000000e+00 1.000000000000000000e+00 1.000000000000000000e+00 1.000000000000000000e+00 1.000000000000000000e+00 1.000000000000000000e+00 1.000000000000000000e+00 1.000000000000000000e+00 1.000000000000000000e+00
4.614570314605880019e-02 5.034655563739039996e-01 -2.637418307397737527e-01 7.654234421171286495e-01 5.195339053771279580e-01 5.181170567561435014e-01 5.924832426824788723e-01 3.392891429963114103e-01 5.536471382546214182e-01 5.234197719503087542e-01 1.083685833407617150e+00 -7.145385613838280969e-01 1.414380867677920595e+00 4.614252150823879295e-01 5.196248181728366777e-01 4.055685117230095060e-01 8.616544098811689256e-01 9.793364515960127914e-01 7.336460133443487575e-01 5.141506740484667048e-01 3.746512516581659846e-01 9.892964254514818867e-01 3.758650867153077169e-01 5.267964316899060861e-01 7.880331768494068523e-02 6.678579133397993806e-01 3.933111485204414670e-01 6.946412952629322790e-01 5.447065525114177520e-01 1.606498943556293746e+00 4.989282797597439645e-01 6.072057482943689077e-01 7.187586136222322564e-01 5.245433051016084036e-01 6.976574255194811780e-01 4.560439182764248756e-01 5.373233571094171435e-01 1.826466977016899529e+00 -8.134280127679546779e-02 5.164701708604233499e-01 -1.987449306779704439e-01 -5.620396876809831133e-01 7.476178712137860893e-01 2.288934572600814787e-01 3.054550525339330136e-01 4.943615534784338017e-01 7.653397295105741627e-01 5.150257486936897777e-01 6.512889146056790590e-01 1.173280753505998204e-02 2.721001659079817087e-02 7.901225924881607465e-01 6.799764630792225484e-01 4.275655855501456770e-01 4.611830487910923981e-01 1.913924031990379970e-02 5.348014059122976338e-01 5.159906904457921550e-01 1.958639065076028529e-01 5.071239848125922434e-01 9.216875913692109679e-01 4.875356079211650151e-01 5.158260529294067531e-01 3.758651014467029872e-01 6.780957798804001513e-01 6.238311737378920974e-01 5.094622578979155492e-01 3.632215575368395455e-01 5.659415566861105695e-01 2.638234610235681843e-02 4.407597666971743711e-01 5.909477893706384100e-01 5.235571384057966515e-01 9.210984126584102760e-03 1.517643624743027830e+00 5.437093406192353706e-01 6.368214976590486076e-01 7.243801666412190698e-01 5.176654770600127575e-01 1.386346883750567249e+00 5.404191842608104812e-01 3.370203712028097542e-01 1.427287199045094379e+00 7.452712140169976962e-01 5.071664085419852475e-01 7.536159657545747903e-01 7.996154360804139660e-01 5.452469609341084045e-01 4.194561190012708884e-01 5.763460881868043284e-01 3.025996252494499994e-01 2.208741291394568762e+00 7.699959201171248102e-01 2.298859499606509954e-02 4.815838241090930616e-01 4.841932880953973006e-01 5.642692329743433932e-01 4.809604523012018795e-01 1.898085085790275350e-01 6.582222050959213311e-01 1.627053661133602835e+00 6.890132188856246120e-01 5.435647149201101591e-01 6.455946321013272815e-01 8.580664094677741272e-01 -2.109007835366274008e+00 -1.235246400972003666e+00 5.325300987851039336e-01 6.107734378403010256e-01 9.696755815241547838e-01 5.821311799468560366e-01 4.274247179453780632e-01 1.743429318173953524e-01 4.996913026917197409e-01 5.252716057568155295e-01 4.957830101774296505e-01 4.672492387619714971e-01 5.166674014021069850e-01 9.654514185637879109e-01 5.093434847059538084e-01 1.311315502588222381e+00 5.441430957741159036e-01 6.192690487918401931e-01 -4.960293465226642828e-01 5.236676031885565408e-01 1.963443240350348340e+00 5.381787560528530356e-01 5.436684649587338880e-01 6.796753089991396379e-01 5.321277156269910158e-01 5.539162628613256700e-01 5.212482263994160370e-01 4.302909542528234876e-01 4.158346834120132396e-01 -3.391195228578051113e-01 -1.708075181333691683e-01 6.602295089556280416e-01 5.394127772712913049e-02 1.005784440496843235e+00 5.899271879866091473e-01 5.063399795784632174e-01 8.702757445327570229e-01 5.435551803684290917e-01 5.255692545181754882e-01 5.171073753899950720e-01 4.464392129541205206e-02 9.494099329000088572e-01 -9.459364302838792204e-02 4.331573011109673965e-01 -9.089053996237008715e-01 7.611363054529973748e-01 -2.895784166181651353e-01 4.943781653173212609e-01 5.593250457224498984e-01 4.743274314690337778e-01 5.201767298743166235e-01 1.996493674357463055e+00 -1.383496037477826290e-01 8.206580046415128393e-01 6.735581624490398767e-01 5.465825234227373874e-01 4.261579609337512453e-01 5.123445285236406521e-01 5.172903657380486520e-01 1.073098377534791981e+00 2.220606147676823794e-01 8.517598484225400446e-01 3.325138758219509105e-01 4.284487515127982649e-01 6.575710888837995594e-01 5.625735820910002793e-01 7.669621729670973442e-01 4.943230375508606556e-01 5.182982936141371511e-01 4.037118371328505262e-01 4.727022084705559402e-02 2.072869857547963435e-01 1.003188398953867022e-01 7.525585429972306839e-01 1.143324864857657053e+00 6.830568297870045491e-01 5.204763020488979430e-01 -1.717941246147022538e-01 4.377664792717367859e-01 5.568276180251686691e-01 5.560225685147525132e-01 5.144246382822253993e-01 5.265701398577666836e-01 2.833424598868434785e+00 5.091604719006229685e-01 5.555489052336114453e-01 -9.093286724997801107e-01 5.453382180659298584e-01 5.245025062706606400e-01 1.951868290501691527e-01 5.185666594866006340e-01 9.408956589833998851e-01 5.213791415603905577e-01 5.229627627738578921e-01 4.909199905855203827e-01 6.318474326895791027e-01 4.968846523862847087e-01 8.845960521188748205e-01 6.018076037482140705e-01 5.432158672669741284e-01 5.229628206571796945e-01 2.174466700448526024e-01 1.295416533812208559e+00 5.615331376203601677e-01 4.360559813828631670e-01 4.258105447491113416e-01 -9.085177136886551930e-02 4.906287702233942949e-01 1.560434078909984923e-01 5.275712303185993157e-01 5.229341531385700570e-01 5.191823314789182353e-01 5.189773401393992236e-01 5.158388460003564546e-01 5.186741919949666713e-01 4.375877465178251713e-01 5.749538372318097057e-01 -7.152714114499725273e-01 6.150107478591599897e-01 4.256446426939848315e-01 3.631029693940513448e-01 4.740691473008395995e-02 1.324113710428326929e+00 9.663601698122197270e-01 4.933223457302030046e-01 -1.027042429453933481e-01 1.062050037130270574e+00 5.168367725648457256e-01 4.546466469341616801e-01 6.322589494813362077e-01 4.094647797684786705e-01 2.862037311588191968e-01 1.738271897225627804e-01 -1.603529536727616167e-01 -8.122297000027701996e-02 4.469090913250344799e-01 5.228779762775003226e-01 -1.134582666337754647e-01 4.301007053241678868e-01 5.191063692125369444e-01 5.029896582811351768e-01 -9.635391026383854918e-02 7.583179237455802690e-01 -2.330872391667684340e+00 6.165317474428121391e-01 -6.376312942045621046e-01 4.985507168601479022e-01 5.186009630461083653e-01 3.758666688316659732e-01 4.789435956670003436e-01 5.651711754344035388e-01 5.390367027741626016e-01 7.751291161583681033e-01 5.635043927945556641e-01 1.697146227327865020e+00 6.817168060219693793e-01 6.854487467521297450e-01 4.626911585432810781e-01 3.761848001830220278e-01 9.216875664990614725e-01 4.414127888037326919e-01 2.712942387101396680e+00 4.727730681137086166e-01 2.260569713284309168e-01 7.507070349128017739e-01 5.046620079987397256e-01 9.222622556944458649e-01 5.187811988945381092e-01 5.754994095328201942e-01 5.184215610270243024e-01 1.127616487532388190e+00 7.694411655493855751e-01 8.594542106961970962e-01 8.054499570696472821e-01 5.476128325358728954e-01 6.823485467153265205e-01 5.133262942445953048e-01 3.786341186456293473e-01 -7.355626667594055146e-01 3.884940114030454583e-01 5.167685624726598981e-01 5.626692655950142896e-01 5.440196382380338980e-01 4.957830288582943390e-01 6.096210073104668670e-01 5.455957332897779510e-01 -8.839636879967177618e-01 7.444258626769534315e-01 5.389880937131241723e-01 -3.551768334414538882e-03 5.052239426879209239e-01 1.855410149904080708e+00 5.064916327267797724e-01 5.205853474581183526e-01 4.331613972035557314e-01 -3.462831312695503261e+00 5.174122737333647359e-01 2.883103604144319654e+00 7.662580731042293314e-01 4.988735690399007106e-01 -5.736165111040217868e-01 5.157543811313631821e-01 5.180874683849573392e-01 4.463401316140901409e-01 4.501244718080168461e-01 3.486572736702822639e-01 6.470837866722193299e-01 3.140657255721683305e-01 5.228347050090756953e-01 5.218881605629388520e-01 3.511793773317889999e-01 5.084159006803545822e-01 7.657972768245545625e-01 5.171454430493245269e-01 1.207020971178529578e+00 2.258691907542841396e-02 2.230526914272356720e+00 2.662889235022546153e+00 4.974906958203167417e-01 -2.255231901503919889e-01 3.966221967486338040e-01 4.004009377577406603e-01 7.371853248923946333e-01 1.387880074553506926e+00 5.332764109800741670e-01 1.131436146974017731e+00 5.181290842145136466e-01 1.209904164926214054e-01 1.257900638409969796e+00 5.071852604050077762e-01 5.525377987319100015e-01 5.146784550650169709e-01 9.044305443728696270e-01 -3.785018161764341915e+00 1.647255865877478298e+00 5.119456722444654106e-01 6.363852791983042323e-01 5.181640256030759506e-01 1.826466974410938082e+00 2.995885035699370480e-01 5.585451270468297924e-01 5.061730252954667053e-01 5.375234390284572283e-01 1.374044850074429336e+00 5.527395053869016417e-01 5.229630376222753618e-01 4.300991459932332894e-01 6.018076003491534820e-01 4.891165581993482392e-01 5.698571534906919922e-01 9.005097265472713497e-01 5.193885203770304271e-01 3.827737195183653629e-01 1.628118661365161313e-01 6.612525803230834276e-01 5.185177282550598177e-01 3.253373313247555632e-01 5.585451189358401347e-01 6.436918561991665788e-01 5.239083278339026206e-01 1.035094454642810025e+00 9.552121282658798673e-01 1.149033090915802413e+00 5.236290436773853862e-01 2.191837052844178568e-01 9.216869637127306225e-01 -1.095931489083950550e-01 9.336278990982839199e-01 6.300276019570015817e-01 2.330487077685011385e-02 5.288705323553761772e-01 9.255251891454792101e-01 3.858429639726698168e-01 4.947419969768586667e-01 2.982040939404482782e-01 -3.379897949397336343e-01 -2.497407614329846037e+00 5.054392854597526963e-01 6.018075994473018886e-01 6.018075715330111208e-01 5.018916639239465738e-01 3.808159248777120420e-01 -2.297124272584608884e-01 2.945426462636177578e-01 5.216391514660813078e-01 7.078347809035576699e-01 5.189931577939923546e-01 1.034263830570131715e+00 5.229623935862556250e-01 5.185256742314103828e-01 4.899066515493667451e-01 2.806545624251868265e-01 6.590494040441720047e-01 5.074491676980499300e-01 5.215468887927350305e-01 5.157515592535827365e-01 3.019839448348857758e-01 1.621076184901026201e-02 6.018075996410504613e-01 6.624177904739503298e-01 5.187115953479922714e-01 3.981650623131895439e-01 8.596523128099543554e-01 7.446042763452817015e-01 5.641911985644367800e-01 1.890266091349342981e+00 4.991282235828898295e-01 -3.136950422942930139e+00 7.656970833754717098e-01 1.534753327182848182e+00 5.856168772219835228e-01 -1.093404192538793840e+00 8.110568336259502686e-01 4.408622018570735879e-01 5.286938589180144588e-01 5.035442343139934218e-01 -3.928103988657339896e-01 5.127811674814408693e-01 1.074293877766082650e+00 4.715335190669947552e-01 -3.836439169217827905e-01 5.130816960483794986e-01 5.169712159704009657e-01 7.899351739022676400e-01 4.885090750281729788e-01 5.860857180884594397e-01 -5.362658601966511229e-01 5.610720459434032081e-01 5.195932234926218252e-01 5.992777569680933780e-01 5.078146514192842798e-01 7.690143596525318426e-01 5.187408105906363698e-01 6.150694401123858457e-01 5.303940810929971272e-01 5.069214262057961662e-01 2.613887186185575029e-01 3.134663962712187502e-01 3.482545804850247784e-01 9.680088213217660220e-01 5.548525262934649316e-01 3.230385338711458942e+00 6.576392318441618423e-01 6.525317721825772965e-01 5.491231988374760675e-01 5.722938139877971064e-01 2.288528389950226019e-02 4.906469693142871957e-01 4.991046211648249575e-01 5.220548442953736323e-01 1.159560703995965891e+00 7.688020022810612142e-01 5.232925272357180635e-01 4.400443564741700064e-01 1.118817004311415397e+00 5.348847172882292833e-01 5.706866737472193751e-01 5.000201270835639145e-01 8.213273938893962400e-01 5.139135639639463848e-01 9.396983885051218843e-01 5.301746635843738176e-01 5.178259722519017449e-01 2.326118441029580153e-02 5.321151017688604545e-01 8.011476145875724708e-03 3.075849151822841465e-01 4.030229904308533229e-01 5.784263621926060139e-01 7.847231958533592566e-01 5.051068112531602594e-01 3.862924633093433591e-01 9.784281770050533289e-02 5.047778220261437410e-01 5.410169220020905057e-01 4.484792058811319926e-01 2.224416472486078628e-02 5.185815638300563801e-01 2.535652283133564833e-01 5.169508099320538896e-01 4.114754352777786894e-01 1.261246111076667953e+00 7.671791834848388225e-01 5.175558217881931489e-01 2.523705492000667405e-01 7.627236488164474970e-01 4.381938210473712014e-01 9.986096080274458053e-01 5.956810353085418841e-01 6.136833695169802150e-01 7.012909685889868738e-01 2.012478120139620685e+00 4.757878148497153847e-01 5.082819744488537017e-01 5.108062616671290579e-01 7.442363097574565822e-01 5.864487222436730596e-01 8.572060151304321529e-01 -5.796063115362118934e-01 3.756722845848823322e-01 5.158976563102440904e-01 4.300559132211241864e-01 4.002854695405784202e-01 -6.286046112764592797e-01 3.865114905171032622e-01 5.205151259452199808e-01 7.308951864385303532e-01 6.685272732065229428e-01 1.518919881577018627e+00 5.221497956555631870e-01 5.176536131206378455e-01 -7.192624183656560755e-01 5.178936782094013536e-01 1.232743210880677953e+00 7.176897955997408873e-01 2.803842942522228876e-01 2.452341074571690038e-01 -1.770114738279134681e+00 5.496708956297206017e-01 1.870616100602366383e-01 1.105145231715419119e+00 8.226452678866081891e-01 5.250061589191459266e-01 5.393650110378351847e-01 5.956983244917881670e-01 7.659143935776107082e-01 4.301484215470386951e-01 5.563340163119586679e-01 2.368891097858919978e-02 5.545222744998768993e-01 5.665629494034107871e-01 4.595088066843396879e-01 5.113835874226684286e-01 4.599455519400294512e-01 1.224808204263928335e+00 -1.001227902391621100e-01 -2.410271224059908624e-01 4.135624511004338255e-01 5.473322035861850621e-01 5.338526266586078872e-01 5.202406659783783693e-01 -8.724247485170762983e-01 3.195031547868938393e+00 5.086595801037001596e-01 4.418975508989510526e-01 4.382783038071160209e-01 5.160719040442449668e-01 5.085813773032336060e-01 5.264418602849719742e-01 3.264171740527959664e-01 6.040295098541634822e-01 5.164132419937039753e-01 5.240230340288224431e-01 3.320786620086539909e-01 4.044516072073887636e-01 5.676916865167536130e-01 4.054308997322195740e-01 5.270771078926489439e-01 5.452462977459110460e-01 6.716015498287252194e-01 1.018824442982688261e+00 2.332774516546133992e+00 5.161132316205262471e-01 4.988947915355954055e-01 3.836960407170708631e-01 4.783779451296429341e-01 3.747602309123555520e-01 5.181056583734464649e-01 5.266241772717344949e-01 5.042205431192969822e-01 5.612251557054707130e-01 4.886211854792778531e-01 7.657467946374285628e-01 3.647624322275102027e-01 4.190789610914696928e-01 4.219035925363892603e-01 5.118461978256886313e-01 1.108925339375757685e-01 9.216875809886989623e-01 5.692273475549501915e-01 1.018246495606310170e-01 1.912992721304628940e+00 3.021360962695457952e-01 4.116516473164044121e-01 5.938333809066528302e-01 6.454157523397445473e-02 5.452118151705654947e-01 1.524374331426606499e+00 7.931131477112977057e-01 7.208281025822068644e-01 5.203727419582311331e-01 5.459374224171048562e-01 4.447327466302131160e-01 6.575816178900099063e-01 5.495972168050728968e-01 5.207538388481472991e-01 -2.435609017156229461e-01 5.064889176744744592e-01 -1.544589512167302114e+00 4.806422561551716988e-01 5.135304457892269081e-01 5.134878101464754874e-01 4.331722227604828945e-01 9.216875810765104982e-01 2.208906559889234900e-01 5.229169278850909208e-01 1.356790393024741581e+00 -5.701041959473248655e-01 5.163971650662263491e-01 1.147267391185243346e+00 1.540174016868537388e+00 5.507759578153684776e-01 5.157391226002208118e-01 -6.057929918526573643e-02 -1.701351257729191824e+00 2.721097871525479106e-01 8.204423128894606787e-01 5.210184974032757710e-01 5.170455365025765637e-01 6.122133577135762117e-01 4.823469695547626390e-01 -4.175053774402666118e-01 8.273608760581544486e-01 4.957824242462045006e-01 3.274589410598484629e-01 5.413737683907742237e-01 -4.776587124977127279e-03 -1.679255209157076156e-01 1.813101612917901617e+00 4.122947492003231629e-01 5.431535051155037541e-01 5.216116804862426237e-01 3.232917466308122822e-01 5.444121228231458831e-01 -1.087376346858294207e-01 -1.246323206564733388e+00 5.158666948062237134e-01 5.429965033887331760e-01 4.885718751675232618e-01 5.978467611071155430e-01 5.131167968680502289e-01 5.462885871585015929e-01 5.420199119646920138e-01 5.660932671731433441e-01 1.036322483172391395e+00 7.183572465610876812e-01 5.126341280757192864e-01 6.130878240988287819e-01 4.849493484058209902e-01 4.800380457857128524e-01 4.706524292809759896e-02 5.585451702484929282e-01 4.475291937115646879e-01 5.419867590687081904e-01 7.576369178107543734e-01 8.783601788953778744e-01 8.571853397895135007e-01 -5.255664300036211323e-01 5.145705383168602820e-01 4.499952003516079491e-01 5.172958205628501727e-01 5.928400194108091048e-01 9.116562726118164761e-01 5.383052326550364919e-01 5.292917193388828601e-01 -2.811285984813004513e-01 -8.855055571815716453e-01 2.321363611182687858e+00 5.045218053060711583e-01 9.008382219658984669e-01 4.177059049469381002e-01 5.749933752349416505e-01 3.897171292246565111e-01 1.514220325245750343e-01 5.207543120720478091e-01 5.454267514137453032e-01 -5.514215140289203260e-03 5.211601704764429188e-01 4.401843828076114074e-01 5.226017502550283078e-01 5.776092601584400521e-01 5.218214804725905820e-01 6.243521844857943259e-01 4.174086339031539139e-01 5.515598541445281278e-01 4.648277420079581224e-01 5.262221330183337598e-01 4.126913214076306513e-01 5.237036926078926236e-01 -2.608956958675827109e-01 5.145775402470936788e-01 6.421417444694837995e-01 5.355743265077332893e-01 7.652357343824629510e-01 9.216878833143494765e-01 7.281343159703468348e-01 -6.074778979074827445e-01 9.827471901365505413e-01 1.826466977040153594e+00 5.004809354897736817e-01 4.637838894440443616e-01 1.083453897705265900e+00 5.686021321408667450e-01 7.650287312204779866e-01 5.223076211680041103e-01 1.858252486814872873e+00 5.168326143344801338e-01 4.301010411954716561e-01 1.235253747957907322e+00 -6.485512763898056143e-02 5.149000755479354874e-01 -1.572518350141167420e-01 -9.748820357792356006e-01 -1.678018708394914960e-01 7.728648151310326675e-01 5.748372435953725823e-01 5.128550105668472359e-01 -3.232962797330483085e-01 5.164226753745977394e-01 5.486455154157405395e-02 -3.970956638104134462e-01 5.208419512906043991e-01 5.200529313491278893e-01 5.295806112634203755e-01 5.348076257556007018e-01 4.916905094486340166e-01 9.144908784534124813e-01 -4.279696738271192569e-01 5.203976277568065356e-01 5.081904098763672106e-01 6.003123317681590132e-01 1.171833571015823416e+00 4.898653084457025297e-01 6.697248263988364592e-01 5.219051537482756187e-01 4.806733051529659545e-02 -3.935511482575165254e-01 5.524007139014796008e-01 5.661026871839096586e-01 6.849717357105344906e-01 5.298387869486699264e-01 3.587052304981178663e-01 5.164303759662176585e-01 5.223158627639058471e-01 3.892332899737957486e-01 5.289904417534024850e-01 8.402551022038877715e-01 2.577290234111649259e+00 -2.470646944601834760e-01 6.602264228370600119e-01 3.343946870935606830e-01 2.045178371397813055e-01 6.619884622179182943e-01 -5.664943600221750836e-02 -1.564947582773632551e+00 5.030427859593951112e-01 2.639382741668145016e+00 5.634655358925668711e-01 1.627940380835758150e-01 1.616857734313791317e-01 4.957830100843161891e-01 5.869683095644160353e-01 1.573476770048413131e+00 5.064298186313823669e-01 1.261013921373419500e-01 4.222261518598279806e-01 1.722328758561394002e+00 6.031117715349295638e-01 7.766384852883554402e-01 5.123406982579621349e-01 7.385012358658654685e-01 4.620725814204528215e-01 5.759295293450645836e-01 2.183237337640558592e-02 5.160514247402043786e-01 5.381301174081162264e-01 -5.792826553950249924e-01 -8.562485036584117915e-02 1.179387911631129660e+00 2.386663060147621307e-01 4.817660978276844808e-01 7.114367275777362387e-01 5.431549414908324325e-01 2.014107933189506650e+00 6.764931363835980926e-01 2.068757689093072769e-02 3.328803398978968930e-01 3.954135893803884527e-01 1.131454148124133585e+00 5.032009572407619702e-01 -2.741581975267482624e-02 5.314227170565275493e-01 -1.163045608196174203e-02 5.385618725332222967e-01 5.229702281475255843e-01 1.426773280558237119e-03 -3.817424117673385436e-02 6.651107939499059096e-01 5.503291487468504606e-01 5.862116690160075194e-01 2.205903026243401233e-01 4.244892332557370085e-01 5.141768405831312894e-01 4.896820345912822336e-01 5.156481222629325512e-01 4.792309556592274644e-01 5.978373015375851862e-01 1.019124060395890874e+00 3.155528811002255019e+00 9.490207448083562980e-01 5.162644614643016050e-01 6.061509246461074252e-01 2.163944790220749814e-01 5.220539067911410536e-01 8.539286395484916303e-01 5.032123279308340358e-01 1.316985518318462667e+00 4.580996908668215628e-01 -5.856234957648761563e-01 -1.927229110411069618e-02 4.131774654359104404e-01 6.145121925762569992e-01 5.548236907296392184e-01 5.173311262745298178e-01 5.374453941082443786e-02 5.091316625533242046e-01 4.513018480945454880e-01 -3.761143641826651507e+00 4.792838178157035056e-01 5.194722441854303652e-01 1.134058630806178192e+00 5.187847415955716412e-01 4.657496656911066513e-01 6.798481067584343229e-01 -8.993774359720992928e-01 -5.015258119433455564e-01 3.333727923528221476e-02 5.197530552341055321e-01 4.995504300526123487e-01 2.137593995619839482e-01 5.223458850111047935e-01 -3.424526824689086979e-01 5.824242828001338079e-01 5.280436540533566259e-01 6.958757240984511094e-01 5.489900199898086752e-01 4.695175119827863508e-01 1.505425306647911188e-01 -7.702486637572172334e-01 6.557694177612052311e-01 5.493991223319032446e-01 1.579155681642273878e-01 5.217855698718401047e-01 5.470119058385835009e-01 5.289678407748632516e-01 6.704067410937879501e-01 5.768407982150726143e-01 5.466284846115173623e-01 5.025528961685210572e-01 1.826466973461718046e+00 3.559910525492823719e-01 5.410544776005765666e-01 -1.289934848768298781e-01 5.424398322536240213e-01 6.343542927485444904e-01 5.078351021404767796e-01 4.885509304178156653e-01 3.605730391198563867e-01 9.473432094989708840e-01 1.215397565529767077e+00 5.556512319654890453e-01 5.865311487459313744e-01 5.967608891128696191e-01 4.813939217935954695e-01 5.440039795894445751e-01 5.186108586321477310e-01 9.827805791413768421e-01 7.026393684970856368e-01 -4.607183752789217324e-01 4.590798031132085066e-01 9.083665139365384444e-01 5.232891376558750363e-01 -2.764524479661438494e-02 5.299353570401565960e-01 1.414862655602215469e+00 -1.388410146083166874e-01 6.242946823498338738e-01 2.397956362631759875e-01 4.799357778689743448e-01 8.535406967909994203e-01 5.195025499677332625e-01 3.716605600553067323e-01 1.405793061075889083e+00 4.697610459100416413e-01 5.260018156780195131e-01 -6.834361927411860549e-01 4.460024006492350201e-01 1.040734487390663432e+00 6.140600077162494674e-01 7.357942914169325610e-02 9.808188636429943097e-01 -3.127023625924799100e-02 6.908797667089330297e-01 1.637768395557056778e+00 -8.628631569998486128e-01 5.829589526812355427e-01 5.190762320153787801e-01 -4.680482038401798661e-01 3.057494767545259062e-01 6.003424486823262241e-01 4.971552748846136405e-01 4.946322440370898299e-01 3.961905950674538546e-01 2.629999356522922938e-01 3.453723087455680130e-01 5.790623561900627436e-01 5.176235456734544771e-01 7.927531890276312554e-03 -1.314032737374507820e-01 5.126264402589996161e-01 1.066021104526882812e+00 4.981069212910231858e-01 -5.796186871375573757e-01 4.902143606024377265e-01 5.174339608247812139e-01 5.539406973728269179e-01 4.437802781523907114e-02 3.276164729948594090e-01 5.199390364102494111e-01 5.071083744045284947e-01 4.518168741885937867e-01 -2.659579141021295792e-03 5.577721279250276165e-01 5.249404326288007461e-01 6.073597474591759804e-01 2.097032787675550569e+00 -2.875430506991899417e-03 3.870704604282417804e-01 5.600645918198642326e-01 1.843816843585275311e+00 5.472899428593086535e-01 5.262684407059149416e-01 2.086987225608899141e-02 5.585451146462253602e-01 5.198357583852144526e-01 4.771532930260086180e-01 3.879280632114336380e-01 5.023447122825096534e-01 4.369124076730241946e-01 5.258967551080850900e-01 -5.463647661422794677e-01 5.196542923990615792e-01 5.237629376762135136e-01 5.345577178412336261e-01 1.174738967915228471e+00 5.108197134236670545e-01 -2.467906689619926430e-01 1.104828820142209844e+00 -1.291583078401144613e+00 -5.330821976865560696e-01 5.320650905295724042e-01 5.189396765285159141e-01 6.581595008690969140e-01 5.226123113815352994e-01 4.501004142806861452e-01 5.589293178341191437e-01 5.585451140716185536e-01 5.209533775602029904e-01 4.808111597657571679e-01 5.951765177408675500e-01 5.198490860375365452e-01 3.070358616545280639e-01 5.084359892449619167e-01 5.389662128435273036e-01 3.947024611831328467e-01 5.070881711717392104e-01 5.166877621653251929e-01 5.448561795695654464e-01 6.526526024462379061e-01 5.165909032072131257e-01 7.048337370626253096e-01 5.024643055616597742e-01 5.105480116836268456e-01 5.400366115185076810e-01 3.936044261351480111e-01 3.829908435165596536e-01 2.445581485765819796e+00 4.766247700037669066e-01 6.110072219328566145e-01 2.991579994692334932e-01 5.817762299066501219e-01 1.116512359401182319e+00 4.252726686407056200e-01 6.973143845664068197e-01 5.175567265090093017e-01
7.109775297301406116e-01 3.135223088891255228e-01 4.386824377929397500e-01 -1.470846192383108361e-02 3.104788719270503150e-01 3.521620234073723488e-01 5.361388706324795583e-01 4.138742261365226938e-01 3.302669758643952402e-01 3.220928525222574446e-01 2.066593900687810681e+00 1.725599087404655396e+00 -1.458476622322189886e+00 6.062886266980409555e-01 3.085695148334870463e-01 4.486343695852260116e-01 1.327127680752885341e-01 4.407963550575539347e-01 4.242161426364748911e-01 3.060726619990370434e-01 4.405701925519791007e-01 2.133833147801625696e+00 3.713816095981072873e-01 3.590235080119259514e-01 7.410631200323358758e-01 -1.928844671598144156e-01 4.278124798460587463e-01 2.022035326567283020e-01 2.741567548056478842e-01 -9.040392533456937940e-01 4.119416295653948734e-01 -1.471735512647525390e-01 2.890211299664618427e-01 3.423888611012061434e-01 -4.174368761009255024e-01 4.913998073621216323e-01 3.310928240357014496e-01 -3.750994502308851453e-01 -3.270090966807309041e+00 2.812947071214148553e-01 1.175019274568498640e+00 1.441519320949731509e-01 -1.677590418123697247e-01 7.917522682730053774e-01 5.887291045838930481e-01 3.279955510261724494e-01 -1.449894341866429445e-02 3.170481222638303342e-01 1.727966899471294338e-01 6.550378316357190478e-01 6.827533357987192186e-01 4.934280926076187734e-01 -1.887185123836055689e-01 2.268273861471332420e-01 5.985366885197899167e-01 6.525334118953481921e-01 3.284787749525269751e-01 2.419838397118526940e-01 3.458105423231148667e-01 3.525514577651484571e-01 4.298066896044146490e-01 4.320679778849250696e-01 3.255896960000143059e-01 3.713816021656098365e-01 -3.447476758433388189e-01 1.380110913737352951e-01 3.260961700967616173e-01 3.168558621569439460e-01 2.123229787801098056e-01 7.154571581313520223e-01 1.376664000935099164e-01 2.457595478648123555e-01 3.298648084018779292e-01 7.281412911698907919e-01 1.931912985399271143e+00 4.507948556101954996e-01 4.750840011968309740e-01 4.819386008938158494e-01 3.100016169497697427e-01 -1.347479443409229427e+00 3.189341211562916611e-01 5.709275726284518404e-01 2.360613487448600445e+00 8.078164485138975004e-02 2.591464217370031964e-01 -3.750943670416919673e-01 1.334481201981502496e-01 2.658214254589564840e-01 -5.805982146454091719e-01 -8.991947755008409260e-01 5.889427451015172288e-01 1.594844643691902597e+00 6.334566364684225681e-02 6.828397931277885302e-01 3.362448917110512636e-01 3.341529014884691562e-01 2.657121019445788934e-01 7.693370088060531575e-01 7.372274346939943213e-01 -1.947359021675866275e-01 -1.777937000334437467e-01 5.498608857656436810e-02 2.698902627442417712e-01 2.146010748697691484e-01 -3.973389418751697988e-02 3.136300267790380403e+00 -2.904708330310751263e-01 2.496569336028679198e-01 1.008792045766092743e-01 8.109594247189412242e-01 2.568925950031129002e-01 5.029717570407262750e-01 1.626099181401844951e-01 4.094978116172274807e-01 -4.790254344067711445e-01 2.360002777556265141e-01 1.383361260246553093e-01 4.322871594532061157e-01 1.121542688142283861e+00 3.332295207474434973e-01 -1.463277993626634466e+00 1.657303831132053706e-01 1.056441023801223261e-01 1.428600038831261188e+00 3.105174062282070602e-01 2.185998143864835708e+00 3.242621267004103247e-01 2.297597422597875139e-01 3.069633621669950463e-01 3.061023998433397564e-01 3.408865615407360439e-01 3.106240117518097033e-01 6.750042915691097933e-01 4.209405351031435538e-01 1.668157201748813045e-01 8.608886161250812741e-01 7.205036361275761747e-01 7.149952238178984842e-01 -3.372327961489123282e-01 2.097554215296297542e-01 3.045893887771882746e-01 3.219037317291588152e-01 3.325792878787514062e-01 2.425564773853045308e-01 3.081588940933425724e-01 6.982226625653416008e-01 -1.646073954638321568e-01 3.191386117909635334e-01 4.361205670022175185e-01 4.011833807540696184e-01 -2.240339171187827327e-01 2.571111641080316840e-02 3.279809630925125119e-01 2.710610256387160355e-01 2.971841579993856342e-01 3.137922129692241602e-01 -2.425503675133882986e+00 4.623200847003134939e-01 -6.021998054077344342e-01 -2.004627057977758364e-01 1.784605389909446616e-01 3.243672432276176187e-01 3.159843088162621050e-01 3.102555391741681490e-01 1.237807593546402379e-01 1.003053125312492744e-01 3.177954152343599459e-01 4.690754059149578326e-01 4.134621174523344100e-01 3.061453785311399334e-01 1.981538756950617097e-01 -1.286048237720382667e-02 3.280957566599123632e-01 3.120647552045934803e-01 -2.517539186214735381e+00 6.793192265172578459e-01 5.925324044562269021e-01 9.492337492630964491e-01 -4.585624228900124777e-01 1.173237046124157690e+00 2.155911397188840090e-02 3.077315124941336633e-01 1.241285732209765014e+00 3.294040696724043205e-01 3.096437917178869736e-01 2.804456929554361433e-01 3.656674323262357196e-01 2.907994558070198798e-01 -4.884853287090271112e-01 2.870803168390788085e-01 2.937145869617429628e-01 8.186052631427070958e-01 2.840156680793963218e-01 3.361948969631720074e-01 2.414060520760571982e-01 3.143457407236263657e-01 -1.672266926615923577e+00 3.138466295961398478e-01 3.121547962656152642e-01 3.378298553369328827e-01 5.368843475156028638e-02 3.541431437023251361e-01 3.873461919712667401e-01 1.443461182745811311e-01 -7.715116776478385674e-01 3.121547702043098726e-01 4.807744672910781447e-01 -5.182966412467048256e-01 3.566458220651944622e-01 1.904344199555912942e-01 2.405667968946323954e-01 -3.274815289100379445e+00 4.439276287396531351e-01 9.213596744973107100e-01 3.001229409141761284e-01 3.110414953365185919e-01 3.105746767772307737e-01 2.992174836337325727e-01 3.134881453575280030e-01 3.116691838353668476e-01 3.601640228642253305e-01 1.057364547318668802e-01 6.681115497951903848e-01 1.060425836985350867e-01 4.807144105411897961e-01 5.033669739979100832e-01 4.011671238995373479e-01 -6.853992832418898118e-01 2.306433552266061504e+00 4.007210624662206344e-01 1.245367848285906298e+00 -1.395171190409632445e+00 3.059820769516214956e-01 2.428996198672708218e-01 3.533469125757022766e-01 1.180493103288479784e+00 5.175689493341230074e-01 8.218398698153606130e-01 2.854894817105329552e-01 6.683880232293326618e-01 2.565847847308612151e-01 3.217468636026371009e-01 -1.178445116623787259e+00 4.153706756655513033e-01 3.128536786256820856e-01 4.974535177421056664e-01 8.881106981703331682e-01 -3.702976980462677203e-01 3.181303953132672113e+00 4.995543350302205643e-01 1.279826880832885427e+00 -2.372412058583834304e-01 3.011455436462064927e-01 3.713844174045785596e-01 3.379669798696464666e-01 2.391120051071507768e-01 3.669935170427864324e-01 -1.396488211790572753e-01 1.085671908022203258e-01 5.622049731538860673e-01 2.533596541555062087e-01 9.751900705217263210e-02 2.422574078066827008e-01 4.436262254795095283e-01 4.298067208844894571e-01 2.575407054235160920e-01 3.260133875497682965e+00 3.606345582937092731e-01 6.525088056215531118e-01 5.320553054374674851e-01 2.212714067371285565e-01 4.293214941361973014e-01 3.133111803003014173e-01 2.978233818374694808e-01 3.108045036752469237e-01 -5.869256362653152426e-01 4.362728570551545060e-01 2.852755822203234537e-01 1.388122865178076371e-01 3.147113060569857734e-01 1.542173410338797179e+00 3.512423880663960163e-01 3.079963789183095546e-01 2.001908088325854429e+00 5.049298432176443363e-01 2.662401766766576139e-01 2.649014613973970644e-01 3.363572516893374997e-01 2.360005303144834254e-01 -2.066210706793863761e+00 2.685150771992171892e-01 1.558178947850176632e+00 -5.805366754938629664e-02 3.599010829884889406e-01 6.801021760151694240e-01 3.184738522597045929e-01 -7.259134519169384570e-01 3.943426566029849534e-01 3.195807897329056568e-01 4.361289448708287608e-01 -3.958636208817106206e-01 3.251413259971631664e-01 -2.284197104400812695e+00 -1.363115036782100789e-02 3.327958322595457319e-01 6.003418966399679535e-01 3.137509263034737317e-01 3.102432128298452385e-01 4.869446251622817079e-01 1.830034760813971373e-01 -9.672076622397177137e-02 -7.687212653189156031e-01 -8.601275340613160313e-04 6.878168101057641204e-01 3.074933419741857077e-01 5.019340735567049405e-01 3.275648468252749801e-01 -1.423406963983417546e-02 3.131929410896189814e-01 2.455212262350338737e+00 6.841303326076320079e-01 2.469960471550482484e-01 -1.167393126525773983e+00 2.301050375852384255e-01 4.721390151282580661e+00 3.812530782555202391e-01 -1.661906702922601176e-01 5.709715033921164418e-01 -5.622442585129733494e+00 5.224062003755820527e-01 1.559926335352317839e+00 3.106777854787896587e-01 5.303285488528768354e-01 -4.480788306660757891e-01 4.323935703380438755e-01 2.940433537713947332e-01 2.986553026829408819e-01 2.267449261702894903e-01 2.952560582809863110e+00 -3.764044412108503157e-01 3.061562054547756206e-01 -1.923371802858946822e+00 3.129144145730467508e-01 -3.750994514178737083e-01 7.530213236322556014e-01 5.188397758456440023e-01 2.650326112584039939e-01 2.852605738626018406e-01 1.271587643141293800e+00 1.482713507448310541e-01 3.121545235091273685e-01 4.153734940474999027e-01 1.443461163630652133e-01 3.283281717092151331e-01 3.906327245097661605e-01 -6.160356786930799577e-01 3.081635580502476990e-01 5.562936679965714282e-01 3.934925991731202388e-01 1.701416327780148063e-01 3.087309296302349626e-01 4.944763215114327815e-01 5.188397032926402863e-01 4.633058699100819910e-01 3.073542328949448454e-01 1.784977024128508449e-01 4.055427189834391322e-01 3.452287158732100014e+00 3.107849964654283981e-01 1.253174613449681007e-01 4.298077506842670759e-01 8.430238697972251005e-01 4.682184734210502186e-01 -1.943744567300087767e-01 6.829816308114796675e-01 3.471086980948467349e-01 1.209683572010606806e-01 4.117300047848155842e-01 6.739023825783665433e-01 5.773740753962358641e-01 7.889289876058567241e-01 8.175100361657275938e-01 3.441865653436964045e-01 1.443461182024186606e-01 1.443461648987868495e-01 2.281842758628833123e-01 1.764256743226620405e-01 1.119896005452968968e+00 3.973407930973353874e-01 3.121396795826110182e-01 3.085644246201367236e-01 3.130483049109578086e-01 7.605182545291816476e-01 3.121551511717737815e-01 3.087789199527982142e-01 4.385564882061264713e-01 2.358861687914547700e-01 -6.372703966011704635e-01 3.280253674023361210e-01 3.096373418634039698e-01 3.830456662260019463e-01 6.843825704813369937e-01 6.973594627369823495e-01 1.443461169929369514e-01 1.016172689885047192e-01 3.031691307041432526e-01 4.973662005467472946e-01 -5.930597167617572829e-01 1.833303555285616393e-01 -3.535950512885603914e+00 1.986634019801729156e+00 6.353181972939765387e-01 -4.689116945882174092e-01 -1.476757045859343823e-02 2.064835284335945875e+00 3.156655142255708202e-01 6.446337582303049984e-01 -2.587040642499434731e-02 3.618188245261307334e-01 4.202967717805535797e-01 3.202996670651147015e-01 -5.069019289038532161e-01 3.570911189415392206e-01 2.070281665205033317e+00 2.866095331862655859e-01 -4.399789763592572012e-01 3.116638599167391721e-01 3.171931589821453956e-01 -1.457956672824615829e+00 2.876329843242606543e-01 3.665860198551806337e-01 4.032750849419474704e-01 1.396217308876750440e-01 3.066487085281603409e-01 2.085695659520324929e-01 2.998204144904610957e-01 -1.610968204160830586e-01 3.049090957093112397e-01 1.060505466787913936e-01 3.097604396848953057e-01 3.092284789381554710e-01 1.299336975937896189e-02 3.997633898621678061e-01 5.497110294693388077e-01 -1.399295654945833300e+00 -6.080210178818924449e-01 -1.143669302362466389e-01 1.112250599408327323e-01 2.101761987577364099e-01 4.320190113712794600e-01 3.614800027573936703e-01 7.271176344238369227e-01 -1.316969428902332595e-01 3.185961450121691518e-01 3.287000484730291938e-01 9.424507465308859522e-02 -1.611170064832151971e-01 3.236234846559621348e-01 4.613215754620346720e-01 4.797301100334565027e-01 2.887164780119132468e-01 2.744890719952001179e-01 3.065304712546267907e-01 2.502810980476929403e-01 3.144336552356583603e-01 4.980265046104319082e-01 3.670516982383120186e-01 3.105704163475482837e-01 6.837665071037470899e-01 3.339025174633477588e-01 7.353286758001957857e-01 2.073432742485661201e-02 5.464451363733293654e-01 2.626880572733424346e-01 -1.458211453210607189e+00 3.082791884479624267e-01 6.418799098793013247e-01 3.632811501268906063e-01 3.351581052208793543e-01 2.527725028904367344e-01 1.894366628425395993e-01 6.848023771060005593e-01 3.089315063170722242e-01 4.070505335301677907e-01 3.108626767790760859e-01 2.783370963038745427e-01 1.929943838307216775e-01 4.971486527304573300e-01 3.124347713039619667e-01 2.029759371120888056e-01 8.673955521449612516e-02 7.715703612332705519e-02 1.647991515292455134e+00 2.026693834846935161e-01 3.577120596424464560e-01 3.846965667327333915e-01 -8.515350084802796315e-01 3.613230974299340703e-01 2.592715254500942978e-01 4.002140453933916708e-01 -5.847130383625194494e-02 2.885231196790940533e-01 1.628285840770888449e+00 8.921503592660008364e-01 4.489170798626055947e-01 3.317097352234162355e-01 3.409704058530854121e-01 3.427090969471383031e-01 9.254370862301907197e-01 3.055554865497953632e+00 3.082695279251405629e-01 2.607258784122881354e-02 5.889746150218329035e-01 -2.144679959646178802e-01 3.142227781840450929e-01 3.009147174866096397e-01 1.076165462832437747e+00 3.089565698917051684e-01 -3.323044832095484735e-01 3.835488726970158191e-01 1.299759352080583630e-01 6.352758726746937645e-01 1.799555400755410206e+00 2.576178252876875630e-01 2.653531857858624221e-01 1.663702253689899102e+00 3.983492561787952413e-01 2.718042861942147614e-01 1.758766106196260337e-01 2.313995839481981787e-01 -1.489452038978517079e-02 5.075838056990066294e-01 2.416333924113918397e-01 7.262508811308390211e-01 2.702355313524283376e-01 2.368433515670229361e-01 3.161459314660441389e-01 4.217001357653374916e-01 3.839653539739157351e-01 2.598734135741532225e-01 8.955420037791737009e-01 5.121185413795228403e-01 4.801968787650484072e-01 2.680927765513914651e-01 2.564218350081336473e-01 3.175789632895741899e-01 5.896601582639526828e-01 7.750558342423716773e-01 3.645188492493640631e-01 3.080841665932829709e-01 5.402867794670477286e-01 3.108196336906787205e-01 7.164257826943674079e-01 2.729504553316602911e-01 4.664632316096458120e-01 -3.117834748879531603e-01 3.120700435687878138e-01 3.250525435145451558e-01 4.370246006905973979e-01 2.522656859890334835e-01 3.109543638601373616e-01 1.798075657080511869e+00 4.449465102144306572e-02 2.679656044937632209e-01 -1.957628438343008148e-01 1.656352591612967107e+00 1.154511817279371577e+00 4.061760587439232351e-02 -4.505580282165743133e-01 4.257609875359513740e-01 3.203979381208292843e-01 5.052910325094551736e-01 3.083853783906053692e-01 3.085224560831010265e-01 2.087114612666330360e-01 3.396213856656961627e-01 3.495143528432098634e-01 -1.503776544332196402e-02 -2.154909424411378116e-01 3.464827401529674833e-01 2.682248309417748500e-01 2.296941079423223953e-01 8.734507733466628787e-01 4.298067047490909953e-01 2.716324931044690194e-01 8.484501504396273486e-01 4.756867884752012943e-01 5.894055487748240951e-01 4.632761954521879000e-01 6.945578533100321694e-01 1.475200370290147722e+00 3.687806854241468257e-01 2.095165863795995786e+00 -2.418102580182112868e-02 1.480295597900561089e-01 3.104696796799828462e-01 2.712706755269688741e-01 3.604115420393850244e-01 3.061603980232976419e-01 3.209431497385947241e-01 3.110568812535721706e-01 3.642885895942857832e-01 2.019111761655463522e-01 -3.293515085742372839e-01 2.501781995482513787e-01 -6.941340960640282609e-02 3.046613391558662953e-01 4.361393903286537310e-01 4.298067047447587941e-01 2.188617090104993390e-01 2.016990618001140989e-01 -1.259394225311098126e+00 1.965473537334421428e+00 3.126427425963889672e-01 -7.356769940781475725e-01 2.972287788574672351e-01 3.150560330408257448e-01 3.112208310559436697e-01 -4.794645620754629967e+00 3.544900002223290159e+00 6.291693148684536219e-01 4.919466061805920221e-02 3.247382769454119078e-01 3.103470713050432983e-01 2.757259044385654834e-01 2.627479820254547960e+00 6.253213560779915525e-01 3.193215733938616907e-01 2.360004197214868593e-01 2.838698099621071447e-01 2.807503952202125563e-01 8.625036415451128313e-01 -3.755774938265605267e-01 -1.198074650292943133e+00 -1.220179000353045495e+00 3.144111241049363792e-01 3.135685557776883292e-01 7.276843956642460309e-01 3.712836562448018629e-01 1.417652005951041572e+00 4.809769615113795860e-01 3.136884636120449432e-01 2.986183084895385198e-01 3.287872730526799070e-01 3.227092410990836102e-01 3.056321880206213648e-01 6.450117009269699109e-01 2.670462925618453109e-01 6.594759608432051445e-01 2.275414277343913438e-01 4.495344167671136426e-02 3.058826835459850235e-01 1.836596502351895976e-01 3.486404694939687077e-01 2.602646850912548881e-01 6.465135080485658881e-01 5.188397469706464982e-01 3.610764211333177265e-01 2.790979047189262041e-01 3.095693040317187283e-01 2.677601437517267979e-01 1.628282905479091047e+00 1.898999666459685542e+00 3.052413430615956713e-01 3.592715865006610998e-01 3.133540404462902829e-01 1.623019243620154595e-01 2.274774036763603791e-01 3.421153440354534614e-01 3.035281532360613599e-01 3.253774690000550973e-01 8.024317787801827917e-01 8.849939997604243658e-01 2.415827145239809182e-01 1.872106044516078649e+00 2.910602190864931549e-01 -2.331863718237806582e-01 -2.728782027085023265e-01 -3.110312808415330865e-01 3.128846783785929064e-01 2.689586696711116498e-01 7.104643042523632879e-01 3.102607543035348359e-01 4.573415553823833024e-01 3.274942125836289852e-01 3.569807713221837542e-01 3.424585899845351555e-01 -2.735635485283013230e-02 1.016034480230280090e+00 3.347167682986352810e-01 4.073564600885639098e-01 3.052449467686489948e-01 3.563958652688207773e-01 2.979769585197477033e-01 3.931624859569757269e-01 -9.422021811336066255e-02 2.226113722695213792e-01 3.074948835597631214e-01 -1.427227456653954590e-02 4.298063735227604099e-01 1.104829002339387189e+00 9.615064843324649946e-01 -7.269761154016209925e-01 -3.750994502049782020e-01 6.569830496018680410e-01 -3.334149181534000306e+00 1.572802524322106432e+00 2.731195709451628706e-01 -1.471588696451928482e-02 3.126390726468100123e-01 8.929040705165698366e-01 3.108679571895439087e-01 4.153709312809931165e-01 -4.371806748148501787e-01 8.220945386410893896e-01 3.166090961175482277e-01 8.730315057806249390e-01 2.093846581153376629e+00 -3.753834742846972605e-01 -1.466473981728662057e+00 2.370501840162141105e-01 3.169024119148270979e-01 7.598327009125893650e-01 3.128246972695366002e-01 7.042864658693984703e-01 4.691270839713603813e-01 2.420187572325691316e-01 3.114737284168914155e-01 3.143858312286789136e-01 2.496382565971280998e-01 3.042690015948729121e-01 1.414495281171251007e+00 1.638386331818289632e+00 3.172662640284102942e-01 3.244149035476821541e-01 1.490414615092645334e-01 -2.448433520062374136e-01 2.164841489232217919e-01 -3.358782426087691952e-02 3.110233456129811724e-01 7.041920377300819878e-01 -5.058398123109019151e-01 2.733909039616794212e-01 2.835834235755683719e-01 1.529181290905187729e-01 2.981481655873530756e-01 2.153819067659538122e-01 3.129411469834770254e-01 3.121808142654850515e-01 2.019892913246323224e-02 2.802319768620957774e-01 4.361699038195285816e-01 1.123519748918067940e+00 1.105987190942176790e+00 9.240917133734393163e-01 2.006260320308799472e-01 7.857865769530426592e-01 1.462342403249184963e-01 4.863649133055634732e-01 -2.137952931460952666e+00 3.124385655749434276e-01 6.584369353429898597e-01 2.858364309025038241e-01 9.518088443410630539e-01 1.371973319169798478e+00 2.360002770723768906e-01 2.580959382856585771e-01 3.746040670836964237e-01 3.503862470733374312e-01 5.505059353144557965e-01 9.061545457934206960e-01 -7.934116011161046478e-01 2.009666388326963593e-01 5.855000349684044703e-02 3.259473471101374531e-01 3.416174991924742499e-01 7.688227206662776592e-01 -2.305315827507919968e-01 4.026462245312139587e-01 3.138893395724358659e-01 3.577735436029865213e-01 8.921807525633942415e-01 4.296860767593706498e-01 -2.154927813826446881e-01 8.589602164931530170e-01 -4.369220327422282391e-02 5.686488440867757399e-01 2.689654857416771128e-01 1.288948072604706008e+00 5.846220414577286695e-01 7.276713664133597215e-01 4.381130307922731504e-01 4.869375221649904217e-01 -5.635768626827025729e-01 2.383807824062340319e-01 7.595460222421697161e-01 3.159169355497007392e-01 6.211315591173004469e-01 2.745202051543831900e-01 3.076230502457633631e-01 7.229297628090810557e-01 1.495509553409351267e-01 -2.054168614809170457e+00 2.078138359009067959e-01 2.584594907186235080e-01 8.650565818682474095e-01 3.725196138279469049e-01 3.945624711239276161e-01 3.697831830089409744e-01 3.161756175210944098e-01 3.907653069541296986e-01 7.552444470808997168e-02 -1.624848705599013288e+00 7.572645397796430311e-01 2.493230757693263300e-01 3.036170005092265756e-01 2.143102052100480104e-01 8.216911035244764960e-01 3.099909755974332159e-01 -1.477263389387826753e-01 3.374185716992163520e-01 1.122156366418146423e+00 2.652800765124674331e-01 4.158240679131612882e-01 1.049992521730400030e+00 3.934630547778218967e-01 2.799795903780213369e+00 3.380663632820427589e-01 3.089990284951912858e-01 7.017519580522414424e-01 3.416998442020562909e-01 3.291100725553445794e-01 -2.120934453193342062e+00 4.367997258397637306e-01 3.317438452976004815e-01 5.169081061671967348e-01 3.066522989979010849e-01 2.067296061897244686e-01 -1.985711570252449432e-01 2.060650531546970754e+00 -5.193076675249590490e-01 8.277967693325091192e-01 3.102563783489271088e-01 2.948199603808860370e-01 8.202314350649643204e-01 3.361862596146915072e-01 1.336256909669502280e+00 2.029830495538251234e-01 3.677389228901570828e-01 -8.846925733974010386e-01 -1.330973011287200081e-01 -4.848546991787610061e-01 -3.981137576698687397e+00 2.966049070735488513e+00 3.227707231548247041e-02 2.979082016356645046e-01 -1.638050676806634076e+00 3.159547372757955386e-01 3.640301418283843349e-01 2.963784385447564285e-01 1.667839742278536541e-01 6.412391999879747395e-01 6.002736772526419129e-01 1.059039553931949929e+00 -3.750994496422219715e-01 -2.295458773264797137e-01 2.284177528472800534e-01 -1.189911728030349725e+00 2.596433403769741743e-01 -6.491931809306820123e-01 3.316332917577690664e-01 4.566866709449149409e-01 8.514570151322292668e-02 4.495753408699956211e-01 2.660369115088403458e-01 -5.089370522519631040e-02 2.256345918143643214e-01 2.900887867734605052e-01 3.636681105258099955e-01 3.261203273737230401e-01 3.141816252196955594e-01 -7.272122171019670400e-01 5.103215737168549371e-01 1.540813587217675806e+00 6.901230764495638881e-02 2.376712050155423972e-01 2.974778624061299448e-01 1.207520179714187014e+00 3.306334212747481516e-01 1.142034743945302411e-01 8.899481456936594315e-01 2.657183645212959910e-01 1.869335299527875582e+00 2.697838756947331662e-01 1.304066218643437081e+00 3.042309034288344649e-01 7.357470980291677121e-01 1.352577119163467678e+00 3.635978943724716972e-01 3.541891389350632635e-01 9.353932544652265868e-01 -1.875711179913968074e-01 -6.109376694591722029e-02 2.168479778951077630e-01 3.023899540508269701e-01 3.577550021221326260e-01 1.439133648064002957e-01 1.491841074123800570e-01 -3.738167112126018488e-01 1.292471879676228008e+00 2.910469336060071965e-01 3.130227766565729652e-01 -3.202704469120485342e+00 5.408159929158906642e-01 2.735664744882425614e-01 3.972024013272877907e-01 3.986287113820606298e-01 4.636000543915974603e-01 -1.095061289436860985e+00 6.237127676141812627e-01 2.870978864689137100e-01 3.115167371836164989e-01 1.027988047709893493e+00 4.608386942334186664e-01 3.148191160046611703e-01 -1.406760192978905311e+00 3.913012922544570893e-01 8.920854554446262519e-01 3.170056369630097071e-01 3.113738736585677236e-01 3.392194557069007077e-01 7.121521299795054993e-01 -6.104076752119978744e-02 3.105446874285713865e-01 3.271649022335643697e-01 8.769214537151751032e-02 6.708538843976360466e-01 2.779651054287173295e-01 7.079187823494346166e-01 1.732916275044688315e-01 6.907547521342781716e-01 -2.354443766478489519e-01 -1.508718833679625781e+00 2.987734158278407270e-01 -1.902596464418815358e-02 3.328377501594962373e-01 3.773458397146448595e-01 5.463733785671864851e-02 5.188397111982065990e-01 3.133269870840838522e-01 8.335632460592626303e-02 4.427154670203735654e-01 2.698726787315846032e-01 3.061272823428283774e-01 2.716157611395746962e-01 -8.445535582164344079e-01 3.149381661229804785e-01 2.949200554953685938e-01 3.295010134522046719e-01 -2.530352970854184425e-01 3.161380050039279133e-01 8.236353722928607679e-01 -5.747710317146961234e-01 1.121313978832171321e+00 6.140394181180868216e-01 2.612290460290122018e-01 3.103353138237738285e-01 -2.050202621982224027e+00 3.295692319183120556e-01 2.090808175535062430e-01 2.754494622670132231e-01 5.188398026835868704e-01 3.084137186453660417e-01 3.116901195269779490e-01 7.193828918320738230e-02 3.135272920033845279e-01 4.353168090157110703e-01 3.565325922229026778e-01 2.573141708477242329e-01 2.892174073623084984e-01 3.148429297034416874e-01 3.101332470955461273e-01 2.665809170021852248e-01 8.652711274432646482e-02 3.063373068656528586e-01 6.192313955314986407e-01 1.805823377597944590e-01 3.117923406093114358e-01 -1.401689801083933207e-01 1.720631428602943658e-01 5.991703029738727482e-01 4.494565312047376970e+00 3.463199204232765283e-01 8.448742634806491458e-02 5.588017420803427227e-01 1.856844537697520947e-01 1.557694055657332211e+00 3.487405511365819777e-01 6.426644664147538322e-01 3.086564549433425397e-01
