# 
#                 ----------------------------------------------------
#                 Data from a 3D direct N-body simulation. 
# 
#                 rows are i-particle; 
#                 coumns are :mass, tag, x ,y, z, vx, vy, vz, ax, ay, az
# 
#                 NTHU, Computational Physics 
# 
#                 ----------------------------------------------------
#                 Time = 0.0
0.000000000000000000e+00 1.000000000000000000e+00 2.000000000000000000e+00 3.000000000000000000e+00 4.000000000000000000e+00 5.000000000000000000e+00 6.000000000000000000e+00 7.000000000000000000e+00 8.000000000000000000e+00 9.000000000000000000e+00 1.000000000000000000e+01 1.100000000000000000e+01 1.200000000000000000e+01 1.300000000000000000e+01 1.400000000000000000e+01 1.500000000000000000e+01 1.600000000000000000e+01 1.700000000000000000e+01 1.800000000000000000e+01 1.900000000000000000e+01 2.000000000000000000e+01 2.100000000000000000e+01 2.200000000000000000e+01 2.300000000000000000e+01 2.400000000000000000e+01 2.500000000000000000e+01 2.600000000000000000e+01 2.700000000000000000e+01 2.800000000000000000e+01 2.900000000000000000e+01 3.000000000000000000e+01 3.100000000000000000e+01 3.200000000000000000e+01 3.300000000000000000e+01 3.400000000000000000e+01 3.500000000000000000e+01 3.600000000000000000e+01 3.700000000000000000e+01 3.800000000000000000e+01 3.900000000000000000e+01 4.000000000000000000e+01 4.100000000000000000e+01 4.200000000000000000e+01 4.300000000000000000e+01 4.400000000000000000e+01 4.500000000000000000e+01 4.600000000000000000e+01 4.700000000000000000e+01 4.800000000000000000e+01 4.900000000000000000e+01 5.000000000000000000e+01 5.100000000000000000e+01 5.200000000000000000e+01 5.300000000000000000e+01 5.400000000000000000e+01 5.500000000000000000e+01 5.600000000000000000e+01 5.700000000000000000e+01 5.800000000000000000e+01 5.900000000000000000e+01 6.000000000000000000e+01 6.100000000000000000e+01 6.200000000000000000e+01 6.300000000000000000e+01 6.400000000000000000e+01 6.500000000000000000e+01 6.600000000000000000e+01 6.700000000000000000e+01 6.800000000000000000e+01 6.900000000000000000e+01 7.000000000000000000e+01 7.100000000000000000e+01 7.200000000000000000e+01 7.300000000000000000e+01 7.400000000000000000e+01 7.500000000000000000e+01 7.600000000000000000e+01 7.700000000000000000e+01 7.800000000000000000e+01 7.900000000000000000e+01 8.000000000000000000e+01 8.100000000000000000e+01 8.200000000000000000e+01 8.300000000000000000e+01 8.400000000000000000e+01 8.500000000000000000e+01 8.600000000000000000e+01 8.700000000000000000e+01 8.800000000000000000e+01 8.900000000000000000e+01 9.000000000000000000e+01 9.100000000000000000e+01 9.200000000000000000e+01 9.300000000000000000e+01 9.400000000000000000e+01 9.500000000000000000e+01 9.600000000000000000e+01 9.700000000000000000e+01 9.800000000000000000e+01 9.900000000000000000e+01 1.000000000000000000e+02 1.010000000000000000e+02 1.020000000000000000e+02 1.030000000000000000e+02 1.040000000000000000e+02 1.050000000000000000e+02 1.060000000000000000e+02 1.070000000000000000e+02 1.080000000000000000e+02 1.090000000000000000e+02 1.100000000000000000e+02 1.110000000000000000e+02 1.120000000000000000e+02 1.130000000000000000e+02 1.140000000000000000e+02 1.150000000000000000e+02 1.160000000000000000e+02 1.170000000000000000e+02 1.180000000000000000e+02 1.190000000000000000e+02 1.200000000000000000e+02 1.210000000000000000e+02 1.220000000000000000e+02 1.230000000000000000e+02 1.240000000000000000e+02 1.250000000000000000e+02 1.260000000000000000e+02 1.270000000000000000e+02 1.280000000000000000e+02 1.290000000000000000e+02 1.300000000000000000e+02 1.310000000000000000e+02 1.320000000000000000e+02 1.330000000000000000e+02 1.340000000000000000e+02 1.350000000000000000e+02 1.360000000000000000e+02 1.370000000000000000e+02 1.380000000000000000e+02 1.390000000000000000e+02 1.400000000000000000e+02 1.410000000000000000e+02 1.420000000000000000e+02 1.430000000000000000e+02 1.440000000000000000e+02 1.450000000000000000e+02 1.460000000000000000e+02 1.470000000000000000e+02 1.480000000000000000e+02 1.490000000000000000e+02 1.500000000000000000e+02 1.510000000000000000e+02 1.520000000000000000e+02 1.530000000000000000e+02 1.540000000000000000e+02 1.550000000000000000e+02 1.560000000000000000e+02 1.570000000000000000e+02 1.580000000000000000e+02 1.590000000000000000e+02 1.600000000000000000e+02 1.610000000000000000e+02 1.620000000000000000e+02 1.630000000000000000e+02 1.640000000000000000e+02 1.650000000000000000e+02 1.660000000000000000e+02 1.670000000000000000e+02 1.680000000000000000e+02 1.690000000000000000e+02 1.700000000000000000e+02 1.710000000000000000e+02 1.720000000000000000e+02 1.730000000000000000e+02 1.740000000000000000e+02 1.750000000000000000e+02 1.760000000000000000e+02 1.770000000000000000e+02 1.780000000000000000e+02 1.790000000000000000e+02 1.800000000000000000e+02 1.810000000000000000e+02 1.820000000000000000e+02 1.830000000000000000e+02 1.840000000000000000e+02 1.850000000000000000e+02 1.860000000000000000e+02 1.870000000000000000e+02 1.880000000000000000e+02 1.890000000000000000e+02 1.900000000000000000e+02 1.910000000000000000e+02 1.920000000000000000e+02 1.930000000000000000e+02 1.940000000000000000e+02 1.950000000000000000e+02 1.960000000000000000e+02 1.970000000000000000e+02 1.980000000000000000e+02 1.990000000000000000e+02 2.000000000000000000e+02 2.010000000000000000e+02 2.020000000000000000e+02 2.030000000000000000e+02 2.040000000000000000e+02 2.050000000000000000e+02 2.060000000000000000e+02 2.070000000000000000e+02 2.080000000000000000e+02 2.090000000000000000e+02 2.100000000000000000e+02 2.110000000000000000e+02 2.120000000000000000e+02 2.130000000000000000e+02 2.140000000000000000e+02 2.150000000000000000e+02 2.160000000000000000e+02 2.170000000000000000e+02 2.180000000000000000e+02 2.190000000000000000e+02 2.200000000000000000e+02 2.210000000000000000e+02 2.220000000000000000e+02 2.230000000000000000e+02 2.240000000000000000e+02 2.250000000000000000e+02 2.260000000000000000e+02 2.270000000000000000e+02 2.280000000000000000e+02 2.290000000000000000e+02 2.300000000000000000e+02 2.310000000000000000e+02 2.320000000000000000e+02 2.330000000000000000e+02 2.340000000000000000e+02 2.350000000000000000e+02 2.360000000000000000e+02 2.370000000000000000e+02 2.380000000000000000e+02 2.390000000000000000e+02 2.400000000000000000e+02 2.410000000000000000e+02 2.420000000000000000e+02 2.430000000000000000e+02 2.440000000000000000e+02 2.450000000000000000e+02 2.460000000000000000e+02 2.470000000000000000e+02 2.480000000000000000e+02 2.490000000000000000e+02 2.500000000000000000e+02 2.510000000000000000e+02 2.520000000000000000e+02 2.530000000000000000e+02 2.540000000000000000e+02 2.550000000000000000e+02 2.560000000000000000e+02 2.570000000000000000e+02 2.580000000000000000e+02 2.590000000000000000e+02 2.600000000000000000e+02 2.610000000000000000e+02 2.620000000000000000e+02 2.630000000000000000e+02 2.640000000000000000e+02 2.650000000000000000e+02 2.660000000000000000e+02 2.670000000000000000e+02 2.680000000000000000e+02 2.690000000000000000e+02 2.700000000000000000e+02 2.710000000000000000e+02 2.720000000000000000e+02 2.730000000000000000e+02 2.740000000000000000e+02 2.750000000000000000e+02 2.760000000000000000e+02 2.770000000000000000e+02 2.780000000000000000e+02 2.790000000000000000e+02 2.800000000000000000e+02 2.810000000000000000e+02 2.820000000000000000e+02 2.830000000000000000e+02 2.840000000000000000e+02 2.850000000000000000e+02 2.860000000000000000e+02 2.870000000000000000e+02 2.880000000000000000e+02 2.890000000000000000e+02 2.900000000000000000e+02 2.910000000000000000e+02 2.920000000000000000e+02 2.930000000000000000e+02 2.940000000000000000e+02 2.950000000000000000e+02 2.960000000000000000e+02 2.970000000000000000e+02 2.980000000000000000e+02 2.990000000000000000e+02 3.000000000000000000e+02 3.010000000000000000e+02 3.020000000000000000e+02 3.030000000000000000e+02 3.040000000000000000e+02 3.050000000000000000e+02 3.060000000000000000e+02 3.070000000000000000e+02 3.080000000000000000e+02 3.090000000000000000e+02 3.100000000000000000e+02 3.110000000000000000e+02 3.120000000000000000e+02 3.130000000000000000e+02 3.140000000000000000e+02 3.150000000000000000e+02 3.160000000000000000e+02 3.170000000000000000e+02 3.180000000000000000e+02 3.190000000000000000e+02 3.200000000000000000e+02 3.210000000000000000e+02 3.220000000000000000e+02 3.230000000000000000e+02 3.240000000000000000e+02 3.250000000000000000e+02 3.260000000000000000e+02 3.270000000000000000e+02 3.280000000000000000e+02 3.290000000000000000e+02 3.300000000000000000e+02 3.310000000000000000e+02 3.320000000000000000e+02 3.330000000000000000e+02 3.340000000000000000e+02 3.350000000000000000e+02 3.360000000000000000e+02 3.370000000000000000e+02 3.380000000000000000e+02 3.390000000000000000e+02 3.400000000000000000e+02 3.410000000000000000e+02 3.420000000000000000e+02 3.430000000000000000e+02 3.440000000000000000e+02 3.450000000000000000e+02 3.460000000000000000e+02 3.470000000000000000e+02 3.480000000000000000e+02 3.490000000000000000e+02 3.500000000000000000e+02 3.510000000000000000e+02 3.520000000000000000e+02 3.530000000000000000e+02 3.540000000000000000e+02 3.550000000000000000e+02 3.560000000000000000e+02 3.570000000000000000e+02 3.580000000000000000e+02 3.590000000000000000e+02 3.600000000000000000e+02 3.610000000000000000e+02 3.620000000000000000e+02 3.630000000000000000e+02 3.640000000000000000e+02 3.650000000000000000e+02 3.660000000000000000e+02 3.670000000000000000e+02 3.680000000000000000e+02 3.690000000000000000e+02 3.700000000000000000e+02 3.710000000000000000e+02 3.720000000000000000e+02 3.730000000000000000e+02 3.740000000000000000e+02 3.750000000000000000e+02 3.760000000000000000e+02 3.770000000000000000e+02 3.780000000000000000e+02 3.790000000000000000e+02 3.800000000000000000e+02 3.810000000000000000e+02 3.820000000000000000e+02 3.830000000000000000e+02 3.840000000000000000e+02 3.850000000000000000e+02 3.860000000000000000e+02 3.870000000000000000e+02 3.880000000000000000e+02 3.890000000000000000e+02 3.900000000000000000e+02 3.910000000000000000e+02 3.920000000000000000e+02 3.930000000000000000e+02 3.940000000000000000e+02 3.950000000000000000e+02 3.960000000000000000e+02 3.970000000000000000e+02 3.980000000000000000e+02 3.990000000000000000e+02 4.000000000000000000e+02 4.010000000000000000e+02 4.020000000000000000e+02 4.030000000000000000e+02 4.040000000000000000e+02 4.050000000000000000e+02 4.060000000000000000e+02 4.070000000000000000e+02 4.080000000000000000e+02 4.090000000000000000e+02 4.100000000000000000e+02 4.110000000000000000e+02 4.120000000000000000e+02 4.130000000000000000e+02 4.140000000000000000e+02 4.150000000000000000e+02 4.160000000000000000e+02 4.170000000000000000e+02 4.180000000000000000e+02 4.190000000000000000e+02 4.200000000000000000e+02 4.210000000000000000e+02 4.220000000000000000e+02 4.230000000000000000e+02 4.240000000000000000e+02 4.250000000000000000e+02 4.260000000000000000e+02 4.270000000000000000e+02 4.280000000000000000e+02 4.290000000000000000e+02 4.300000000000000000e+02 4.310000000000000000e+02 4.320000000000000000e+02 4.330000000000000000e+02 4.340000000000000000e+02 4.350000000000000000e+02 4.360000000000000000e+02 4.370000000000000000e+02 4.380000000000000000e+02 4.390000000000000000e+02 4.400000000000000000e+02 4.410000000000000000e+02 4.420000000000000000e+02 4.430000000000000000e+02 4.440000000000000000e+02 4.450000000000000000e+02 4.460000000000000000e+02 4.470000000000000000e+02 4.480000000000000000e+02 4.490000000000000000e+02 4.500000000000000000e+02 4.510000000000000000e+02 4.520000000000000000e+02 4.530000000000000000e+02 4.540000000000000000e+02 4.550000000000000000e+02 4.560000000000000000e+02 4.570000000000000000e+02 4.580000000000000000e+02 4.590000000000000000e+02 4.600000000000000000e+02 4.610000000000000000e+02 4.620000000000000000e+02 4.630000000000000000e+02 4.640000000000000000e+02 4.650000000000000000e+02 4.660000000000000000e+02 4.670000000000000000e+02 4.680000000000000000e+02 4.690000000000000000e+02 4.700000000000000000e+02 4.710000000000000000e+02 4.720000000000000000e+02 4.730000000000000000e+02 4.740000000000000000e+02 4.750000000000000000e+02 4.760000000000000000e+02 4.770000000000000000e+02 4.780000000000000000e+02 4.790000000000000000e+02 4.800000000000000000e+02 4.810000000000000000e+02 4.820000000000000000e+02 4.830000000000000000e+02 4.840000000000000000e+02 4.850000000000000000e+02 4.860000000000000000e+02 4.870000000000000000e+02 4.880000000000000000e+02 4.890000000000000000e+02 4.900000000000000000e+02 4.910000000000000000e+02 4.920000000000000000e+02 4.930000000000000000e+02 4.940000000000000000e+02 4.950000000000000000e+02 4.960000000000000000e+02 4.970000000000000000e+02 4.980000000000000000e+02 4.990000000000000000e+02 5.000000000000000000e+02 5.010000000000000000e+02 5.020000000000000000e+02 5.030000000000000000e+02 5.040000000000000000e+02 5.050000000000000000e+02 5.060000000000000000e+02 5.070000000000000000e+02 5.080000000000000000e+02 5.090000000000000000e+02 5.100000000000000000e+02 5.110000000000000000e+02 5.120000000000000000e+02 5.130000000000000000e+02 5.140000000000000000e+02 5.150000000000000000e+02 5.160000000000000000e+02 5.170000000000000000e+02 5.180000000000000000e+02 5.190000000000000000e+02 5.200000000000000000e+02 5.210000000000000000e+02 5.220000000000000000e+02 5.230000000000000000e+02 5.240000000000000000e+02 5.250000000000000000e+02 5.260000000000000000e+02 5.270000000000000000e+02 5.280000000000000000e+02 5.290000000000000000e+02 5.300000000000000000e+02 5.310000000000000000e+02 5.320000000000000000e+02 5.330000000000000000e+02 5.340000000000000000e+02 5.350000000000000000e+02 5.360000000000000000e+02 5.370000000000000000e+02 5.380000000000000000e+02 5.390000000000000000e+02 5.400000000000000000e+02 5.410000000000000000e+02 5.420000000000000000e+02 5.430000000000000000e+02 5.440000000000000000e+02 5.450000000000000000e+02 5.460000000000000000e+02 5.470000000000000000e+02 5.480000000000000000e+02 5.490000000000000000e+02 5.500000000000000000e+02 5.510000000000000000e+02 5.520000000000000000e+02 5.530000000000000000e+02 5.540000000000000000e+02 5.550000000000000000e+02 5.560000000000000000e+02 5.570000000000000000e+02 5.580000000000000000e+02 5.590000000000000000e+02 5.600000000000000000e+02 5.610000000000000000e+02 5.620000000000000000e+02 5.630000000000000000e+02 5.640000000000000000e+02 5.650000000000000000e+02 5.660000000000000000e+02 5.670000000000000000e+02 5.680000000000000000e+02 5.690000000000000000e+02 5.700000000000000000e+02 5.710000000000000000e+02 5.720000000000000000e+02 5.730000000000000000e+02 5.740000000000000000e+02 5.750000000000000000e+02 5.760000000000000000e+02 5.770000000000000000e+02 5.780000000000000000e+02 5.790000000000000000e+02 5.800000000000000000e+02 5.810000000000000000e+02 5.820000000000000000e+02 5.830000000000000000e+02 5.840000000000000000e+02 5.850000000000000000e+02 5.860000000000000000e+02 5.870000000000000000e+02 5.880000000000000000e+02 5.890000000000000000e+02 5.900000000000000000e+02 5.910000000000000000e+02 5.920000000000000000e+02 5.930000000000000000e+02 5.940000000000000000e+02 5.950000000000000000e+02 5.960000000000000000e+02 5.970000000000000000e+02 5.980000000000000000e+02 5.990000000000000000e+02 6.000000000000000000e+02 6.010000000000000000e+02 6.020000000000000000e+02 6.030000000000000000e+02 6.040000000000000000e+02 6.050000000000000000e+02 6.060000000000000000e+02 6.070000000000000000e+02 6.080000000000000000e+02 6.090000000000000000e+02 6.100000000000000000e+02 6.110000000000000000e+02 6.120000000000000000e+02 6.130000000000000000e+02 6.140000000000000000e+02 6.150000000000000000e+02 6.160000000000000000e+02 6.170000000000000000e+02 6.180000000000000000e+02 6.190000000000000000e+02 6.200000000000000000e+02 6.210000000000000000e+02 6.220000000000000000e+02 6.230000000000000000e+02 6.240000000000000000e+02 6.250000000000000000e+02 6.260000000000000000e+02 6.270000000000000000e+02 6.280000000000000000e+02 6.290000000000000000e+02 6.300000000000000000e+02 6.310000000000000000e+02 6.320000000000000000e+02 6.330000000000000000e+02 6.340000000000000000e+02 6.350000000000000000e+02 6.360000000000000000e+02 6.370000000000000000e+02 6.380000000000000000e+02 6.390000000000000000e+02 6.400000000000000000e+02 6.410000000000000000e+02 6.420000000000000000e+02 6.430000000000000000e+02 6.440000000000000000e+02 6.450000000000000000e+02 6.460000000000000000e+02 6.470000000000000000e+02 6.480000000000000000e+02 6.490000000000000000e+02 6.500000000000000000e+02 6.510000000000000000e+02 6.520000000000000000e+02 6.530000000000000000e+02 6.540000000000000000e+02 6.550000000000000000e+02 6.560000000000000000e+02 6.570000000000000000e+02 6.580000000000000000e+02 6.590000000000000000e+02 6.600000000000000000e+02 6.610000000000000000e+02 6.620000000000000000e+02 6.630000000000000000e+02 6.640000000000000000e+02 6.650000000000000000e+02 6.660000000000000000e+02 6.670000000000000000e+02 6.680000000000000000e+02 6.690000000000000000e+02 6.700000000000000000e+02 6.710000000000000000e+02 6.720000000000000000e+02 6.730000000000000000e+02 6.740000000000000000e+02 6.750000000000000000e+02 6.760000000000000000e+02 6.770000000000000000e+02 6.780000000000000000e+02 6.790000000000000000e+02 6.800000000000000000e+02 6.810000000000000000e+02 6.820000000000000000e+02 6.830000000000000000e+02 6.840000000000000000e+02 6.850000000000000000e+02 6.860000000000000000e+02 6.870000000000000000e+02 6.880000000000000000e+02 6.890000000000000000e+02 6.900000000000000000e+02 6.910000000000000000e+02 6.920000000000000000e+02 6.930000000000000000e+02 6.940000000000000000e+02 6.950000000000000000e+02 6.960000000000000000e+02 6.970000000000000000e+02 6.980000000000000000e+02 6.990000000000000000e+02 7.000000000000000000e+02 7.010000000000000000e+02 7.020000000000000000e+02 7.030000000000000000e+02 7.040000000000000000e+02 7.050000000000000000e+02 7.060000000000000000e+02 7.070000000000000000e+02 7.080000000000000000e+02 7.090000000000000000e+02 7.100000000000000000e+02 7.110000000000000000e+02 7.120000000000000000e+02 7.130000000000000000e+02 7.140000000000000000e+02 7.150000000000000000e+02 7.160000000000000000e+02 7.170000000000000000e+02 7.180000000000000000e+02 7.190000000000000000e+02 7.200000000000000000e+02 7.210000000000000000e+02 7.220000000000000000e+02 7.230000000000000000e+02 7.240000000000000000e+02 7.250000000000000000e+02 7.260000000000000000e+02 7.270000000000000000e+02 7.280000000000000000e+02 7.290000000000000000e+02 7.300000000000000000e+02 7.310000000000000000e+02 7.320000000000000000e+02 7.330000000000000000e+02 7.340000000000000000e+02 7.350000000000000000e+02 7.360000000000000000e+02 7.370000000000000000e+02 7.380000000000000000e+02 7.390000000000000000e+02 7.400000000000000000e+02 7.410000000000000000e+02 7.420000000000000000e+02 7.430000000000000000e+02 7.440000000000000000e+02 7.450000000000000000e+02 7.460000000000000000e+02 7.470000000000000000e+02 7.480000000000000000e+02 7.490000000000000000e+02 7.500000000000000000e+02 7.510000000000000000e+02 7.520000000000000000e+02 7.530000000000000000e+02 7.540000000000000000e+02 7.550000000000000000e+02 7.560000000000000000e+02 7.570000000000000000e+02 7.580000000000000000e+02 7.590000000000000000e+02 7.600000000000000000e+02 7.610000000000000000e+02 7.620000000000000000e+02 7.630000000000000000e+02 7.640000000000000000e+02 7.650000000000000000e+02 7.660000000000000000e+02 7.670000000000000000e+02 7.680000000000000000e+02 7.690000000000000000e+02 7.700000000000000000e+02 7.710000000000000000e+02 7.720000000000000000e+02 7.730000000000000000e+02 7.740000000000000000e+02 7.750000000000000000e+02 7.760000000000000000e+02 7.770000000000000000e+02 7.780000000000000000e+02 7.790000000000000000e+02 7.800000000000000000e+02 7.810000000000000000e+02 7.820000000000000000e+02 7.830000000000000000e+02 7.840000000000000000e+02 7.850000000000000000e+02 7.860000000000000000e+02 7.870000000000000000e+02 7.880000000000000000e+02 7.890000000000000000e+02 7.900000000000000000e+02 7.910000000000000000e+02 7.920000000000000000e+02 7.930000000000000000e+02 7.940000000000000000e+02 7.950000000000000000e+02 7.960000000000000000e+02 7.970000000000000000e+02 7.980000000000000000e+02 7.990000000000000000e+02 8.000000000000000000e+02 8.010000000000000000e+02 8.020000000000000000e+02 8.030000000000000000e+02 8.040000000000000000e+02 8.050000000000000000e+02 8.060000000000000000e+02 8.070000000000000000e+02 8.080000000000000000e+02 8.090000000000000000e+02 8.100000000000000000e+02 8.110000000000000000e+02 8.120000000000000000e+02 8.130000000000000000e+02 8.140000000000000000e+02 8.150000000000000000e+02 8.160000000000000000e+02 8.170000000000000000e+02 8.180000000000000000e+02 8.190000000000000000e+02 8.200000000000000000e+02 8.210000000000000000e+02 8.220000000000000000e+02 8.230000000000000000e+02 8.240000000000000000e+02 8.250000000000000000e+02 8.260000000000000000e+02 8.270000000000000000e+02 8.280000000000000000e+02 8.290000000000000000e+02 8.300000000000000000e+02 8.310000000000000000e+02 8.320000000000000000e+02 8.330000000000000000e+02 8.340000000000000000e+02 8.350000000000000000e+02 8.360000000000000000e+02 8.370000000000000000e+02 8.380000000000000000e+02 8.390000000000000000e+02 8.400000000000000000e+02 8.410000000000000000e+02 8.420000000000000000e+02 8.430000000000000000e+02 8.440000000000000000e+02 8.450000000000000000e+02 8.460000000000000000e+02 8.470000000000000000e+02 8.480000000000000000e+02 8.490000000000000000e+02 8.500000000000000000e+02 8.510000000000000000e+02 8.520000000000000000e+02 8.530000000000000000e+02 8.540000000000000000e+02 8.550000000000000000e+02 8.560000000000000000e+02 8.570000000000000000e+02 8.580000000000000000e+02 8.590000000000000000e+02 8.600000000000000000e+02 8.610000000000000000e+02 8.620000000000000000e+02 8.630000000000000000e+02 8.640000000000000000e+02 8.650000000000000000e+02 8.660000000000000000e+02 8.670000000000000000e+02 8.680000000000000000e+02 8.690000000000000000e+02 8.700000000000000000e+02 8.710000000000000000e+02 8.720000000000000000e+02 8.730000000000000000e+02 8.740000000000000000e+02 8.750000000000000000e+02 8.760000000000000000e+02 8.770000000000000000e+02 8.780000000000000000e+02 8.790000000000000000e+02 8.800000000000000000e+02 8.810000000000000000e+02 8.820000000000000000e+02 8.830000000000000000e+02 8.840000000000000000e+02 8.850000000000000000e+02 8.860000000000000000e+02 8.870000000000000000e+02 8.880000000000000000e+02 8.890000000000000000e+02 8.900000000000000000e+02 8.910000000000000000e+02 8.920000000000000000e+02 8.930000000000000000e+02 8.940000000000000000e+02 8.950000000000000000e+02 8.960000000000000000e+02 8.970000000000000000e+02 8.980000000000000000e+02 8.990000000000000000e+02 9.000000000000000000e+02 9.010000000000000000e+02 9.020000000000000000e+02 9.030000000000000000e+02 9.040000000000000000e+02 9.050000000000000000e+02 9.060000000000000000e+02 9.070000000000000000e+02 9.080000000000000000e+02 9.090000000000000000e+02 9.100000000000000000e+02 9.110000000000000000e+02 9.120000000000000000e+02 9.130000000000000000e+02 9.140000000000000000e+02 9.150000000000000000e+02 9.160000000000000000e+02 9.170000000000000000e+02 9.180000000000000000e+02 9.190000000000000000e+02 9.200000000000000000e+02 9.210000000000000000e+02 9.220000000000000000e+02 9.230000000000000000e+02 9.240000000000000000e+02 9.250000000000000000e+02 9.260000000000000000e+02 9.270000000000000000e+02 9.280000000000000000e+02 9.290000000000000000e+02 9.300000000000000000e+02 9.310000000000000000e+02 9.320000000000000000e+02 9.330000000000000000e+02 9.340000000000000000e+02 9.350000000000000000e+02 9.360000000000000000e+02 9.370000000000000000e+02 9.380000000000000000e+02 9.390000000000000000e+02 9.400000000000000000e+02 9.410000000000000000e+02 9.420000000000000000e+02 9.430000000000000000e+02 9.440000000000000000e+02 9.450000000000000000e+02 9.460000000000000000e+02 9.470000000000000000e+02 9.480000000000000000e+02 9.490000000000000000e+02 9.500000000000000000e+02 9.510000000000000000e+02 9.520000000000000000e+02 9.530000000000000000e+02 9.540000000000000000e+02 9.550000000000000000e+02 9.560000000000000000e+02 9.570000000000000000e+02 9.580000000000000000e+02 9.590000000000000000e+02 9.600000000000000000e+02 9.610000000000000000e+02 9.620000000000000000e+02 9.630000000000000000e+02 9.640000000000000000e+02 9.650000000000000000e+02 9.660000000000000000e+02 9.670000000000000000e+02 9.680000000000000000e+02 9.690000000000000000e+02 9.700000000000000000e+02 9.710000000000000000e+02 9.720000000000000000e+02 9.730000000000000000e+02 9.740000000000000000e+02 9.750000000000000000e+02 9.760000000000000000e+02 9.770000000000000000e+02 9.780000000000000000e+02 9.790000000000000000e+02 9.800000000000000000e+02 9.810000000000000000e+02 9.820000000000000000e+02 9.830000000000000000e+02 9.840000000000000000e+02 9.850000000000000000e+02 9.860000000000000000e+02 9.870000000000000000e+02 9.880000000000000000e+02 9.890000000000000000e+02 9.900000000000000000e+02 9.910000000000000000e+02 9.920000000000000000e+02 9.930000000000000000e+02 9.940000000000000000e+02 9.950000000000000000e+02 9.960000000000000000e+02 9.970000000000000000e+02 9.980000000000000000e+02 9.990000000000000000e+02
1.000000000000000000e+00 1.000000000000000000e+00 1.000000000000000000e+00 1.000000000000000000e+00 1.000000000000000000e+00 1.000000000000000000e+00 1.000000000000000000e+00 1.000000000000000000e+00 1.000000000000000000e+00 1.000000000000000000e+00 1.000000000000000000e+00 1.000000000000000000e+00 1.000000000000000000e+00 1.000000000000000000e+00 1.000000000000000000e+00 1.000000000000000000e+00 1.000000000000000000e+00 1.000000000000000000e+00 1.000000000000000000e+00 1.000000000000000000e+00 1.000000000000000000e+00 1.000000000000000000e+00 1.000000000000000000e+00 1.000000000000000000e+00 1.000000000000000000e+00 1.000000000000000000e+00 1.000000000000000000e+00 1.000000000000000000e+00 1.000000000000000000e+00 1.000000000000000000e+00 1.000000000000000000e+00 1.000000000000000000e+00 1.000000000000000000e+00 1.000000000000000000e+00 1.000000000000000000e+00 1.000000000000000000e+00 1.000000000000000000e+00 1.000000000000000000e+00 1.000000000000000000e+00 1.000000000000000000e+00 1.000000000000000000e+00 1.000000000000000000e+00 1.000000000000000000e+00 1.000000000000000000e+00 1.000000000000000000e+00 1.000000000000000000e+00 1.000000000000000000e+00 1.000000000000000000e+00 1.000000000000000000e+00 1.000000000000000000e+00 1.000000000000000000e+00 1.000000000000000000e+00 1.000000000000000000e+00 1.000000000000000000e+00 1.000000000000000000e+00 1.000000000000000000e+00 1.000000000000000000e+00 1.000000000000000000e+00 1.000000000000000000e+00 1.000000000000000000e+00 1.000000000000000000e+00 1.000000000000000000e+00 1.000000000000000000e+00 1.000000000000000000e+00 1.000000000000000000e+00 1.000000000000000000e+00 1.000000000000000000e+00 1.000000000000000000e+00 1.000000000000000000e+00 1.000000000000000000e+00 1.000000000000000000e+00 1.000000000000000000e+00 1.000000000000000000e+00 1.000000000000000000e+00 1.000000000000000000e+00 1.000000000000000000e+00 1.000000000000000000e+00 1.000000000000000000e+00 1.000000000000000000e+00 1.000000000000000000e+00 1.000000000000000000e+00 1.000000000000000000e+00 1.000000000000000000e+00 1.000000000000000000e+00 1.000000000000000000e+00 1.000000000000000000e+00 1.000000000000000000e+00 1.000000000000000000e+00 1.000000000000000000e+00 1.000000000000000000e+00 1.000000000000000000e+00 1.000000000000000000e+00 1.000000000000000000e+00 1.000000000000000000e+00 1.000000000000000000e+00 1.000000000000000000e+00 1.000000000000000000e+00 1.000000000000000000e+00 1.000000000000000000e+00 1.000000000000000000e+00 1.000000000000000000e+00 1.000000000000000000e+00 1.000000000000000000e+00 1.000000000000000000e+00 1.000000000000000000e+00 1.000000000000000000e+00 1.000000000000000000e+00 1.000000000000000000e+00 1.000000000000000000e+00 1.000000000000000000e+00 1.000000000000000000e+00 1.000000000000000000e+00 1.000000000000000000e+00 1.000000000000000000e+00 1.000000000000000000e+00 1.000000000000000000e+00 1.000000000000000000e+00 1.000000000000000000e+00 1.000000000000000000e+00 1.000000000000000000e+00 1.000000000000000000e+00 1.000000000000000000e+00 1.000000000000000000e+00 1.000000000000000000e+00 1.000000000000000000e+00 1.000000000000000000e+00 1.000000000000000000e+00 1.000000000000000000e+00 1.000000000000000000e+00 1.000000000000000000e+00 1.000000000000000000e+00 1.000000000000000000e+00 1.000000000000000000e+00 1.000000000000000000e+00 1.000000000000000000e+00 1.000000000000000000e+00 1.000000000000000000e+00 1.000000000000000000e+00 1.000000000000000000e+00 1.000000000000000000e+00 1.000000000000000000e+00 1.000000000000000000e+00 1.000000000000000000e+00 1.000000000000000000e+00 1.000000000000000000e+00 1.000000000000000000e+00 1.000000000000000000e+00 1.000000000000000000e+00 1.000000000000000000e+00 1.000000000000000000e+00 1.000000000000000000e+00 1.000000000000000000e+00 1.000000000000000000e+00 1.000000000000000000e+00 1.000000000000000000e+00 1.000000000000000000e+00 1.000000000000000000e+00 1.000000000000000000e+00 1.000000000000000000e+00 1.000000000000000000e+00 1.000000000000000000e+00 1.000000000000000000e+00 1.000000000000000000e+00 1.000000000000000000e+00 1.000000000000000000e+00 1.000000000000000000e+00 1.000000000000000000e+00 1.000000000000000000e+00 1.000000000000000000e+00 1.000000000000000000e+00 1.000000000000000000e+00 1.000000000000000000e+00 1.000000000000000000e+00 1.000000000000000000e+00 1.000000000000000000e+00 1.000000000000000000e+00 1.000000000000000000e+00 1.000000000000000000e+00 1.000000000000000000e+00 1.000000000000000000e+00 1.000000000000000000e+00 1.000000000000000000e+00 1.000000000000000000e+00 1.000000000000000000e+00 1.000000000000000000e+00 1.000000000000000000e+00 1.000000000000000000e+00 1.000000000000000000e+00 1.000000000000000000e+00 1.000000000000000000e+00 1.000000000000000000e+00 1.000000000000000000e+00 1.000000000000000000e+00 1.000000000000000000e+00 1.000000000000000000e+00 1.000000000000000000e+00 1.000000000000000000e+00 1.000000000000000000e+00 1.000000000000000000e+00 1.000000000000000000e+00 1.000000000000000000e+00 1.000000000000000000e+00 1.000000000000000000e+00 1.000000000000000000e+00 1.000000000000000000e+00 1.000000000000000000e+00 1.000000000000000000e+00 1.000000000000000000e+00 1.000000000000000000e+00 1.000000000000000000e+00 1.000000000000000000e+00 1.000000000000000000e+00 1.000000000000000000e+00 1.000000000000000000e+00 1.000000000000000000e+00 1.000000000000000000e+00 1.000000000000000000e+00 1.000000000000000000e+00 1.000000000000000000e+00 1.000000000000000000e+00 1.000000000000000000e+00 1.000000000000000000e+00 1.000000000000000000e+00 1.000000000000000000e+00 1.000000000000000000e+00 1.000000000000000000e+00 1.000000000000000000e+00 1.000000000000000000e+00 1.000000000000000000e+00 1.000000000000000000e+00 1.000000000000000000e+00 1.000000000000000000e+00 1.000000000000000000e+00 1.000000000000000000e+00 1.000000000000000000e+00 1.000000000000000000e+00 1.000000000000000000e+00 1.000000000000000000e+00 1.000000000000000000e+00 1.000000000000000000e+00 1.000000000000000000e+00 1.000000000000000000e+00 1.000000000000000000e+00 1.000000000000000000e+00 1.000000000000000000e+00 1.000000000000000000e+00 1.000000000000000000e+00 1.000000000000000000e+00 1.000000000000000000e+00 1.000000000000000000e+00 1.000000000000000000e+00 1.000000000000000000e+00 1.000000000000000000e+00 1.000000000000000000e+00 1.000000000000000000e+00 1.000000000000000000e+00 1.000000000000000000e+00 1.000000000000000000e+00 1.000000000000000000e+00 1.000000000000000000e+00 1.000000000000000000e+00 1.000000000000000000e+00 1.000000000000000000e+00 1.000000000000000000e+00 1.000000000000000000e+00 1.000000000000000000e+00 1.000000000000000000e+00 1.000000000000000000e+00 1.000000000000000000e+00 1.000000000000000000e+00 1.000000000000000000e+00 1.000000000000000000e+00 1.000000000000000000e+00 1.000000000000000000e+00 1.000000000000000000e+00 1.000000000000000000e+00 1.000000000000000000e+00 1.000000000000000000e+00 1.000000000000000000e+00 1.000000000000000000e+00 1.000000000000000000e+00 1.000000000000000000e+00 1.000000000000000000e+00 1.000000000000000000e+00 1.000000000000000000e+00 1.000000000000000000e+00 1.000000000000000000e+00 1.000000000000000000e+00 1.000000000000000000e+00 1.000000000000000000e+00 1.000000000000000000e+00 1.000000000000000000e+00 1.000000000000000000e+00 1.000000000000000000e+00 1.000000000000000000e+00 1.000000000000000000e+00 1.000000000000000000e+00 1.000000000000000000e+00 1.000000000000000000e+00 1.000000000000000000e+00 1.000000000000000000e+00 1.000000000000000000e+00 1.000000000000000000e+00 1.000000000000000000e+00 1.000000000000000000e+00 1.000000000000000000e+00 1.000000000000000000e+00 1.000000000000000000e+00 1.000000000000000000e+00 1.000000000000000000e+00 1.000000000000000000e+00 1.000000000000000000e+00 1.000000000000000000e+00 1.000000000000000000e+00 1.000000000000000000e+00 1.000000000000000000e+00 1.000000000000000000e+00 1.000000000000000000e+00 1.000000000000000000e+00 1.000000000000000000e+00 1.000000000000000000e+00 1.000000000000000000e+00 1.000000000000000000e+00 1.000000000000000000e+00 1.000000000000000000e+00 1.000000000000000000e+00 1.000000000000000000e+00 1.000000000000000000e+00 1.000000000000000000e+00 1.000000000000000000e+00 1.000000000000000000e+00 1.000000000000000000e+00 1.000000000000000000e+00 1.000000000000000000e+00 1.000000000000000000e+00 1.000000000000000000e+00 1.000000000000000000e+00 1.000000000000000000e+00 1.000000000000000000e+00 1.000000000000000000e+00 1.000000000000000000e+00 1.000000000000000000e+00 1.000000000000000000e+00 1.000000000000000000e+00 1.000000000000000000e+00 1.000000000000000000e+00 1.000000000000000000e+00 1.000000000000000000e+00 1.000000000000000000e+00 1.000000000000000000e+00 1.000000000000000000e+00 1.000000000000000000e+00 1.000000000000000000e+00 1.000000000000000000e+00 1.000000000000000000e+00 1.000000000000000000e+00 1.000000000000000000e+00 1.000000000000000000e+00 1.000000000000000000e+00 1.000000000000000000e+00 1.000000000000000000e+00 1.000000000000000000e+00 1.000000000000000000e+00 1.000000000000000000e+00 1.000000000000000000e+00 1.000000000000000000e+00 1.000000000000000000e+00 1.000000000000000000e+00 1.000000000000000000e+00 1.000000000000000000e+00 1.000000000000000000e+00 1.000000000000000000e+00 1.000000000000000000e+00 1.000000000000000000e+00 1.000000000000000000e+00 1.000000000000000000e+00 1.000000000000000000e+00 1.000000000000000000e+00 1.000000000000000000e+00 1.000000000000000000e+00 1.000000000000000000e+00 1.000000000000000000e+00 1.000000000000000000e+00 1.000000000000000000e+00 1.000000000000000000e+00 1.000000000000000000e+00 1.000000000000000000e+00 1.000000000000000000e+00 1.000000000000000000e+00 1.000000000000000000e+00 1.000000000000000000e+00 1.000000000000000000e+00 1.000000000000000000e+00 1.000000000000000000e+00 1.000000000000000000e+00 1.000000000000000000e+00 1.000000000000000000e+00 1.000000000000000000e+00 1.000000000000000000e+00 1.000000000000000000e+00 1.000000000000000000e+00 1.000000000000000000e+00 1.000000000000000000e+00 1.000000000000000000e+00 1.000000000000000000e+00 1.000000000000000000e+00 1.000000000000000000e+00 1.000000000000000000e+00 1.000000000000000000e+00 1.000000000000000000e+00 1.000000000000000000e+00 1.000000000000000000e+00 1.000000000000000000e+00 1.000000000000000000e+00 1.000000000000000000e+00 1.000000000000000000e+00 1.000000000000000000e+00 1.000000000000000000e+00 1.000000000000000000e+00 1.000000000000000000e+00 1.000000000000000000e+00 1.000000000000000000e+00 1.000000000000000000e+00 1.000000000000000000e+00 1.000000000000000000e+00 1.000000000000000000e+00 1.000000000000000000e+00 1.000000000000000000e+00 1.000000000000000000e+00 1.000000000000000000e+00 1.000000000000000000e+00 1.000000000000000000e+00 1.000000000000000000e+00 1.000000000000000000e+00 1.000000000000000000e+00 1.000000000000000000e+00 1.000000000000000000e+00 1.000000000000000000e+00 1.000000000000000000e+00 1.000000000000000000e+00 1.000000000000000000e+00 1.000000000000000000e+00 1.000000000000000000e+00 1.000000000000000000e+00 1.000000000000000000e+00 1.000000000000000000e+00 1.000000000000000000e+00 1.000000000000000000e+00 1.000000000000000000e+00 1.000000000000000000e+00 1.000000000000000000e+00 1.000000000000000000e+00 1.000000000000000000e+00 1.000000000000000000e+00 1.000000000000000000e+00 1.000000000000000000e+00 1.000000000000000000e+00 1.000000000000000000e+00 1.000000000000000000e+00 1.000000000000000000e+00 1.000000000000000000e+00 1.000000000000000000e+00 1.000000000000000000e+00 1.000000000000000000e+00 1.000000000000000000e+00 1.000000000000000000e+00 1.000000000000000000e+00 1.000000000000000000e+00 1.000000000000000000e+00 1.000000000000000000e+00 1.000000000000000000e+00 1.000000000000000000e+00 1.000000000000000000e+00 1.000000000000000000e+00 1.000000000000000000e+00 1.000000000000000000e+00 1.000000000000000000e+00 1.000000000000000000e+00 1.000000000000000000e+00 1.000000000000000000e+00 1.000000000000000000e+00 1.000000000000000000e+00 1.000000000000000000e+00 1.000000000000000000e+00 1.000000000000000000e+00 1.000000000000000000e+00 1.000000000000000000e+00 1.000000000000000000e+00 1.000000000000000000e+00 1.000000000000000000e+00 1.000000000000000000e+00 1.000000000000000000e+00 1.000000000000000000e+00 1.000000000000000000e+00 1.000000000000000000e+00 1.000000000000000000e+00 1.000000000000000000e+00 1.000000000000000000e+00 1.000000000000000000e+00 1.000000000000000000e+00 1.000000000000000000e+00 1.000000000000000000e+00 1.000000000000000000e+00 1.000000000000000000e+00 1.000000000000000000e+00 1.000000000000000000e+00 1.000000000000000000e+00 1.000000000000000000e+00 1.000000000000000000e+00 1.000000000000000000e+00 1.000000000000000000e+00 1.000000000000000000e+00 1.000000000000000000e+00 1.000000000000000000e+00 1.000000000000000000e+00 1.000000000000000000e+00 1.000000000000000000e+00 1.000000000000000000e+00 1.000000000000000000e+00 1.000000000000000000e+00 1.000000000000000000e+00 1.000000000000000000e+00 1.000000000000000000e+00 1.000000000000000000e+00 1.000000000000000000e+00 1.000000000000000000e+00 1.000000000000000000e+00 1.000000000000000000e+00 1.000000000000000000e+00 1.000000000000000000e+00 1.000000000000000000e+00 1.000000000000000000e+00 1.000000000000000000e+00 1.000000000000000000e+00 1.000000000000000000e+00 1.000000000000000000e+00 1.000000000000000000e+00 1.000000000000000000e+00 1.000000000000000000e+00 1.000000000000000000e+00 1.000000000000000000e+00 1.000000000000000000e+00 1.000000000000000000e+00 1.000000000000000000e+00 1.000000000000000000e+00 1.000000000000000000e+00 1.000000000000000000e+00 1.000000000000000000e+00 1.000000000000000000e+00 1.000000000000000000e+00 1.000000000000000000e+00 1.000000000000000000e+00 1.000000000000000000e+00 1.000000000000000000e+00 1.000000000000000000e+00 1.000000000000000000e+00 1.000000000000000000e+00 1.000000000000000000e+00 1.000000000000000000e+00 1.000000000000000000e+00 1.000000000000000000e+00 1.000000000000000000e+00 1.000000000000000000e+00 1.000000000000000000e+00 1.000000000000000000e+00 1.000000000000000000e+00 1.000000000000000000e+00 1.000000000000000000e+00 1.000000000000000000e+00 1.000000000000000000e+00 1.000000000000000000e+00 1.000000000000000000e+00 1.000000000000000000e+00 1.000000000000000000e+00 1.000000000000000000e+00 1.000000000000000000e+00 1.000000000000000000e+00 1.000000000000000000e+00 1.000000000000000000e+00 1.000000000000000000e+00 1.000000000000000000e+00 1.000000000000000000e+00 1.000000000000000000e+00 1.000000000000000000e+00 1.000000000000000000e+00 1.000000000000000000e+00 1.000000000000000000e+00 1.000000000000000000e+00 1.000000000000000000e+00 1.000000000000000000e+00 1.000000000000000000e+00 1.000000000000000000e+00 1.000000000000000000e+00 1.000000000000000000e+00 1.000000000000000000e+00 1.000000000000000000e+00 1.000000000000000000e+00 1.000000000000000000e+00 1.000000000000000000e+00 1.000000000000000000e+00 1.000000000000000000e+00 1.000000000000000000e+00 1.000000000000000000e+00 1.000000000000000000e+00 1.000000000000000000e+00 1.000000000000000000e+00 1.000000000000000000e+00 1.000000000000000000e+00 1.000000000000000000e+00 1.000000000000000000e+00 1.000000000000000000e+00 1.000000000000000000e+00 1.000000000000000000e+00 1.000000000000000000e+00 1.000000000000000000e+00 1.000000000000000000e+00 1.000000000000000000e+00 1.000000000000000000e+00 1.000000000000000000e+00 1.000000000000000000e+00 1.000000000000000000e+00 1.000000000000000000e+00 1.000000000000000000e+00 1.000000000000000000e+00 1.000000000000000000e+00 1.000000000000000000e+00 1.000000000000000000e+00 1.000000000000000000e+00 1.000000000000000000e+00 1.000000000000000000e+00 1.000000000000000000e+00 1.000000000000000000e+00 1.000000000000000000e+00 1.000000000000000000e+00 1.000000000000000000e+00 1.000000000000000000e+00 1.000000000000000000e+00 1.000000000000000000e+00 1.000000000000000000e+00 1.000000000000000000e+00 1.000000000000000000e+00 1.000000000000000000e+00 1.000000000000000000e+00 1.000000000000000000e+00 1.000000000000000000e+00 1.000000000000000000e+00 1.000000000000000000e+00 1.000000000000000000e+00 1.000000000000000000e+00 1.000000000000000000e+00 1.000000000000000000e+00 1.000000000000000000e+00 1.000000000000000000e+00 1.000000000000000000e+00 1.000000000000000000e+00 1.000000000000000000e+00 1.000000000000000000e+00 1.000000000000000000e+00 1.000000000000000000e+00 1.000000000000000000e+00 1.000000000000000000e+00 1.000000000000000000e+00 1.000000000000000000e+00 1.000000000000000000e+00 1.000000000000000000e+00 1.000000000000000000e+00 1.000000000000000000e+00 1.000000000000000000e+00 1.000000000000000000e+00 1.000000000000000000e+00 1.000000000000000000e+00 1.000000000000000000e+00 1.000000000000000000e+00 1.000000000000000000e+00 1.000000000000000000e+00 1.000000000000000000e+00 1.000000000000000000e+00 1.000000000000000000e+00 1.000000000000000000e+00 1.000000000000000000e+00 1.000000000000000000e+00 1.000000000000000000e+00 1.000000000000000000e+00 1.000000000000000000e+00 1.000000000000000000e+00 1.000000000000000000e+00 1.000000000000000000e+00 1.000000000000000000e+00 1.000000000000000000e+00 1.000000000000000000e+00 1.000000000000000000e+00 1.000000000000000000e+00 1.000000000000000000e+00 1.000000000000000000e+00 1.000000000000000000e+00 1.000000000000000000e+00 1.000000000000000000e+00 1.000000000000000000e+00 1.000000000000000000e+00 1.000000000000000000e+00 1.000000000000000000e+00 1.000000000000000000e+00 1.000000000000000000e+00 1.000000000000000000e+00 1.000000000000000000e+00 1.000000000000000000e+00 1.000000000000000000e+00 1.000000000000000000e+00 1.000000000000000000e+00 1.000000000000000000e+00 1.000000000000000000e+00 1.000000000000000000e+00 1.000000000000000000e+00 1.000000000000000000e+00 1.000000000000000000e+00 1.000000000000000000e+00 1.000000000000000000e+00 1.000000000000000000e+00 1.000000000000000000e+00 1.000000000000000000e+00 1.000000000000000000e+00 1.000000000000000000e+00 1.000000000000000000e+00 1.000000000000000000e+00 1.000000000000000000e+00 1.000000000000000000e+00 1.000000000000000000e+00 1.000000000000000000e+00 1.000000000000000000e+00 1.000000000000000000e+00 1.000000000000000000e+00 1.000000000000000000e+00 1.000000000000000000e+00 1.000000000000000000e+00 1.000000000000000000e+00 1.000000000000000000e+00 1.000000000000000000e+00 1.000000000000000000e+00 1.000000000000000000e+00 1.000000000000000000e+00 1.000000000000000000e+00 1.000000000000000000e+00 1.000000000000000000e+00 1.000000000000000000e+00 1.000000000000000000e+00 1.000000000000000000e+00 1.000000000000000000e+00 1.000000000000000000e+00 1.000000000000000000e+00 1.000000000000000000e+00 1.000000000000000000e+00 1.000000000000000000e+00 1.000000000000000000e+00 1.000000000000000000e+00 1.000000000000000000e+00 1.000000000000000000e+00 1.000000000000000000e+00 1.000000000000000000e+00 1.000000000000000000e+00 1.000000000000000000e+00 1.000000000000000000e+00 1.000000000000000000e+00 1.000000000000000000e+00 1.000000000000000000e+00 1.000000000000000000e+00 1.000000000000000000e+00 1.000000000000000000e+00 1.000000000000000000e+00 1.000000000000000000e+00 1.000000000000000000e+00 1.000000000000000000e+00 1.000000000000000000e+00 1.000000000000000000e+00 1.000000000000000000e+00 1.000000000000000000e+00 1.000000000000000000e+00 1.000000000000000000e+00 1.000000000000000000e+00 1.000000000000000000e+00 1.000000000000000000e+00 1.000000000000000000e+00 1.000000000000000000e+00 1.000000000000000000e+00 1.000000000000000000e+00 1.000000000000000000e+00 1.000000000000000000e+00 1.000000000000000000e+00 1.000000000000000000e+00 1.000000000000000000e+00 1.000000000000000000e+00 1.000000000000000000e+00 1.000000000000000000e+00 1.000000000000000000e+00 1.000000000000000000e+00 1.000000000000000000e+00 1.000000000000000000e+00 1.000000000000000000e+00 1.000000000000000000e+00 1.000000000000000000e+00 1.000000000000000000e+00 1.000000000000000000e+00 1.000000000000000000e+00 1.000000000000000000e+00 1.000000000000000000e+00 1.000000000000000000e+00 1.000000000000000000e+00 1.000000000000000000e+00 1.000000000000000000e+00 1.000000000000000000e+00 1.000000000000000000e+00 1.000000000000000000e+00 1.000000000000000000e+00 1.000000000000000000e+00 1.000000000000000000e+00 1.000000000000000000e+00 1.000000000000000000e+00 1.000000000000000000e+00 1.000000000000000000e+00 1.000000000000000000e+00 1.000000000000000000e+00 1.000000000000000000e+00 1.000000000000000000e+00 1.000000000000000000e+00 1.000000000000000000e+00 1.000000000000000000e+00 1.000000000000000000e+00 1.000000000000000000e+00 1.000000000000000000e+00 1.000000000000000000e+00 1.000000000000000000e+00 1.000000000000000000e+00 1.000000000000000000e+00 1.000000000000000000e+00 1.000000000000000000e+00 1.000000000000000000e+00 1.000000000000000000e+00 1.000000000000000000e+00 1.000000000000000000e+00 1.000000000000000000e+00 1.000000000000000000e+00 1.000000000000000000e+00 1.000000000000000000e+00 1.000000000000000000e+00 1.000000000000000000e+00 1.000000000000000000e+00 1.000000000000000000e+00 1.000000000000000000e+00 1.000000000000000000e+00 1.000000000000000000e+00 1.000000000000000000e+00 1.000000000000000000e+00 1.000000000000000000e+00 1.000000000000000000e+00 1.000000000000000000e+00 1.000000000000000000e+00 1.000000000000000000e+00 1.000000000000000000e+00 1.000000000000000000e+00 1.000000000000000000e+00 1.000000000000000000e+00 1.000000000000000000e+00 1.000000000000000000e+00 1.000000000000000000e+00 1.000000000000000000e+00 1.000000000000000000e+00 1.000000000000000000e+00 1.000000000000000000e+00 1.000000000000000000e+00 1.000000000000000000e+00 1.000000000000000000e+00 1.000000000000000000e+00 1.000000000000000000e+00 1.000000000000000000e+00 1.000000000000000000e+00 1.000000000000000000e+00 1.000000000000000000e+00 1.000000000000000000e+00 1.000000000000000000e+00 1.000000000000000000e+00 1.000000000000000000e+00 1.000000000000000000e+00 1.000000000000000000e+00 1.000000000000000000e+00 1.000000000000000000e+00 1.000000000000000000e+00 1.000000000000000000e+00 1.000000000000000000e+00 1.000000000000000000e+00 1.000000000000000000e+00 1.000000000000000000e+00 1.000000000000000000e+00 1.000000000000000000e+00 1.000000000000000000e+00 1.000000000000000000e+00 1.000000000000000000e+00 1.000000000000000000e+00 1.000000000000000000e+00 1.000000000000000000e+00 1.000000000000000000e+00 1.000000000000000000e+00 1.000000000000000000e+00 1.000000000000000000e+00 1.000000000000000000e+00 1.000000000000000000e+00 1.000000000000000000e+00 1.000000000000000000e+00 1.000000000000000000e+00 1.000000000000000000e+00 1.000000000000000000e+00 1.000000000000000000e+00 1.000000000000000000e+00 1.000000000000000000e+00 1.000000000000000000e+00 1.000000000000000000e+00 1.000000000000000000e+00 1.000000000000000000e+00 1.000000000000000000e+00 1.000000000000000000e+00 1.000000000000000000e+00 1.000000000000000000e+00 1.000000000000000000e+00 1.000000000000000000e+00 1.000000000000000000e+00 1.000000000000000000e+00 1.000000000000000000e+00 1.000000000000000000e+00 1.000000000000000000e+00 1.000000000000000000e+00 1.000000000000000000e+00 1.000000000000000000e+00 1.000000000000000000e+00 1.000000000000000000e+00 1.000000000000000000e+00 1.000000000000000000e+00 1.000000000000000000e+00 1.000000000000000000e+00 1.000000000000000000e+00 1.000000000000000000e+00 1.000000000000000000e+00 1.000000000000000000e+00 1.000000000000000000e+00 1.000000000000000000e+00 1.000000000000000000e+00 1.000000000000000000e+00 1.000000000000000000e+00 1.000000000000000000e+00 1.000000000000000000e+00 1.000000000000000000e+00 1.000000000000000000e+00 1.000000000000000000e+00 1.000000000000000000e+00 1.000000000000000000e+00 1.000000000000000000e+00 1.000000000000000000e+00 1.000000000000000000e+00 1.000000000000000000e+00 1.000000000000000000e+00 1.000000000000000000e+00 1.000000000000000000e+00 1.000000000000000000e+00 1.000000000000000000e+00 1.000000000000000000e+00 1.000000000000000000e+00 1.000000000000000000e+00 1.000000000000000000e+00 1.000000000000000000e+00 1.000000000000000000e+00 1.000000000000000000e+00 1.000000000000000000e+00 1.000000000000000000e+00 1.000000000000000000e+00 1.000000000000000000e+00 1.000000000000000000e+00 1.000000000000000000e+00 1.000000000000000000e+00 1.000000000000000000e+00 1.000000000000000000e+00 1.000000000000000000e+00 1.000000000000000000e+00 1.000000000000000000e+00 1.000000000000000000e+00 1.000000000000000000e+00 1.000000000000000000e+00 1.000000000000000000e+00 1.000000000000000000e+00 1.000000000000000000e+00 1.000000000000000000e+00 1.000000000000000000e+00 1.000000000000000000e+00 1.000000000000000000e+00 1.000000000000000000e+00 1.000000000000000000e+00 1.000000000000000000e+00 1.000000000000000000e+00 1.000000000000000000e+00 1.000000000000000000e+00 1.000000000000000000e+00 1.000000000000000000e+00 1.000000000000000000e+00 1.000000000000000000e+00
5.132270310389044216e-02 5.092886324776071394e-01 -2.715430277108226709e-01 7.699946267701744951e-01 5.212821078908840278e-01 5.281278998851259843e-01 5.859398383133060939e-01 3.545004745647424294e-01 5.594458787441981551e-01 5.140840235558952198e-01 1.084647158320008575e+00 -7.203509993328202077e-01 1.417452770930966999e+00 4.638160307054575715e-01 5.194944447546649968e-01 4.095475355842378429e-01 8.542091882067430753e-01 9.797079524950584872e-01 7.391809630335721693e-01 5.173504869069760481e-01 3.715005036534948513e-01 9.910413696376285664e-01 3.671987718733682460e-01 5.374766186794829315e-01 7.496603070491149323e-02 6.666225623324615324e-01 3.998028511967354759e-01 7.017587717596532881e-01 5.337551571619162383e-01 1.615451211441263579e+00 4.960958417603332227e-01 6.059215175788784657e-01 7.186300935204905649e-01 5.202432191913723969e-01 6.953194932252222404e-01 4.578097026649984302e-01 5.484450268607972134e-01 1.837878356840376259e+00 -8.503931640015699456e-02 5.260724322385643692e-01 -2.068900169354590257e-01 -5.621879233942632670e-01 7.471209236159161993e-01 2.296348806836304712e-01 3.109905563903556103e-01 4.920965946102863753e-01 7.703263730055603942e-01 5.088630525849663355e-01 6.593169351720555849e-01 1.048071916113119291e-02 2.974316180643785112e-02 7.807565695949175710e-01 6.810708189923836420e-01 4.238077496135386757e-01 4.624013468012376227e-01 2.003498393413767967e-02 5.473999195007829277e-01 5.113866071488331055e-01 1.973288607703209130e-01 5.229615471629612822e-01 9.238131062749734834e-01 4.775133635458360670e-01 5.067670056786430788e-01 3.671986851282263986e-01 6.772586871937200659e-01 6.351153646929863505e-01 5.199530065685110669e-01 3.805338629047879118e-01 5.643592395270857764e-01 3.279039873264870397e-02 4.479891541471060501e-01 5.963157471681509447e-01 5.246141465461611197e-01 9.773905403994465751e-03 1.520949399524666568e+00 5.398124158107903137e-01 6.374521737620938433e-01 7.217590640435925797e-01 5.229360370860038909e-01 1.387243959254036874e+00 5.442197930257780536e-01 3.436050890801009561e-01 1.434858751653938391e+00 7.522337730781777365e-01 5.111829872826206822e-01 7.528623619409321455e-01 7.981837993025383549e-01 5.374892729069754571e-01 4.215033122011090927e-01 5.764643799183301054e-01 3.099863535746438803e-01 2.218335182339968625e+00 7.756734239861734492e-01 3.680480366398873604e-02 4.770957826991852335e-01 4.932140853019084115e-01 5.646343918085379165e-01 4.821538722576040881e-01 1.899334353826453992e-01 6.575301756071048054e-01 1.633415878831801171e+00 6.887139965928895657e-01 5.398561304225251156e-01 6.249564069122772736e-01 8.570303945102472065e-01 -2.122183266383165900e+00 -1.240804755638712953e+00 5.283821558416277320e-01 6.157972014379108350e-01 9.690897885226665842e-01 5.878203255430373142e-01 4.245692006699140486e-01 1.772066487578362881e-01 5.026226836991591895e-01 5.263073348666771345e-01 4.964880861964570125e-01 4.626886945955646091e-01 5.089242439879591018e-01 9.777682381319903193e-01 5.075443211973924562e-01 1.313900815294646085e+00 5.417336601410930319e-01 6.275783978275449870e-01 -5.141272588643619468e-01 5.152220312205935127e-01 1.968815056436117539e+00 5.246617668822084468e-01 5.360372350743995984e-01 6.774109649794837207e-01 5.193867653058372724e-01 5.637481417561293062e-01 5.157000236397989434e-01 4.331876556545440904e-01 4.411784629106634825e-01 -3.545830139272049819e-01 -1.718577697444131080e-01 6.653531383436431801e-01 5.376809219358413133e-02 1.007655445078966094e+00 5.748976082902461648e-01 5.155650639279143466e-01 8.720090583474698898e-01 5.235547859863637354e-01 5.072178342057063194e-01 5.195061574286786721e-01 4.059915336878067160e-02 9.589541489556437925e-01 -1.194722267928538945e-01 4.288231146845292718e-01 -9.152041505449340919e-01 7.581469035535910450e-01 -2.877982573007994982e-01 4.921136722501238681e-01 5.557307210554647270e-01 4.941003591070053935e-01 5.105377870203445800e-01 2.012357330311058679e+00 -1.486896794696042634e-01 8.227207266890763648e-01 6.677719365667209583e-01 5.515859709838587532e-01 4.344865222516563485e-01 5.244449403996671588e-01 5.220320178726142180e-01 1.070689503683560417e+00 2.325818708163355231e-01 8.520932175890433280e-01 3.223770749454458184e-01 4.142242884836875860e-01 6.533978953136841961e-01 5.804701467558590622e-01 7.692938817809231722e-01 4.920431613015594507e-01 5.229737580262212582e-01 4.033787601262514011e-01 4.687989759763681874e-02 2.121118514539782340e-01 1.037757992463962942e-01 7.543265162744031693e-01 1.143644817490000909e+00 6.774017212591342263e-01 5.147292436239686575e-01 -1.698639246062864372e-01 4.386918230467740654e-01 5.133771601666170525e-01 5.536591427834867130e-01 5.159059931755032302e-01 5.279006277082028964e-01 2.846870888097682073e+00 4.936575260898130590e-01 5.606102028089195999e-01 -9.152200169207869163e-01 5.387956453038917903e-01 5.165130039684532326e-01 1.974695116481616219e-01 5.188498011820573685e-01 9.428223526951251543e-01 5.008468371045173839e-01 4.815249849318123943e-01 5.241336837670058646e-01 6.326246757756552874e-01 5.063366194158608335e-01 8.722780095211707385e-01 6.020472563952008471e-01 5.432124820302135504e-01 4.815250187504715451e-01 2.091549468126415734e-01 1.297690800541372536e+00 5.608032896702859205e-01 4.513240982087251552e-01 4.240831142436536361e-01 -9.292455102648114473e-02 4.935017067995344231e-01 1.554028579200418814e-01 5.147033912158298641e-01 5.199701856866908445e-01 5.225221549773733098e-01 5.206946286885110187e-01 5.232024003255324462e-01 5.234927636775492665e-01 4.384155904955588379e-01 5.689171415459954861e-01 -7.178200396063286748e-01 6.193421497534763454e-01 4.418232648257520712e-01 3.589196844382922524e-01 3.341222161916627964e-02 1.330277924755177477e+00 9.686887759111877383e-01 4.922025346963440073e-01 -1.024447002622362463e-01 1.064141890227523701e+00 5.219897930289353338e-01 4.597904610353732990e-01 6.452993336179062567e-01 4.084434665445916268e-01 2.728251642871097893e-01 1.703923256571239775e-01 -1.623342920346341200e-01 -7.534073131954785452e-02 4.701586737901080615e-01 5.040360731973215769e-01 -1.156123865507510673e-01 4.319775309895310111e-01 5.223597838293376761e-01 5.098802431160402993e-01 -9.515047523526366791e-02 7.600690019145603937e-01 -2.347832072184957486e+00 6.173219638676702425e-01 -6.496023338201023511e-01 4.990797455723024467e-01 5.231593575982080857e-01 3.672005173753855045e-01 4.817203929498313775e-01 5.632375372009925663e-01 5.320484050665742481e-01 7.798257285867568056e-01 5.664948048105474809e-01 1.699050965866873542e+00 6.825736637841379739e-01 6.829432538772773897e-01 4.583780549052714481e-01 3.856548783233630373e-01 9.238130635927600531e-01 4.531015074225812622e-01 2.724721004518112721e+00 4.625301923097113743e-01 2.238687752249013674e-01 7.578732640677803278e-01 5.061489777982821625e-01 9.243446828115917668e-01 5.181704562453628427e-01 5.790779164314935334e-01 5.217516806334557833e-01 1.136754129933833513e+00 7.686896574192231268e-01 8.583584501292916835e-01 8.038457425924787625e-01 5.676539956736199599e-01 6.834223217403900819e-01 5.108479984774918492e-01 3.764653983681480187e-01 -7.404293362346745511e-01 3.894320651843055647e-01 4.839392347982997555e-01 5.602784876572222128e-01 5.434174725967458874e-01 4.964881458381696366e-01 6.103511059506387948e-01 5.376237391787077602e-01 -8.993936393034484000e-01 7.514175220372923958e-01 5.288833786675964932e-01 -8.072680466558439932e-03 4.825553171395255969e-01 1.857221277758587474e+00 5.066983309853895223e-01 5.186316834125592745e-01 4.288342452781998548e-01 -3.479582302896038648e+00 5.229415942202474410e-01 2.907133012447260079e+00 7.691953527847604777e-01 4.983852438605722024e-01 -5.723518390780581999e-01 5.203054384438474678e-01 5.209283518254163026e-01 4.490953455748601386e-01 4.497350861652487652e-01 3.444857588808301618e-01 6.486481665376058192e-01 3.139716988003096176e-01 5.236575947581925128e-01 5.277441282048083160e-01 3.519999935213992681e-01 5.132301530311824678e-01 7.692852991587320055e-01 5.218937848863834938e-01 1.209654091469249071e+00 2.863545360288527117e-02 2.234478841396461135e+00 2.671412991733707720e+00 4.924801535517215334e-01 -2.295830403634328554e-01 3.927554873563583460e-01 4.000916734813149134e-01 7.391256568659824167e-01 1.391716639756317209e+00 5.325223032578835225e-01 1.133280589166813623e+00 5.212120955640117126e-01 1.201817722843415148e-01 1.259416513972625884e+00 5.265031980090394415e-01 5.571143075730217165e-01 5.206996971092259230e-01 9.066289269684684182e-01 -3.808645461265050436e+00 1.652262446774396487e+00 5.180503468748571816e-01 6.359334472604099009e-01 5.173897269515398412e-01 1.837878360555676771e+00 2.981260583674404940e-01 5.610256478299311400e-01 4.964269139524662422e-01 5.633958815117318109e-01 1.372681754978917423e+00 5.433041607668566142e-01 4.815253438623207094e-01 4.319732081305024396e-01 6.020472571667438988e-01 4.656110864490728973e-01 5.704302871969106903e-01 9.017533786258464801e-01 5.199515991278856886e-01 3.820190210764313754e-01 1.555499639743991858e-01 6.601383115286451053e-01 5.227314466247136027e-01 3.106166296165420726e-01 5.610256094972817520e-01 6.374090046925395825e-01 5.181103347608977394e-01 1.039864951655357750e+00 9.477880306898786023e-01 1.153211949555192017e+00 5.228682263161681387e-01 2.167838252198420468e-01 9.238124773221517705e-01 -1.097142161219651635e-01 9.336825517726496937e-01 6.302689544717395842e-01 3.009359465769575678e-02 5.003158518367751828e-01 9.139935732186923456e-01 3.851548204522595720e-01 4.897793221346976589e-01 3.038510104844560633e-01 -3.391521184768734876e-01 -2.508831327022846391e+00 5.176165424630447820e-01 6.020472533087329881e-01 6.020472720585777759e-01 5.055939208835762422e-01 3.722601214140827119e-01 -2.331013932434510549e-01 2.897239546944982425e-01 5.256573072414526537e-01 7.110604192962642900e-01 5.220387157637006448e-01 1.030073510787602897e+00 4.815246776181082433e-01 5.218955082639281651e-01 4.919049708572135193e-01 2.844075020276979338e-01 6.601947806006461805e-01 5.163690004051936233e-01 5.179469277842961850e-01 5.078593748885098513e-01 3.072526856961776409e-01 1.684694171479584821e-02 6.020472539434539305e-01 6.630278540187450886e-01 5.205550561234598694e-01 3.949740664838632953e-01 8.598891224627410734e-01 7.520084261864835584e-01 5.643587340008877629e-01 1.901824539284901361e+00 4.955981795252306088e-01 -3.160148751076631957e+00 7.703658962354532624e-01 1.539352876521905333e+00 5.912188547406128647e-01 -1.101375822750353617e+00 8.239637914442199396e-01 4.385189781239061668e-01 5.303840055401927156e-01 4.958447422022074780e-01 -4.100644082505399135e-01 5.084325406418405136e-01 1.075789414167630964e+00 4.591864602533425876e-01 -3.925124599597767383e-01 5.120973133255103393e-01 5.178340021123378767e-01 7.921875802182121173e-01 4.878582516200200003e-01 5.945217956938454451e-01 -5.406802977409185251e-01 5.611609403967954268e-01 5.170428982950753261e-01 5.772713644191811433e-01 5.205927059916782840e-01 7.695910065085364016e-01 5.191607085498874952e-01 6.194240801254599083e-01 4.902702294175262931e-01 5.089903271045659316e-01 2.520023191315574618e-01 3.205616933929918977e-01 3.540857389334057248e-01 9.700817799240395445e-01 5.562173595837539564e-01 3.241594363421572034e+00 6.569446686412881986e-01 6.575253041734628878e-01 5.475169847663345912e-01 5.622428373497140308e-01 2.051801393070853616e-02 4.920108049418563945e-01 5.100232023368912460e-01 5.212561316443395931e-01 1.158422745201037607e+00 7.695448205956145760e-01 5.136105160210662213e-01 4.388815144806024748e-01 1.119248120100205801e+00 5.212705638445527256e-01 5.693935547828665733e-01 4.937397856729134893e-01 8.333684136311511059e-01 5.206055967125139405e-01 9.425781151239607247e-01 5.339099776148561460e-01 5.222057888401151482e-01 2.856467633195662950e-02 5.352300815868734629e-01 1.027586846446989881e-02 3.004309473084305626e-01 4.014613767632394525e-01 5.781542450093449803e-01 7.863522185715176027e-01 5.080336054283811631e-01 3.850483012980289721e-01 1.064303485090081491e-01 5.019373013746987189e-01 5.368393342149928582e-01 4.454047080531930991e-01 1.481567723260630506e-02 5.196629321072919749e-01 2.572140824063899878e-01 5.236563062475195762e-01 4.103396251185683075e-01 1.262349178245257386e+00 7.623973556216065983e-01 5.023716800791475645e-01 2.499015433314479562e-01 7.793394600436048814e-01 4.420434137992901857e-01 1.000395875566536974e+00 5.897523393893814303e-01 6.194072007535061930e-01 7.038237698784588492e-01 2.019286715672176324e+00 4.828854186937291959e-01 5.256717736311238287e-01 5.099733080746750025e-01 7.511160036149315822e-01 5.998352446876776822e-01 8.620969649714105287e-01 -5.821082647203618121e-01 3.876425105724993769e-01 5.196418354219509705e-01 4.321692412124238936e-01 4.141306825497730881e-01 -6.328024905964760860e-01 3.859509613724023125e-01 5.215090163971985993e-01 7.284723548496178092e-01 6.690883710745293422e-01 1.532903859593580220e+00 5.183235842116120651e-01 5.254638484421588762e-01 -7.247271083095365718e-01 5.156964588532689797e-01 1.237809015776668353e+00 7.207992546272775636e-01 2.845222528375923043e-01 2.403571094722509460e-01 -1.799299353812854996e+00 5.584407912461898382e-01 1.887684510339082411e-01 1.107050384597067172e+00 8.246388005357390139e-01 5.322463939736888916e-01 5.464437839663063290e-01 5.803728146704075774e-01 7.702219937087184665e-01 4.259890626793302326e-01 5.550924153847553999e-01 1.933654941066855620e-02 5.702336424802595394e-01 5.475312459241155061e-01 4.321210263968252585e-01 5.128602067353938976e-01 4.507541006972625164e-01 1.229726257780345389e+00 -9.875089016246724194e-02 -2.430896412443529497e-01 4.118433160416686833e-01 5.394005716854863852e-01 5.312578992453513838e-01 5.061003479368951785e-01 -8.785057141036342054e-01 3.206046025132788468e+00 4.949636652356926292e-01 4.401972088303162667e-01 4.440292326357381247e-01 5.208841071945589096e-01 5.073657934400668257e-01 5.090217075216764142e-01 3.269859191229817497e-01 6.077963526870162614e-01 5.230152203228146668e-01 4.966086580827112629e-01 3.262322558725137545e-01 4.023321932353023933e-01 5.703052200602560795e-01 4.053132531145020034e-01 5.356578801061161466e-01 5.368028320130404651e-01 6.755627227502241094e-01 1.021577365058181197e+00 2.338886900406845992e+00 5.081215420131107718e-01 4.996603926252547456e-01 3.667979286569855168e-01 4.754464861449347879e-01 3.785399744833398139e-01 5.206735313081793937e-01 5.169941307618831638e-01 4.995696782070276898e-01 5.713605578181347733e-01 5.018802303732513570e-01 7.697514761626705893e-01 3.645540090511851239e-01 4.058606927348673565e-01 4.110992732292454988e-01 5.024314704081568328e-01 1.087417732219596173e-01 9.238130817589579324e-01 5.655430689626440577e-01 9.595381148793538650e-02 1.913620746538966966e+00 3.098994579043425901e-01 4.075952764643788195e-01 5.951532788540588870e-01 6.514252339990429796e-02 5.499631417712724790e-01 1.528516483328638209e+00 7.979139959853301933e-01 7.101476298264077780e-01 5.208934193600233131e-01 5.389248677472169291e-01 4.372871629316177344e-01 6.534038447457586329e-01 5.418810073951235706e-01 5.212970698827286142e-01 -2.550181298535973418e-01 4.948725858041341241e-01 -1.569539708375520481e+00 4.826104689405145698e-01 5.170360366627695381e-01 5.205625091899274137e-01 4.288494777772450250e-01 9.238130817875913614e-01 2.218783200178778836e-01 5.164729250884380063e-01 1.363375548175407737e+00 -5.754902235340352279e-01 5.260150973966961629e-01 1.151581403600132836e+00 1.549343159296820316e+00 5.692992127536334879e-01 5.246298852365171017e-01 -6.286026642184976143e-02 -1.710313357613945096e+00 2.704800333959191949e-01 8.302911849116241250e-01 5.257673979895299832e-01 5.210456966953563862e-01 6.171044193073683681e-01 4.814956469401020511e-01 -4.216327287469450180e-01 8.305940975813382865e-01 4.964871935483418652e-01 3.261912997755286314e-01 5.345610593686209722e-01 -2.143987297312984971e-03 -1.665442868150535383e-01 1.821752675127533250e+00 4.116465970164361332e-01 5.476187370526667264e-01 5.198419867082523238e-01 3.220097193073986896e-01 5.267086342586679848e-01 -1.216824313321818313e-01 -1.281777893094028453e+00 5.203850585647379345e-01 5.246825236406138515e-01 4.814539877158987013e-01 5.844655164814969162e-01 5.189283942273619221e-01 5.466400476463443292e-01 5.319411578633006510e-01 5.632953071152229096e-01 1.038011528862445410e+00 7.160758525873118785e-01 5.187349439247178617e-01 6.206702062005884368e-01 5.059005608927266140e-01 5.041807179807483719e-01 5.143999479790081070e-02 5.610256689079805570e-01 4.373088767232867213e-01 5.582554480555699250e-01 7.562034975393352454e-01 8.634895759030988271e-01 8.620759389598116051e-01 -5.340035011400321441e-01 5.201763150030743743e-01 4.544433505273797191e-01 5.239244723412801452e-01 5.943270428621686419e-01 9.132131085242998214e-01 5.215044855610471153e-01 5.279573399641744880e-01 -2.915922441637601725e-01 -8.922599220807408971e-01 2.331634989894938226e+00 5.051488394793717251e-01 9.027852264281488459e-01 4.145109724916338223e-01 5.757930755338795947e-01 3.940019685971095642e-01 1.518552608206402699e-01 5.200591065625999043e-01 5.398671272233311891e-01 -4.907478432536081445e-03 5.226002379769758566e-01 4.449987342891585929e-01 5.277237891929341673e-01 5.471132655069308459e-01 5.209085729939710863e-01 6.296225023791276465e-01 4.217491902342211385e-01 5.623499359288323118e-01 4.838555607077756338e-01 5.187648801181001801e-01 4.126438203210535671e-01 5.116075136775504184e-01 -2.560995943752567561e-01 5.157409406317006173e-01 6.419279097132625234e-01 5.538503803444364548e-01 7.701337071856975136e-01 9.238132614485625727e-01 7.270445516771132377e-01 -6.114598645320213910e-01 9.810856238824089415e-01 1.837878356834165006e+00 5.039071262591150457e-01 4.637707677069903833e-01 1.085649890673557216e+00 5.673391259454965141e-01 7.701338569659701427e-01 5.192037781026092036e-01 1.869134714933255337e+00 5.237591346851006024e-01 4.319772261358760246e-01 1.235745527823096879e+00 -6.618934502349232973e-02 5.000162591744241602e-01 -1.555207384132547277e-01 -9.807622174933962045e-01 -1.665736204490091688e-01 7.733371933045208868e-01 5.743020171503381288e-01 5.172873167187548304e-01 -3.213882874456774896e-01 5.372230820351879821e-01 5.423368441162988024e-02 -4.039521609094351429e-01 5.300088048377724625e-01 5.161748233588252521e-01 5.266109494547840386e-01 5.258255453119941025e-01 4.824430042427361731e-01 9.163906680380793368e-01 -4.348686401426039572e-01 5.199932378471366912e-01 4.982390191136978341e-01 5.944336663590504832e-01 1.173853714849266927e+00 4.864364557608449879e-01 6.780140613385858828e-01 5.217509232447097300e-01 4.908114273758561186e-02 -4.106528536465423040e-01 5.563488725648585431e-01 5.671819250287223335e-01 6.863344253787126981e-01 5.181652234731650708e-01 3.643809983498280669e-01 5.243125712471419231e-01 5.177880742630714961e-01 3.979995483908974618e-01 5.325312537148527703e-01 8.406639714287725829e-01 2.586020986626102136e+00 -2.487016406014719849e-01 6.588564925039209763e-01 3.379854164741186717e-01 2.025540605460955657e-01 6.583014319862662278e-01 -5.615993269998908327e-02 -1.576951806327135053e+00 4.968349751214320986e-01 2.648344479617527281e+00 5.761136046302959279e-01 1.655263937003605135e-01 1.589287658366573541e-01 4.964880860260567630e-01 5.893191212017983016e-01 1.578891542182814245e+00 5.113611807744479210e-01 1.260757178186594218e-01 4.190583746561100109e-01 1.730875661228630236e+00 6.035960687232310162e-01 7.839779782140935405e-01 5.267772066433695777e-01 7.382074335912317542e-01 4.634605696994289481e-01 5.787237824853177504e-01 2.361040318440867092e-02 5.277200464477526110e-01 5.551872669789298387e-01 -5.817845953849987151e-01 -9.316535096262963667e-02 1.180945752747171840e+00 2.392967459608784375e-01 4.805553150875518931e-01 7.158340462573947738e-01 5.364989389507796025e-01 2.018206724415402942e+00 6.707716166827840665e-01 1.918665565474048443e-02 3.465660702109142344e-01 3.958592128864952264e-01 1.136626693616588080e+00 5.025642718852478819e-01 -2.677198177768182544e-02 5.335131472734383484e-01 -9.789819676768287196e-03 5.425784222652334510e-01 5.197940621291577967e-01 3.303166477056497345e-03 -3.279123009164002650e-02 6.632986441773517372e-01 5.324547243803035013e-01 5.891292266363049590e-01 2.086448128127362245e-01 4.162125921539520657e-01 5.200228154180687179e-01 4.735514445858757249e-01 4.983144998423831296e-01 4.792910308114894380e-01 5.915030040402408096e-01 1.020007740451353229e+00 3.166454094244625761e+00 9.554930114596905666e-01 5.233946101625963632e-01 5.933142602667007548e-01 2.172470386643086948e-01 5.176205066092482987e-01 8.563850632568082988e-01 5.053430365880760000e-01 1.317086300263816234e+00 4.680799454148233396e-01 -5.888835035696218245e-01 -1.991622197791895546e-02 4.172028809502078550e-01 6.150478700012116384e-01 5.651083227193198777e-01 5.222073233070996245e-01 5.685937900056502181e-02 5.212106160957472589e-01 4.760270522545366756e-01 -3.792385701288833566e+00 4.787812939382071198e-01 5.160043517458897666e-01 1.136490492151479126e+00 5.222474338309741615e-01 4.470148884520140364e-01 6.773962300310703011e-01 -9.051174906289582989e-01 -5.005562095863371752e-01 3.006019670481472478e-02 5.191251324842400816e-01 5.392071570833015803e-01 2.124201777429202409e-01 5.256634436484102224e-01 -3.441706396799541490e-01 5.715008537457310078e-01 5.391394319897896414e-01 6.962185534263565234e-01 5.511127823440892248e-01 4.685580267245793018e-01 1.483289221458929941e-01 -7.762397068758788432e-01 6.556994072420280206e-01 5.570042165780642041e-01 1.566944698800255276e-01 5.180674046494839757e-01 5.374801821903505417e-01 5.169825996845437421e-01 6.693031547257960456e-01 5.783975432741840228e-01 5.480340779019647890e-01 5.032309650173544258e-01 1.837878354182755913e+00 3.537369059468232213e-01 5.381398247067109564e-01 -1.323958554555872968e-01 5.368730308908137294e-01 6.370583028728523667e-01 5.038077232258140192e-01 4.865251811100211876e-01 3.642307037246801382e-01 9.516756810157773749e-01 1.220155918213374102e+00 5.551324023668410268e-01 5.879339499312626893e-01 5.969064783125769269e-01 4.864457851246870024e-01 5.489668522765701608e-01 5.212482320065910946e-01 9.811385518784698778e-01 6.963233502071498604e-01 -4.625346964148075446e-01 4.614362575588359938e-01 9.061946548114906408e-01 5.201883823310052835e-01 -3.148237637707455155e-02 5.303347799931635853e-01 1.447596075376681668e+00 -1.387290154017646326e-01 6.355523892227866734e-01 2.379283361955319143e-01 4.721515086773657166e-01 8.599598930951571907e-01 5.175482039834250481e-01 3.725138104811153705e-01 1.408163038169285119e+00 4.690674680562695320e-01 5.227417396170752628e-01 -6.936304434977613731e-01 4.441205507070724590e-01 1.040219427322093493e+00 6.181535110090278229e-01 7.038454837366819872e-02 9.855323154397086505e-01 -2.635467539187408281e-02 7.070842140336309756e-01 1.645475558776703595e+00 -8.647787568498925825e-01 5.837857403986163041e-01 5.210133364290633340e-01 -4.729292134445187146e-01 3.038258172805736179e-01 5.935906065963453271e-01 5.034077793076733309e-01 4.881090541646754821e-01 4.068316029652377375e-01 2.628777794477750174e-01 3.461618934787168422e-01 5.798881299732939754e-01 5.245914454217693867e-01 8.362234163454405900e-03 -1.413395678237958641e-01 5.344193138258289677e-01 1.067133961413705645e+00 5.144193296051435826e-01 -5.818062739972376107e-01 4.703047040497727038e-01 5.210292591737971657e-01 5.591042931526505333e-01 4.532837417213539388e-02 3.262296433328001344e-01 5.223865760605618247e-01 5.237328602335336036e-01 4.521419226945230796e-01 -7.303525715790225650e-03 5.623591407902274186e-01 5.278493613124687345e-01 5.969340690424519424e-01 2.101855446560306984e+00 -6.692241482309289544e-03 3.879114888276313788e-01 5.688980770733227388e-01 1.848943204334694723e+00 5.169704469418326953e-01 5.383088948655513351e-01 2.284737331371790997e-02 5.610256381608345055e-01 5.270264728051466951e-01 4.775630721244812360e-01 3.913252959905139661e-01 5.070681549877388283e-01 4.322198132013906902e-01 5.162665743510446159e-01 -5.523369153124392250e-01 5.196460519957970536e-01 5.046399554707386992e-01 5.171969889031259315e-01 1.205314026322420684e+00 5.229930644204970891e-01 -2.477763203612623755e-01 1.113744570543811818e+00 -1.302272081577016793e+00 -5.375461093413826941e-01 5.392734762222197720e-01 5.225237515510186004e-01 6.611337841747021438e-01 5.235673537463950700e-01 4.676827471562093885e-01 5.435336702409641063e-01 5.610256477084966109e-01 5.196463569331620791e-01 4.840427138383537331e-01 5.982289273094928417e-01 5.191805354046601373e-01 3.114521741547818801e-01 5.130831918825311533e-01 5.408011348784937944e-01 3.996047435084000288e-01 5.147184163383622391e-01 5.233459012654292364e-01 5.379356639330751255e-01 6.539108877229785621e-01 5.219782610610730345e-01 7.110620758745898051e-01 5.068211953246163359e-01 5.261111270015033092e-01 5.390603521801123899e-01 4.030369703246958757e-01 3.742166224336370139e-01 2.457974435436201421e+00 4.849699975288150333e-01 6.172609384834132351e-01 2.977975210548680640e-01 5.810058267422505418e-01 1.118311163244233519e+00 4.190765480394263998e-01 6.946942279986487723e-01 5.219774345989416364e-01
7.140847446736817705e-01 3.058381911207213033e-01 4.429923690037843031e-01 -2.116346832226177407e-02 3.103498287424034663e-01 3.678664268101720647e-01 5.372354518075393992e-01 4.065969034957596095e-01 3.480438184757627118e-01 2.982677604411440031e-01 2.072817971680057880e+00 1.730010893379648973e+00 -1.465080883689880320e+00 5.996423436901953119e-01 3.154110305844424755e-01 4.546481222789647281e-01 1.337724027796701742e-01 4.435173912689394093e-01 4.184897516787618454e-01 2.950322672984769246e-01 4.320153028684436958e-01 2.141877776954459023e+00 3.651021069715542078e-01 3.540366298090489861e-01 7.456397157841977430e-01 -1.838575719178663637e-01 4.205268761418404222e-01 1.962624144525041692e-01 2.716441912411659554e-01 -9.139950078848768644e-01 4.281440866606762152e-01 -1.525798202228118849e-01 2.890946934234380761e-01 3.373838806129673129e-01 -4.150623607609636445e-01 4.964561791097702459e-01 3.333895085859370777e-01 -3.823179556723058647e-01 -3.285322717615918098e+00 3.005806567935532247e-01 1.184615478300947489e+00 1.449839588793528922e-01 -1.683512905265954762e-01 7.916914995971714442e-01 5.775679528615689229e-01 3.256600099565212791e-01 -2.149335792812380463e-02 3.019328075483351803e-01 1.591068342364246879e-01 6.534134762087119297e-01 6.865255361364517306e-01 4.983378331685642815e-01 -1.744529295548989944e-01 2.327201329994696977e-01 5.966322914978220426e-01 6.541516109956749814e-01 3.159994610891105338e-01 2.424166181179805979e-01 3.455114411760900062e-01 3.440424962576993373e-01 4.311731072348464200e-01 4.360812418055428075e-01 3.345540293803499488e-01 3.651021113372684979e-01 -3.438236855156346916e-01 1.308198469214524873e-01 3.040020561771025198e-01 3.135354601227194338e-01 2.199612963338329619e-01 7.120163215122961020e-01 1.456262559633283438e-01 2.438979235469693752e-01 3.244181942921388062e-01 7.275638312170860100e-01 1.938021658035690153e+00 4.378286658937143860e-01 4.763329892332248683e-01 4.822946708016279116e-01 3.121339494675764437e-01 -1.352048535377327054e+00 3.210743466902707399e-01 5.590445721271567470e-01 2.376737154572103439e+00 7.583002216275547269e-02 2.552995355798420296e-01 -3.665178443769838701e-01 1.361691751816174745e-01 2.717825146427013672e-01 -5.821902964062358743e-01 -9.043986549014211285e-01 5.776258243052679875e-01 1.602335487991235929e+00 5.931100285019026003e-02 6.810335077893415745e-01 3.498461564433281157e-01 3.396145410006783383e-01 2.663404153528423079e-01 7.755353876589363704e-01 7.369627906341353896e-01 -1.832891300721982142e-01 -1.795342105819408007e-01 5.526285054295952681e-02 2.821947129390007247e-01 2.150422795134739884e-01 -4.725384039048427520e-02 3.150631202316341639e+00 -2.924068148779032650e-01 2.856596125909366957e-01 9.135153001012830121e-02 8.114551143384607368e-01 2.636328138771431573e-01 5.129994905347066148e-01 1.621509605528067832e-01 3.945753532377607731e-01 -4.767361882480792845e-01 2.494749738530263883e-01 1.198338779877762827e-01 4.272011292134830773e-01 1.144482884880525964e+00 3.417343851813209876e-01 -1.468569820458108133e+00 1.509046580097593016e-01 9.291254899919158816e-02 1.448467256824826244e+00 3.062315868027408738e-01 2.194164650008043171e+00 3.506954966460710810e-01 2.160519214619312789e-01 3.092700266353443084e-01 3.137472529398562249e-01 3.421879368659118681e-01 3.087563297347673541e-01 6.740897692615454018e-01 4.203100246821518948e-01 1.643446337902221555e-01 8.585943085331325664e-01 7.236758802245086830e-01 7.121757322567293658e-01 -3.385777601799913605e-01 2.137846550162698644e-01 2.861946797058179115e-01 3.219881949477138572e-01 3.434623825047258272e-01 2.429248856079899432e-01 3.112542279059561379e-01 6.995814145270540241e-01 -1.713322903689366850e-01 3.192283483186978410e-01 4.311724256239486963e-01 4.021409134132121754e-01 -2.141835628170181693e-01 2.672219692564619525e-02 3.256456324545000114e-01 2.754313967148977471e-01 2.877810172167127312e-01 3.156800280950386450e-01 -2.454455153477941298e+00 4.650172673322147676e-01 -6.049778992662298016e-01 -1.889655211166407500e-01 1.632387545989703592e-01 3.460995264755840073e-01 3.096210063068594587e-01 3.112851171967189190e-01 1.261791894079877241e-01 1.072747442608684293e-01 3.186011429744375345e-01 4.769881499252233148e-01 4.315371101280284782e-01 2.952475993584852687e-01 2.081813526734335729e-01 -2.211839119126213227e-02 3.257287867106888335e-01 3.120586833731527898e-01 -2.526167501268712368e+00 6.750191434600550933e-01 5.854818896128251016e-01 9.437599425327041214e-01 -4.594486814414464049e-01 1.173890475376692999e+00 3.009513273526482485e-02 3.164519354207249169e-01 1.243473983165692687e+00 3.418896115520350110e-01 3.097125930613758293e-01 2.970478366411312132e-01 3.504217312960583031e-01 3.172985445252407555e-01 -4.933610284033100313e-01 3.023733005224682469e-01 3.084946707806229260e-01 8.211270411442975758e-01 2.833866969320849583e-01 3.498213794989474823e-01 2.444767068608962590e-01 3.096678197687837142e-01 -1.681745889115875858e+00 3.250630492415690354e-01 3.345974492743556405e-01 3.191324795383413959e-01 4.623833390917154312e-02 3.704604071982124380e-01 3.885980833843296622e-01 1.470708957183025911e-01 -7.663218944213727735e-01 3.345974148373083712e-01 4.854080327206112822e-01 -5.207052736684075755e-01 3.513350654486800950e-01 2.010267534524614319e-01 2.367778197396795958e-01 -3.288736335710741976e+00 4.380759264826151189e-01 9.183116850852113267e-01 3.090489167014548455e-01 3.145564262209595841e-01 3.106699042602025784e-01 3.069344627286128002e-01 3.122060576097850371e-01 3.080547940254116934e-01 3.660023058442645194e-01 9.844053906253549813e-02 6.697622562105456367e-01 1.053203250780334610e-01 4.695838478210249689e-01 5.118696101056859904e-01 4.044174631183521385e-01 -6.932711657526700044e-01 2.317652764705982360e+00 4.039068089001566220e-01 1.248197831813839143e+00 -1.398001793238005996e+00 3.148485978081841941e-01 2.527923555814524104e-01 3.520168187728881515e-01 1.185839416745404273e+00 5.218188879565028859e-01 8.266551648418042353e-01 2.866524785136648767e-01 6.677759970864450834e-01 2.452070641279903429e-01 3.062123873862903078e-01 -1.183922006851271913e+00 4.192491048385314500e-01 3.098025296760859026e-01 5.002878639595211840e-01 8.835550597132137973e-01 -3.750636540191366053e-01 3.198377348664740882e+00 5.012341509372157944e-01 1.290057241694241075e+00 -2.581568516732356544e-01 3.173927052351234179e-01 3.651059487880660703e-01 3.439605697797377681e-01 2.442351235206332294e-01 3.528578502304349218e-01 -1.463962746922362335e-01 1.019780243843370210e-01 5.624171603480820902e-01 2.479202500882718430e-01 9.934558082732906914e-02 2.403202416019498688e-01 4.588983679028805773e-01 4.311731386514540687e-01 2.562967858399174403e-01 3.276044129863763921e+00 3.551387175987370526e-01 6.519483767471917490e-01 5.288536332558698705e-01 2.258126846902734630e-01 4.307951453305543521e-01 3.104172203236608696e-01 2.997979344924915357e-01 3.114171498787047243e-01 -5.998073397737213597e-01 4.293075142808984168e-01 2.852294013496088909e-01 1.417974210829307247e-01 3.278698616878163996e-01 1.547010656975144505e+00 3.638681981428939505e-01 3.125334620368463989e-01 2.005728016038998085e+00 5.071506094628274175e-01 2.712790147120758277e-01 2.677359614994677117e-01 3.166269122147075676e-01 2.494755868632909379e-01 -2.069895812020177583e+00 2.806630675399138797e-01 1.572225834660597066e+00 -6.786255403786810303e-02 3.602748050965128290e-01 6.737599003292293887e-01 3.275669514534582660e-01 -7.281430540170594767e-01 3.855628930922491149e-01 3.041701621735924399e-01 4.312021422955991112e-01 -3.988169882879782913e-01 3.117103194982252523e-01 -2.310708112903218314e+00 -2.226797810292188359e-02 3.296774169939571952e-01 5.992975358842244082e-01 3.091492544818480459e-01 3.126192242006666788e-01 4.902590438277573126e-01 1.779821576218625634e-01 -9.132299485683420537e-02 -7.714486353268134033e-01 -1.903720209345634382e-03 6.881715059798663159e-01 3.149769999666351405e-01 5.018845051208282726e-01 3.310034054528487313e-01 -2.202473237558638663e-02 3.084205537064380054e-01 2.464272627436644658e+00 6.806032090273628210e-01 2.470682459612376647e-01 -1.173203873720605639e+00 2.334159809816570563e-01 4.745084680453221182e+00 3.902227641184281004e-01 -1.745721088828612599e-01 5.713417205106375851e-01 -5.647971049702305457e+00 5.258467368866888147e-01 1.567288771596803798e+00 3.088662827266505650e-01 5.283343281535191061e-01 -4.505104980507545487e-01 4.347958164731938746e-01 2.814629594409173707e-01 3.095565650124439405e-01 2.226892182327141478e-01 2.967124742238493429e+00 -3.787215569939054172e-01 3.027389261963113753e-01 -1.928577291789898007e+00 3.273928176713293281e-01 -3.823179595918445584e-01 7.551063694919601943e-01 5.122140332349685021e-01 2.621599133334033827e-01 2.834312795174371846e-01 1.269052285210165776e+00 1.510962233292005297e-01 3.345971396388887076e-01 4.192549103016591783e-01 1.470708876757495231e-01 3.423964031058301383e-01 3.893084928861245131e-01 -6.188865036613483417e-01 3.143907901884691602e-01 5.584924751821768174e-01 3.970771788972447536e-01 1.723554286782656431e-01 3.114117455149549296e-01 4.994699285869239058e-01 5.122139983082907300e-01 4.765685705554459362e-01 3.124371080356034835e-01 1.743987604103798550e-01 3.976493483291245745e-01 3.474900369151271207e+00 3.176601307269729668e-01 1.190740607125257144e-01 4.311739527250562087e-01 8.411567502237622396e-01 4.688256414626154056e-01 -1.943480798745788052e-01 6.838929606043870901e-01 3.534613376098295623e-01 1.227300703624419620e-01 4.152697122014440967e-01 6.764056553456594401e-01 5.634646999786806498e-01 7.916146598514295363e-01 8.192763293767019173e-01 3.195992179516030096e-01 1.470708956128699840e-01 1.470708668050995649e-01 2.311136666399604134e-01 1.885643005816450279e-01 1.119833380726290573e+00 3.944176071773212722e-01 3.247331343096945266e-01 2.972659640968217665e-01 3.093742754596466860e-01 7.563041682519490161e-01 3.345971872517289336e-01 3.133766988981134261e-01 4.352825924023288606e-01 2.256138863999281874e-01 -6.386307405802952308e-01 3.262224721576617026e-01 3.151143638190743168e-01 3.821766043195522489e-01 6.801521690359380035e-01 6.875034763557033024e-01 1.470708951210808191e-01 1.117464106698574378e-01 3.146787494080290348e-01 5.038196535238825824e-01 -5.938062164192270398e-01 1.800073686537345674e-01 -3.551470252158852148e+00 2.000323315487155806e+00 6.346275829943616165e-01 -4.738392541645906619e-01 -2.107079639730041407e-02 2.072125858368160323e+00 3.179747816789534332e-01 6.469166917322496380e-01 -3.651705769466857820e-02 3.724642236149899865e-01 4.136722778805073664e-01 3.038205318589590198e-01 -5.213727927518423400e-01 3.678557448054682877e-01 2.078022280182622694e+00 2.639113391772379691e-01 -4.471417139464958224e-01 3.052883346793937580e-01 3.088352153797337407e-01 -1.460289779567628621e+00 2.799868535362859401e-01 3.684800038517945797e-01 4.033617215555857505e-01 1.307118072543742016e-01 3.178785160732726656e-01 2.085584737861524429e-01 3.068760525724878452e-01 -1.611375205563822244e-01 3.245022810869186980e-01 1.052937277412318018e-01 3.057403723792367911e-01 3.066309118026254721e-01 1.222823362645018667e-02 3.924810126547547684e-01 5.363112145677580989e-01 -1.407209932379376305e+00 -6.268472833459196591e-01 -1.159667419617965017e-01 1.212866213511572255e-01 1.944303129995218482e-01 4.331716397534662866e-01 3.608963727664008525e-01 7.233291938020274259e-01 -1.352127239483127963e-01 3.255158730271777712e-01 3.256993497797353032e-01 9.472246584879343012e-02 -1.613344967771274119e-01 2.937772853508893722e-01 4.628265720819341733e-01 4.798462422606628031e-01 2.967333338411797805e-01 2.794594543616902294e-01 3.075941806863103922e-01 2.485941971138963813e-01 3.113769051839392898e-01 4.945984647349024321e-01 3.369359319672883268e-01 3.111226100974607278e-01 6.847884236425262339e-01 3.333395154788385550e-01 7.322614946664957047e-01 8.347471650618630556e-03 5.554568822099448244e-01 2.720199345260334023e-01 -1.463332044174801894e+00 3.053377647673826134e-01 6.397363150299605339e-01 3.589876400649023580e-01 3.376274076634404597e-01 2.653835640720375588e-01 1.812770700325801176e-01 6.844997293536134730e-01 3.139353674653855286e-01 4.133675816661951385e-01 3.119362675651397576e-01 2.767664215689766838e-01 1.886509780063826691e-01 4.913947345727890381e-01 3.209825625042845854e-01 1.921835663483813794e-01 7.072193905869922359e-02 8.497701943299643124e-02 1.654638872931652571e+00 1.886782571479385939e-01 3.528861491336539591e-01 3.865524998274122992e-01 -8.565348187110054523e-01 3.462660988356893732e-01 2.473832623613261561e-01 3.713216730523259401e-01 -6.800674605251157134e-02 2.807898516376183262e-01 1.648880363306708619e+00 8.929357387594045736e-01 4.565167468441516663e-01 3.269384862864730401e-01 3.335555947405525745e-01 3.447295239945781242e-01 9.281837691108606458e-01 3.067668927806925350e+00 3.144384331045662062e-01 2.180867285626329755e-02 5.877575062500879355e-01 -2.223563612463806682e-01 3.085609918038890731e-01 3.161150879947359771e-01 1.079873545954362690e+00 3.102820679712007812e-01 -3.364718039802421790e-01 3.857966395533414250e-01 1.326042442566294777e-01 6.303107750205574344e-01 1.818460482003772416e+00 2.495768744938858530e-01 2.703302251394029687e-01 1.666963883973830551e+00 3.958607782950727683e-01 2.563358040190977238e-01 1.666182335519699742e-01 2.146756425678592872e-01 -2.169557430948496762e-02 5.137536248043308440e-01 2.427530393490382743e-01 7.230726530217811421e-01 2.727353620945365820e-01 2.248528014831909227e-01 3.207427981231347203e-01 4.083672787863317222e-01 4.013639832143560682e-01 2.610863476256680138e-01 8.908238202668059547e-01 5.138600741964590712e-01 4.905784361081276801e-01 2.792300131247151262e-01 2.490079155911471276e-01 3.118746883722408603e-01 5.907389770579493105e-01 7.766641101359244015e-01 3.673579224889509387e-01 3.136849715727439425e-01 5.577366529892222591e-01 3.089311146970768474e-01 7.108172833749252240e-01 2.901990614349814201e-01 4.707872590617795949e-01 -3.100837359958954487e-01 3.119870257354883103e-01 3.323775795572722624e-01 4.417591194443582503e-01 2.387954118062463327e-01 3.266315765383784320e-01 1.806853276634402983e+00 3.184419338258166754e-02 2.730096709408762479e-01 -2.032560415071010262e-01 1.665761077905716148e+00 1.157316103549132169e+00 3.852904847559718987e-02 -4.478302391047557229e-01 4.321368096610395670e-01 3.062645821872553853e-01 5.007002593087188647e-01 3.134683051101311846e-01 3.110097982120612614e-01 2.143271505453747394e-01 3.379450423237596590e-01 3.291732107879393743e-01 -2.114869555288718603e-02 -2.214815984304808472e-01 3.362516789608118728e-01 2.553744996963787095e-01 2.361063193047313324e-01 8.762657113680375476e-01 4.311731241329880282e-01 2.861148583351274532e-01 8.519377117481651274e-01 4.755628387533081813e-01 5.780761177990459965e-01 4.626640882347943795e-01 6.960746309734986426e-01 1.478007277331779390e+00 3.791358896424988911e-01 2.104537299645189208e+00 -2.415637030672294905e-02 1.506848632760790230e-01 3.114267810080121879e-01 2.819756632327330981e-01 3.671316037464089632e-01 2.952750033709479749e-01 3.226081009183488502e-01 3.104136715033168348e-01 3.660835067849189106e-01 2.076513472212750677e-01 -3.373760343169057707e-01 2.568877277000488069e-01 -6.631941697805469882e-02 3.024074829684976762e-01 4.312546532817821410e-01 4.311731241848575369e-01 2.227001385432020586e-01 2.071405642768492095e-01 -1.271153213652812974e+00 1.972322985231927728e+00 3.095884950002035785e-01 -7.426998831362313647e-01 2.971144354801620868e-01 3.212562937818145281e-01 3.125883524920223810e-01 -4.815566910260111300e+00 3.558078796825031809e+00 6.309019377568703124e-01 4.090262979037185415e-02 3.269508860537180261e-01 3.153466059008739331e-01 2.695016025699257245e-01 2.637656923028688372e+00 6.271364964239810602e-01 3.192170056508556453e-01 2.494751926673945408e-01 2.907934056447558646e-01 2.924996941081636215e-01 8.604594001263006220e-01 -3.748310106746153281e-01 -1.207985580157826977e+00 -1.226084416181866255e+00 3.171187756230391397e-01 3.127234739961903820e-01 7.314939561415706448e-01 3.721627497385097683e-01 1.441434027953461428e+00 4.840884676966810685e-01 3.080462965402250841e-01 3.056098702851479665e-01 3.237506426969209983e-01 3.314824422098506251e-01 3.027197655685586186e-01 6.433356867567443516e-01 2.677572958591217800e-01 6.607394139876534567e-01 2.295499203947946043e-01 4.980963093334563052e-02 3.028113205329495683e-01 1.816505790380875118e-01 3.343777935866122930e-01 2.556154170878021104e-01 6.411394014270432873e-01 5.122140321068525681e-01 3.355297106919813976e-01 2.614431807990000300e-01 3.080176995037166576e-01 2.700740877191955547e-01 1.648890875205029971e+00 1.911559782428951415e+00 3.031682043973070728e-01 3.510261648150658220e-01 3.107520784590468987e-01 1.634651522232071219e-01 2.257993119183300534e-01 3.685551708306704644e-01 3.124772263638013747e-01 3.262677733225745613e-01 8.048051116946286498e-01 8.884359907799155298e-01 2.540792573242074415e-01 1.878702956919847900e+00 3.098033171448982825e-01 -2.460287849427570950e-01 -2.725443267582599027e-01 -3.088482261539623464e-01 3.094472802112431808e-01 2.804830726287356191e-01 7.108963714994777083e-01 3.081808390264077491e-01 4.550387379766436258e-01 3.367736601688441911e-01 3.485187607289261247e-01 3.103052515785564291e-01 -3.875213036296414754e-02 1.014206141334056843e+00 3.306405482612239655e-01 3.894108013743045049e-01 3.125971763331819586e-01 3.544880362876255409e-01 3.228067214029584076e-01 3.942952713442008927e-01 -8.994336845544328995e-02 2.224818557993965551e-01 2.930778075483859157e-01 -2.148016884275147712e-02 4.311729963650829944e-01 1.102145490397082872e+00 9.647127924302344448e-01 -7.248933368213100747e-01 -3.823179555971683574e-01 6.585748947351554028e-01 -3.348217161596530822e+00 1.576145255467539474e+00 2.774455056534024799e-01 -2.077888329995529471e-02 3.121048153636490907e-01 8.968985109000816580e-01 3.136761387616424646e-01 4.192494223687922017e-01 -4.375301962569604908e-01 8.203186937880982965e-01 3.213562961381219996e-01 8.692995401296014224e-01 2.100149906253174770e+00 -3.746540969880611804e-01 -1.472819319237732572e+00 2.385853883998161618e-01 3.129134745891578029e-01 7.566082368152846627e-01 2.870902846414075671e-01 7.035577015349144814e-01 4.691265636074122836e-01 2.634930551196921766e-01 3.005351333195448449e-01 3.125101300488323797e-01 2.625422184224876498e-01 3.056435808984825364e-01 1.421103715973530246e+00 1.647494208419006290e+00 3.082606395308170599e-01 3.410537021400522617e-01 1.725907171676820950e-01 -2.464240088196137934e-01 2.198240744120992241e-01 -4.070861143077679489e-02 3.121544938495249277e-01 7.036770933864409105e-01 -5.208456110245522908e-01 2.708364021528588128e-01 2.853156432540566168e-01 1.531749470840294558e-01 3.067678601093162816e-01 2.064177426292324313e-01 3.088692319900266381e-01 3.106660919550331967e-01 2.979874029877960934e-02 2.858227469188899250e-01 4.352125330234066780e-01 1.127191772215786703e+00 1.107543040928424594e+00 9.208407352504952570e-01 2.037519904797314430e-01 7.883446456671328040e-01 1.500089716826324693e-01 4.914696285525373964e-01 -2.152097474447927983e+00 3.056765575238706845e-01 6.598267121407764835e-01 2.889190937932900050e-01 9.501559333575000377e-01 1.374962327928719752e+00 2.494749728351916829e-01 2.530125400279779613e-01 3.750169492944262495e-01 3.693246012477864881e-01 5.496767472225505546e-01 9.221163484615974015e-01 -8.012763291133589982e-01 2.163041132486085427e-01 4.794264794937566632e-02 3.096637069834396461e-01 3.412794424709603147e-01 7.673076974698787023e-01 -2.424789707994524646e-01 4.051765256401085313e-01 3.016537952113581000e-01 3.604775351816344453e-01 8.932204294158287983e-01 4.309597497391504106e-01 -2.175845705418056886e-01 8.587428489240501728e-01 -4.199315569529493003e-02 5.666646377789924527e-01 2.813446383858782540e-01 1.291725150742621064e+00 5.899201170303733921e-01 7.239284760167569166e-01 4.373371271705593366e-01 4.864979441785314274e-01 -5.717416927490323042e-01 2.325773425359881352e-01 7.574041199867216356e-01 3.244533801627145220e-01 6.171672729735891982e-01 2.904712400743335032e-01 3.119395431054009515e-01 7.200661279316666885e-01 1.541612058557260412e-01 -2.060225756006838438e+00 2.032942298512326884e-01 2.548222072001041782e-01 8.851373246151157392e-01 3.628864969984493261e-01 3.856507019906804112e-01 3.771718162444565037e-01 3.155420321833730668e-01 3.949133655228316830e-01 8.472179812694211054e-02 -1.627892650970709676e+00 7.597158768488225800e-01 2.468566137101753655e-01 3.116033589092740974e-01 2.224233138714704072e-01 8.210198005329049087e-01 3.094478272837124511e-01 -1.506442935120611004e-01 3.418877050121517658e-01 1.123469574144268623e+00 2.676075280206002271e-01 4.160439713310180032e-01 1.047029100874586227e+00 4.038729892721518167e-01 2.815508896152275842e+00 3.337922119143867383e-01 3.026594649696772166e-01 7.056027510084766918e-01 3.352539293543493337e-01 3.346982141326903526e-01 -2.138487357841593273e+00 4.439570753392177993e-01 3.255525991210609371e-01 5.177323564870389694e-01 3.047769317552302404e-01 1.997481058578426116e-01 -1.905535933569613982e-01 2.068041859820646700e+00 -5.189637542545875171e-01 8.270997707395281173e-01 3.123214355161949563e-01 2.919167329426299307e-01 8.298901894080435993e-01 3.105875870633679203e-01 1.339800545986278069e+00 2.107223798102584589e-01 3.816078958418740452e-01 -8.856571120881083781e-01 -1.325577055415727845e-01 -5.195989755281570366e-01 -4.009160740073843598e+00 2.978499920062971373e+00 2.766868107858280398e-02 2.913189716690098297e-01 -1.647406832215118966e+00 3.055732160613170434e-01 3.879811100039377569e-01 3.183299993174812936e-01 1.722741389834307191e-01 6.418152683162913208e-01 6.015610019193728952e-01 1.071387352249164149e+00 -3.823179552918302693e-01 -2.321576174500659395e-01 2.353107206301824628e-01 -1.192715345385799708e+00 2.653093162249256509e-01 -6.523982905106361363e-01 3.203220053772490861e-01 4.524664540427538739e-01 9.389405522643753943e-02 4.527609547573640536e-01 2.648270369285407599e-01 -4.015468980432539137e-02 2.340218183096210991e-01 2.878121006936802950e-01 3.648129529678382221e-01 3.333628246348898649e-01 3.078270550957929452e-01 -7.250663702362256657e-01 4.976814068591493556e-01 1.543257914399028596e+00 7.148901560355282181e-02 2.369265058744404184e-01 2.686328962275740806e-01 1.206268295404812063e+00 3.332947137680874472e-01 1.066690159855009368e-01 8.882879271413579580e-01 2.552796614675925113e-01 1.876071958902218562e+00 2.710813918915409015e-01 1.323622395426108822e+00 3.195314748775068825e-01 7.353061201920343404e-01 1.354482138374437428e+00 3.758197636632419902e-01 3.303823237203222241e-01 9.402824368817457312e-01 -1.867697204931187127e-01 -6.316051224576177403e-02 2.270235762577652305e-01 3.035761890338112279e-01 3.598376896336044628e-01 1.444486453800299386e-01 1.365411933699374469e-01 -3.781198994060408491e-01 1.292401135580973470e+00 2.945922301838609925e-01 3.086398571077688668e-01 -3.221597972050117775e+00 5.483184667423872671e-01 2.542704438571761205e-01 3.834714407706441563e-01 3.894019540726163520e-01 4.535375506434575765e-01 -1.104592576357571687e+00 6.274302677233477565e-01 2.899653689210457963e-01 3.079217800170109265e-01 1.025315130678017272e+00 4.633995416846035664e-01 3.054946459931899283e-01 -1.411070075792310696e+00 3.796850005581377530e-01 8.932233192480106831e-01 3.330409513808567645e-01 3.234975849983793839e-01 3.254452073707670978e-01 7.121620945988791362e-01 -5.637289312962080745e-02 3.098868388912870420e-01 3.048810940827973992e-01 9.163138929007735856e-02 6.690389645520711248e-01 2.618224969405251179e-01 7.018763779745090803e-01 1.757747908707972817e-01 6.917772622117994707e-01 -2.398374387404946517e-01 -1.509994279900154224e+00 2.919418064500439725e-01 -1.974020633444316386e-02 3.191704988643948582e-01 3.721121018898482791e-01 5.486341183749070261e-02 5.122139858416748792e-01 2.999525804646467342e-01 8.328054389255233614e-02 4.376003199370593344e-01 2.898896839908470802e-01 2.982445225517606491e-01 2.798044832958043182e-01 -8.512020568590634717e-01 3.227592389920241889e-01 2.910154093132966691e-01 3.233888355818655969e-01 -2.791957950464947213e-01 3.135659757441750517e-01 8.286069746781240530e-01 -5.888206922178270686e-01 1.126829018467469634e+00 6.161699031007185079e-01 2.766859210515327239e-01 3.089649446963386170e-01 -2.056256280679856552e+00 3.236517631660315586e-01 2.189352613817392434e-01 2.869313851602866006e-01 5.122140494775300201e-01 3.139660852129126933e-01 3.276627404525583875e-01 6.629644619460225985e-02 3.084727501428946583e-01 4.347999371503422639e-01 3.360177161992938255e-01 2.459110226910836694e-01 2.869934677155738800e-01 3.172642931229088248e-01 3.093617160128098731e-01 2.730650759030513464e-01 1.009550387279410932e-01 3.163371188853784099e-01 6.228386521176754176e-01 1.733820449267316766e-01 3.095143390703025132e-01 -1.433460788695895827e-01 1.799947252224221583e-01 6.143477947258876304e-01 4.521411010352490045e+00 3.460850779579823788e-01 7.753931713418020510e-02 5.633805127334802210e-01 1.817059191517718109e-01 1.562423830291973070e+00 3.433278652552724242e-01 6.393736653202231057e-01 3.091460885249453505e-01
