# 
#                 ----------------------------------------------------
#                 Data from a 3D direct N-body simulation. 
# 
#                 rows are i-particle; 
#                 coumns are :mass, tag, x ,y, z, vx, vy, vz, ax, ay, az
# 
#                 NTHU, Computational Physics 
# 
#                 ----------------------------------------------------
#                 Time = 0.0
0.000000000000000000e+00 1.000000000000000000e+00 2.000000000000000000e+00 3.000000000000000000e+00 4.000000000000000000e+00 5.000000000000000000e+00 6.000000000000000000e+00 7.000000000000000000e+00 8.000000000000000000e+00 9.000000000000000000e+00 1.000000000000000000e+01 1.100000000000000000e+01 1.200000000000000000e+01 1.300000000000000000e+01 1.400000000000000000e+01 1.500000000000000000e+01 1.600000000000000000e+01 1.700000000000000000e+01 1.800000000000000000e+01 1.900000000000000000e+01 2.000000000000000000e+01 2.100000000000000000e+01 2.200000000000000000e+01 2.300000000000000000e+01 2.400000000000000000e+01 2.500000000000000000e+01 2.600000000000000000e+01 2.700000000000000000e+01 2.800000000000000000e+01 2.900000000000000000e+01 3.000000000000000000e+01 3.100000000000000000e+01 3.200000000000000000e+01 3.300000000000000000e+01 3.400000000000000000e+01 3.500000000000000000e+01 3.600000000000000000e+01 3.700000000000000000e+01 3.800000000000000000e+01 3.900000000000000000e+01 4.000000000000000000e+01 4.100000000000000000e+01 4.200000000000000000e+01 4.300000000000000000e+01 4.400000000000000000e+01 4.500000000000000000e+01 4.600000000000000000e+01 4.700000000000000000e+01 4.800000000000000000e+01 4.900000000000000000e+01 5.000000000000000000e+01 5.100000000000000000e+01 5.200000000000000000e+01 5.300000000000000000e+01 5.400000000000000000e+01 5.500000000000000000e+01 5.600000000000000000e+01 5.700000000000000000e+01 5.800000000000000000e+01 5.900000000000000000e+01 6.000000000000000000e+01 6.100000000000000000e+01 6.200000000000000000e+01 6.300000000000000000e+01 6.400000000000000000e+01 6.500000000000000000e+01 6.600000000000000000e+01 6.700000000000000000e+01 6.800000000000000000e+01 6.900000000000000000e+01 7.000000000000000000e+01 7.100000000000000000e+01 7.200000000000000000e+01 7.300000000000000000e+01 7.400000000000000000e+01 7.500000000000000000e+01 7.600000000000000000e+01 7.700000000000000000e+01 7.800000000000000000e+01 7.900000000000000000e+01 8.000000000000000000e+01 8.100000000000000000e+01 8.200000000000000000e+01 8.300000000000000000e+01 8.400000000000000000e+01 8.500000000000000000e+01 8.600000000000000000e+01 8.700000000000000000e+01 8.800000000000000000e+01 8.900000000000000000e+01 9.000000000000000000e+01 9.100000000000000000e+01 9.200000000000000000e+01 9.300000000000000000e+01 9.400000000000000000e+01 9.500000000000000000e+01 9.600000000000000000e+01 9.700000000000000000e+01 9.800000000000000000e+01 9.900000000000000000e+01 1.000000000000000000e+02 1.010000000000000000e+02 1.020000000000000000e+02 1.030000000000000000e+02 1.040000000000000000e+02 1.050000000000000000e+02 1.060000000000000000e+02 1.070000000000000000e+02 1.080000000000000000e+02 1.090000000000000000e+02 1.100000000000000000e+02 1.110000000000000000e+02 1.120000000000000000e+02 1.130000000000000000e+02 1.140000000000000000e+02 1.150000000000000000e+02 1.160000000000000000e+02 1.170000000000000000e+02 1.180000000000000000e+02 1.190000000000000000e+02 1.200000000000000000e+02 1.210000000000000000e+02 1.220000000000000000e+02 1.230000000000000000e+02 1.240000000000000000e+02 1.250000000000000000e+02 1.260000000000000000e+02 1.270000000000000000e+02 1.280000000000000000e+02 1.290000000000000000e+02 1.300000000000000000e+02 1.310000000000000000e+02 1.320000000000000000e+02 1.330000000000000000e+02 1.340000000000000000e+02 1.350000000000000000e+02 1.360000000000000000e+02 1.370000000000000000e+02 1.380000000000000000e+02 1.390000000000000000e+02 1.400000000000000000e+02 1.410000000000000000e+02 1.420000000000000000e+02 1.430000000000000000e+02 1.440000000000000000e+02 1.450000000000000000e+02 1.460000000000000000e+02 1.470000000000000000e+02 1.480000000000000000e+02 1.490000000000000000e+02 1.500000000000000000e+02 1.510000000000000000e+02 1.520000000000000000e+02 1.530000000000000000e+02 1.540000000000000000e+02 1.550000000000000000e+02 1.560000000000000000e+02 1.570000000000000000e+02 1.580000000000000000e+02 1.590000000000000000e+02 1.600000000000000000e+02 1.610000000000000000e+02 1.620000000000000000e+02 1.630000000000000000e+02 1.640000000000000000e+02 1.650000000000000000e+02 1.660000000000000000e+02 1.670000000000000000e+02 1.680000000000000000e+02 1.690000000000000000e+02 1.700000000000000000e+02 1.710000000000000000e+02 1.720000000000000000e+02 1.730000000000000000e+02 1.740000000000000000e+02 1.750000000000000000e+02 1.760000000000000000e+02 1.770000000000000000e+02 1.780000000000000000e+02 1.790000000000000000e+02 1.800000000000000000e+02 1.810000000000000000e+02 1.820000000000000000e+02 1.830000000000000000e+02 1.840000000000000000e+02 1.850000000000000000e+02 1.860000000000000000e+02 1.870000000000000000e+02 1.880000000000000000e+02 1.890000000000000000e+02 1.900000000000000000e+02 1.910000000000000000e+02 1.920000000000000000e+02 1.930000000000000000e+02 1.940000000000000000e+02 1.950000000000000000e+02 1.960000000000000000e+02 1.970000000000000000e+02 1.980000000000000000e+02 1.990000000000000000e+02 2.000000000000000000e+02 2.010000000000000000e+02 2.020000000000000000e+02 2.030000000000000000e+02 2.040000000000000000e+02 2.050000000000000000e+02 2.060000000000000000e+02 2.070000000000000000e+02 2.080000000000000000e+02 2.090000000000000000e+02 2.100000000000000000e+02 2.110000000000000000e+02 2.120000000000000000e+02 2.130000000000000000e+02 2.140000000000000000e+02 2.150000000000000000e+02 2.160000000000000000e+02 2.170000000000000000e+02 2.180000000000000000e+02 2.190000000000000000e+02 2.200000000000000000e+02 2.210000000000000000e+02 2.220000000000000000e+02 2.230000000000000000e+02 2.240000000000000000e+02 2.250000000000000000e+02 2.260000000000000000e+02 2.270000000000000000e+02 2.280000000000000000e+02 2.290000000000000000e+02 2.300000000000000000e+02 2.310000000000000000e+02 2.320000000000000000e+02 2.330000000000000000e+02 2.340000000000000000e+02 2.350000000000000000e+02 2.360000000000000000e+02 2.370000000000000000e+02 2.380000000000000000e+02 2.390000000000000000e+02 2.400000000000000000e+02 2.410000000000000000e+02 2.420000000000000000e+02 2.430000000000000000e+02 2.440000000000000000e+02 2.450000000000000000e+02 2.460000000000000000e+02 2.470000000000000000e+02 2.480000000000000000e+02 2.490000000000000000e+02 2.500000000000000000e+02 2.510000000000000000e+02 2.520000000000000000e+02 2.530000000000000000e+02 2.540000000000000000e+02 2.550000000000000000e+02 2.560000000000000000e+02 2.570000000000000000e+02 2.580000000000000000e+02 2.590000000000000000e+02 2.600000000000000000e+02 2.610000000000000000e+02 2.620000000000000000e+02 2.630000000000000000e+02 2.640000000000000000e+02 2.650000000000000000e+02 2.660000000000000000e+02 2.670000000000000000e+02 2.680000000000000000e+02 2.690000000000000000e+02 2.700000000000000000e+02 2.710000000000000000e+02 2.720000000000000000e+02 2.730000000000000000e+02 2.740000000000000000e+02 2.750000000000000000e+02 2.760000000000000000e+02 2.770000000000000000e+02 2.780000000000000000e+02 2.790000000000000000e+02 2.800000000000000000e+02 2.810000000000000000e+02 2.820000000000000000e+02 2.830000000000000000e+02 2.840000000000000000e+02 2.850000000000000000e+02 2.860000000000000000e+02 2.870000000000000000e+02 2.880000000000000000e+02 2.890000000000000000e+02 2.900000000000000000e+02 2.910000000000000000e+02 2.920000000000000000e+02 2.930000000000000000e+02 2.940000000000000000e+02 2.950000000000000000e+02 2.960000000000000000e+02 2.970000000000000000e+02 2.980000000000000000e+02 2.990000000000000000e+02 3.000000000000000000e+02 3.010000000000000000e+02 3.020000000000000000e+02 3.030000000000000000e+02 3.040000000000000000e+02 3.050000000000000000e+02 3.060000000000000000e+02 3.070000000000000000e+02 3.080000000000000000e+02 3.090000000000000000e+02 3.100000000000000000e+02 3.110000000000000000e+02 3.120000000000000000e+02 3.130000000000000000e+02 3.140000000000000000e+02 3.150000000000000000e+02 3.160000000000000000e+02 3.170000000000000000e+02 3.180000000000000000e+02 3.190000000000000000e+02 3.200000000000000000e+02 3.210000000000000000e+02 3.220000000000000000e+02 3.230000000000000000e+02 3.240000000000000000e+02 3.250000000000000000e+02 3.260000000000000000e+02 3.270000000000000000e+02 3.280000000000000000e+02 3.290000000000000000e+02 3.300000000000000000e+02 3.310000000000000000e+02 3.320000000000000000e+02 3.330000000000000000e+02 3.340000000000000000e+02 3.350000000000000000e+02 3.360000000000000000e+02 3.370000000000000000e+02 3.380000000000000000e+02 3.390000000000000000e+02 3.400000000000000000e+02 3.410000000000000000e+02 3.420000000000000000e+02 3.430000000000000000e+02 3.440000000000000000e+02 3.450000000000000000e+02 3.460000000000000000e+02 3.470000000000000000e+02 3.480000000000000000e+02 3.490000000000000000e+02 3.500000000000000000e+02 3.510000000000000000e+02 3.520000000000000000e+02 3.530000000000000000e+02 3.540000000000000000e+02 3.550000000000000000e+02 3.560000000000000000e+02 3.570000000000000000e+02 3.580000000000000000e+02 3.590000000000000000e+02 3.600000000000000000e+02 3.610000000000000000e+02 3.620000000000000000e+02 3.630000000000000000e+02 3.640000000000000000e+02 3.650000000000000000e+02 3.660000000000000000e+02 3.670000000000000000e+02 3.680000000000000000e+02 3.690000000000000000e+02 3.700000000000000000e+02 3.710000000000000000e+02 3.720000000000000000e+02 3.730000000000000000e+02 3.740000000000000000e+02 3.750000000000000000e+02 3.760000000000000000e+02 3.770000000000000000e+02 3.780000000000000000e+02 3.790000000000000000e+02 3.800000000000000000e+02 3.810000000000000000e+02 3.820000000000000000e+02 3.830000000000000000e+02 3.840000000000000000e+02 3.850000000000000000e+02 3.860000000000000000e+02 3.870000000000000000e+02 3.880000000000000000e+02 3.890000000000000000e+02 3.900000000000000000e+02 3.910000000000000000e+02 3.920000000000000000e+02 3.930000000000000000e+02 3.940000000000000000e+02 3.950000000000000000e+02 3.960000000000000000e+02 3.970000000000000000e+02 3.980000000000000000e+02 3.990000000000000000e+02 4.000000000000000000e+02 4.010000000000000000e+02 4.020000000000000000e+02 4.030000000000000000e+02 4.040000000000000000e+02 4.050000000000000000e+02 4.060000000000000000e+02 4.070000000000000000e+02 4.080000000000000000e+02 4.090000000000000000e+02 4.100000000000000000e+02 4.110000000000000000e+02 4.120000000000000000e+02 4.130000000000000000e+02 4.140000000000000000e+02 4.150000000000000000e+02 4.160000000000000000e+02 4.170000000000000000e+02 4.180000000000000000e+02 4.190000000000000000e+02 4.200000000000000000e+02 4.210000000000000000e+02 4.220000000000000000e+02 4.230000000000000000e+02 4.240000000000000000e+02 4.250000000000000000e+02 4.260000000000000000e+02 4.270000000000000000e+02 4.280000000000000000e+02 4.290000000000000000e+02 4.300000000000000000e+02 4.310000000000000000e+02 4.320000000000000000e+02 4.330000000000000000e+02 4.340000000000000000e+02 4.350000000000000000e+02 4.360000000000000000e+02 4.370000000000000000e+02 4.380000000000000000e+02 4.390000000000000000e+02 4.400000000000000000e+02 4.410000000000000000e+02 4.420000000000000000e+02 4.430000000000000000e+02 4.440000000000000000e+02 4.450000000000000000e+02 4.460000000000000000e+02 4.470000000000000000e+02 4.480000000000000000e+02 4.490000000000000000e+02 4.500000000000000000e+02 4.510000000000000000e+02 4.520000000000000000e+02 4.530000000000000000e+02 4.540000000000000000e+02 4.550000000000000000e+02 4.560000000000000000e+02 4.570000000000000000e+02 4.580000000000000000e+02 4.590000000000000000e+02 4.600000000000000000e+02 4.610000000000000000e+02 4.620000000000000000e+02 4.630000000000000000e+02 4.640000000000000000e+02 4.650000000000000000e+02 4.660000000000000000e+02 4.670000000000000000e+02 4.680000000000000000e+02 4.690000000000000000e+02 4.700000000000000000e+02 4.710000000000000000e+02 4.720000000000000000e+02 4.730000000000000000e+02 4.740000000000000000e+02 4.750000000000000000e+02 4.760000000000000000e+02 4.770000000000000000e+02 4.780000000000000000e+02 4.790000000000000000e+02 4.800000000000000000e+02 4.810000000000000000e+02 4.820000000000000000e+02 4.830000000000000000e+02 4.840000000000000000e+02 4.850000000000000000e+02 4.860000000000000000e+02 4.870000000000000000e+02 4.880000000000000000e+02 4.890000000000000000e+02 4.900000000000000000e+02 4.910000000000000000e+02 4.920000000000000000e+02 4.930000000000000000e+02 4.940000000000000000e+02 4.950000000000000000e+02 4.960000000000000000e+02 4.970000000000000000e+02 4.980000000000000000e+02 4.990000000000000000e+02 5.000000000000000000e+02 5.010000000000000000e+02 5.020000000000000000e+02 5.030000000000000000e+02 5.040000000000000000e+02 5.050000000000000000e+02 5.060000000000000000e+02 5.070000000000000000e+02 5.080000000000000000e+02 5.090000000000000000e+02 5.100000000000000000e+02 5.110000000000000000e+02 5.120000000000000000e+02 5.130000000000000000e+02 5.140000000000000000e+02 5.150000000000000000e+02 5.160000000000000000e+02 5.170000000000000000e+02 5.180000000000000000e+02 5.190000000000000000e+02 5.200000000000000000e+02 5.210000000000000000e+02 5.220000000000000000e+02 5.230000000000000000e+02 5.240000000000000000e+02 5.250000000000000000e+02 5.260000000000000000e+02 5.270000000000000000e+02 5.280000000000000000e+02 5.290000000000000000e+02 5.300000000000000000e+02 5.310000000000000000e+02 5.320000000000000000e+02 5.330000000000000000e+02 5.340000000000000000e+02 5.350000000000000000e+02 5.360000000000000000e+02 5.370000000000000000e+02 5.380000000000000000e+02 5.390000000000000000e+02 5.400000000000000000e+02 5.410000000000000000e+02 5.420000000000000000e+02 5.430000000000000000e+02 5.440000000000000000e+02 5.450000000000000000e+02 5.460000000000000000e+02 5.470000000000000000e+02 5.480000000000000000e+02 5.490000000000000000e+02 5.500000000000000000e+02 5.510000000000000000e+02 5.520000000000000000e+02 5.530000000000000000e+02 5.540000000000000000e+02 5.550000000000000000e+02 5.560000000000000000e+02 5.570000000000000000e+02 5.580000000000000000e+02 5.590000000000000000e+02 5.600000000000000000e+02 5.610000000000000000e+02 5.620000000000000000e+02 5.630000000000000000e+02 5.640000000000000000e+02 5.650000000000000000e+02 5.660000000000000000e+02 5.670000000000000000e+02 5.680000000000000000e+02 5.690000000000000000e+02 5.700000000000000000e+02 5.710000000000000000e+02 5.720000000000000000e+02 5.730000000000000000e+02 5.740000000000000000e+02 5.750000000000000000e+02 5.760000000000000000e+02 5.770000000000000000e+02 5.780000000000000000e+02 5.790000000000000000e+02 5.800000000000000000e+02 5.810000000000000000e+02 5.820000000000000000e+02 5.830000000000000000e+02 5.840000000000000000e+02 5.850000000000000000e+02 5.860000000000000000e+02 5.870000000000000000e+02 5.880000000000000000e+02 5.890000000000000000e+02 5.900000000000000000e+02 5.910000000000000000e+02 5.920000000000000000e+02 5.930000000000000000e+02 5.940000000000000000e+02 5.950000000000000000e+02 5.960000000000000000e+02 5.970000000000000000e+02 5.980000000000000000e+02 5.990000000000000000e+02 6.000000000000000000e+02 6.010000000000000000e+02 6.020000000000000000e+02 6.030000000000000000e+02 6.040000000000000000e+02 6.050000000000000000e+02 6.060000000000000000e+02 6.070000000000000000e+02 6.080000000000000000e+02 6.090000000000000000e+02 6.100000000000000000e+02 6.110000000000000000e+02 6.120000000000000000e+02 6.130000000000000000e+02 6.140000000000000000e+02 6.150000000000000000e+02 6.160000000000000000e+02 6.170000000000000000e+02 6.180000000000000000e+02 6.190000000000000000e+02 6.200000000000000000e+02 6.210000000000000000e+02 6.220000000000000000e+02 6.230000000000000000e+02 6.240000000000000000e+02 6.250000000000000000e+02 6.260000000000000000e+02 6.270000000000000000e+02 6.280000000000000000e+02 6.290000000000000000e+02 6.300000000000000000e+02 6.310000000000000000e+02 6.320000000000000000e+02 6.330000000000000000e+02 6.340000000000000000e+02 6.350000000000000000e+02 6.360000000000000000e+02 6.370000000000000000e+02 6.380000000000000000e+02 6.390000000000000000e+02 6.400000000000000000e+02 6.410000000000000000e+02 6.420000000000000000e+02 6.430000000000000000e+02 6.440000000000000000e+02 6.450000000000000000e+02 6.460000000000000000e+02 6.470000000000000000e+02 6.480000000000000000e+02 6.490000000000000000e+02 6.500000000000000000e+02 6.510000000000000000e+02 6.520000000000000000e+02 6.530000000000000000e+02 6.540000000000000000e+02 6.550000000000000000e+02 6.560000000000000000e+02 6.570000000000000000e+02 6.580000000000000000e+02 6.590000000000000000e+02 6.600000000000000000e+02 6.610000000000000000e+02 6.620000000000000000e+02 6.630000000000000000e+02 6.640000000000000000e+02 6.650000000000000000e+02 6.660000000000000000e+02 6.670000000000000000e+02 6.680000000000000000e+02 6.690000000000000000e+02 6.700000000000000000e+02 6.710000000000000000e+02 6.720000000000000000e+02 6.730000000000000000e+02 6.740000000000000000e+02 6.750000000000000000e+02 6.760000000000000000e+02 6.770000000000000000e+02 6.780000000000000000e+02 6.790000000000000000e+02 6.800000000000000000e+02 6.810000000000000000e+02 6.820000000000000000e+02 6.830000000000000000e+02 6.840000000000000000e+02 6.850000000000000000e+02 6.860000000000000000e+02 6.870000000000000000e+02 6.880000000000000000e+02 6.890000000000000000e+02 6.900000000000000000e+02 6.910000000000000000e+02 6.920000000000000000e+02 6.930000000000000000e+02 6.940000000000000000e+02 6.950000000000000000e+02 6.960000000000000000e+02 6.970000000000000000e+02 6.980000000000000000e+02 6.990000000000000000e+02 7.000000000000000000e+02 7.010000000000000000e+02 7.020000000000000000e+02 7.030000000000000000e+02 7.040000000000000000e+02 7.050000000000000000e+02 7.060000000000000000e+02 7.070000000000000000e+02 7.080000000000000000e+02 7.090000000000000000e+02 7.100000000000000000e+02 7.110000000000000000e+02 7.120000000000000000e+02 7.130000000000000000e+02 7.140000000000000000e+02 7.150000000000000000e+02 7.160000000000000000e+02 7.170000000000000000e+02 7.180000000000000000e+02 7.190000000000000000e+02 7.200000000000000000e+02 7.210000000000000000e+02 7.220000000000000000e+02 7.230000000000000000e+02 7.240000000000000000e+02 7.250000000000000000e+02 7.260000000000000000e+02 7.270000000000000000e+02 7.280000000000000000e+02 7.290000000000000000e+02 7.300000000000000000e+02 7.310000000000000000e+02 7.320000000000000000e+02 7.330000000000000000e+02 7.340000000000000000e+02 7.350000000000000000e+02 7.360000000000000000e+02 7.370000000000000000e+02 7.380000000000000000e+02 7.390000000000000000e+02 7.400000000000000000e+02 7.410000000000000000e+02 7.420000000000000000e+02 7.430000000000000000e+02 7.440000000000000000e+02 7.450000000000000000e+02 7.460000000000000000e+02 7.470000000000000000e+02 7.480000000000000000e+02 7.490000000000000000e+02 7.500000000000000000e+02 7.510000000000000000e+02 7.520000000000000000e+02 7.530000000000000000e+02 7.540000000000000000e+02 7.550000000000000000e+02 7.560000000000000000e+02 7.570000000000000000e+02 7.580000000000000000e+02 7.590000000000000000e+02 7.600000000000000000e+02 7.610000000000000000e+02 7.620000000000000000e+02 7.630000000000000000e+02 7.640000000000000000e+02 7.650000000000000000e+02 7.660000000000000000e+02 7.670000000000000000e+02 7.680000000000000000e+02 7.690000000000000000e+02 7.700000000000000000e+02 7.710000000000000000e+02 7.720000000000000000e+02 7.730000000000000000e+02 7.740000000000000000e+02 7.750000000000000000e+02 7.760000000000000000e+02 7.770000000000000000e+02 7.780000000000000000e+02 7.790000000000000000e+02 7.800000000000000000e+02 7.810000000000000000e+02 7.820000000000000000e+02 7.830000000000000000e+02 7.840000000000000000e+02 7.850000000000000000e+02 7.860000000000000000e+02 7.870000000000000000e+02 7.880000000000000000e+02 7.890000000000000000e+02 7.900000000000000000e+02 7.910000000000000000e+02 7.920000000000000000e+02 7.930000000000000000e+02 7.940000000000000000e+02 7.950000000000000000e+02 7.960000000000000000e+02 7.970000000000000000e+02 7.980000000000000000e+02 7.990000000000000000e+02 8.000000000000000000e+02 8.010000000000000000e+02 8.020000000000000000e+02 8.030000000000000000e+02 8.040000000000000000e+02 8.050000000000000000e+02 8.060000000000000000e+02 8.070000000000000000e+02 8.080000000000000000e+02 8.090000000000000000e+02 8.100000000000000000e+02 8.110000000000000000e+02 8.120000000000000000e+02 8.130000000000000000e+02 8.140000000000000000e+02 8.150000000000000000e+02 8.160000000000000000e+02 8.170000000000000000e+02 8.180000000000000000e+02 8.190000000000000000e+02 8.200000000000000000e+02 8.210000000000000000e+02 8.220000000000000000e+02 8.230000000000000000e+02 8.240000000000000000e+02 8.250000000000000000e+02 8.260000000000000000e+02 8.270000000000000000e+02 8.280000000000000000e+02 8.290000000000000000e+02 8.300000000000000000e+02 8.310000000000000000e+02 8.320000000000000000e+02 8.330000000000000000e+02 8.340000000000000000e+02 8.350000000000000000e+02 8.360000000000000000e+02 8.370000000000000000e+02 8.380000000000000000e+02 8.390000000000000000e+02 8.400000000000000000e+02 8.410000000000000000e+02 8.420000000000000000e+02 8.430000000000000000e+02 8.440000000000000000e+02 8.450000000000000000e+02 8.460000000000000000e+02 8.470000000000000000e+02 8.480000000000000000e+02 8.490000000000000000e+02 8.500000000000000000e+02 8.510000000000000000e+02 8.520000000000000000e+02 8.530000000000000000e+02 8.540000000000000000e+02 8.550000000000000000e+02 8.560000000000000000e+02 8.570000000000000000e+02 8.580000000000000000e+02 8.590000000000000000e+02 8.600000000000000000e+02 8.610000000000000000e+02 8.620000000000000000e+02 8.630000000000000000e+02 8.640000000000000000e+02 8.650000000000000000e+02 8.660000000000000000e+02 8.670000000000000000e+02 8.680000000000000000e+02 8.690000000000000000e+02 8.700000000000000000e+02 8.710000000000000000e+02 8.720000000000000000e+02 8.730000000000000000e+02 8.740000000000000000e+02 8.750000000000000000e+02 8.760000000000000000e+02 8.770000000000000000e+02 8.780000000000000000e+02 8.790000000000000000e+02 8.800000000000000000e+02 8.810000000000000000e+02 8.820000000000000000e+02 8.830000000000000000e+02 8.840000000000000000e+02 8.850000000000000000e+02 8.860000000000000000e+02 8.870000000000000000e+02 8.880000000000000000e+02 8.890000000000000000e+02 8.900000000000000000e+02 8.910000000000000000e+02 8.920000000000000000e+02 8.930000000000000000e+02 8.940000000000000000e+02 8.950000000000000000e+02 8.960000000000000000e+02 8.970000000000000000e+02 8.980000000000000000e+02 8.990000000000000000e+02 9.000000000000000000e+02 9.010000000000000000e+02 9.020000000000000000e+02 9.030000000000000000e+02 9.040000000000000000e+02 9.050000000000000000e+02 9.060000000000000000e+02 9.070000000000000000e+02 9.080000000000000000e+02 9.090000000000000000e+02 9.100000000000000000e+02 9.110000000000000000e+02 9.120000000000000000e+02 9.130000000000000000e+02 9.140000000000000000e+02 9.150000000000000000e+02 9.160000000000000000e+02 9.170000000000000000e+02 9.180000000000000000e+02 9.190000000000000000e+02 9.200000000000000000e+02 9.210000000000000000e+02 9.220000000000000000e+02 9.230000000000000000e+02 9.240000000000000000e+02 9.250000000000000000e+02 9.260000000000000000e+02 9.270000000000000000e+02 9.280000000000000000e+02 9.290000000000000000e+02 9.300000000000000000e+02 9.310000000000000000e+02 9.320000000000000000e+02 9.330000000000000000e+02 9.340000000000000000e+02 9.350000000000000000e+02 9.360000000000000000e+02 9.370000000000000000e+02 9.380000000000000000e+02 9.390000000000000000e+02 9.400000000000000000e+02 9.410000000000000000e+02 9.420000000000000000e+02 9.430000000000000000e+02 9.440000000000000000e+02 9.450000000000000000e+02 9.460000000000000000e+02 9.470000000000000000e+02 9.480000000000000000e+02 9.490000000000000000e+02 9.500000000000000000e+02 9.510000000000000000e+02 9.520000000000000000e+02 9.530000000000000000e+02 9.540000000000000000e+02 9.550000000000000000e+02 9.560000000000000000e+02 9.570000000000000000e+02 9.580000000000000000e+02 9.590000000000000000e+02 9.600000000000000000e+02 9.610000000000000000e+02 9.620000000000000000e+02 9.630000000000000000e+02 9.640000000000000000e+02 9.650000000000000000e+02 9.660000000000000000e+02 9.670000000000000000e+02 9.680000000000000000e+02 9.690000000000000000e+02 9.700000000000000000e+02 9.710000000000000000e+02 9.720000000000000000e+02 9.730000000000000000e+02 9.740000000000000000e+02 9.750000000000000000e+02 9.760000000000000000e+02 9.770000000000000000e+02 9.780000000000000000e+02 9.790000000000000000e+02 9.800000000000000000e+02 9.810000000000000000e+02 9.820000000000000000e+02 9.830000000000000000e+02 9.840000000000000000e+02 9.850000000000000000e+02 9.860000000000000000e+02 9.870000000000000000e+02 9.880000000000000000e+02 9.890000000000000000e+02 9.900000000000000000e+02 9.910000000000000000e+02 9.920000000000000000e+02 9.930000000000000000e+02 9.940000000000000000e+02 9.950000000000000000e+02 9.960000000000000000e+02 9.970000000000000000e+02 9.980000000000000000e+02 9.990000000000000000e+02
1.000000000000000000e+00 1.000000000000000000e+00 1.000000000000000000e+00 1.000000000000000000e+00 1.000000000000000000e+00 1.000000000000000000e+00 1.000000000000000000e+00 1.000000000000000000e+00 1.000000000000000000e+00 1.000000000000000000e+00 1.000000000000000000e+00 1.000000000000000000e+00 1.000000000000000000e+00 1.000000000000000000e+00 1.000000000000000000e+00 1.000000000000000000e+00 1.000000000000000000e+00 1.000000000000000000e+00 1.000000000000000000e+00 1.000000000000000000e+00 1.000000000000000000e+00 1.000000000000000000e+00 1.000000000000000000e+00 1.000000000000000000e+00 1.000000000000000000e+00 1.000000000000000000e+00 1.000000000000000000e+00 1.000000000000000000e+00 1.000000000000000000e+00 1.000000000000000000e+00 1.000000000000000000e+00 1.000000000000000000e+00 1.000000000000000000e+00 1.000000000000000000e+00 1.000000000000000000e+00 1.000000000000000000e+00 1.000000000000000000e+00 1.000000000000000000e+00 1.000000000000000000e+00 1.000000000000000000e+00 1.000000000000000000e+00 1.000000000000000000e+00 1.000000000000000000e+00 1.000000000000000000e+00 1.000000000000000000e+00 1.000000000000000000e+00 1.000000000000000000e+00 1.000000000000000000e+00 1.000000000000000000e+00 1.000000000000000000e+00 1.000000000000000000e+00 1.000000000000000000e+00 1.000000000000000000e+00 1.000000000000000000e+00 1.000000000000000000e+00 1.000000000000000000e+00 1.000000000000000000e+00 1.000000000000000000e+00 1.000000000000000000e+00 1.000000000000000000e+00 1.000000000000000000e+00 1.000000000000000000e+00 1.000000000000000000e+00 1.000000000000000000e+00 1.000000000000000000e+00 1.000000000000000000e+00 1.000000000000000000e+00 1.000000000000000000e+00 1.000000000000000000e+00 1.000000000000000000e+00 1.000000000000000000e+00 1.000000000000000000e+00 1.000000000000000000e+00 1.000000000000000000e+00 1.000000000000000000e+00 1.000000000000000000e+00 1.000000000000000000e+00 1.000000000000000000e+00 1.000000000000000000e+00 1.000000000000000000e+00 1.000000000000000000e+00 1.000000000000000000e+00 1.000000000000000000e+00 1.000000000000000000e+00 1.000000000000000000e+00 1.000000000000000000e+00 1.000000000000000000e+00 1.000000000000000000e+00 1.000000000000000000e+00 1.000000000000000000e+00 1.000000000000000000e+00 1.000000000000000000e+00 1.000000000000000000e+00 1.000000000000000000e+00 1.000000000000000000e+00 1.000000000000000000e+00 1.000000000000000000e+00 1.000000000000000000e+00 1.000000000000000000e+00 1.000000000000000000e+00 1.000000000000000000e+00 1.000000000000000000e+00 1.000000000000000000e+00 1.000000000000000000e+00 1.000000000000000000e+00 1.000000000000000000e+00 1.000000000000000000e+00 1.000000000000000000e+00 1.000000000000000000e+00 1.000000000000000000e+00 1.000000000000000000e+00 1.000000000000000000e+00 1.000000000000000000e+00 1.000000000000000000e+00 1.000000000000000000e+00 1.000000000000000000e+00 1.000000000000000000e+00 1.000000000000000000e+00 1.000000000000000000e+00 1.000000000000000000e+00 1.000000000000000000e+00 1.000000000000000000e+00 1.000000000000000000e+00 1.000000000000000000e+00 1.000000000000000000e+00 1.000000000000000000e+00 1.000000000000000000e+00 1.000000000000000000e+00 1.000000000000000000e+00 1.000000000000000000e+00 1.000000000000000000e+00 1.000000000000000000e+00 1.000000000000000000e+00 1.000000000000000000e+00 1.000000000000000000e+00 1.000000000000000000e+00 1.000000000000000000e+00 1.000000000000000000e+00 1.000000000000000000e+00 1.000000000000000000e+00 1.000000000000000000e+00 1.000000000000000000e+00 1.000000000000000000e+00 1.000000000000000000e+00 1.000000000000000000e+00 1.000000000000000000e+00 1.000000000000000000e+00 1.000000000000000000e+00 1.000000000000000000e+00 1.000000000000000000e+00 1.000000000000000000e+00 1.000000000000000000e+00 1.000000000000000000e+00 1.000000000000000000e+00 1.000000000000000000e+00 1.000000000000000000e+00 1.000000000000000000e+00 1.000000000000000000e+00 1.000000000000000000e+00 1.000000000000000000e+00 1.000000000000000000e+00 1.000000000000000000e+00 1.000000000000000000e+00 1.000000000000000000e+00 1.000000000000000000e+00 1.000000000000000000e+00 1.000000000000000000e+00 1.000000000000000000e+00 1.000000000000000000e+00 1.000000000000000000e+00 1.000000000000000000e+00 1.000000000000000000e+00 1.000000000000000000e+00 1.000000000000000000e+00 1.000000000000000000e+00 1.000000000000000000e+00 1.000000000000000000e+00 1.000000000000000000e+00 1.000000000000000000e+00 1.000000000000000000e+00 1.000000000000000000e+00 1.000000000000000000e+00 1.000000000000000000e+00 1.000000000000000000e+00 1.000000000000000000e+00 1.000000000000000000e+00 1.000000000000000000e+00 1.000000000000000000e+00 1.000000000000000000e+00 1.000000000000000000e+00 1.000000000000000000e+00 1.000000000000000000e+00 1.000000000000000000e+00 1.000000000000000000e+00 1.000000000000000000e+00 1.000000000000000000e+00 1.000000000000000000e+00 1.000000000000000000e+00 1.000000000000000000e+00 1.000000000000000000e+00 1.000000000000000000e+00 1.000000000000000000e+00 1.000000000000000000e+00 1.000000000000000000e+00 1.000000000000000000e+00 1.000000000000000000e+00 1.000000000000000000e+00 1.000000000000000000e+00 1.000000000000000000e+00 1.000000000000000000e+00 1.000000000000000000e+00 1.000000000000000000e+00 1.000000000000000000e+00 1.000000000000000000e+00 1.000000000000000000e+00 1.000000000000000000e+00 1.000000000000000000e+00 1.000000000000000000e+00 1.000000000000000000e+00 1.000000000000000000e+00 1.000000000000000000e+00 1.000000000000000000e+00 1.000000000000000000e+00 1.000000000000000000e+00 1.000000000000000000e+00 1.000000000000000000e+00 1.000000000000000000e+00 1.000000000000000000e+00 1.000000000000000000e+00 1.000000000000000000e+00 1.000000000000000000e+00 1.000000000000000000e+00 1.000000000000000000e+00 1.000000000000000000e+00 1.000000000000000000e+00 1.000000000000000000e+00 1.000000000000000000e+00 1.000000000000000000e+00 1.000000000000000000e+00 1.000000000000000000e+00 1.000000000000000000e+00 1.000000000000000000e+00 1.000000000000000000e+00 1.000000000000000000e+00 1.000000000000000000e+00 1.000000000000000000e+00 1.000000000000000000e+00 1.000000000000000000e+00 1.000000000000000000e+00 1.000000000000000000e+00 1.000000000000000000e+00 1.000000000000000000e+00 1.000000000000000000e+00 1.000000000000000000e+00 1.000000000000000000e+00 1.000000000000000000e+00 1.000000000000000000e+00 1.000000000000000000e+00 1.000000000000000000e+00 1.000000000000000000e+00 1.000000000000000000e+00 1.000000000000000000e+00 1.000000000000000000e+00 1.000000000000000000e+00 1.000000000000000000e+00 1.000000000000000000e+00 1.000000000000000000e+00 1.000000000000000000e+00 1.000000000000000000e+00 1.000000000000000000e+00 1.000000000000000000e+00 1.000000000000000000e+00 1.000000000000000000e+00 1.000000000000000000e+00 1.000000000000000000e+00 1.000000000000000000e+00 1.000000000000000000e+00 1.000000000000000000e+00 1.000000000000000000e+00 1.000000000000000000e+00 1.000000000000000000e+00 1.000000000000000000e+00 1.000000000000000000e+00 1.000000000000000000e+00 1.000000000000000000e+00 1.000000000000000000e+00 1.000000000000000000e+00 1.000000000000000000e+00 1.000000000000000000e+00 1.000000000000000000e+00 1.000000000000000000e+00 1.000000000000000000e+00 1.000000000000000000e+00 1.000000000000000000e+00 1.000000000000000000e+00 1.000000000000000000e+00 1.000000000000000000e+00 1.000000000000000000e+00 1.000000000000000000e+00 1.000000000000000000e+00 1.000000000000000000e+00 1.000000000000000000e+00 1.000000000000000000e+00 1.000000000000000000e+00 1.000000000000000000e+00 1.000000000000000000e+00 1.000000000000000000e+00 1.000000000000000000e+00 1.000000000000000000e+00 1.000000000000000000e+00 1.000000000000000000e+00 1.000000000000000000e+00 1.000000000000000000e+00 1.000000000000000000e+00 1.000000000000000000e+00 1.000000000000000000e+00 1.000000000000000000e+00 1.000000000000000000e+00 1.000000000000000000e+00 1.000000000000000000e+00 1.000000000000000000e+00 1.000000000000000000e+00 1.000000000000000000e+00 1.000000000000000000e+00 1.000000000000000000e+00 1.000000000000000000e+00 1.000000000000000000e+00 1.000000000000000000e+00 1.000000000000000000e+00 1.000000000000000000e+00 1.000000000000000000e+00 1.000000000000000000e+00 1.000000000000000000e+00 1.000000000000000000e+00 1.000000000000000000e+00 1.000000000000000000e+00 1.000000000000000000e+00 1.000000000000000000e+00 1.000000000000000000e+00 1.000000000000000000e+00 1.000000000000000000e+00 1.000000000000000000e+00 1.000000000000000000e+00 1.000000000000000000e+00 1.000000000000000000e+00 1.000000000000000000e+00 1.000000000000000000e+00 1.000000000000000000e+00 1.000000000000000000e+00 1.000000000000000000e+00 1.000000000000000000e+00 1.000000000000000000e+00 1.000000000000000000e+00 1.000000000000000000e+00 1.000000000000000000e+00 1.000000000000000000e+00 1.000000000000000000e+00 1.000000000000000000e+00 1.000000000000000000e+00 1.000000000000000000e+00 1.000000000000000000e+00 1.000000000000000000e+00 1.000000000000000000e+00 1.000000000000000000e+00 1.000000000000000000e+00 1.000000000000000000e+00 1.000000000000000000e+00 1.000000000000000000e+00 1.000000000000000000e+00 1.000000000000000000e+00 1.000000000000000000e+00 1.000000000000000000e+00 1.000000000000000000e+00 1.000000000000000000e+00 1.000000000000000000e+00 1.000000000000000000e+00 1.000000000000000000e+00 1.000000000000000000e+00 1.000000000000000000e+00 1.000000000000000000e+00 1.000000000000000000e+00 1.000000000000000000e+00 1.000000000000000000e+00 1.000000000000000000e+00 1.000000000000000000e+00 1.000000000000000000e+00 1.000000000000000000e+00 1.000000000000000000e+00 1.000000000000000000e+00 1.000000000000000000e+00 1.000000000000000000e+00 1.000000000000000000e+00 1.000000000000000000e+00 1.000000000000000000e+00 1.000000000000000000e+00 1.000000000000000000e+00 1.000000000000000000e+00 1.000000000000000000e+00 1.000000000000000000e+00 1.000000000000000000e+00 1.000000000000000000e+00 1.000000000000000000e+00 1.000000000000000000e+00 1.000000000000000000e+00 1.000000000000000000e+00 1.000000000000000000e+00 1.000000000000000000e+00 1.000000000000000000e+00 1.000000000000000000e+00 1.000000000000000000e+00 1.000000000000000000e+00 1.000000000000000000e+00 1.000000000000000000e+00 1.000000000000000000e+00 1.000000000000000000e+00 1.000000000000000000e+00 1.000000000000000000e+00 1.000000000000000000e+00 1.000000000000000000e+00 1.000000000000000000e+00 1.000000000000000000e+00 1.000000000000000000e+00 1.000000000000000000e+00 1.000000000000000000e+00 1.000000000000000000e+00 1.000000000000000000e+00 1.000000000000000000e+00 1.000000000000000000e+00 1.000000000000000000e+00 1.000000000000000000e+00 1.000000000000000000e+00 1.000000000000000000e+00 1.000000000000000000e+00 1.000000000000000000e+00 1.000000000000000000e+00 1.000000000000000000e+00 1.000000000000000000e+00 1.000000000000000000e+00 1.000000000000000000e+00 1.000000000000000000e+00 1.000000000000000000e+00 1.000000000000000000e+00 1.000000000000000000e+00 1.000000000000000000e+00 1.000000000000000000e+00 1.000000000000000000e+00 1.000000000000000000e+00 1.000000000000000000e+00 1.000000000000000000e+00 1.000000000000000000e+00 1.000000000000000000e+00 1.000000000000000000e+00 1.000000000000000000e+00 1.000000000000000000e+00 1.000000000000000000e+00 1.000000000000000000e+00 1.000000000000000000e+00 1.000000000000000000e+00 1.000000000000000000e+00 1.000000000000000000e+00 1.000000000000000000e+00 1.000000000000000000e+00 1.000000000000000000e+00 1.000000000000000000e+00 1.000000000000000000e+00 1.000000000000000000e+00 1.000000000000000000e+00 1.000000000000000000e+00 1.000000000000000000e+00 1.000000000000000000e+00 1.000000000000000000e+00 1.000000000000000000e+00 1.000000000000000000e+00 1.000000000000000000e+00 1.000000000000000000e+00 1.000000000000000000e+00 1.000000000000000000e+00 1.000000000000000000e+00 1.000000000000000000e+00 1.000000000000000000e+00 1.000000000000000000e+00 1.000000000000000000e+00 1.000000000000000000e+00 1.000000000000000000e+00 1.000000000000000000e+00 1.000000000000000000e+00 1.000000000000000000e+00 1.000000000000000000e+00 1.000000000000000000e+00 1.000000000000000000e+00 1.000000000000000000e+00 1.000000000000000000e+00 1.000000000000000000e+00 1.000000000000000000e+00 1.000000000000000000e+00 1.000000000000000000e+00 1.000000000000000000e+00 1.000000000000000000e+00 1.000000000000000000e+00 1.000000000000000000e+00 1.000000000000000000e+00 1.000000000000000000e+00 1.000000000000000000e+00 1.000000000000000000e+00 1.000000000000000000e+00 1.000000000000000000e+00 1.000000000000000000e+00 1.000000000000000000e+00 1.000000000000000000e+00 1.000000000000000000e+00 1.000000000000000000e+00 1.000000000000000000e+00 1.000000000000000000e+00 1.000000000000000000e+00 1.000000000000000000e+00 1.000000000000000000e+00 1.000000000000000000e+00 1.000000000000000000e+00 1.000000000000000000e+00 1.000000000000000000e+00 1.000000000000000000e+00 1.000000000000000000e+00 1.000000000000000000e+00 1.000000000000000000e+00 1.000000000000000000e+00 1.000000000000000000e+00 1.000000000000000000e+00 1.000000000000000000e+00 1.000000000000000000e+00 1.000000000000000000e+00 1.000000000000000000e+00 1.000000000000000000e+00 1.000000000000000000e+00 1.000000000000000000e+00 1.000000000000000000e+00 1.000000000000000000e+00 1.000000000000000000e+00 1.000000000000000000e+00 1.000000000000000000e+00 1.000000000000000000e+00 1.000000000000000000e+00 1.000000000000000000e+00 1.000000000000000000e+00 1.000000000000000000e+00 1.000000000000000000e+00 1.000000000000000000e+00 1.000000000000000000e+00 1.000000000000000000e+00 1.000000000000000000e+00 1.000000000000000000e+00 1.000000000000000000e+00 1.000000000000000000e+00 1.000000000000000000e+00 1.000000000000000000e+00 1.000000000000000000e+00 1.000000000000000000e+00 1.000000000000000000e+00 1.000000000000000000e+00 1.000000000000000000e+00 1.000000000000000000e+00 1.000000000000000000e+00 1.000000000000000000e+00 1.000000000000000000e+00 1.000000000000000000e+00 1.000000000000000000e+00 1.000000000000000000e+00 1.000000000000000000e+00 1.000000000000000000e+00 1.000000000000000000e+00 1.000000000000000000e+00 1.000000000000000000e+00 1.000000000000000000e+00 1.000000000000000000e+00 1.000000000000000000e+00 1.000000000000000000e+00 1.000000000000000000e+00 1.000000000000000000e+00 1.000000000000000000e+00 1.000000000000000000e+00 1.000000000000000000e+00 1.000000000000000000e+00 1.000000000000000000e+00 1.000000000000000000e+00 1.000000000000000000e+00 1.000000000000000000e+00 1.000000000000000000e+00 1.000000000000000000e+00 1.000000000000000000e+00 1.000000000000000000e+00 1.000000000000000000e+00 1.000000000000000000e+00 1.000000000000000000e+00 1.000000000000000000e+00 1.000000000000000000e+00 1.000000000000000000e+00 1.000000000000000000e+00 1.000000000000000000e+00 1.000000000000000000e+00 1.000000000000000000e+00 1.000000000000000000e+00 1.000000000000000000e+00 1.000000000000000000e+00 1.000000000000000000e+00 1.000000000000000000e+00 1.000000000000000000e+00 1.000000000000000000e+00 1.000000000000000000e+00 1.000000000000000000e+00 1.000000000000000000e+00 1.000000000000000000e+00 1.000000000000000000e+00 1.000000000000000000e+00 1.000000000000000000e+00 1.000000000000000000e+00 1.000000000000000000e+00 1.000000000000000000e+00 1.000000000000000000e+00 1.000000000000000000e+00 1.000000000000000000e+00 1.000000000000000000e+00 1.000000000000000000e+00 1.000000000000000000e+00 1.000000000000000000e+00 1.000000000000000000e+00 1.000000000000000000e+00 1.000000000000000000e+00 1.000000000000000000e+00 1.000000000000000000e+00 1.000000000000000000e+00 1.000000000000000000e+00 1.000000000000000000e+00 1.000000000000000000e+00 1.000000000000000000e+00 1.000000000000000000e+00 1.000000000000000000e+00 1.000000000000000000e+00 1.000000000000000000e+00 1.000000000000000000e+00 1.000000000000000000e+00 1.000000000000000000e+00 1.000000000000000000e+00 1.000000000000000000e+00 1.000000000000000000e+00 1.000000000000000000e+00 1.000000000000000000e+00 1.000000000000000000e+00 1.000000000000000000e+00 1.000000000000000000e+00 1.000000000000000000e+00 1.000000000000000000e+00 1.000000000000000000e+00 1.000000000000000000e+00 1.000000000000000000e+00 1.000000000000000000e+00 1.000000000000000000e+00 1.000000000000000000e+00 1.000000000000000000e+00 1.000000000000000000e+00 1.000000000000000000e+00 1.000000000000000000e+00 1.000000000000000000e+00 1.000000000000000000e+00 1.000000000000000000e+00 1.000000000000000000e+00 1.000000000000000000e+00 1.000000000000000000e+00 1.000000000000000000e+00 1.000000000000000000e+00 1.000000000000000000e+00 1.000000000000000000e+00 1.000000000000000000e+00 1.000000000000000000e+00 1.000000000000000000e+00 1.000000000000000000e+00 1.000000000000000000e+00 1.000000000000000000e+00 1.000000000000000000e+00 1.000000000000000000e+00 1.000000000000000000e+00 1.000000000000000000e+00 1.000000000000000000e+00 1.000000000000000000e+00 1.000000000000000000e+00 1.000000000000000000e+00 1.000000000000000000e+00 1.000000000000000000e+00 1.000000000000000000e+00 1.000000000000000000e+00 1.000000000000000000e+00 1.000000000000000000e+00 1.000000000000000000e+00 1.000000000000000000e+00 1.000000000000000000e+00 1.000000000000000000e+00 1.000000000000000000e+00 1.000000000000000000e+00 1.000000000000000000e+00 1.000000000000000000e+00 1.000000000000000000e+00 1.000000000000000000e+00 1.000000000000000000e+00 1.000000000000000000e+00 1.000000000000000000e+00 1.000000000000000000e+00 1.000000000000000000e+00 1.000000000000000000e+00 1.000000000000000000e+00 1.000000000000000000e+00 1.000000000000000000e+00 1.000000000000000000e+00 1.000000000000000000e+00 1.000000000000000000e+00 1.000000000000000000e+00 1.000000000000000000e+00 1.000000000000000000e+00 1.000000000000000000e+00 1.000000000000000000e+00 1.000000000000000000e+00 1.000000000000000000e+00 1.000000000000000000e+00 1.000000000000000000e+00 1.000000000000000000e+00 1.000000000000000000e+00 1.000000000000000000e+00 1.000000000000000000e+00 1.000000000000000000e+00 1.000000000000000000e+00 1.000000000000000000e+00 1.000000000000000000e+00 1.000000000000000000e+00 1.000000000000000000e+00 1.000000000000000000e+00 1.000000000000000000e+00 1.000000000000000000e+00 1.000000000000000000e+00 1.000000000000000000e+00 1.000000000000000000e+00 1.000000000000000000e+00 1.000000000000000000e+00 1.000000000000000000e+00 1.000000000000000000e+00 1.000000000000000000e+00 1.000000000000000000e+00 1.000000000000000000e+00 1.000000000000000000e+00 1.000000000000000000e+00 1.000000000000000000e+00 1.000000000000000000e+00 1.000000000000000000e+00 1.000000000000000000e+00 1.000000000000000000e+00 1.000000000000000000e+00 1.000000000000000000e+00 1.000000000000000000e+00 1.000000000000000000e+00 1.000000000000000000e+00 1.000000000000000000e+00 1.000000000000000000e+00 1.000000000000000000e+00 1.000000000000000000e+00 1.000000000000000000e+00 1.000000000000000000e+00 1.000000000000000000e+00 1.000000000000000000e+00 1.000000000000000000e+00 1.000000000000000000e+00 1.000000000000000000e+00 1.000000000000000000e+00 1.000000000000000000e+00 1.000000000000000000e+00 1.000000000000000000e+00 1.000000000000000000e+00 1.000000000000000000e+00 1.000000000000000000e+00 1.000000000000000000e+00 1.000000000000000000e+00 1.000000000000000000e+00 1.000000000000000000e+00 1.000000000000000000e+00 1.000000000000000000e+00 1.000000000000000000e+00 1.000000000000000000e+00 1.000000000000000000e+00 1.000000000000000000e+00 1.000000000000000000e+00 1.000000000000000000e+00 1.000000000000000000e+00 1.000000000000000000e+00 1.000000000000000000e+00 1.000000000000000000e+00 1.000000000000000000e+00 1.000000000000000000e+00 1.000000000000000000e+00 1.000000000000000000e+00 1.000000000000000000e+00 1.000000000000000000e+00 1.000000000000000000e+00 1.000000000000000000e+00 1.000000000000000000e+00 1.000000000000000000e+00 1.000000000000000000e+00 1.000000000000000000e+00 1.000000000000000000e+00 1.000000000000000000e+00 1.000000000000000000e+00 1.000000000000000000e+00 1.000000000000000000e+00 1.000000000000000000e+00 1.000000000000000000e+00 1.000000000000000000e+00 1.000000000000000000e+00 1.000000000000000000e+00 1.000000000000000000e+00 1.000000000000000000e+00 1.000000000000000000e+00 1.000000000000000000e+00 1.000000000000000000e+00 1.000000000000000000e+00 1.000000000000000000e+00 1.000000000000000000e+00 1.000000000000000000e+00 1.000000000000000000e+00 1.000000000000000000e+00 1.000000000000000000e+00 1.000000000000000000e+00 1.000000000000000000e+00 1.000000000000000000e+00 1.000000000000000000e+00 1.000000000000000000e+00 1.000000000000000000e+00 1.000000000000000000e+00 1.000000000000000000e+00 1.000000000000000000e+00 1.000000000000000000e+00 1.000000000000000000e+00 1.000000000000000000e+00 1.000000000000000000e+00 1.000000000000000000e+00 1.000000000000000000e+00 1.000000000000000000e+00 1.000000000000000000e+00 1.000000000000000000e+00 1.000000000000000000e+00 1.000000000000000000e+00 1.000000000000000000e+00 1.000000000000000000e+00 1.000000000000000000e+00 1.000000000000000000e+00 1.000000000000000000e+00 1.000000000000000000e+00 1.000000000000000000e+00 1.000000000000000000e+00 1.000000000000000000e+00 1.000000000000000000e+00 1.000000000000000000e+00 1.000000000000000000e+00 1.000000000000000000e+00 1.000000000000000000e+00 1.000000000000000000e+00 1.000000000000000000e+00 1.000000000000000000e+00 1.000000000000000000e+00 1.000000000000000000e+00 1.000000000000000000e+00 1.000000000000000000e+00 1.000000000000000000e+00 1.000000000000000000e+00 1.000000000000000000e+00 1.000000000000000000e+00 1.000000000000000000e+00 1.000000000000000000e+00 1.000000000000000000e+00 1.000000000000000000e+00 1.000000000000000000e+00 1.000000000000000000e+00 1.000000000000000000e+00 1.000000000000000000e+00 1.000000000000000000e+00 1.000000000000000000e+00 1.000000000000000000e+00 1.000000000000000000e+00 1.000000000000000000e+00 1.000000000000000000e+00 1.000000000000000000e+00 1.000000000000000000e+00 1.000000000000000000e+00 1.000000000000000000e+00 1.000000000000000000e+00 1.000000000000000000e+00 1.000000000000000000e+00 1.000000000000000000e+00 1.000000000000000000e+00 1.000000000000000000e+00 1.000000000000000000e+00 1.000000000000000000e+00 1.000000000000000000e+00 1.000000000000000000e+00 1.000000000000000000e+00 1.000000000000000000e+00 1.000000000000000000e+00 1.000000000000000000e+00 1.000000000000000000e+00 1.000000000000000000e+00 1.000000000000000000e+00 1.000000000000000000e+00 1.000000000000000000e+00 1.000000000000000000e+00 1.000000000000000000e+00 1.000000000000000000e+00 1.000000000000000000e+00 1.000000000000000000e+00 1.000000000000000000e+00 1.000000000000000000e+00 1.000000000000000000e+00 1.000000000000000000e+00 1.000000000000000000e+00 1.000000000000000000e+00 1.000000000000000000e+00 1.000000000000000000e+00 1.000000000000000000e+00 1.000000000000000000e+00 1.000000000000000000e+00 1.000000000000000000e+00 1.000000000000000000e+00 1.000000000000000000e+00 1.000000000000000000e+00 1.000000000000000000e+00 1.000000000000000000e+00 1.000000000000000000e+00 1.000000000000000000e+00 1.000000000000000000e+00 1.000000000000000000e+00 1.000000000000000000e+00 1.000000000000000000e+00 1.000000000000000000e+00 1.000000000000000000e+00 1.000000000000000000e+00 1.000000000000000000e+00 1.000000000000000000e+00 1.000000000000000000e+00 1.000000000000000000e+00 1.000000000000000000e+00 1.000000000000000000e+00 1.000000000000000000e+00 1.000000000000000000e+00 1.000000000000000000e+00 1.000000000000000000e+00 1.000000000000000000e+00 1.000000000000000000e+00 1.000000000000000000e+00 1.000000000000000000e+00 1.000000000000000000e+00 1.000000000000000000e+00 1.000000000000000000e+00 1.000000000000000000e+00 1.000000000000000000e+00 1.000000000000000000e+00 1.000000000000000000e+00 1.000000000000000000e+00 1.000000000000000000e+00 1.000000000000000000e+00 1.000000000000000000e+00 1.000000000000000000e+00 1.000000000000000000e+00 1.000000000000000000e+00 1.000000000000000000e+00 1.000000000000000000e+00 1.000000000000000000e+00 1.000000000000000000e+00 1.000000000000000000e+00 1.000000000000000000e+00 1.000000000000000000e+00 1.000000000000000000e+00 1.000000000000000000e+00 1.000000000000000000e+00 1.000000000000000000e+00 1.000000000000000000e+00 1.000000000000000000e+00 1.000000000000000000e+00 1.000000000000000000e+00 1.000000000000000000e+00 1.000000000000000000e+00 1.000000000000000000e+00 1.000000000000000000e+00 1.000000000000000000e+00 1.000000000000000000e+00 1.000000000000000000e+00 1.000000000000000000e+00 1.000000000000000000e+00 1.000000000000000000e+00 1.000000000000000000e+00 1.000000000000000000e+00 1.000000000000000000e+00 1.000000000000000000e+00 1.000000000000000000e+00 1.000000000000000000e+00 1.000000000000000000e+00 1.000000000000000000e+00 1.000000000000000000e+00 1.000000000000000000e+00
6.039082707574734699e-02 5.310689011606749554e-01 -2.921917217090637675e-01 7.796116396126084869e-01 5.220191942352498948e-01 5.546626421646679850e-01 5.677289504674603027e-01 4.046030181309612783e-01 5.669636604379080236e-01 5.242676410654433239e-01 1.087285895715565776e+00 -7.363170271279474433e-01 1.425830071677161470e+00 4.694438382195421644e-01 5.209773432576805252e-01 4.229104496472426145e-01 8.324631907066455394e-01 9.798797114761311766e-01 7.496531144575997452e-01 5.202765392537083144e-01 3.700553848403105306e-01 9.958394699783160720e-01 3.522531672500851530e-01 5.633007736749399141e-01 6.530829767284508647e-02 6.619896127369083727e-01 4.219296944224369406e-01 7.162639821479537261e-01 5.146826719012872475e-01 1.640018058393681644e+00 4.901379565620647694e-01 6.019663700317818833e-01 7.184560889197675326e-01 5.095207468057617595e-01 6.886691658453517606e-01 4.631808332472656109e-01 5.755082540304188310e-01 1.869164367930320259e+00 -9.581455451452586258e-02 5.095608005951071107e-01 -2.292025432140219199e-01 -5.622744567523064729e-01 7.456960971221914258e-01 2.316836583394470128e-01 3.284063772868890396e-01 4.938964195191816731e-01 7.792390422203994138e-01 5.438531211112622721e-01 6.808049239027501587e-01 9.186136715371629249e-03 3.725729979382712970e-02 7.523236645442509252e-01 6.837106990599415290e-01 4.163850024890657919e-01 4.667767610634029896e-01 2.333967747300802129e-02 5.714290484469510822e-01 5.035872243605331589e-01 2.014701189921973834e-01 5.486447800519784757e-01 9.299269355429184980e-01 4.522541298839998225e-01 4.937744230558409053e-01 3.522530725220104908e-01 6.747183510380402316e-01 6.629156907624681461e-01 5.193755508481070482e-01 4.412506090019243654e-01 5.499508212268056084e-01 4.887456389502502219e-02 4.720261426778425418e-01 5.954892266396200062e-01 5.220201137275511938e-01 1.583474289396175766e-02 1.530023159778452380e+00 5.267681456050269384e-01 6.391878936713910608e-01 7.142842812874687919e-01 5.217393506736853759e-01 1.389625714703356163e+00 5.413986375462694900e-01 3.633431068274459719e-01 1.455646734316484503e+00 7.689482278024613038e-01 5.222641197281372438e-01 7.505053860377245423e-01 7.960566480806111622e-01 5.131637793240065859e-01 4.271623753580507943e-01 5.767857457027802948e-01 3.319307774899097341e-01 2.244680011492828697e+00 7.891790627006770587e-01 6.525169732869778860e-02 4.805282562597261165e-01 5.214826981464929512e-01 5.603003886643154186e-01 4.854234977963406972e-01 1.903748903172269025e-01 6.585131612739854035e-01 1.650557909504163145e+00 6.872815011852001499e-01 5.038756999909235201e-01 5.614438268676030797e-01 8.531859623219187894e-01 -2.158399257334915777e+00 -1.256065351313091716e+00 5.092915128266471969e-01 6.276531975000748664e-01 9.672968950233669094e-01 5.920164432182684067e-01 4.186175093668847436e-01 1.870296674299580242e-01 5.126567460120466935e-01 5.291611578076926836e-01 5.064745488686535069e-01 4.525000211298115804e-01 4.871406360698281590e-01 1.011377450236829345e+00 5.094234358868429124e-01 1.320981372156208034e+00 5.352532830730550861e-01 6.483785907122611158e-01 -5.637600452031701348e-01 5.186577239489031932e-01 1.983580249713240873e+00 4.848214701305078589e-01 5.134626400057356044e-01 6.699072169837663182e-01 4.988488431895637398e-01 5.834845670159702902e-01 5.157432997885467163e-01 4.413554571158920803e-01 5.160383775396566453e-01 -3.965157585178097355e-01 -1.727733449254002518e-01 6.790995940521132868e-01 4.806055132759907977e-02 1.012810703654974498e+00 5.309729326673605643e-01 5.426925848764719840e-01 8.767117010807422561e-01 4.705708597820365546e-01 4.715653013115619352e-01 5.210647362172652342e-01 2.847024559782873956e-02 9.842483584269454688e-01 -1.870363690724493044e-01 4.189553056349623605e-01 -9.325195891862831932e-01 7.491039865656657915e-01 -2.822397294230121756e-01 4.938861611510240723e-01 5.256607916196408548e-01 5.562956438994739461e-01 5.285004601558601633e-01 2.055947402118914358e+00 -1.770645847519708715e-01 8.289471152811894727e-01 6.528702420278624796e-01 5.640684099315187439e-01 4.668337155536774197e-01 5.150457299752966289e-01 5.235604083926064245e-01 1.063864401268778792e+00 2.626508177096392727e-01 8.521660906114167933e-01 2.975736810384765341e-01 3.824346291035147227e-01 6.281830333603193317e-01 6.254953234083795444e-01 7.806181150711353212e-01 4.939070705077925894e-01 5.224522325663064626e-01 4.024685612627930675e-01 4.435592014879237432e-02 2.267515682132605626e-01 1.137898865381171826e-01 7.591362926345764928e-01 1.144384685582078509e+00 6.601237964760353627e-01 5.198266249986743803e-01 -1.644542135794131998e-01 4.480089493485882590e-01 4.296204641612120234e-01 5.177760443871282092e-01 5.316877591763785604e-01 5.012247384124646210e-01 2.883750791507584843e+00 4.764960753949731842e-01 5.729011536110515390e-01 -9.311597442806833769e-01 5.130529427926499020e-01 4.968973775696791106e-01 2.038669072040016905e-01 5.163403528398016196e-01 9.480900277803344656e-01 5.284611454572281097e-01 4.086894215168444533e-01 5.671464641484437186e-01 6.335877471652536785e-01 5.336207032521628202e-01 8.354141333118076940e-01 6.025528913772668638e-01 5.432053171105890588e-01 4.086893767764660512e-01 1.870299979456690187e-01 1.303904074698646776e+00 5.467172419332907429e-01 5.008062990495554256e-01 4.202812864831682593e-01 -9.800633086846746722e-02 5.013425987453259403e-01 1.541120293767746785e-01 5.238786926669792843e-01 5.270783908636509363e-01 5.265116429308522861e-01 5.263569177950256917e-01 5.210357160824086176e-01 5.226192333216399533e-01 4.430409796299688563e-01 5.520085009679635002e-01 -7.245778854780474676e-01 6.288319477612396291e-01 4.882459025443198763e-01 3.479938409110519548e-01 -4.848276536637828246e-03 1.346998419380549539e+00 9.750827941497938189e-01 4.891762335814247575e-01 -1.017175361704116265e-01 1.069865973018220284e+00 5.232884941978340754e-01 4.808238085791957661e-01 6.696734497999285995e-01 4.056727063515224163e-01 2.394041376726318837e-01 1.609572436121226580e-01 -1.677675690449478563e-01 -5.834123270126670424e-02 5.373340783694515732e-01 5.067467699529130121e-01 -1.218578664569053976e-01 4.446137201187591037e-01 5.267355452687330075e-01 5.299087474278113552e-01 -9.170419832481219169e-02 7.646393736062959690e-01 -2.394439154380373580e+00 6.162533812741241013e-01 -6.823567579093366975e-01 5.008430703153150532e-01 5.241165355692813943e-01 3.522522567617565326e-01 4.947077445501249504e-01 5.480692022042944478e-01 5.041843610235082762e-01 7.918753559375009132e-01 5.743265932229377757e-01 1.704094244412976966e+00 6.843722650177309630e-01 6.748358596632306750e-01 4.504417580022779255e-01 4.159829410800970906e-01 9.299269782517537442e-01 4.918068763122007137e-01 2.757087059593117395e+00 4.424252397730985553e-01 2.178639614939205660e-01 7.753579771401383214e-01 5.164182440443250144e-01 9.293229539193941235e-01 5.205168921599959697e-01 5.802609066754584877e-01 5.215388176173503254e-01 1.161777823781838581e+00 7.648065350114584549e-01 8.552453845305345581e-01 7.973624444727748228e-01 5.881059663331723586e-01 6.863737533967967375e-01 5.071657140576109057e-01 3.707679969195433745e-01 -7.537633024140371063e-01 3.920570394081965837e-01 4.192933209446947918e-01 5.408804075767537078e-01 4.914044495961163439e-01 5.064745948602743519e-01 6.127381564291451976e-01 5.106617502018794275e-01 -9.417007337758214192e-01 7.698053584764642521e-01 4.992767554834705024e-01 -1.562462823900942314e-02 4.545540426605448325e-01 1.862013965812644445e+00 5.070575609754236490e-01 5.198010975614502094e-01 4.189576038545406167e-01 -3.525603495740433413e+00 5.192035088592780179e-01 2.973179594619405286e+00 7.806392745485031259e-01 5.405301640016256792e-01 -5.686486720194345867e-01 5.209493029189132818e-01 5.221735108350887833e-01 4.571194914700948408e-01 4.495241032937140613e-01 3.336350513667808437e-01 6.529738040622721229e-01 3.137338045519810770e-01 5.258567624338028601e-01 5.190342561490199902e-01 3.584679410067831973e-01 5.245636204134772607e-01 7.804453831957856025e-01 5.217862814446566633e-01 1.216887930355230907e+00 4.640954352289457241e-02 2.245257111373561543e+00 2.694770121682640518e+00 4.813183495926248723e-01 -2.407422728859954508e-01 3.860493257218782781e-01 3.996751358779366825e-01 7.442158576182733576e-01 1.402265875509665527e+00 5.304243559516236273e-01 1.138226956245923294e+00 5.222009285098351272e-01 1.183388099267296545e-01 1.263158220091453288e+00 5.764903544698299909e-01 5.690085158636821738e-01 5.348624874576674015e-01 9.100509875698034046e-01 -3.873594649828218550e+00 1.666023503700595931e+00 5.342507598559993465e-01 6.346938841703899659e-01 5.300298208354944363e-01 1.869164371598988517e+00 2.941523895650243192e-01 5.667718718817884582e-01 4.717946702750341337e-01 6.242902313789083779e-01 1.368708643361817412e+00 5.174354197569164260e-01 4.086894070945856217e-01 4.446112826539627694e-01 6.025528966866012803e-01 4.059216347164640859e-01 5.705664490674459133e-01 9.048211782140914705e-01 5.213575760607714882e-01 3.811147995090505280e-01 1.377905998660838294e-01 6.533925474500938968e-01 5.265563579649737980e-01 2.735709411147764225e-01 5.667718862463676510e-01 6.165971806318134574e-01 5.181128914178679823e-01 1.051596823687283910e+00 9.260376317794652978e-01 1.164689740264805318e+00 5.236942582856275452e-01 2.118153110157492691e-01 9.299276329050369938e-01 -1.100089389693835185e-01 9.339316076272283773e-01 6.307121221661836641e-01 4.630061575609467628e-02 4.328459053445822824e-01 8.801239494547258291e-01 3.835055721538944140e-01 4.763020713523445360e-01 3.235820517590800582e-01 -3.422860857672245793e-01 -2.540210367500487454e+00 5.517941510567472285e-01 6.025528956883663412e-01 6.025529136729146362e-01 5.201051560301345189e-01 3.518642078878896351e-01 -2.423826132035769021e-01 2.777606046881680446e-01 5.265001772129669355e-01 7.119527282358462106e-01 5.217058783041212955e-01 1.018080166833033928e+00 4.086899193113939788e-01 5.212321895411363704e-01 4.994027803048151637e-01 2.970028689378131914e-01 6.628207321638357463e-01 5.197199091684758798e-01 5.245611880630368651e-01 4.903043496083446251e-01 3.229616328988285656e-01 2.229337651977588916e-02 6.025528953975410884e-01 6.638688520876354637e-01 5.216222764026362535e-01 3.892064479572238667e-01 8.602812797927248400e-01 7.679923973800146797e-01 5.648162903604222462e-01 1.933583215721950355e+00 4.857950692507232437e-01 -3.223905551355982890e+00 7.793135201186806027e-01 1.551830820745462747e+00 5.912730891738899874e-01 -1.123244770874094911e+00 8.571751597276577872e-01 4.343858161078908986e-01 5.346925641461549583e-01 5.433052906511850466e-01 -4.576194209806522251e-01 5.035893085878213604e-01 1.079899596007779294e+00 4.454138163902306990e-01 -4.167864641226697309e-01 5.109847234124056392e-01 5.369672178541972096e-01 7.960572410730900605e-01 5.125315421403063842e-01 6.134866087214688735e-01 -5.524427753479648207e-01 5.610301592159856465e-01 5.192232668737900569e-01 5.143596680485530426e-01 5.225168788874245962e-01 7.712117776494885613e-01 5.212101349584186138e-01 6.288524292558435036e-01 4.045163498204041308e-01 5.244130953842138787e-01 2.278852220038341814e-01 3.406353032118082380e-01 3.718200937156511676e-01 9.757779837234994424e-01 5.599637262801040460e-01 3.272402583193323000e+00 6.548462269037205186e-01 6.682099531672179848e-01 5.430013360512341292e-01 5.316514366767662869e-01 1.242493796098301934e-02 4.960853324504236328e-01 5.432385684768991085e-01 5.231748692555384661e-01 1.154931834075881181e+00 7.715348523098738420e-01 5.202312955454099219e-01 4.361905534021817687e-01 1.120153321258177348e+00 5.232846321540474133e-01 5.577527472467108671e-01 5.403005340528360678e-01 8.637227187622815716e-01 5.202162077218147607e-01 9.500655568719890143e-01 4.945458212154131283e-01 5.222358120004775284e-01 4.489923300435109954e-02 5.314299611290101977e-01 1.994872738395911047e-02 2.814542187641058679e-01 3.977561353399778898e-01 5.710152524378309113e-01 7.911114535146848148e-01 5.272273717440921770e-01 3.826340419764483469e-01 1.320810643996415956e-01 5.017245751657488650e-01 5.071443472016299303e-01 4.414635770460552111e-01 -3.185985092335895559e-04 5.199260587139933332e-01 2.712645711791362158e-01 5.222238012499410553e-01 4.083222963748819878e-01 1.264735820716321735e+00 7.474039003425834160e-01 5.120818884545652594e-01 2.443877910302509893e-01 8.233041365140846279e-01 4.543609584740619378e-01 1.005288805844926081e+00 5.679950845874223164e-01 6.232769900252015383e-01 7.108704478166700813e-01 2.038006548196284573e+00 5.120632767066449764e-01 5.740060368642916355e-01 5.244827103975583382e-01 7.696788690644983388e-01 6.134953749309921545e-01 8.754548043356373821e-01 -5.884190496870286280e-01 4.242894239887776142e-01 5.240665825459525085e-01 4.409181497883105094e-01 4.664734134624202166e-01 -6.440885312517844463e-01 3.844104843027708607e-01 5.219469848759870079e-01 7.203561288097788395e-01 6.704963789309014155e-01 1.570977641616467357e+00 5.184788042965468025e-01 5.302750402001430441e-01 -7.395169829532819428e-01 5.251666644095347447e-01 1.251716717510820809e+00 7.289070304639745368e-01 2.960587290885881018e-01 2.276935615379978572e-01 -1.879483413562217375e+00 5.662757291420041916e-01 1.965600204647136307e-01 1.112252784407735451e+00 8.306064399645497476e-01 5.511806431523550431e-01 5.655004930888412051e-01 5.335293530883262747e-01 7.795252058398813855e-01 4.160211441436438840e-01 5.516805039150007861e-01 1.024403113721587474e-02 6.086662285864263833e-01 4.960306898234081441e-01 3.768392131489811669e-01 5.159292578540968233e-01 4.309704065418955010e-01 1.242270856505880872e+00 -9.495746392902476574e-02 -2.487445204576585467e-01 4.099768952085714457e-01 5.082527153861029490e-01 5.258801350044295386e-01 5.105740475307786186e-01 -8.952252232113586672e-01 3.236150834802582033e+00 4.582981277660209130e-01 4.366198390246234795e-01 4.604992548760152293e-01 5.234776268452969727e-01 5.037586395297737329e-01 4.668765210461069404e-01 3.293709153585175353e-01 6.180541235285298418e-01 5.230376372791537554e-01 4.528557548587632264e-01 3.102353405570177913e-01 4.053376918840555510e-01 5.631142914078965944e-01 4.049934074202700129e-01 5.595916710857001819e-01 5.135409400161194959e-01 6.863423146533228492e-01 1.029053105792972378e+00 2.355604001619620025e+00 4.868557534207134663e-01 5.018423205154648459e-01 3.253322406683432089e-01 4.746693010684863712e-01 3.924326374255500682e-01 5.227780140992143165e-01 5.237898416948078006e-01 4.875027260607188162e-01 5.886303958981703444e-01 5.674033213885921745e-01 7.799635001645551791e-01 3.645324174862945021e-01 3.841459912727647752e-01 3.897606794464449353e-01 4.769460816069424069e-01 1.028388731093490965e-01 9.299269590549640307e-01 5.027192776884362724e-01 8.050446030560605426e-02 1.915068714388749482e+00 3.325862203535682182e-01 4.007148323667095724e-01 5.987834282867467994e-01 6.681157408576146595e-02 5.540320358907762088e-01 1.540072659474434280e+00 8.094802401298227812e-01 6.788310398358015085e-01 5.214294341942574684e-01 5.097872410641076657e-01 4.187933914694155213e-01 6.281725690190415046e-01 5.151736983956839433e-01 5.217167529156299111e-01 -2.857277249588653922e-01 4.635473699717939100e-01 -1.638115159282150568e+00 5.105247978919299490e-01 5.271145192815893665e-01 5.323907634368946207e-01 4.189530616422087461e-01 9.299269589967740224e-01 2.272686556308075867e-01 5.024077338448384999e-01 1.381384695308882415e+00 -5.902906123614521938e-01 5.246634226370237020e-01 1.163285354594971732e+00 1.574460669944995006e+00 5.968852029548635807e-01 5.255914362863127742e-01 -6.913027804733574977e-02 -1.734934543281836161e+00 2.660054297520540456e-01 8.546568075261938846e-01 5.377814502588557088e-01 5.224305828828990084e-01 6.186932192132996722e-01 4.791545327979086499e-01 -4.329642655441805488e-01 8.403767080596841188e-01 5.064750935824050559e-01 3.238312593563881236e-01 5.031604653133912031e-01 5.120441467132575558e-03 -1.626459884849050519e-01 1.845460744658553809e+00 4.098880300026311319e-01 4.989918718328117397e-01 5.190232411647217603e-01 3.184952665606226030e-01 4.794298907363157558e-01 -1.571234883518833336e-01 -1.379087619121416752e+00 5.226607588069694943e-01 4.788843438818206066e-01 4.909421056742306333e-01 5.283371884052981970e-01 5.332248701757924536e-01 5.472640489320110824e-01 5.142624756905378458e-01 5.549489117539839755e-01 1.042556703325671297e+00 7.085567329897713984e-01 5.335997960851561750e-01 6.399193248357541997e-01 5.535709495107773437e-01 5.718260464210525029e-01 6.134869914842337041e-02 5.667718321064674214e-01 4.256613089688603968e-01 5.808735109024631971e-01 7.473566627909776772e-01 8.194385303878984894e-01 8.754599475700369782e-01 -5.571855368538475295e-01 5.317874122856438568e-01 4.850615551257208002e-01 5.256688983919214353e-01 5.975360476125571862e-01 9.167369775421562172e-01 4.742723434579426134e-01 5.189592814232596441e-01 -3.195542634635873958e-01 -9.108297715461912691e-01 2.359761103970539065e+00 5.185841928507887166e-01 9.081373371345239365e-01 4.184787820965080174e-01 5.799209963431093406e-01 4.060383769777076712e-01 1.531327159501553459e-01 5.200572495760256153e-01 5.062254692057396310e-01 1.181742831600948425e-03 5.244080287401718943e-01 4.614324968504384672e-01 5.183789381899953641e-01 4.608008170128421455e-01 5.253191885866984601e-01 6.440380626550640253e-01 4.337486877867522406e-01 5.567360304888202549e-01 5.393958485653399526e-01 5.227954150366183050e-01 4.164210180909942438e-01 5.254941323692395860e-01 -2.426537901875453207e-01 5.189424131986341004e-01 6.412435917856503798e-01 5.487836561360419640e-01 7.794107473510276662e-01 9.299267272600314493e-01 7.239336157889965095e-01 -6.223953015504957165e-01 9.763836240018599621e-01 1.869164367902887092e+00 5.132301046121301447e-01 4.637349634869663006e-01 1.091679163899508032e+00 5.575113801149254034e-01 7.793694047327396346e-01 5.189667678292773090e-01 1.898974441542241376e+00 5.242679173621143107e-01 4.446130036036755606e-01 1.237424013624886854e+00 -6.922301383885567927e-02 5.016231513379455498e-01 -1.511593200349815314e-01 -9.969098892416877744e-01 -1.629236948906401250e-01 7.766836404605902411e-01 5.623116756780819347e-01 5.302269267080100823e-01 -3.158448981829579671e-01 5.464063386109635490e-01 4.658039885099470034e-02 -4.224951035227095253e-01 5.508297308150661431e-01 5.273009692049558383e-01 5.219856007306132861e-01 5.005654391277455373e-01 4.708265438452758356e-01 9.216052490764783389e-01 -4.537937769684038392e-01 5.216255533839047054e-01 4.983236112313217947e-01 5.705354691847129844e-01 1.179361886410923654e+00 4.778618633707211738e-01 7.002840341174189076e-01 5.211625567015590876e-01 4.931595977816519150e-02 -4.571769698302365903e-01 5.398993877102207239e-01 5.138244233419171358e-01 6.875529469408848682e-01 5.181194538778407521e-01 3.832581888461618624e-01 5.245995102441558533e-01 5.187283462868410577e-01 4.236814515195096997e-01 5.427520789803161883e-01 8.417256027676566221e-01 2.609982391620271791e+00 -2.531600812130155864e-01 6.547476685197679558e-01 3.541202051097258607e-01 1.978439721802940088e-01 6.478954511880341549e-01 -5.417764501897169571e-02 -1.609927003324296058e+00 5.014787797241631040e-01 2.672976051939154551e+00 5.922644408846861053e-01 1.734782382245314003e-01 1.513903760745123062e-01 5.064745515034672074e-01 5.941939516666766563e-01 1.593685697537904344e+00 5.251526917341564626e-01 1.258742170620603951e-01 4.104775738562664311e-01 1.754208476728412069e+00 5.929825766614769122e-01 8.020602816063676643e-01 5.141908231674199303e-01 7.376668548126331659e-01 4.673906781887385287e-01 5.848543056239615678e-01 2.867957648778614310e-02 5.236390922860832964e-01 5.923617499391353736e-01 -5.886333109534602759e-01 -1.133794173167724378e-01 1.185149025169544235e+00 2.411341355336289738e-01 4.777966676661266066e-01 7.263326413184377772e-01 5.083216787474619247e-01 2.029428856805430392e+00 6.533929422488616856e-01 1.431106086693433380e-02 3.885685922215018073e-01 3.998867579206677458e-01 1.150579377877875231e+00 5.030835387990211238e-01 -2.246271950228426531e-02 5.222160493435306083e-01 -4.623433654883749369e-03 5.052719919242480984e-01 5.210505268790818212e-01 1.549277194453148841e-02 -1.712782569589742579e-02 6.582568862730427961e-01 4.834916528456135176e-01 5.892038214521054806e-01 1.761815353956639463e-01 4.013257167088597477e-01 5.330330271113491447e-01 4.409057212758206168e-01 4.876308899117134943e-01 4.799849075749167415e-01 5.739516873267199726e-01 1.022417805224654419e+00 3.196654256553391082e+00 9.712306791969290698e-01 5.309575592200918015e-01 5.467143659940546518e-01 2.196574148567504436e-01 5.186352231103793509e-01 8.627541128694380390e-01 5.119336487558655557e-01 1.317277096615141696e+00 5.216262099346674619e-01 -5.978219554900310317e-01 -2.114883105336295629e-02 4.335742188711222966e-01 6.165207541617288012e-01 5.808612371827860388e-01 5.185536197444217121e-01 5.810371137185837975e-02 5.139666724659247565e-01 5.598384416178528999e-01 -3.878275263110563476e+00 4.780747564687401474e-01 5.298854740235641181e-01 1.143158823562978155e+00 5.232171354933687901e-01 4.030973703307796918e-01 6.669666788712327321e-01 -9.208923453317570118e-01 -4.976203627751998315e-01 2.102317979687360130e-02 5.217521272809824140e-01 6.173520192447796706e-01 2.091666419658053944e-01 5.103546435661171499e-01 -3.487559211856686714e-01 5.404817453295933660e-01 5.654865065536451851e-01 6.971221431236233057e-01 5.569991526690852846e-01 4.660257012256001641e-01 1.422443073175845285e-01 -7.926926623016611329e-01 6.544736284670868987e-01 5.624972374652437157e-01 1.533781959456540500e-01 5.188660454790328114e-01 5.097705155881713246e-01 5.152364599927136135e-01 6.643271298792097213e-01 5.827102544352108504e-01 5.518393139976554007e-01 5.050722908751956730e-01 1.869164373655808786e+00 3.476122380014115554e-01 5.281295452210619246e-01 -1.413950826197755695e-01 5.121818196265278678e-01 6.450497040049144593e-01 5.364660255852948811e-01 4.809610091620631911e-01 3.771790269331278256e-01 9.626420197579096394e-01 1.232230875196920872e+00 5.534106574158595970e-01 5.828756052092041173e-01 5.971976388874636887e-01 5.013689187006646897e-01 5.210201622153139978e-01 5.220128404476047645e-01 9.764055278730316978e-01 6.752008227410742913e-01 -4.674438036645569006e-01 4.679905265962924221e-01 8.995860119102766506e-01 5.131850755285849441e-01 -4.198815143720228960e-02 5.267966967413982848e-01 1.537296555914117402e+00 -1.380175933174691283e-01 6.651198812952349160e-01 2.328181073962933278e-01 4.750145391760056679e-01 8.774422651470099588e-01 5.235085359604049193e-01 3.749875297677693342e-01 1.414640971753053478e+00 4.701847049315926452e-01 5.144715392460170733e-01 -7.214491090983589094e-01 4.393823788525472729e-01 1.038771203443754620e+00 6.288403284671193472e-01 6.349917047010542048e-02 9.978182686591913209e-01 -1.255809458630974956e-02 7.481007693512807810e-01 1.666537348895251069e+00 -8.699065631542848287e-01 5.722248949672561480e-01 5.216533093205109051e-01 -4.863356024077877260e-01 3.011464017802897852e-01 5.589251567619650807e-01 5.219337578271027178e-01 4.706055941822104294e-01 4.420687084925820076e-01 2.625964271044082810e-01 3.503168726190133975e-01 5.724921405533659469e-01 5.263968184064399258e-01 9.483749174526132780e-03 -1.676809760568065688e-01 5.048808036160647994e-01 1.070168274811028164e+00 5.576274627187302046e-01 -5.881511472158408305e-01 4.334812024531680685e-01 5.216197215449133173e-01 5.679217203754373111e-01 4.819201272000746272e-02 3.234450528017977500e-01 5.231544028396725166e-01 5.198199933096410152e-01 4.540432827328689802e-01 -1.460179706338835676e-02 5.532399516722398269e-01 5.356471866130498860e-01 5.644770494453983378e-01 2.115063900093399063e+00 -1.677565348310039103e-02 3.902413910835205169e-01 5.718478839382130641e-01 1.862976384662041074e+00 4.835121131373952830e-01 5.649625840367965557e-01 2.959691945410453107e-02 5.667718931591976261e-01 5.255686744478862416e-01 4.780843812897350720e-01 4.052706224987071004e-01 5.346246376142490542e-01 4.414591982755802779e-01 5.279610645318623119e-01 -5.686216995015802578e-01 5.238041478112669402e-01 5.000281729716200552e-01 5.269584164658467351e-01 1.289152893370177244e+00 5.196896684243819120e-01 -2.502965330864912463e-01 1.138125541909127181e+00 -1.331637875166820528e+00 -5.498137879985194321e-01 5.350829668384595728e-01 5.220592011766440610e-01 6.689683495272927827e-01 5.212313954008156447e-01 5.259947460104421602e-01 4.994417483268294156e-01 5.667718834727127897e-01 5.192557869695226813e-01 5.297145953904193183e-01 6.061690046720875635e-01 5.214651871767833624e-01 3.243971713656549349e-01 5.265311200678008952e-01 5.392970926808957621e-01 4.132422165457451668e-01 5.153611807217749474e-01 5.172456041604676091e-01 5.116689413159720701e-01 6.539614305071674849e-01 5.231867408083480386e-01 7.265006688523716338e-01 5.193937213219513849e-01 5.347008556189927209e-01 5.363532854735337807e-01 4.295277905472043023e-01 3.503386286122652238e-01 2.492046690306835899e+00 5.250088673215391744e-01 6.334209531176916430e-01 2.965622514185878855e-01 5.776568758095931289e-01 1.123376800580319745e+00 4.162830722046385046e-01 6.873645094094730235e-01 5.232163372717031358e-01
7.178759299896959600e-01 2.925032777530470751e-01 4.546611657313356369e-01 -3.989208628105714999e-02 3.050622758654804589e-01 4.029018032162092755e-01 5.398666531027243032e-01 3.833540702031396075e-01 3.867072515557249957e-01 3.218393039076844486e-01 2.089908014655460278e+00 1.742121934611464251e+00 -1.483109579120286403e+00 5.776649120002811388e-01 3.106590582907883258e-01 4.664599725996962376e-01 1.373204412927162277e-01 4.510595443429056828e-01 4.003823212696249745e-01 3.182054927753570350e-01 4.035850913437012966e-01 2.163988677232039137e+00 3.465205933800544758e-01 3.388355100574932943e-01 7.574859457560368936e-01 -1.600046816945508432e-01 3.982227525684008951e-01 1.818682947231358149e-01 3.216827557108510316e-01 -9.413222667137245425e-01 4.579844213550980925e-01 -1.656227239950307795e-01 2.894622705826811471e-01 3.055831235910467791e-01 -4.075854864341779127e-01 5.062313691709735552e-01 3.337366755202264557e-01 -4.021263376552043911e-01 -3.327432050791255591e+00 3.242031877955460217e-01 1.210892224124728189e+00 1.473405242156130557e-01 -1.698820890348426427e-01 7.913993658556625066e-01 5.426812208150298966e-01 3.148719913658797886e-01 -3.948728009718643905e-02 3.169086066648039712e-01 1.223365902555261508e-01 6.545531881429124121e-01 6.948623784986704965e-01 5.103104570346050917e-01 -1.333355188554657955e-01 2.501591989350325229e-01 5.878412307788135616e-01 6.643508483679672061e-01 2.855161129007673382e-01 2.674058844635735510e-01 3.447160781245408590e-01 2.995014814414272974e-01 4.351065733058995799e-01 4.369988984263722398e-01 3.439799570893230518e-01 3.465206093644848107e-01 -3.402714797086199838e-01 1.149441240598070707e-01 3.154902681226029459e-01 3.054070947238223810e-01 2.594402159537033681e-01 6.986365851721347831e-01 1.756664365546521112e-01 2.503087568302436172e-01 3.039283766861057834e-01 7.197730646672857446e-01 1.954799605298618070e+00 3.948263666845139297e-01 4.797662314294197650e-01 4.831111647295614486e-01 3.068430073321068430e-01 -1.364460697861185290e+00 3.255718537591251738e-01 5.230827369697168550e-01 2.421004221653443533e+00 6.420519334988990245e-02 2.446179639696206554e-01 -3.421899307569423732e-01 1.457347302430870850e-01 3.468714856048271677e-01 -5.864415081233466109e-01 -9.185777109956223541e-01 5.427094839778837665e-01 1.622903011753401792e+00 4.960701508197912224e-02 6.815947424735934179e-01 3.719563975188454608e-01 3.532672143405370946e-01 2.777322897480015151e-01 7.920162524217017053e-01 7.362058884640825251e-01 -1.523052422769529957e-01 -1.841873849816517694e-01 5.668862044045106657e-02 3.400606938449624028e-01 2.209385211362399071e-01 -6.725705771608986305e-02 3.190023995146809899e+00 -2.977212741729036716e-01 3.798609236628337493e-01 7.034200873219598193e-02 8.126346195775571157e-01 2.855978526841030374e-01 5.366034929373597606e-01 1.618396347493868404e-01 3.427877146177232826e-01 -4.702987186330833680e-01 3.025581779296251383e-01 7.509605813117171957e-02 3.973296020815637042e-01 1.207142835914707613e+00 3.426133891099200635e-01 -1.483073188072233206e+00 1.109815579468383245e-01 6.224645498027633200e-02 1.502975406175175666e+00 3.150158943872793382e-01 2.216615723846709241e+00 3.996846204317419660e-01 1.998213541508237767e-01 3.157923940164759080e-01 3.119585084294036470e-01 3.439515016513682855e-01 3.023655265160332117e-01 6.694904826995806690e-01 4.075382862952935947e-01 1.576672621939236574e-01 8.526784758602752312e-01 7.315929718415337124e-01 7.021062104723773123e-01 -3.422338569381860318e-01 2.309054941783848236e-01 3.096569396042314626e-01 3.222178264206900233e-01 3.651195871877261356e-01 2.734088565386733616e-01 3.042956480701543009e-01 7.011297165289843702e-01 -1.889053631563989144e-01 3.194713996742322148e-01 4.150306134713406814e-01 4.047754077779568971e-01 -1.860802725499704213e-01 2.976875599183115978e-02 3.148823790371650388e-01 3.038858860365285519e-01 2.694775989628510060e-01 3.084212714321883375e-01 -2.534009341552239558e+00 4.724352791035113519e-01 -6.124590400468739038e-01 -1.547193212875161983e-01 1.319261335235812072e-01 4.017954929369949579e-01 3.125590211559047260e-01 3.068934887981739634e-01 1.328424110130103641e-01 1.273824395387095354e-01 3.210273853132055155e-01 4.966784420864094329e-01 4.742180635877949468e-01 2.667727242025247358e-01 2.417134495062508437e-01 -3.856839247074796140e-02 3.147796613229434382e-01 3.069316339481762967e-01 -2.549803273604274612e+00 6.664192507770114737e-01 5.651797750416294175e-01 9.278648445528768773e-01 -4.617622076549902643e-01 1.175511738008033991e+00 5.688490648715847225e-02 3.153762061359623448e-01 1.249306136841262127e+00 3.755689393331863579e-01 3.152894900289954228e-01 3.480944474514585663e-01 2.712757811224671967e-01 3.244943385349229881e-01 -5.067387649487921086e-01 3.481239109229789519e-01 3.498888466887410953e-01 8.279795214187292141e-01 3.417465307544703679e-01 3.715197243801394711e-01 2.530389494032778130e-01 3.088027171532585768e-01 -1.707661330767614505e+00 3.043757499773110942e-01 3.718304016334970097e-01 2.516916354457186533e-01 2.864282144259149010e-02 3.884105101493507406e-01 3.911984013855971942e-01 1.548388888422068954e-01 -7.515934769371658275e-01 3.718304155368652997e-01 4.977478773901204412e-01 -5.273062760485716094e-01 3.286242206786428866e-01 2.409661906785075802e-01 2.264401462901521611e-01 -3.326769894904042957e+00 4.136753896964313615e-01 9.091100202188049373e-01 2.957850382140503331e-01 3.046822290810377032e-01 3.050893723100021604e-01 3.353096959504289210e-01 3.100614845670383590e-01 3.027192414300087231e-01 3.808474253560273359e-01 8.398226596916817666e-02 6.742447027084295108e-01 1.088256376615331089e-01 4.312586965943230322e-01 5.344674472035453316e-01 4.135952062175875521e-01 -7.146675775512193463e-01 2.348467984525008490e+00 4.124142098795616218e-01 1.255957551772523662e+00 -1.405706849614175136e+00 3.096349827492651530e-01 2.829783596851044858e-01 3.442758519693153163e-01 1.199965811923340064e+00 5.314664905396790928e-01 8.398848476519449324e-01 2.898630813351616431e-01 6.656797214992544731e-01 2.185177336791160052e-01 2.880877855779743202e-01 -1.199077445086728311e+00 4.207477139759033813e-01 3.081463281313875924e-01 5.062404410539770305e-01 8.709081365183128920e-01 -3.875305102920006961e-01 3.245297171364397659e+00 5.002487914932313151e-01 1.318043819972858133e+00 -3.145555661944063885e-01 3.015468212280383309e-01 3.465194667729020739e-01 3.581003702732629690e-01 2.737970236235022781e-01 2.765819690395065478e-01 -1.632594875971944692e-01 8.508282929840051134e-02 5.629552276608991157e-01 2.326445102316605229e-01 1.058646039219786061e-01 2.401045488538501027e-01 4.962994262721991401e-01 4.351065384586572105e-01 2.568785499381256998e-01 3.319764865524469588e+00 3.372543450860602254e-01 6.503672125038001406e-01 5.182278510290678764e-01 2.680733741550153093e-01 4.355573622918975096e-01 3.094855367132216539e-01 3.001860028255718960e-01 3.061150167561652036e-01 -6.350752430088247857e-01 4.091739425299285582e-01 2.850904764633846455e-01 1.480375369341639658e-01 3.501559878654161850e-01 1.560290486618191697e+00 3.705659812047327750e-01 3.249707451832700156e-01 2.016164607917936724e+00 5.132535978618618655e-01 3.052959221592225214e-01 2.898456230286287072e-01 2.985922255805814052e-01 3.025580570624610832e-01 -2.079802223867520450e+00 3.410224705370003551e-01 1.610742710773710007e+00 -9.415789770148295934e-02 3.560437357923008639e-01 6.587095752113864000e-01 3.396802190060311255e-01 -7.341442512814397858e-01 3.575657684923327362e-01 3.147706773550067449e-01 4.150425756151444046e-01 -4.069306761639608361e-01 3.190023562066565677e-01 -2.383577361416572948e+00 -3.848796473385388689e-02 2.942190561647926028e-01 5.963878357118780338e-01 3.053499650385699815e-01 3.069009150030465038e-01 4.963093519908442497e-01 1.650838276915366498e-01 -7.499436854948637876e-02 -7.788962796442965297e-01 -4.749778977066501130e-03 6.881948464234943774e-01 2.975320351870422986e-01 4.975012237151202332e-01 2.878613143314588951e-01 -3.887409314522802944e-02 3.088633960402769052e-01 2.489169887622201927e+00 6.798036376312157625e-01 2.472644146058338155e-01 -1.189130333075939738e+00 2.436989553190771762e-01 4.810210340765602055e+00 4.131837217669745432e-01 -1.966728732702208438e-01 5.722663567779681104e-01 -5.718165425893396048e+00 5.352649659046183617e-01 1.587477769621129964e+00 3.045359285633114643e-01 5.226951527970379319e-01 -4.569363401197097385e-01 4.285896796285442734e-01 2.480375916630768729e-01 3.406535686945122432e-01 2.118525909463060408e-01 3.007160735135343099e+00 -3.850883108655844822e-01 3.038840900513767873e-01 -1.942875199163186517e+00 2.826096493562537115e-01 -4.021263370888493727e-01 7.607155343626027522e-01 4.922269358683022400e-01 2.595034766021779293e-01 2.845599009219091369e-01 1.261849836858461416e+00 1.595405579677732777e-01 3.718305500559968557e-01 4.207493555532847984e-01 1.548388826781039451e-01 3.806145966757722987e-01 3.852676151908470126e-01 -6.265465190199515089e-01 3.093091402309070537e-01 5.629238712700269653e-01 4.064509446129057624e-01 1.807793056843333135e-01 3.039243380708988029e-01 5.109966075935681307e-01 4.922270282374647254e-01 5.083625277540253506e-01 3.072457359901885621e-01 1.633130367861346244e-01 3.755352791567430626e-01 3.537022846040740909e+00 2.925209574208294527e-01 1.027301364942880962e-01 4.351055776869108827e-01 8.359217884385261588e-01 4.701847661928253985e-01 -1.933038557408551239e-01 6.885751046020250898e-01 3.498260043925526253e-01 1.281474465059481982e-01 4.248899365960002728e-01 6.818273121894814492e-01 5.262732468361553950e-01 7.989727838103478641e-01 8.241284149262904091e-01 2.371432957686300247e-01 1.548388889291882065e-01 1.548388585185567212e-01 2.649696406533350590e-01 2.245518676261024915e-01 1.119609576107315707e+00 3.861777760277340099e-01 3.038951149126393747e-01 2.665542789864931428e-01 3.034676692359439820e-01 7.443078561971706586e-01 3.718300670682366804e-01 3.081760411253481879e-01 4.192375996761633639e-01 1.980221160373183964e-01 -6.427100298839648618e-01 2.911600256161810951e-01 3.063632751335525484e-01 3.682298646975558087e-01 6.665620859122313169e-01 6.613206435286821394e-01 1.548388900141207114e-01 1.406600666050198123e-01 3.075125050388135550e-01 5.156651688183347959e-01 -5.961380126791918643e-01 1.723551710020585770e-01 -3.594133928012755774e+00 2.037939519400617794e+00 6.290607229257526578e-01 -4.873813216822612815e-01 -4.000320053330723435e-02 2.092678830613002194e+00 3.243306489251492342e-01 6.531884441497677329e-01 -6.399496446721018861e-02 4.006106993328845678e-01 3.947704869329918820e-01 3.153695095633786694e-01 -5.608915324540236780e-01 3.597131344426326427e-01 2.099302330541931827e+00 2.170278802149587793e-01 -4.667407058720033919e-01 2.923663451283349812e-01 3.080954964030108711e-01 -1.468467665680286638e+00 2.894498710411728126e-01 3.720830736804957573e-01 4.035949707625105520e-01 1.117189130953282622e-01 3.126367198589269925e-01 2.180752505817305786e-01 3.133602016854574734e-01 -1.614147500037862448e-01 3.041608748286091513e-01 1.087656230037102878e-01 3.010445088793092250e-01 3.046596786203946139e-01 1.178597437013497763e-02 3.721992860512760570e-01 4.964880979713690579e-01 -1.428957401945613270e+00 -6.782405837245049085e-01 -1.203620758862322393e-01 1.489240486050699142e-01 1.522706291891038066e-01 4.362439829745810016e-01 3.581034787672360831e-01 7.114062802741425440e-01 -1.427056682415256128e-01 3.348112161468497217e-01 3.023408213730817695e-01 9.615910990794183932e-02 -1.616909998075117538e-01 2.748340898077233363e-01 4.619289517925227462e-01 4.800841602492435523e-01 3.506500766985350404e-01 2.934205435377612581e-01 3.061111946891198476e-01 2.439806592568552202e-01 3.078714508908155234e-01 4.837036755392236653e-01 2.472665896312752631e-01 3.065021849906763851e-01 6.882427914893063381e-01 3.218757438900169965e-01 7.142783721145163911e-01 -2.477228652668912040e-02 5.791014925147015546e-01 2.986527397242261794e-01 -1.477040845498796440e+00 3.111870051244401969e-01 6.311333194748619535e-01 3.471105657243930831e-01 3.383316663424939530e-01 3.490234429192223264e-01 1.649116052319549164e-01 6.854837215952576113e-01 3.093892170263258801e-01 4.296132814698433444e-01 3.059421921398613464e-01 2.732990917514211970e-01 1.767587039398429427e-01 4.739841144752278135e-01 3.156225391708578631e-01 1.628317492401625821e-01 2.811585432637813894e-02 1.102324485383744390e-01 1.672871892165090690e+00 1.613627968426853132e-01 3.354712240118373212e-01 3.916713257291769557e-01 -8.702811370812032488e-01 3.018768778233215100e-01 2.238567498947375001e-01 2.688591667780310113e-01 -9.360778255480595167e-02 2.653995556742596573e-01 1.705243940604577624e+00 8.956312072592430562e-01 4.719656384639880908e-01 2.672084308813950648e-01 3.148152660806328162e-01 3.464435959781116403e-01 9.356122825772610341e-01 3.100976681938931723e+00 3.080934553006139942e-01 1.207084217140643248e-02 5.841612963759889032e-01 -2.438745722147220019e-01 3.037676205933180773e-01 2.978136457517229774e-01 1.089922013106806586e+00 3.070241658061340639e-01 -3.479092193050226101e-01 3.919027575710394840e-01 1.400073613101451842e-01 6.157496938625567351e-01 1.870402428180701238e+00 2.510378377289311236e-01 2.844499163877223236e-01 1.675821834729979809e+00 3.891684488897336203e-01 2.457948880206639042e-01 1.497735630809103879e-01 1.786923987330867603e-01 -3.939415064767660957e-02 5.246924340240221030e-01 2.458542164652230966e-01 7.125461129634417246e-01 2.814168983090493126e-01 2.017851273470132878e-01 3.319713009767371048e-01 3.545897337866557031e-01 4.391603342316998115e-01 2.644131280604343770e-01 8.773945833378663517e-01 5.186390836839099849e-01 5.130476537843099427e-01 3.279066957811072602e-01 2.393645315104148963e-01 3.029325293778177830e-01 5.937172077734954589e-01 7.810128065546614318e-01 3.726841640112844023e-01 3.298000403925536728e-01 6.026180564009081531e-01 3.042620204183074106e-01 6.934336631255535455e-01 3.386913550499645598e-01 4.824152010938702606e-01 -3.041850662955564166e-01 3.072231497314460991e-01 3.323235689261366255e-01 4.546945040425578455e-01 2.070213042910439838e-01 3.605004171722965833e-01 1.830963399765472621e+00 -4.540159513702485272e-04 3.461754055157046928e-01 -2.233972789064137821e-01 1.691415046465459593e+00 1.164985573043024081e+00 3.738620698966881734e-02 -4.393630129804367290e-01 4.470499308107468983e-01 2.716088023236286064e-01 4.833285311999064859e-01 3.086883187286100783e-01 3.003977449606350936e-01 2.334668731917426132e-01 3.329352394981773267e-01 2.662209191155655019e-01 -4.000456796235279250e-02 -2.365683857843419446e-01 3.079769876987138999e-01 2.251635082678923039e-01 2.537225428126293481e-01 8.839903250769644005e-01 4.351065550185996278e-01 3.218736242141450044e-01 8.607064463446528757e-01 4.751797808366272080e-01 5.424499852636497366e-01 4.528066294878225206e-01 7.002460395277416705e-01 1.485662609712393056e+00 3.986711921250358226e-01 2.129796355124893292e+00 -2.199449229868270100e-02 1.584755380520028178e-01 3.051508841319587884e-01 3.419116196501104654e-01 3.845832700758516354e-01 2.667863779180227324e-01 2.945279293420668409e-01 3.038929071797937809e-01 3.709998174254018344e-01 2.262583494141852114e-01 -3.594312327072172186e-01 2.981758008927392067e-01 -5.517973251936350576e-02 3.051978282089327088e-01 4.150701836806526268e-01 4.351065549608112426e-01 2.339886322532618579e-01 2.313242110815565966e-01 -1.303312402742848208e+00 1.991140358116243902e+00 3.048337312240459451e-01 -7.617199409906136864e-01 2.968197494003260162e-01 3.346213327239685453e-01 3.086847797373852287e-01 -4.873079364829074223e+00 3.594282679507937228e+00 6.356572172290974043e-01 1.942366183873558971e-02 3.287189220287274338e-01 3.103211259998970295e-01 2.540236192370926571e-01 2.665639684927145758e+00 6.321238580507015925e-01 3.191445742410224384e-01 3.025580154867840155e-01 3.101757824415913301e-01 3.406886753862949369e-01 8.547499427640957714e-01 -3.724829078186648879e-01 -1.235150868188984230e+00 -1.242088662816521971e+00 3.071887117942966872e-01 3.080030464008152169e-01 7.419350192014735335e-01 3.653804583674201689e-01 1.506531883971905295e+00 4.926332838601528707e-01 3.032744696370192061e-01 3.385557661714632682e-01 3.068233594105435613e-01 3.450702099193722061e-01 3.043299660463296141e-01 6.379087673695919003e-01 3.117350605763988813e-01 6.612239947711076038e-01 2.350990872078660976e-01 6.418872372555096961e-02 3.040981406308623791e-01 1.773340840707210153e-01 2.594088563062286745e-01 2.839470485936214095e-01 6.301971980913355642e-01 4.922269591357195662e-01 2.654284635273557180e-01 2.381201013500651165e-01 3.037070212386361323e-01 2.766318452805549555e-01 1.705266141080111542e+00 1.946072304827683119e+00 3.045899093979179684e-01 3.193585788978295925e-01 3.102387293288642600e-01 1.693918968283886772e-01 2.213690711139217893e-01 4.240552274019275814e-01 2.956851844427435538e-01 3.287902637621516466e-01 8.113178801631737436e-01 8.978606519147668275e-01 3.138044963164848822e-01 1.896835403919821861e+00 3.608329843049503660e-01 -2.786556901235102690e-01 -2.706815115305147845e-01 -3.027063475141291704e-01 3.037596731967830421e-01 3.434272359789539153e-01 7.102350675148385584e-01 3.090188779602827673e-01 4.424908173829295022e-01 2.805704319301290384e-01 3.150005306819270712e-01 2.683284299975669529e-01 -6.935584943586729778e-02 1.008048106201875571e+00 3.066027782760839537e-01 3.234744741945627111e-01 3.021975700616246763e-01 3.496087803020977991e-01 3.306621806980564182e-01 3.974844546274301504e-01 -7.802251585232777842e-02 2.221542345426534837e-01 2.791538916071636955e-01 -3.943054155976356834e-02 4.351067509631610375e-01 1.094459327970964235e+00 9.735207353917815221e-01 -7.188931842283459162e-01 -4.021263376696194158e-01 6.614084540974842774e-01 -3.386881211946232373e+00 1.585347155668914487e+00 2.923404371637317589e-01 -4.027080768543774003e-02 3.084595528343594406e-01 9.078427673084366045e-01 3.095975975252254209e-01 4.207476433756713319e-01 -4.386652098399649313e-01 8.146552681206767899e-01 3.133001775888597518e-01 8.579674729640510700e-01 2.117455589535049754e+00 -3.725632406994575097e-01 -1.488705581908250419e+00 2.550982830511770993e-01 3.046011997137489380e-01 7.476693165035552813e-01 2.755065987563767305e-01 6.989447441046292564e-01 4.690995542799978879e-01 3.306005819226017217e-01 3.113710132869756397e-01 3.104042697118724048e-01 3.137325423438587224e-01 3.119341465559966609e-01 1.439257811190975289e+00 1.672469243408124973e+00 3.110879084404282735e-01 3.492644465613422566e-01 2.489548029061737222e-01 -2.506981618400717648e-01 2.298038274319257057e-01 -5.912669908669921509e-02 3.071114474395094662e-01 7.042570584344809426e-01 -5.620331589761243807e-01 2.868925035775557464e-01 3.118301202438206743e-01 1.552536318782279656e-01 3.331460242171053188e-01 1.829446893163619858e-01 3.046407052977554986e-01 3.050018190329517043e-01 5.902877455678423591e-02 3.015985033336083809e-01 4.325425995955395897e-01 1.137271486237548368e+00 1.111774732738524119e+00 9.107661366237294054e-01 2.159627731470712964e-01 7.945919215772925259e-01 1.601429663810298998e-01 5.053648713854057561e-01 -2.190952638098940142e+00 2.960921426183104610e-01 6.636476931531309909e-01 2.977121625424069551e-01 9.447642610592190682e-01 1.383005924708718970e+00 3.025581845584499052e-01 2.406330672085715827e-01 3.761265520069217994e-01 4.149155289011290937e-01 5.476642934266046092e-01 9.648287646001720841e-01 -8.227585503635164166e-01 2.676094534827624938e-01 2.062001679431633983e-02 3.088459496502503066e-01 3.403659619997081442e-01 7.609775783994096043e-01 -2.760029220081140489e-01 4.121280946177047211e-01 3.048001944716142719e-01 3.607776580565671409e-01 8.958201381662437290e-01 4.344283766678795899e-01 -2.233688747698766297e-01 8.579298321660473459e-01 -3.494770675229448564e-02 5.594595112445590601e-01 3.401931973074759918e-01 1.299333956635279508e+00 6.015522064316003448e-01 7.112033972467158849e-01 4.330398070944242450e-01 4.824362699242756292e-01 -5.938225790107246604e-01 2.213565242729068627e-01 7.489569636129418395e-01 2.950580232193063535e-01 6.062563309693890234e-01 3.195685664804484016e-01 3.050877683483998459e-01 7.115632610140809611e-01 1.671070392664582571e-01 -2.075191904364171780e+00 2.086154048933006044e-01 2.499842841933787030e-01 9.395626926040184790e-01 3.346209855033069336e-01 3.434408864829727182e-01 3.815698975541104154e-01 3.096279937954329875e-01 4.053789801621756062e-01 1.117471961052786816e-01 -1.636162814677895039e+00 7.665244934982913261e-01 2.402592028727960904e-01 3.212824420552339300e-01 2.587804560106220508e-01 8.187301311333412546e-01 3.042817276051660302e-01 -1.582901582959926612e-01 3.537416707355370837e-01 1.126995490411839995e+00 2.988440184358026053e-01 4.166509919853103594e-01 1.038325338188965219e+00 4.274461658369894668e-01 2.858690608446735837e+00 3.204954094548383425e-01 3.304987919782964578e-01 7.145804015959943412e-01 2.867786209641171591e-01 3.339117629092805406e-01 -2.186742810150322569e+00 4.603758769360837277e-01 3.038100957767533861e-01 5.199890256422629031e-01 3.105166727705404583e-01 1.908212898280191305e-01 -1.658035383606786262e-01 2.088355295698302250e+00 -5.177986822414384349e-01 8.243090504394009477e-01 3.070610032895297881e-01 3.125319984349728131e-01 8.553933435446959832e-01 2.774664830010368788e-01 1.349358076138813756e+00 2.337884885801523316e-01 4.094804918349514433e-01 -8.879352120563892559e-01 -1.293236767646762375e-01 -6.144523162529610394e-01 -4.086194510611788289e+00 3.012691379133802805e+00 1.800963483798439027e-02 2.815383507879700709e-01 -1.672972442743899890e+00 3.033946238320641142e-01 4.489807388138417066e-01 3.246366663177811529e-01 1.876605996421684130e-01 6.433466410196705398e-01 6.049222222615260325e-01 1.105072014436260686e+00 -4.021263395985146261e-01 -2.391282705230638739e-01 2.621416580809987629e-01 -1.200247671986981901e+00 3.448939410702744346e-01 -6.608243951795264026e-01 2.979106428799159767e-01 4.404389012732714548e-01 1.211598009587270541e-01 4.607391321500819426e-01 2.615104008818009418e-01 -7.922149076019183861e-03 2.642371314498589419e-01 2.815467298362773207e-01 3.673651579200492567e-01 3.160455964089328718e-01 3.026403355920685434e-01 -7.187279611854283656e-01 4.594067066673163113e-01 1.549821062318551324e+00 7.854021478328197803e-02 2.348610350258376611e-01 2.407667282310622658e-01 1.202673158969258971e+00 3.313103100386057820e-01 8.600618211361379939e-02 8.830055359308227603e-01 2.262453871986245257e-01 1.894386648564337028e+00 2.914160944776503781e-01 1.376959390629773017e+00 2.978042431569457027e-01 7.337397958983979951e-01 1.359679459045225913e+00 4.063105306053219623e-01 2.637672058257770069e-01 9.536218512853261720e-01 -1.828649640454167169e-01 -6.885932219616763827e-02 2.547934154833201292e-01 3.069199244544026373e-01 3.654751903025996174e-01 1.460904862764931533e-01 1.041987446553071239e-01 -3.898769512487177957e-01 1.292110528613434450e+00 2.990068467880346303e-01 3.025256747855905592e-01 -3.273501580506185782e+00 5.661171231221050482e-01 2.135372727992200792e-01 3.394701234964735970e-01 3.625611605681910432e-01 4.187869822859195956e-01 -1.130564123666909060e+00 6.357170804061804681e-01 2.972038169966969567e-01 3.008646934107692683e-01 1.017862026525793606e+00 4.702158902151418185e-01 3.167208284544451025e-01 -1.422857567870784434e+00 3.462207831527890911e-01 8.959652929264614318e-01 3.707257175432830953e-01 3.132711206456165742e-01 2.841043777568194595e-01 7.102115996423176147e-01 -4.249993690945031571e-02 3.032743318155870504e-01 3.118128123899551185e-01 1.031465435276791576e-01 6.662664426499064207e-01 2.418927775831091476e-01 6.838502893568247920e-01 1.895511589620126336e-01 6.945746992544149512e-01 -2.514893075816505008e-01 -1.513309002403976589e+00 2.810794813285667493e-01 -2.168658423506551400e-02 2.668965987555819153e-01 3.481347442805336478e-01 5.618094870365350491e-02 4.922270472618848758e-01 3.085667754810910712e-01 8.439883981510712396e-02 4.202495814891418213e-01 3.357090389610796755e-01 2.818721779907876757e-01 3.468505573176290935e-01 -8.693297009452922719e-01 3.006000093591241207e-01 3.278714114381008904e-01 2.794239171626115015e-01 -3.509417478742745677e-01 3.119818694045805030e-01 8.421591569411061018e-01 -6.272421703729944564e-01 1.141984812802895322e+00 6.220273707752476122e-01 3.295792380021858037e-01 3.044029958138615988e-01 -2.074359983923696582e+00 3.041380150922384784e-01 2.669572566200795194e-01 3.266702704184338835e-01 4.922269126624533864e-01 3.085189736780545866e-01 3.477393426732662829e-01 5.321933762594617534e-02 3.033718278419950676e-01 4.327865201648878890e-01 2.847432478012692503e-01 2.374533476004106469e-01 2.810266186704615810e-01 3.083087813325376403e-01 3.126535242768694323e-01 3.466417538349628180e-01 1.447016895556937910e-01 3.114714234210410604e-01 6.303614376268636965e-01 1.537539907861213417e-01 3.130758144769220097e-01 -1.518529599081508696e-01 2.024982934534149126e-01 6.541344041207067805e-01 4.595219205843256383e+00 3.272906931660030105e-01 6.172389028678330891e-02 5.729098561736689632e-01 1.741767196635246873e-01 1.575480528250409407e+00 3.242093005089085045e-01 6.300071422872777216e-01 3.041257322221180837e-01
