# 
#                 ----------------------------------------------------
#                 Data from a 3D direct N-body simulation. 
# 
#                 rows are i-particle; 
#                 coumns are :mass, tag, x ,y, z, vx, vy, vz, ax, ay, az
# 
#                 NTHU, Computational Physics 
# 
#                 ----------------------------------------------------
#                 Time = 0.0
0.000000000000000000e+00 1.000000000000000000e+00 2.000000000000000000e+00 3.000000000000000000e+00 4.000000000000000000e+00 5.000000000000000000e+00 6.000000000000000000e+00 7.000000000000000000e+00 8.000000000000000000e+00 9.000000000000000000e+00 1.000000000000000000e+01 1.100000000000000000e+01 1.200000000000000000e+01 1.300000000000000000e+01 1.400000000000000000e+01 1.500000000000000000e+01 1.600000000000000000e+01 1.700000000000000000e+01 1.800000000000000000e+01 1.900000000000000000e+01 2.000000000000000000e+01 2.100000000000000000e+01 2.200000000000000000e+01 2.300000000000000000e+01 2.400000000000000000e+01 2.500000000000000000e+01 2.600000000000000000e+01 2.700000000000000000e+01 2.800000000000000000e+01 2.900000000000000000e+01 3.000000000000000000e+01 3.100000000000000000e+01 3.200000000000000000e+01 3.300000000000000000e+01 3.400000000000000000e+01 3.500000000000000000e+01 3.600000000000000000e+01 3.700000000000000000e+01 3.800000000000000000e+01 3.900000000000000000e+01 4.000000000000000000e+01 4.100000000000000000e+01 4.200000000000000000e+01 4.300000000000000000e+01 4.400000000000000000e+01 4.500000000000000000e+01 4.600000000000000000e+01 4.700000000000000000e+01 4.800000000000000000e+01 4.900000000000000000e+01 5.000000000000000000e+01 5.100000000000000000e+01 5.200000000000000000e+01 5.300000000000000000e+01 5.400000000000000000e+01 5.500000000000000000e+01 5.600000000000000000e+01 5.700000000000000000e+01 5.800000000000000000e+01 5.900000000000000000e+01 6.000000000000000000e+01 6.100000000000000000e+01 6.200000000000000000e+01 6.300000000000000000e+01 6.400000000000000000e+01 6.500000000000000000e+01 6.600000000000000000e+01 6.700000000000000000e+01 6.800000000000000000e+01 6.900000000000000000e+01 7.000000000000000000e+01 7.100000000000000000e+01 7.200000000000000000e+01 7.300000000000000000e+01 7.400000000000000000e+01 7.500000000000000000e+01 7.600000000000000000e+01 7.700000000000000000e+01 7.800000000000000000e+01 7.900000000000000000e+01 8.000000000000000000e+01 8.100000000000000000e+01 8.200000000000000000e+01 8.300000000000000000e+01 8.400000000000000000e+01 8.500000000000000000e+01 8.600000000000000000e+01 8.700000000000000000e+01 8.800000000000000000e+01 8.900000000000000000e+01 9.000000000000000000e+01 9.100000000000000000e+01 9.200000000000000000e+01 9.300000000000000000e+01 9.400000000000000000e+01 9.500000000000000000e+01 9.600000000000000000e+01 9.700000000000000000e+01 9.800000000000000000e+01 9.900000000000000000e+01 1.000000000000000000e+02 1.010000000000000000e+02 1.020000000000000000e+02 1.030000000000000000e+02 1.040000000000000000e+02 1.050000000000000000e+02 1.060000000000000000e+02 1.070000000000000000e+02 1.080000000000000000e+02 1.090000000000000000e+02 1.100000000000000000e+02 1.110000000000000000e+02 1.120000000000000000e+02 1.130000000000000000e+02 1.140000000000000000e+02 1.150000000000000000e+02 1.160000000000000000e+02 1.170000000000000000e+02 1.180000000000000000e+02 1.190000000000000000e+02 1.200000000000000000e+02 1.210000000000000000e+02 1.220000000000000000e+02 1.230000000000000000e+02 1.240000000000000000e+02 1.250000000000000000e+02 1.260000000000000000e+02 1.270000000000000000e+02 1.280000000000000000e+02 1.290000000000000000e+02 1.300000000000000000e+02 1.310000000000000000e+02 1.320000000000000000e+02 1.330000000000000000e+02 1.340000000000000000e+02 1.350000000000000000e+02 1.360000000000000000e+02 1.370000000000000000e+02 1.380000000000000000e+02 1.390000000000000000e+02 1.400000000000000000e+02 1.410000000000000000e+02 1.420000000000000000e+02 1.430000000000000000e+02 1.440000000000000000e+02 1.450000000000000000e+02 1.460000000000000000e+02 1.470000000000000000e+02 1.480000000000000000e+02 1.490000000000000000e+02 1.500000000000000000e+02 1.510000000000000000e+02 1.520000000000000000e+02 1.530000000000000000e+02 1.540000000000000000e+02 1.550000000000000000e+02 1.560000000000000000e+02 1.570000000000000000e+02 1.580000000000000000e+02 1.590000000000000000e+02 1.600000000000000000e+02 1.610000000000000000e+02 1.620000000000000000e+02 1.630000000000000000e+02 1.640000000000000000e+02 1.650000000000000000e+02 1.660000000000000000e+02 1.670000000000000000e+02 1.680000000000000000e+02 1.690000000000000000e+02 1.700000000000000000e+02 1.710000000000000000e+02 1.720000000000000000e+02 1.730000000000000000e+02 1.740000000000000000e+02 1.750000000000000000e+02 1.760000000000000000e+02 1.770000000000000000e+02 1.780000000000000000e+02 1.790000000000000000e+02 1.800000000000000000e+02 1.810000000000000000e+02 1.820000000000000000e+02 1.830000000000000000e+02 1.840000000000000000e+02 1.850000000000000000e+02 1.860000000000000000e+02 1.870000000000000000e+02 1.880000000000000000e+02 1.890000000000000000e+02 1.900000000000000000e+02 1.910000000000000000e+02 1.920000000000000000e+02 1.930000000000000000e+02 1.940000000000000000e+02 1.950000000000000000e+02 1.960000000000000000e+02 1.970000000000000000e+02 1.980000000000000000e+02 1.990000000000000000e+02 2.000000000000000000e+02 2.010000000000000000e+02 2.020000000000000000e+02 2.030000000000000000e+02 2.040000000000000000e+02 2.050000000000000000e+02 2.060000000000000000e+02 2.070000000000000000e+02 2.080000000000000000e+02 2.090000000000000000e+02 2.100000000000000000e+02 2.110000000000000000e+02 2.120000000000000000e+02 2.130000000000000000e+02 2.140000000000000000e+02 2.150000000000000000e+02 2.160000000000000000e+02 2.170000000000000000e+02 2.180000000000000000e+02 2.190000000000000000e+02 2.200000000000000000e+02 2.210000000000000000e+02 2.220000000000000000e+02 2.230000000000000000e+02 2.240000000000000000e+02 2.250000000000000000e+02 2.260000000000000000e+02 2.270000000000000000e+02 2.280000000000000000e+02 2.290000000000000000e+02 2.300000000000000000e+02 2.310000000000000000e+02 2.320000000000000000e+02 2.330000000000000000e+02 2.340000000000000000e+02 2.350000000000000000e+02 2.360000000000000000e+02 2.370000000000000000e+02 2.380000000000000000e+02 2.390000000000000000e+02 2.400000000000000000e+02 2.410000000000000000e+02 2.420000000000000000e+02 2.430000000000000000e+02 2.440000000000000000e+02 2.450000000000000000e+02 2.460000000000000000e+02 2.470000000000000000e+02 2.480000000000000000e+02 2.490000000000000000e+02 2.500000000000000000e+02 2.510000000000000000e+02 2.520000000000000000e+02 2.530000000000000000e+02 2.540000000000000000e+02 2.550000000000000000e+02 2.560000000000000000e+02 2.570000000000000000e+02 2.580000000000000000e+02 2.590000000000000000e+02 2.600000000000000000e+02 2.610000000000000000e+02 2.620000000000000000e+02 2.630000000000000000e+02 2.640000000000000000e+02 2.650000000000000000e+02 2.660000000000000000e+02 2.670000000000000000e+02 2.680000000000000000e+02 2.690000000000000000e+02 2.700000000000000000e+02 2.710000000000000000e+02 2.720000000000000000e+02 2.730000000000000000e+02 2.740000000000000000e+02 2.750000000000000000e+02 2.760000000000000000e+02 2.770000000000000000e+02 2.780000000000000000e+02 2.790000000000000000e+02 2.800000000000000000e+02 2.810000000000000000e+02 2.820000000000000000e+02 2.830000000000000000e+02 2.840000000000000000e+02 2.850000000000000000e+02 2.860000000000000000e+02 2.870000000000000000e+02 2.880000000000000000e+02 2.890000000000000000e+02 2.900000000000000000e+02 2.910000000000000000e+02 2.920000000000000000e+02 2.930000000000000000e+02 2.940000000000000000e+02 2.950000000000000000e+02 2.960000000000000000e+02 2.970000000000000000e+02 2.980000000000000000e+02 2.990000000000000000e+02 3.000000000000000000e+02 3.010000000000000000e+02 3.020000000000000000e+02 3.030000000000000000e+02 3.040000000000000000e+02 3.050000000000000000e+02 3.060000000000000000e+02 3.070000000000000000e+02 3.080000000000000000e+02 3.090000000000000000e+02 3.100000000000000000e+02 3.110000000000000000e+02 3.120000000000000000e+02 3.130000000000000000e+02 3.140000000000000000e+02 3.150000000000000000e+02 3.160000000000000000e+02 3.170000000000000000e+02 3.180000000000000000e+02 3.190000000000000000e+02 3.200000000000000000e+02 3.210000000000000000e+02 3.220000000000000000e+02 3.230000000000000000e+02 3.240000000000000000e+02 3.250000000000000000e+02 3.260000000000000000e+02 3.270000000000000000e+02 3.280000000000000000e+02 3.290000000000000000e+02 3.300000000000000000e+02 3.310000000000000000e+02 3.320000000000000000e+02 3.330000000000000000e+02 3.340000000000000000e+02 3.350000000000000000e+02 3.360000000000000000e+02 3.370000000000000000e+02 3.380000000000000000e+02 3.390000000000000000e+02 3.400000000000000000e+02 3.410000000000000000e+02 3.420000000000000000e+02 3.430000000000000000e+02 3.440000000000000000e+02 3.450000000000000000e+02 3.460000000000000000e+02 3.470000000000000000e+02 3.480000000000000000e+02 3.490000000000000000e+02 3.500000000000000000e+02 3.510000000000000000e+02 3.520000000000000000e+02 3.530000000000000000e+02 3.540000000000000000e+02 3.550000000000000000e+02 3.560000000000000000e+02 3.570000000000000000e+02 3.580000000000000000e+02 3.590000000000000000e+02 3.600000000000000000e+02 3.610000000000000000e+02 3.620000000000000000e+02 3.630000000000000000e+02 3.640000000000000000e+02 3.650000000000000000e+02 3.660000000000000000e+02 3.670000000000000000e+02 3.680000000000000000e+02 3.690000000000000000e+02 3.700000000000000000e+02 3.710000000000000000e+02 3.720000000000000000e+02 3.730000000000000000e+02 3.740000000000000000e+02 3.750000000000000000e+02 3.760000000000000000e+02 3.770000000000000000e+02 3.780000000000000000e+02 3.790000000000000000e+02 3.800000000000000000e+02 3.810000000000000000e+02 3.820000000000000000e+02 3.830000000000000000e+02 3.840000000000000000e+02 3.850000000000000000e+02 3.860000000000000000e+02 3.870000000000000000e+02 3.880000000000000000e+02 3.890000000000000000e+02 3.900000000000000000e+02 3.910000000000000000e+02 3.920000000000000000e+02 3.930000000000000000e+02 3.940000000000000000e+02 3.950000000000000000e+02 3.960000000000000000e+02 3.970000000000000000e+02 3.980000000000000000e+02 3.990000000000000000e+02 4.000000000000000000e+02 4.010000000000000000e+02 4.020000000000000000e+02 4.030000000000000000e+02 4.040000000000000000e+02 4.050000000000000000e+02 4.060000000000000000e+02 4.070000000000000000e+02 4.080000000000000000e+02 4.090000000000000000e+02 4.100000000000000000e+02 4.110000000000000000e+02 4.120000000000000000e+02 4.130000000000000000e+02 4.140000000000000000e+02 4.150000000000000000e+02 4.160000000000000000e+02 4.170000000000000000e+02 4.180000000000000000e+02 4.190000000000000000e+02 4.200000000000000000e+02 4.210000000000000000e+02 4.220000000000000000e+02 4.230000000000000000e+02 4.240000000000000000e+02 4.250000000000000000e+02 4.260000000000000000e+02 4.270000000000000000e+02 4.280000000000000000e+02 4.290000000000000000e+02 4.300000000000000000e+02 4.310000000000000000e+02 4.320000000000000000e+02 4.330000000000000000e+02 4.340000000000000000e+02 4.350000000000000000e+02 4.360000000000000000e+02 4.370000000000000000e+02 4.380000000000000000e+02 4.390000000000000000e+02 4.400000000000000000e+02 4.410000000000000000e+02 4.420000000000000000e+02 4.430000000000000000e+02 4.440000000000000000e+02 4.450000000000000000e+02 4.460000000000000000e+02 4.470000000000000000e+02 4.480000000000000000e+02 4.490000000000000000e+02 4.500000000000000000e+02 4.510000000000000000e+02 4.520000000000000000e+02 4.530000000000000000e+02 4.540000000000000000e+02 4.550000000000000000e+02 4.560000000000000000e+02 4.570000000000000000e+02 4.580000000000000000e+02 4.590000000000000000e+02 4.600000000000000000e+02 4.610000000000000000e+02 4.620000000000000000e+02 4.630000000000000000e+02 4.640000000000000000e+02 4.650000000000000000e+02 4.660000000000000000e+02 4.670000000000000000e+02 4.680000000000000000e+02 4.690000000000000000e+02 4.700000000000000000e+02 4.710000000000000000e+02 4.720000000000000000e+02 4.730000000000000000e+02 4.740000000000000000e+02 4.750000000000000000e+02 4.760000000000000000e+02 4.770000000000000000e+02 4.780000000000000000e+02 4.790000000000000000e+02 4.800000000000000000e+02 4.810000000000000000e+02 4.820000000000000000e+02 4.830000000000000000e+02 4.840000000000000000e+02 4.850000000000000000e+02 4.860000000000000000e+02 4.870000000000000000e+02 4.880000000000000000e+02 4.890000000000000000e+02 4.900000000000000000e+02 4.910000000000000000e+02 4.920000000000000000e+02 4.930000000000000000e+02 4.940000000000000000e+02 4.950000000000000000e+02 4.960000000000000000e+02 4.970000000000000000e+02 4.980000000000000000e+02 4.990000000000000000e+02 5.000000000000000000e+02 5.010000000000000000e+02 5.020000000000000000e+02 5.030000000000000000e+02 5.040000000000000000e+02 5.050000000000000000e+02 5.060000000000000000e+02 5.070000000000000000e+02 5.080000000000000000e+02 5.090000000000000000e+02 5.100000000000000000e+02 5.110000000000000000e+02 5.120000000000000000e+02 5.130000000000000000e+02 5.140000000000000000e+02 5.150000000000000000e+02 5.160000000000000000e+02 5.170000000000000000e+02 5.180000000000000000e+02 5.190000000000000000e+02 5.200000000000000000e+02 5.210000000000000000e+02 5.220000000000000000e+02 5.230000000000000000e+02 5.240000000000000000e+02 5.250000000000000000e+02 5.260000000000000000e+02 5.270000000000000000e+02 5.280000000000000000e+02 5.290000000000000000e+02 5.300000000000000000e+02 5.310000000000000000e+02 5.320000000000000000e+02 5.330000000000000000e+02 5.340000000000000000e+02 5.350000000000000000e+02 5.360000000000000000e+02 5.370000000000000000e+02 5.380000000000000000e+02 5.390000000000000000e+02 5.400000000000000000e+02 5.410000000000000000e+02 5.420000000000000000e+02 5.430000000000000000e+02 5.440000000000000000e+02 5.450000000000000000e+02 5.460000000000000000e+02 5.470000000000000000e+02 5.480000000000000000e+02 5.490000000000000000e+02 5.500000000000000000e+02 5.510000000000000000e+02 5.520000000000000000e+02 5.530000000000000000e+02 5.540000000000000000e+02 5.550000000000000000e+02 5.560000000000000000e+02 5.570000000000000000e+02 5.580000000000000000e+02 5.590000000000000000e+02 5.600000000000000000e+02 5.610000000000000000e+02 5.620000000000000000e+02 5.630000000000000000e+02 5.640000000000000000e+02 5.650000000000000000e+02 5.660000000000000000e+02 5.670000000000000000e+02 5.680000000000000000e+02 5.690000000000000000e+02 5.700000000000000000e+02 5.710000000000000000e+02 5.720000000000000000e+02 5.730000000000000000e+02 5.740000000000000000e+02 5.750000000000000000e+02 5.760000000000000000e+02 5.770000000000000000e+02 5.780000000000000000e+02 5.790000000000000000e+02 5.800000000000000000e+02 5.810000000000000000e+02 5.820000000000000000e+02 5.830000000000000000e+02 5.840000000000000000e+02 5.850000000000000000e+02 5.860000000000000000e+02 5.870000000000000000e+02 5.880000000000000000e+02 5.890000000000000000e+02 5.900000000000000000e+02 5.910000000000000000e+02 5.920000000000000000e+02 5.930000000000000000e+02 5.940000000000000000e+02 5.950000000000000000e+02 5.960000000000000000e+02 5.970000000000000000e+02 5.980000000000000000e+02 5.990000000000000000e+02 6.000000000000000000e+02 6.010000000000000000e+02 6.020000000000000000e+02 6.030000000000000000e+02 6.040000000000000000e+02 6.050000000000000000e+02 6.060000000000000000e+02 6.070000000000000000e+02 6.080000000000000000e+02 6.090000000000000000e+02 6.100000000000000000e+02 6.110000000000000000e+02 6.120000000000000000e+02 6.130000000000000000e+02 6.140000000000000000e+02 6.150000000000000000e+02 6.160000000000000000e+02 6.170000000000000000e+02 6.180000000000000000e+02 6.190000000000000000e+02 6.200000000000000000e+02 6.210000000000000000e+02 6.220000000000000000e+02 6.230000000000000000e+02 6.240000000000000000e+02 6.250000000000000000e+02 6.260000000000000000e+02 6.270000000000000000e+02 6.280000000000000000e+02 6.290000000000000000e+02 6.300000000000000000e+02 6.310000000000000000e+02 6.320000000000000000e+02 6.330000000000000000e+02 6.340000000000000000e+02 6.350000000000000000e+02 6.360000000000000000e+02 6.370000000000000000e+02 6.380000000000000000e+02 6.390000000000000000e+02 6.400000000000000000e+02 6.410000000000000000e+02 6.420000000000000000e+02 6.430000000000000000e+02 6.440000000000000000e+02 6.450000000000000000e+02 6.460000000000000000e+02 6.470000000000000000e+02 6.480000000000000000e+02 6.490000000000000000e+02 6.500000000000000000e+02 6.510000000000000000e+02 6.520000000000000000e+02 6.530000000000000000e+02 6.540000000000000000e+02 6.550000000000000000e+02 6.560000000000000000e+02 6.570000000000000000e+02 6.580000000000000000e+02 6.590000000000000000e+02 6.600000000000000000e+02 6.610000000000000000e+02 6.620000000000000000e+02 6.630000000000000000e+02 6.640000000000000000e+02 6.650000000000000000e+02 6.660000000000000000e+02 6.670000000000000000e+02 6.680000000000000000e+02 6.690000000000000000e+02 6.700000000000000000e+02 6.710000000000000000e+02 6.720000000000000000e+02 6.730000000000000000e+02 6.740000000000000000e+02 6.750000000000000000e+02 6.760000000000000000e+02 6.770000000000000000e+02 6.780000000000000000e+02 6.790000000000000000e+02 6.800000000000000000e+02 6.810000000000000000e+02 6.820000000000000000e+02 6.830000000000000000e+02 6.840000000000000000e+02 6.850000000000000000e+02 6.860000000000000000e+02 6.870000000000000000e+02 6.880000000000000000e+02 6.890000000000000000e+02 6.900000000000000000e+02 6.910000000000000000e+02 6.920000000000000000e+02 6.930000000000000000e+02 6.940000000000000000e+02 6.950000000000000000e+02 6.960000000000000000e+02 6.970000000000000000e+02 6.980000000000000000e+02 6.990000000000000000e+02 7.000000000000000000e+02 7.010000000000000000e+02 7.020000000000000000e+02 7.030000000000000000e+02 7.040000000000000000e+02 7.050000000000000000e+02 7.060000000000000000e+02 7.070000000000000000e+02 7.080000000000000000e+02 7.090000000000000000e+02 7.100000000000000000e+02 7.110000000000000000e+02 7.120000000000000000e+02 7.130000000000000000e+02 7.140000000000000000e+02 7.150000000000000000e+02 7.160000000000000000e+02 7.170000000000000000e+02 7.180000000000000000e+02 7.190000000000000000e+02 7.200000000000000000e+02 7.210000000000000000e+02 7.220000000000000000e+02 7.230000000000000000e+02 7.240000000000000000e+02 7.250000000000000000e+02 7.260000000000000000e+02 7.270000000000000000e+02 7.280000000000000000e+02 7.290000000000000000e+02 7.300000000000000000e+02 7.310000000000000000e+02 7.320000000000000000e+02 7.330000000000000000e+02 7.340000000000000000e+02 7.350000000000000000e+02 7.360000000000000000e+02 7.370000000000000000e+02 7.380000000000000000e+02 7.390000000000000000e+02 7.400000000000000000e+02 7.410000000000000000e+02 7.420000000000000000e+02 7.430000000000000000e+02 7.440000000000000000e+02 7.450000000000000000e+02 7.460000000000000000e+02 7.470000000000000000e+02 7.480000000000000000e+02 7.490000000000000000e+02 7.500000000000000000e+02 7.510000000000000000e+02 7.520000000000000000e+02 7.530000000000000000e+02 7.540000000000000000e+02 7.550000000000000000e+02 7.560000000000000000e+02 7.570000000000000000e+02 7.580000000000000000e+02 7.590000000000000000e+02 7.600000000000000000e+02 7.610000000000000000e+02 7.620000000000000000e+02 7.630000000000000000e+02 7.640000000000000000e+02 7.650000000000000000e+02 7.660000000000000000e+02 7.670000000000000000e+02 7.680000000000000000e+02 7.690000000000000000e+02 7.700000000000000000e+02 7.710000000000000000e+02 7.720000000000000000e+02 7.730000000000000000e+02 7.740000000000000000e+02 7.750000000000000000e+02 7.760000000000000000e+02 7.770000000000000000e+02 7.780000000000000000e+02 7.790000000000000000e+02 7.800000000000000000e+02 7.810000000000000000e+02 7.820000000000000000e+02 7.830000000000000000e+02 7.840000000000000000e+02 7.850000000000000000e+02 7.860000000000000000e+02 7.870000000000000000e+02 7.880000000000000000e+02 7.890000000000000000e+02 7.900000000000000000e+02 7.910000000000000000e+02 7.920000000000000000e+02 7.930000000000000000e+02 7.940000000000000000e+02 7.950000000000000000e+02 7.960000000000000000e+02 7.970000000000000000e+02 7.980000000000000000e+02 7.990000000000000000e+02 8.000000000000000000e+02 8.010000000000000000e+02 8.020000000000000000e+02 8.030000000000000000e+02 8.040000000000000000e+02 8.050000000000000000e+02 8.060000000000000000e+02 8.070000000000000000e+02 8.080000000000000000e+02 8.090000000000000000e+02 8.100000000000000000e+02 8.110000000000000000e+02 8.120000000000000000e+02 8.130000000000000000e+02 8.140000000000000000e+02 8.150000000000000000e+02 8.160000000000000000e+02 8.170000000000000000e+02 8.180000000000000000e+02 8.190000000000000000e+02 8.200000000000000000e+02 8.210000000000000000e+02 8.220000000000000000e+02 8.230000000000000000e+02 8.240000000000000000e+02 8.250000000000000000e+02 8.260000000000000000e+02 8.270000000000000000e+02 8.280000000000000000e+02 8.290000000000000000e+02 8.300000000000000000e+02 8.310000000000000000e+02 8.320000000000000000e+02 8.330000000000000000e+02 8.340000000000000000e+02 8.350000000000000000e+02 8.360000000000000000e+02 8.370000000000000000e+02 8.380000000000000000e+02 8.390000000000000000e+02 8.400000000000000000e+02 8.410000000000000000e+02 8.420000000000000000e+02 8.430000000000000000e+02 8.440000000000000000e+02 8.450000000000000000e+02 8.460000000000000000e+02 8.470000000000000000e+02 8.480000000000000000e+02 8.490000000000000000e+02 8.500000000000000000e+02 8.510000000000000000e+02 8.520000000000000000e+02 8.530000000000000000e+02 8.540000000000000000e+02 8.550000000000000000e+02 8.560000000000000000e+02 8.570000000000000000e+02 8.580000000000000000e+02 8.590000000000000000e+02 8.600000000000000000e+02 8.610000000000000000e+02 8.620000000000000000e+02 8.630000000000000000e+02 8.640000000000000000e+02 8.650000000000000000e+02 8.660000000000000000e+02 8.670000000000000000e+02 8.680000000000000000e+02 8.690000000000000000e+02 8.700000000000000000e+02 8.710000000000000000e+02 8.720000000000000000e+02 8.730000000000000000e+02 8.740000000000000000e+02 8.750000000000000000e+02 8.760000000000000000e+02 8.770000000000000000e+02 8.780000000000000000e+02 8.790000000000000000e+02 8.800000000000000000e+02 8.810000000000000000e+02 8.820000000000000000e+02 8.830000000000000000e+02 8.840000000000000000e+02 8.850000000000000000e+02 8.860000000000000000e+02 8.870000000000000000e+02 8.880000000000000000e+02 8.890000000000000000e+02 8.900000000000000000e+02 8.910000000000000000e+02 8.920000000000000000e+02 8.930000000000000000e+02 8.940000000000000000e+02 8.950000000000000000e+02 8.960000000000000000e+02 8.970000000000000000e+02 8.980000000000000000e+02 8.990000000000000000e+02 9.000000000000000000e+02 9.010000000000000000e+02 9.020000000000000000e+02 9.030000000000000000e+02 9.040000000000000000e+02 9.050000000000000000e+02 9.060000000000000000e+02 9.070000000000000000e+02 9.080000000000000000e+02 9.090000000000000000e+02 9.100000000000000000e+02 9.110000000000000000e+02 9.120000000000000000e+02 9.130000000000000000e+02 9.140000000000000000e+02 9.150000000000000000e+02 9.160000000000000000e+02 9.170000000000000000e+02 9.180000000000000000e+02 9.190000000000000000e+02 9.200000000000000000e+02 9.210000000000000000e+02 9.220000000000000000e+02 9.230000000000000000e+02 9.240000000000000000e+02 9.250000000000000000e+02 9.260000000000000000e+02 9.270000000000000000e+02 9.280000000000000000e+02 9.290000000000000000e+02 9.300000000000000000e+02 9.310000000000000000e+02 9.320000000000000000e+02 9.330000000000000000e+02 9.340000000000000000e+02 9.350000000000000000e+02 9.360000000000000000e+02 9.370000000000000000e+02 9.380000000000000000e+02 9.390000000000000000e+02 9.400000000000000000e+02 9.410000000000000000e+02 9.420000000000000000e+02 9.430000000000000000e+02 9.440000000000000000e+02 9.450000000000000000e+02 9.460000000000000000e+02 9.470000000000000000e+02 9.480000000000000000e+02 9.490000000000000000e+02 9.500000000000000000e+02 9.510000000000000000e+02 9.520000000000000000e+02 9.530000000000000000e+02 9.540000000000000000e+02 9.550000000000000000e+02 9.560000000000000000e+02 9.570000000000000000e+02 9.580000000000000000e+02 9.590000000000000000e+02 9.600000000000000000e+02 9.610000000000000000e+02 9.620000000000000000e+02 9.630000000000000000e+02 9.640000000000000000e+02 9.650000000000000000e+02 9.660000000000000000e+02 9.670000000000000000e+02 9.680000000000000000e+02 9.690000000000000000e+02 9.700000000000000000e+02 9.710000000000000000e+02 9.720000000000000000e+02 9.730000000000000000e+02 9.740000000000000000e+02 9.750000000000000000e+02 9.760000000000000000e+02 9.770000000000000000e+02 9.780000000000000000e+02 9.790000000000000000e+02 9.800000000000000000e+02 9.810000000000000000e+02 9.820000000000000000e+02 9.830000000000000000e+02 9.840000000000000000e+02 9.850000000000000000e+02 9.860000000000000000e+02 9.870000000000000000e+02 9.880000000000000000e+02 9.890000000000000000e+02 9.900000000000000000e+02 9.910000000000000000e+02 9.920000000000000000e+02 9.930000000000000000e+02 9.940000000000000000e+02 9.950000000000000000e+02 9.960000000000000000e+02 9.970000000000000000e+02 9.980000000000000000e+02 9.990000000000000000e+02
1.000000000000000000e+00 1.000000000000000000e+00 1.000000000000000000e+00 1.000000000000000000e+00 1.000000000000000000e+00 1.000000000000000000e+00 1.000000000000000000e+00 1.000000000000000000e+00 1.000000000000000000e+00 1.000000000000000000e+00 1.000000000000000000e+00 1.000000000000000000e+00 1.000000000000000000e+00 1.000000000000000000e+00 1.000000000000000000e+00 1.000000000000000000e+00 1.000000000000000000e+00 1.000000000000000000e+00 1.000000000000000000e+00 1.000000000000000000e+00 1.000000000000000000e+00 1.000000000000000000e+00 1.000000000000000000e+00 1.000000000000000000e+00 1.000000000000000000e+00 1.000000000000000000e+00 1.000000000000000000e+00 1.000000000000000000e+00 1.000000000000000000e+00 1.000000000000000000e+00 1.000000000000000000e+00 1.000000000000000000e+00 1.000000000000000000e+00 1.000000000000000000e+00 1.000000000000000000e+00 1.000000000000000000e+00 1.000000000000000000e+00 1.000000000000000000e+00 1.000000000000000000e+00 1.000000000000000000e+00 1.000000000000000000e+00 1.000000000000000000e+00 1.000000000000000000e+00 1.000000000000000000e+00 1.000000000000000000e+00 1.000000000000000000e+00 1.000000000000000000e+00 1.000000000000000000e+00 1.000000000000000000e+00 1.000000000000000000e+00 1.000000000000000000e+00 1.000000000000000000e+00 1.000000000000000000e+00 1.000000000000000000e+00 1.000000000000000000e+00 1.000000000000000000e+00 1.000000000000000000e+00 1.000000000000000000e+00 1.000000000000000000e+00 1.000000000000000000e+00 1.000000000000000000e+00 1.000000000000000000e+00 1.000000000000000000e+00 1.000000000000000000e+00 1.000000000000000000e+00 1.000000000000000000e+00 1.000000000000000000e+00 1.000000000000000000e+00 1.000000000000000000e+00 1.000000000000000000e+00 1.000000000000000000e+00 1.000000000000000000e+00 1.000000000000000000e+00 1.000000000000000000e+00 1.000000000000000000e+00 1.000000000000000000e+00 1.000000000000000000e+00 1.000000000000000000e+00 1.000000000000000000e+00 1.000000000000000000e+00 1.000000000000000000e+00 1.000000000000000000e+00 1.000000000000000000e+00 1.000000000000000000e+00 1.000000000000000000e+00 1.000000000000000000e+00 1.000000000000000000e+00 1.000000000000000000e+00 1.000000000000000000e+00 1.000000000000000000e+00 1.000000000000000000e+00 1.000000000000000000e+00 1.000000000000000000e+00 1.000000000000000000e+00 1.000000000000000000e+00 1.000000000000000000e+00 1.000000000000000000e+00 1.000000000000000000e+00 1.000000000000000000e+00 1.000000000000000000e+00 1.000000000000000000e+00 1.000000000000000000e+00 1.000000000000000000e+00 1.000000000000000000e+00 1.000000000000000000e+00 1.000000000000000000e+00 1.000000000000000000e+00 1.000000000000000000e+00 1.000000000000000000e+00 1.000000000000000000e+00 1.000000000000000000e+00 1.000000000000000000e+00 1.000000000000000000e+00 1.000000000000000000e+00 1.000000000000000000e+00 1.000000000000000000e+00 1.000000000000000000e+00 1.000000000000000000e+00 1.000000000000000000e+00 1.000000000000000000e+00 1.000000000000000000e+00 1.000000000000000000e+00 1.000000000000000000e+00 1.000000000000000000e+00 1.000000000000000000e+00 1.000000000000000000e+00 1.000000000000000000e+00 1.000000000000000000e+00 1.000000000000000000e+00 1.000000000000000000e+00 1.000000000000000000e+00 1.000000000000000000e+00 1.000000000000000000e+00 1.000000000000000000e+00 1.000000000000000000e+00 1.000000000000000000e+00 1.000000000000000000e+00 1.000000000000000000e+00 1.000000000000000000e+00 1.000000000000000000e+00 1.000000000000000000e+00 1.000000000000000000e+00 1.000000000000000000e+00 1.000000000000000000e+00 1.000000000000000000e+00 1.000000000000000000e+00 1.000000000000000000e+00 1.000000000000000000e+00 1.000000000000000000e+00 1.000000000000000000e+00 1.000000000000000000e+00 1.000000000000000000e+00 1.000000000000000000e+00 1.000000000000000000e+00 1.000000000000000000e+00 1.000000000000000000e+00 1.000000000000000000e+00 1.000000000000000000e+00 1.000000000000000000e+00 1.000000000000000000e+00 1.000000000000000000e+00 1.000000000000000000e+00 1.000000000000000000e+00 1.000000000000000000e+00 1.000000000000000000e+00 1.000000000000000000e+00 1.000000000000000000e+00 1.000000000000000000e+00 1.000000000000000000e+00 1.000000000000000000e+00 1.000000000000000000e+00 1.000000000000000000e+00 1.000000000000000000e+00 1.000000000000000000e+00 1.000000000000000000e+00 1.000000000000000000e+00 1.000000000000000000e+00 1.000000000000000000e+00 1.000000000000000000e+00 1.000000000000000000e+00 1.000000000000000000e+00 1.000000000000000000e+00 1.000000000000000000e+00 1.000000000000000000e+00 1.000000000000000000e+00 1.000000000000000000e+00 1.000000000000000000e+00 1.000000000000000000e+00 1.000000000000000000e+00 1.000000000000000000e+00 1.000000000000000000e+00 1.000000000000000000e+00 1.000000000000000000e+00 1.000000000000000000e+00 1.000000000000000000e+00 1.000000000000000000e+00 1.000000000000000000e+00 1.000000000000000000e+00 1.000000000000000000e+00 1.000000000000000000e+00 1.000000000000000000e+00 1.000000000000000000e+00 1.000000000000000000e+00 1.000000000000000000e+00 1.000000000000000000e+00 1.000000000000000000e+00 1.000000000000000000e+00 1.000000000000000000e+00 1.000000000000000000e+00 1.000000000000000000e+00 1.000000000000000000e+00 1.000000000000000000e+00 1.000000000000000000e+00 1.000000000000000000e+00 1.000000000000000000e+00 1.000000000000000000e+00 1.000000000000000000e+00 1.000000000000000000e+00 1.000000000000000000e+00 1.000000000000000000e+00 1.000000000000000000e+00 1.000000000000000000e+00 1.000000000000000000e+00 1.000000000000000000e+00 1.000000000000000000e+00 1.000000000000000000e+00 1.000000000000000000e+00 1.000000000000000000e+00 1.000000000000000000e+00 1.000000000000000000e+00 1.000000000000000000e+00 1.000000000000000000e+00 1.000000000000000000e+00 1.000000000000000000e+00 1.000000000000000000e+00 1.000000000000000000e+00 1.000000000000000000e+00 1.000000000000000000e+00 1.000000000000000000e+00 1.000000000000000000e+00 1.000000000000000000e+00 1.000000000000000000e+00 1.000000000000000000e+00 1.000000000000000000e+00 1.000000000000000000e+00 1.000000000000000000e+00 1.000000000000000000e+00 1.000000000000000000e+00 1.000000000000000000e+00 1.000000000000000000e+00 1.000000000000000000e+00 1.000000000000000000e+00 1.000000000000000000e+00 1.000000000000000000e+00 1.000000000000000000e+00 1.000000000000000000e+00 1.000000000000000000e+00 1.000000000000000000e+00 1.000000000000000000e+00 1.000000000000000000e+00 1.000000000000000000e+00 1.000000000000000000e+00 1.000000000000000000e+00 1.000000000000000000e+00 1.000000000000000000e+00 1.000000000000000000e+00 1.000000000000000000e+00 1.000000000000000000e+00 1.000000000000000000e+00 1.000000000000000000e+00 1.000000000000000000e+00 1.000000000000000000e+00 1.000000000000000000e+00 1.000000000000000000e+00 1.000000000000000000e+00 1.000000000000000000e+00 1.000000000000000000e+00 1.000000000000000000e+00 1.000000000000000000e+00 1.000000000000000000e+00 1.000000000000000000e+00 1.000000000000000000e+00 1.000000000000000000e+00 1.000000000000000000e+00 1.000000000000000000e+00 1.000000000000000000e+00 1.000000000000000000e+00 1.000000000000000000e+00 1.000000000000000000e+00 1.000000000000000000e+00 1.000000000000000000e+00 1.000000000000000000e+00 1.000000000000000000e+00 1.000000000000000000e+00 1.000000000000000000e+00 1.000000000000000000e+00 1.000000000000000000e+00 1.000000000000000000e+00 1.000000000000000000e+00 1.000000000000000000e+00 1.000000000000000000e+00 1.000000000000000000e+00 1.000000000000000000e+00 1.000000000000000000e+00 1.000000000000000000e+00 1.000000000000000000e+00 1.000000000000000000e+00 1.000000000000000000e+00 1.000000000000000000e+00 1.000000000000000000e+00 1.000000000000000000e+00 1.000000000000000000e+00 1.000000000000000000e+00 1.000000000000000000e+00 1.000000000000000000e+00 1.000000000000000000e+00 1.000000000000000000e+00 1.000000000000000000e+00 1.000000000000000000e+00 1.000000000000000000e+00 1.000000000000000000e+00 1.000000000000000000e+00 1.000000000000000000e+00 1.000000000000000000e+00 1.000000000000000000e+00 1.000000000000000000e+00 1.000000000000000000e+00 1.000000000000000000e+00 1.000000000000000000e+00 1.000000000000000000e+00 1.000000000000000000e+00 1.000000000000000000e+00 1.000000000000000000e+00 1.000000000000000000e+00 1.000000000000000000e+00 1.000000000000000000e+00 1.000000000000000000e+00 1.000000000000000000e+00 1.000000000000000000e+00 1.000000000000000000e+00 1.000000000000000000e+00 1.000000000000000000e+00 1.000000000000000000e+00 1.000000000000000000e+00 1.000000000000000000e+00 1.000000000000000000e+00 1.000000000000000000e+00 1.000000000000000000e+00 1.000000000000000000e+00 1.000000000000000000e+00 1.000000000000000000e+00 1.000000000000000000e+00 1.000000000000000000e+00 1.000000000000000000e+00 1.000000000000000000e+00 1.000000000000000000e+00 1.000000000000000000e+00 1.000000000000000000e+00 1.000000000000000000e+00 1.000000000000000000e+00 1.000000000000000000e+00 1.000000000000000000e+00 1.000000000000000000e+00 1.000000000000000000e+00 1.000000000000000000e+00 1.000000000000000000e+00 1.000000000000000000e+00 1.000000000000000000e+00 1.000000000000000000e+00 1.000000000000000000e+00 1.000000000000000000e+00 1.000000000000000000e+00 1.000000000000000000e+00 1.000000000000000000e+00 1.000000000000000000e+00 1.000000000000000000e+00 1.000000000000000000e+00 1.000000000000000000e+00 1.000000000000000000e+00 1.000000000000000000e+00 1.000000000000000000e+00 1.000000000000000000e+00 1.000000000000000000e+00 1.000000000000000000e+00 1.000000000000000000e+00 1.000000000000000000e+00 1.000000000000000000e+00 1.000000000000000000e+00 1.000000000000000000e+00 1.000000000000000000e+00 1.000000000000000000e+00 1.000000000000000000e+00 1.000000000000000000e+00 1.000000000000000000e+00 1.000000000000000000e+00 1.000000000000000000e+00 1.000000000000000000e+00 1.000000000000000000e+00 1.000000000000000000e+00 1.000000000000000000e+00 1.000000000000000000e+00 1.000000000000000000e+00 1.000000000000000000e+00 1.000000000000000000e+00 1.000000000000000000e+00 1.000000000000000000e+00 1.000000000000000000e+00 1.000000000000000000e+00 1.000000000000000000e+00 1.000000000000000000e+00 1.000000000000000000e+00 1.000000000000000000e+00 1.000000000000000000e+00 1.000000000000000000e+00 1.000000000000000000e+00 1.000000000000000000e+00 1.000000000000000000e+00 1.000000000000000000e+00 1.000000000000000000e+00 1.000000000000000000e+00 1.000000000000000000e+00 1.000000000000000000e+00 1.000000000000000000e+00 1.000000000000000000e+00 1.000000000000000000e+00 1.000000000000000000e+00 1.000000000000000000e+00 1.000000000000000000e+00 1.000000000000000000e+00 1.000000000000000000e+00 1.000000000000000000e+00 1.000000000000000000e+00 1.000000000000000000e+00 1.000000000000000000e+00 1.000000000000000000e+00 1.000000000000000000e+00 1.000000000000000000e+00 1.000000000000000000e+00 1.000000000000000000e+00 1.000000000000000000e+00 1.000000000000000000e+00 1.000000000000000000e+00 1.000000000000000000e+00 1.000000000000000000e+00 1.000000000000000000e+00 1.000000000000000000e+00 1.000000000000000000e+00 1.000000000000000000e+00 1.000000000000000000e+00 1.000000000000000000e+00 1.000000000000000000e+00 1.000000000000000000e+00 1.000000000000000000e+00 1.000000000000000000e+00 1.000000000000000000e+00 1.000000000000000000e+00 1.000000000000000000e+00 1.000000000000000000e+00 1.000000000000000000e+00 1.000000000000000000e+00 1.000000000000000000e+00 1.000000000000000000e+00 1.000000000000000000e+00 1.000000000000000000e+00 1.000000000000000000e+00 1.000000000000000000e+00 1.000000000000000000e+00 1.000000000000000000e+00 1.000000000000000000e+00 1.000000000000000000e+00 1.000000000000000000e+00 1.000000000000000000e+00 1.000000000000000000e+00 1.000000000000000000e+00 1.000000000000000000e+00 1.000000000000000000e+00 1.000000000000000000e+00 1.000000000000000000e+00 1.000000000000000000e+00 1.000000000000000000e+00 1.000000000000000000e+00 1.000000000000000000e+00 1.000000000000000000e+00 1.000000000000000000e+00 1.000000000000000000e+00 1.000000000000000000e+00 1.000000000000000000e+00 1.000000000000000000e+00 1.000000000000000000e+00 1.000000000000000000e+00 1.000000000000000000e+00 1.000000000000000000e+00 1.000000000000000000e+00 1.000000000000000000e+00 1.000000000000000000e+00 1.000000000000000000e+00 1.000000000000000000e+00 1.000000000000000000e+00 1.000000000000000000e+00 1.000000000000000000e+00 1.000000000000000000e+00 1.000000000000000000e+00 1.000000000000000000e+00 1.000000000000000000e+00 1.000000000000000000e+00 1.000000000000000000e+00 1.000000000000000000e+00 1.000000000000000000e+00 1.000000000000000000e+00 1.000000000000000000e+00 1.000000000000000000e+00 1.000000000000000000e+00 1.000000000000000000e+00 1.000000000000000000e+00 1.000000000000000000e+00 1.000000000000000000e+00 1.000000000000000000e+00 1.000000000000000000e+00 1.000000000000000000e+00 1.000000000000000000e+00 1.000000000000000000e+00 1.000000000000000000e+00 1.000000000000000000e+00 1.000000000000000000e+00 1.000000000000000000e+00 1.000000000000000000e+00 1.000000000000000000e+00 1.000000000000000000e+00 1.000000000000000000e+00 1.000000000000000000e+00 1.000000000000000000e+00 1.000000000000000000e+00 1.000000000000000000e+00 1.000000000000000000e+00 1.000000000000000000e+00 1.000000000000000000e+00 1.000000000000000000e+00 1.000000000000000000e+00 1.000000000000000000e+00 1.000000000000000000e+00 1.000000000000000000e+00 1.000000000000000000e+00 1.000000000000000000e+00 1.000000000000000000e+00 1.000000000000000000e+00 1.000000000000000000e+00 1.000000000000000000e+00 1.000000000000000000e+00 1.000000000000000000e+00 1.000000000000000000e+00 1.000000000000000000e+00 1.000000000000000000e+00 1.000000000000000000e+00 1.000000000000000000e+00 1.000000000000000000e+00 1.000000000000000000e+00 1.000000000000000000e+00 1.000000000000000000e+00 1.000000000000000000e+00 1.000000000000000000e+00 1.000000000000000000e+00 1.000000000000000000e+00 1.000000000000000000e+00 1.000000000000000000e+00 1.000000000000000000e+00 1.000000000000000000e+00 1.000000000000000000e+00 1.000000000000000000e+00 1.000000000000000000e+00 1.000000000000000000e+00 1.000000000000000000e+00 1.000000000000000000e+00 1.000000000000000000e+00 1.000000000000000000e+00 1.000000000000000000e+00 1.000000000000000000e+00 1.000000000000000000e+00 1.000000000000000000e+00 1.000000000000000000e+00 1.000000000000000000e+00 1.000000000000000000e+00 1.000000000000000000e+00 1.000000000000000000e+00 1.000000000000000000e+00 1.000000000000000000e+00 1.000000000000000000e+00 1.000000000000000000e+00 1.000000000000000000e+00 1.000000000000000000e+00 1.000000000000000000e+00 1.000000000000000000e+00 1.000000000000000000e+00 1.000000000000000000e+00 1.000000000000000000e+00 1.000000000000000000e+00 1.000000000000000000e+00 1.000000000000000000e+00 1.000000000000000000e+00 1.000000000000000000e+00 1.000000000000000000e+00 1.000000000000000000e+00 1.000000000000000000e+00 1.000000000000000000e+00 1.000000000000000000e+00 1.000000000000000000e+00 1.000000000000000000e+00 1.000000000000000000e+00 1.000000000000000000e+00 1.000000000000000000e+00 1.000000000000000000e+00 1.000000000000000000e+00 1.000000000000000000e+00 1.000000000000000000e+00 1.000000000000000000e+00 1.000000000000000000e+00 1.000000000000000000e+00 1.000000000000000000e+00 1.000000000000000000e+00 1.000000000000000000e+00 1.000000000000000000e+00 1.000000000000000000e+00 1.000000000000000000e+00 1.000000000000000000e+00 1.000000000000000000e+00 1.000000000000000000e+00 1.000000000000000000e+00 1.000000000000000000e+00 1.000000000000000000e+00 1.000000000000000000e+00 1.000000000000000000e+00 1.000000000000000000e+00 1.000000000000000000e+00 1.000000000000000000e+00 1.000000000000000000e+00 1.000000000000000000e+00 1.000000000000000000e+00 1.000000000000000000e+00 1.000000000000000000e+00 1.000000000000000000e+00 1.000000000000000000e+00 1.000000000000000000e+00 1.000000000000000000e+00 1.000000000000000000e+00 1.000000000000000000e+00 1.000000000000000000e+00 1.000000000000000000e+00 1.000000000000000000e+00 1.000000000000000000e+00 1.000000000000000000e+00 1.000000000000000000e+00 1.000000000000000000e+00 1.000000000000000000e+00 1.000000000000000000e+00 1.000000000000000000e+00 1.000000000000000000e+00 1.000000000000000000e+00 1.000000000000000000e+00 1.000000000000000000e+00 1.000000000000000000e+00 1.000000000000000000e+00 1.000000000000000000e+00 1.000000000000000000e+00 1.000000000000000000e+00 1.000000000000000000e+00 1.000000000000000000e+00 1.000000000000000000e+00 1.000000000000000000e+00 1.000000000000000000e+00 1.000000000000000000e+00 1.000000000000000000e+00 1.000000000000000000e+00 1.000000000000000000e+00 1.000000000000000000e+00 1.000000000000000000e+00 1.000000000000000000e+00 1.000000000000000000e+00 1.000000000000000000e+00 1.000000000000000000e+00 1.000000000000000000e+00 1.000000000000000000e+00 1.000000000000000000e+00 1.000000000000000000e+00 1.000000000000000000e+00 1.000000000000000000e+00 1.000000000000000000e+00 1.000000000000000000e+00 1.000000000000000000e+00 1.000000000000000000e+00 1.000000000000000000e+00 1.000000000000000000e+00 1.000000000000000000e+00 1.000000000000000000e+00 1.000000000000000000e+00 1.000000000000000000e+00 1.000000000000000000e+00 1.000000000000000000e+00 1.000000000000000000e+00 1.000000000000000000e+00 1.000000000000000000e+00 1.000000000000000000e+00 1.000000000000000000e+00 1.000000000000000000e+00 1.000000000000000000e+00 1.000000000000000000e+00 1.000000000000000000e+00 1.000000000000000000e+00 1.000000000000000000e+00 1.000000000000000000e+00 1.000000000000000000e+00 1.000000000000000000e+00 1.000000000000000000e+00 1.000000000000000000e+00 1.000000000000000000e+00 1.000000000000000000e+00 1.000000000000000000e+00 1.000000000000000000e+00 1.000000000000000000e+00 1.000000000000000000e+00 1.000000000000000000e+00 1.000000000000000000e+00 1.000000000000000000e+00 1.000000000000000000e+00 1.000000000000000000e+00 1.000000000000000000e+00 1.000000000000000000e+00 1.000000000000000000e+00 1.000000000000000000e+00 1.000000000000000000e+00 1.000000000000000000e+00 1.000000000000000000e+00 1.000000000000000000e+00 1.000000000000000000e+00 1.000000000000000000e+00 1.000000000000000000e+00 1.000000000000000000e+00 1.000000000000000000e+00 1.000000000000000000e+00 1.000000000000000000e+00 1.000000000000000000e+00 1.000000000000000000e+00 1.000000000000000000e+00 1.000000000000000000e+00 1.000000000000000000e+00 1.000000000000000000e+00 1.000000000000000000e+00 1.000000000000000000e+00 1.000000000000000000e+00 1.000000000000000000e+00 1.000000000000000000e+00 1.000000000000000000e+00 1.000000000000000000e+00 1.000000000000000000e+00 1.000000000000000000e+00 1.000000000000000000e+00 1.000000000000000000e+00 1.000000000000000000e+00 1.000000000000000000e+00 1.000000000000000000e+00 1.000000000000000000e+00 1.000000000000000000e+00 1.000000000000000000e+00 1.000000000000000000e+00 1.000000000000000000e+00 1.000000000000000000e+00 1.000000000000000000e+00 1.000000000000000000e+00 1.000000000000000000e+00 1.000000000000000000e+00 1.000000000000000000e+00 1.000000000000000000e+00 1.000000000000000000e+00 1.000000000000000000e+00 1.000000000000000000e+00 1.000000000000000000e+00 1.000000000000000000e+00 1.000000000000000000e+00 1.000000000000000000e+00 1.000000000000000000e+00 1.000000000000000000e+00 1.000000000000000000e+00 1.000000000000000000e+00 1.000000000000000000e+00 1.000000000000000000e+00 1.000000000000000000e+00 1.000000000000000000e+00 1.000000000000000000e+00 1.000000000000000000e+00 1.000000000000000000e+00 1.000000000000000000e+00 1.000000000000000000e+00 1.000000000000000000e+00 1.000000000000000000e+00 1.000000000000000000e+00 1.000000000000000000e+00 1.000000000000000000e+00 1.000000000000000000e+00 1.000000000000000000e+00 1.000000000000000000e+00 1.000000000000000000e+00 1.000000000000000000e+00 1.000000000000000000e+00 1.000000000000000000e+00 1.000000000000000000e+00 1.000000000000000000e+00 1.000000000000000000e+00 1.000000000000000000e+00 1.000000000000000000e+00 1.000000000000000000e+00 1.000000000000000000e+00 1.000000000000000000e+00 1.000000000000000000e+00 1.000000000000000000e+00 1.000000000000000000e+00 1.000000000000000000e+00 1.000000000000000000e+00 1.000000000000000000e+00 1.000000000000000000e+00 1.000000000000000000e+00 1.000000000000000000e+00 1.000000000000000000e+00 1.000000000000000000e+00 1.000000000000000000e+00 1.000000000000000000e+00 1.000000000000000000e+00 1.000000000000000000e+00 1.000000000000000000e+00 1.000000000000000000e+00 1.000000000000000000e+00 1.000000000000000000e+00 1.000000000000000000e+00 1.000000000000000000e+00 1.000000000000000000e+00 1.000000000000000000e+00 1.000000000000000000e+00 1.000000000000000000e+00 1.000000000000000000e+00 1.000000000000000000e+00 1.000000000000000000e+00 1.000000000000000000e+00 1.000000000000000000e+00 1.000000000000000000e+00 1.000000000000000000e+00 1.000000000000000000e+00 1.000000000000000000e+00 1.000000000000000000e+00 1.000000000000000000e+00 1.000000000000000000e+00 1.000000000000000000e+00 1.000000000000000000e+00 1.000000000000000000e+00 1.000000000000000000e+00 1.000000000000000000e+00 1.000000000000000000e+00 1.000000000000000000e+00 1.000000000000000000e+00 1.000000000000000000e+00 1.000000000000000000e+00 1.000000000000000000e+00 1.000000000000000000e+00 1.000000000000000000e+00 1.000000000000000000e+00 1.000000000000000000e+00 1.000000000000000000e+00 1.000000000000000000e+00 1.000000000000000000e+00 1.000000000000000000e+00 1.000000000000000000e+00 1.000000000000000000e+00 1.000000000000000000e+00 1.000000000000000000e+00 1.000000000000000000e+00 1.000000000000000000e+00 1.000000000000000000e+00 1.000000000000000000e+00 1.000000000000000000e+00 1.000000000000000000e+00 1.000000000000000000e+00 1.000000000000000000e+00 1.000000000000000000e+00 1.000000000000000000e+00 1.000000000000000000e+00 1.000000000000000000e+00 1.000000000000000000e+00 1.000000000000000000e+00 1.000000000000000000e+00 1.000000000000000000e+00 1.000000000000000000e+00 1.000000000000000000e+00 1.000000000000000000e+00 1.000000000000000000e+00 1.000000000000000000e+00 1.000000000000000000e+00 1.000000000000000000e+00 1.000000000000000000e+00 1.000000000000000000e+00 1.000000000000000000e+00 1.000000000000000000e+00 1.000000000000000000e+00 1.000000000000000000e+00 1.000000000000000000e+00 1.000000000000000000e+00 1.000000000000000000e+00 1.000000000000000000e+00 1.000000000000000000e+00 1.000000000000000000e+00 1.000000000000000000e+00 1.000000000000000000e+00 1.000000000000000000e+00 1.000000000000000000e+00 1.000000000000000000e+00 1.000000000000000000e+00 1.000000000000000000e+00 1.000000000000000000e+00 1.000000000000000000e+00 1.000000000000000000e+00 1.000000000000000000e+00 1.000000000000000000e+00 1.000000000000000000e+00 1.000000000000000000e+00 1.000000000000000000e+00 1.000000000000000000e+00 1.000000000000000000e+00 1.000000000000000000e+00 1.000000000000000000e+00 1.000000000000000000e+00 1.000000000000000000e+00 1.000000000000000000e+00 1.000000000000000000e+00 1.000000000000000000e+00 1.000000000000000000e+00 1.000000000000000000e+00 1.000000000000000000e+00 1.000000000000000000e+00 1.000000000000000000e+00 1.000000000000000000e+00 1.000000000000000000e+00 1.000000000000000000e+00 1.000000000000000000e+00 1.000000000000000000e+00 1.000000000000000000e+00 1.000000000000000000e+00 1.000000000000000000e+00 1.000000000000000000e+00 1.000000000000000000e+00 1.000000000000000000e+00 1.000000000000000000e+00 1.000000000000000000e+00 1.000000000000000000e+00 1.000000000000000000e+00 1.000000000000000000e+00 1.000000000000000000e+00 1.000000000000000000e+00 1.000000000000000000e+00 1.000000000000000000e+00 1.000000000000000000e+00 1.000000000000000000e+00 1.000000000000000000e+00 1.000000000000000000e+00 1.000000000000000000e+00 1.000000000000000000e+00 1.000000000000000000e+00 1.000000000000000000e+00 1.000000000000000000e+00 1.000000000000000000e+00 1.000000000000000000e+00 1.000000000000000000e+00 1.000000000000000000e+00 1.000000000000000000e+00 1.000000000000000000e+00 1.000000000000000000e+00 1.000000000000000000e+00 1.000000000000000000e+00 1.000000000000000000e+00 1.000000000000000000e+00 1.000000000000000000e+00 1.000000000000000000e+00 1.000000000000000000e+00 1.000000000000000000e+00 1.000000000000000000e+00 1.000000000000000000e+00 1.000000000000000000e+00 1.000000000000000000e+00 1.000000000000000000e+00 1.000000000000000000e+00 1.000000000000000000e+00 1.000000000000000000e+00 1.000000000000000000e+00 1.000000000000000000e+00 1.000000000000000000e+00 1.000000000000000000e+00 1.000000000000000000e+00 1.000000000000000000e+00 1.000000000000000000e+00 1.000000000000000000e+00 1.000000000000000000e+00 1.000000000000000000e+00 1.000000000000000000e+00 1.000000000000000000e+00 1.000000000000000000e+00 1.000000000000000000e+00
3.652315168930028721e-02 5.066512967573927329e-01 -2.517363501337178677e-01 7.588343849802059449e-01 5.160106902632125569e-01 5.050561862296543136e-01 6.022115551927820221e-01 3.190253702409439063e-01 5.423244783913502287e-01 5.249248286618238835e-01 1.082242031737072008e+00 -7.058132188752480607e-01 1.409747065887330786e+00 4.578495971820636390e-01 5.159220283891388092e-01 4.002992642108151866e-01 8.723853989894734262e-01 9.784666872506662116e-01 7.235973792745330480e-01 5.215604085866105688e-01 3.815199664521624623e-01 9.866788269909787523e-01 3.918696296319343353e-01 5.100304419049639382e-01 8.489334343563052776e-02 6.698391411521389394e-01 3.849996220812178516e-01 6.817372562188730445e-01 5.552848993474144290e-01 1.593051209336699525e+00 5.042864901490361484e-01 6.089594385986122349e-01 7.190172070261452442e-01 5.256258136841664985e-01 7.010813916062392792e-01 4.536447290855109005e-01 5.190709970701531395e-01 1.809314225035370205e+00 -7.616114304447912930e-02 5.078393529198532708e-01 -1.864942867959235862e-01 -5.617001685469007466e-01 7.483417926529865039e-01 2.277841310450764434e-01 2.964995161990051087e-01 5.026862885300231731e-01 7.584984223453229424e-01 5.260312442993855253e-01 6.390016683881428738e-01 1.436415677574240379e-02 2.047634719892671429e-02 8.031753220301447449e-01 6.781932355828809156e-01 4.342464533273652783e-01 4.594159423764802019e-01 1.818313712571875684e-02 5.142273043541224498e-01 5.222099250262107750e-01 1.937078030283864438e-01 4.864734107055768142e-01 9.186987554471526263e-01 5.032024830594130638e-01 5.302893713336822579e-01 3.918697727192607116e-01 6.792641439165527650e-01 6.057862209620167304e-01 5.154688879554146785e-01 3.409819158938842687e-01 5.653351661394273586e-01 1.653614600902241633e-02 4.313650015703698326e-01 5.763104432641880104e-01 5.177819659261135854e-01 1.070288765469797412e-02 1.512678642320824052e+00 5.486196711840112261e-01 6.358759725956689701e-01 7.282148312655244426e-01 5.192756073156049590e-01 1.384969916273661950e+00 5.288771430950724994e-01 3.274678988009485092e-01 1.415917229991954907e+00 7.338807579720223462e-01 5.013578411446898420e-01 7.546531226407291459e-01 8.024585333488895023e-01 5.501835370003800296e-01 4.163965042951776607e-01 5.761671353939501472e-01 2.924981857467546242e-01 2.194336215432434845e+00 7.607460500066377529e-01 2.496556332563963383e-03 4.964540179515823937e-01 4.747541641283352098e-01 5.627613469818143477e-01 4.791683624372333195e-01 1.896573266099454980e-01 6.608820426028105821e-01 1.617379328954430040e+00 6.892290935329241641e-01 5.459863770015066509e-01 6.745074477020153170e-01 8.592374178294986953e-01 -2.089238601661990824e+00 -1.226899670214573579e+00 5.371265655604183786e-01 6.024600220490203828e-01 9.704878183103936573e-01 5.716070919669927752e-01 4.325501006286142092e-01 1.707895347622913618e-01 4.952293142549614169e-01 5.237200327865868532e-01 4.967232970497221789e-01 4.751859642098251180e-01 5.276845121114910331e-01 9.468713389671215008e-01 5.160644863812712257e-01 1.307426829278893088e+00 5.478715621863613494e-01 6.058456636009208474e-01 -4.688336379543780463e-01 5.176221118683154154e-01 1.955382819627577762e+00 5.522108867510070462e-01 5.523801111003668884e-01 6.825702880357936708e-01 5.245145935621677857e-01 5.345634692248297792e-01 5.131210815878051168e-01 4.260646098634570111e-01 3.804577321896507880e-01 -3.156977490110245421e-01 -1.685075826632886631e-01 6.524179683737009183e-01 5.287948834560702444e-02 1.002981118929752391e+00 6.110199425954533359e-01 5.050395431117633560e-01 8.676512712723197795e-01 5.726180831811030769e-01 5.549504606401426399e-01 5.190940369307011082e-01 4.940403934415602688e-02 9.347301770631595286e-01 -5.692736047737096544e-02 4.401861160911932358e-01 -8.994550113592295615e-01 7.653257333787912842e-01 -2.920089198723105350e-01 5.026908535223593155e-01 5.615810085620629444e-01 4.551342560986653685e-01 5.216313967736846413e-01 1.972684993596832248e+00 -1.228160938191168450e-01 8.177550374512850828e-01 6.816377581359406301e-01 5.386095867605215082e-01 4.175244964387550550e-01 4.984793221925667983e-01 5.173154171236016285e-01 1.076643126805445272e+00 2.067160946620081874e-01 8.509623409058043597e-01 3.489456804050884431e-01 4.529785150848986142e-01 6.593632784408947067e-01 5.353446805699499933e-01 7.597887158203469049e-01 5.026892349190126286e-01 5.185971376778204522e-01 4.042135651189115442e-01 4.696625511391987889e-02 2.004951017685381032e-01 9.531647798241736635e-02 7.498873678505179052e-01 1.142793709574716043e+00 6.909644483451067298e-01 5.277134871330363408e-01 -1.746518277110121475e-01 4.385294717719761537e-01 5.983970138850369658e-01 5.457797739986249841e-01 5.125948953978836098e-01 5.091084024154075571e-01 2.813219063918444895e+00 5.387796330222514030e-01 5.475578062731443207e-01 -9.003952577498577359e-01 5.398685483010753350e-01 5.370737158339812245e-01 1.918075292436735579e-01 5.206797148872358560e-01 9.379942456993737299e-01 5.332001647295525615e-01 5.733473322930272564e-01 4.583608301021742659e-01 6.302150960762235021e-01 4.900675946890996060e-01 9.020863700084953418e-01 6.014127698231774843e-01 5.432216179402464817e-01 5.733473124963723855e-01 2.301553280641839838e-01 1.291990049223590509e+00 5.576679457843418675e-01 4.157014550993943791e-01 4.287492146745931487e-01 -8.737633791858159804e-02 4.864441123058831362e-01 1.571626754888555411e-01 5.148325710756490592e-01 5.108797665732910387e-01 5.171618886979398866e-01 5.176337500953630544e-01 5.167904584216206354e-01 5.190060782388090654e-01 4.370325815789520840e-01 5.839499775405667670e-01 -7.113553585544375446e-01 6.075850020131603468e-01 4.021040861028393754e-01 3.696039438554660772e-01 6.847760100321252652e-02 1.314781074440989350e+00 9.628636740856637566e-01 4.950420356811747746e-01 -1.030885896688482628e-01 1.058901846020168902e+00 5.178074991286465423e-01 4.488837713626786519e-01 6.084071194878110100e-01 4.110108379060183892e-01 3.075995178057543966e-01 1.789834838890264346e-01 -1.573752554912423163e-01 -8.975271440034751635e-02 4.143881009691349204e-01 5.333944288521926813e-01 -1.103091121243215122e-01 4.301469983502601568e-01 5.149803943393638228e-01 4.927892334816439956e-01 -9.810840918858625137e-02 7.555966382419712080e-01 -2.305420984381625349e+00 6.141749489819033903e-01 -6.196120455626500378e-01 4.978608087514517777e-01 5.143765691725166178e-01 3.918697179279041487e-01 4.760304787381504088e-01 5.658424110808852880e-01 5.431137551163006671e-01 7.677544537711058492e-01 5.588775643090677647e-01 1.694217701650925667e+00 6.802350126161159638e-01 6.887853347057883990e-01 4.702128208270049958e-01 3.641245676890325078e-01 9.186987906054059350e-01 4.256594096170781549e-01 2.695265146836096193e+00 4.897099614349483265e-01 2.293435097029497272e-01 7.391460285500222049e-01 5.045013596509320131e-01 9.184138676789076472e-01 5.196368823248986857e-01 5.677619009457541832e-01 5.179623434616024147e-01 1.113869952644098493e+00 7.698572168342604494e-01 8.610613593995717352e-01 8.070666134749492349e-01 4.982868169716775930e-01 6.807373505044956863e-01 5.179321828383105508e-01 3.819752292111122105e-01 -7.282445971068802759e-01 3.871034194712390519e-01 5.665260893212699100e-01 5.633593347091063741e-01 5.254137984022475560e-01 4.967232487735239177e-01 6.086555098868837721e-01 5.492951003743503646e-01 -8.607714778038028092e-01 7.336602668891724077e-01 5.490557086512454221e-01 6.170294031468639973e-03 5.425549029977291271e-01 1.852624649883591434e+00 5.050677512503077837e-01 5.172609982873663803e-01 4.401773919387245160e-01 -3.437688582504149881e+00 5.167546556941318148e-01 2.847046586586965855e+00 7.597383501405351458e-01 5.216704776216950501e-01 -5.754331332350623995e-01 5.187541761601239809e-01 5.176001599213018167e-01 4.424019532355956130e-01 4.511095946996165340e-01 3.551337713276125907e-01 6.447458384478266247e-01 3.142143807652254539e-01 5.215923618830754505e-01 5.147366459689567408e-01 3.513940962436288840e-01 5.266118784066574632e-01 7.595892732976720074e-01 5.179671848520900346e-01 1.203068627681269875e+00 1.472997641871960986e-02 2.224566174346653824e+00 2.650072922228785988e+00 5.056912199484634440e-01 -2.194314327371839346e-01 4.042195708056770531e-01 4.010241924166689786e-01 7.341910601431070882e-01 1.382124739676882319e+00 5.343985403790257882e-01 1.128631188143613295e+00 5.173499427255100480e-01 1.223397784300243180e-01 1.255460302972819520e+00 4.785191311344829113e-01 5.455190088038626151e-01 5.069632135886052993e-01 9.001648539035159713e-01 -3.749567620985525096e+00 1.639743396132396391e+00 5.075626867500815376e-01 6.370638570788550448e-01 5.186271522081014052e-01 1.809314216904798434e+00 3.017999196783875404e-01 5.545222923314083729e-01 5.215772330338376284e-01 4.973879568052370637e-01 1.376008570917506946e+00 5.667989036148112225e-01 5.733469902854688716e-01 4.301502853713248253e-01 6.014127701188529684e-01 5.250407511004215877e-01 5.685696911603685955e-01 8.985100402154159172e-01 5.157504472554266250e-01 3.843542711604971407e-01 1.745632228771076822e-01 6.614708257380289558e-01 5.173749432394073589e-01 3.487867942060603466e-01 5.545223301085573375e-01 6.515896829146020641e-01 5.129010943320748694e-01 1.027424683720138177e+00 9.658883945150237293e-01 1.142759555393789039e+00 5.189277408515325929e-01 2.233147123613704321e-01 9.186991308669917311e-01 -1.093982103031069103e-01 9.335518944841511013e-01 6.295855107625730751e-01 1.387448327989838394e-02 5.639291543237660020e-01 9.420833177654681645e-01 3.869649014514391916e-01 5.021884701800338746e-01 2.911079136283688529e-01 -3.362235290736137472e-01 -2.480258723783942187e+00 4.941906439556750241e-01 6.014127693412764097e-01 6.014127176516042006e-01 4.985708548497304049e-01 3.946825711747495302e-01 -2.246149078770910967e-01 3.022691673794117295e-01 5.114691525522918614e-01 7.001226881100727217e-01 5.173256546884582585e-01 1.040384079232927528e+00 5.733472415170098868e-01 5.179371344294309010e-01 4.873427805260054368e-01 2.758244033829823638e-01 6.571269710205561720e-01 5.130061533211689451e-01 5.180370572724655176e-01 5.276343064549350315e-01 2.944932829449403711e-01 1.660519603995366800e-02 6.014127687293856495e-01 6.612923924003368814e-01 5.166676151602853651e-01 4.040571047832293150e-01 8.592190606196995484e-01 7.317372772412762405e-01 5.639387256936861936e-01 1.872918303231171366e+00 5.043739214249056690e-01 -3.102138588994692636e+00 7.584566663092728867e-01 1.527782028348814158e+00 5.717597068041375685e-01 -1.081427057721918050e+00 7.908684942691430741e-01 4.452440615605820495e-01 5.260571618894864798e-01 5.353484663817502653e-01 -3.670611793440324844e-01 5.203824399892086339e-01 1.072049630945125731e+00 5.063336163384992705e-01 -3.702979234641748385e-01 5.156609119317615564e-01 5.190538234688162333e-01 7.857640889357229153e-01 5.030364864005270054e-01 5.715874402762676221e-01 -5.295055969445494615e-01 5.609909736972026328e-01 5.148896061424051984e-01 6.294868027338058614e-01 5.193392163238685910e-01 7.680790202718198456e-01 5.189628329434948784e-01 6.075777640256447842e-01 5.840345677997043072e-01 5.138924782543357050e-01 2.761122067709321781e-01 3.030214817308952147e-01 3.399536508784060662e-01 9.648977409286253470e-01 5.528027421300072408e-01 3.213565681025011056e+00 6.585781357053194229e-01 6.438962771800915696e-01 5.514977038115607133e-01 5.864689136699177130e-01 2.551518803931497950e-02 4.887253470434426150e-01 4.940357209973683661e-01 5.200800558985277933e-01 1.161132760904609373e+00 7.677519051519822169e-01 5.254853376970971546e-01 4.419797727110741370e-01 1.118066748716615821e+00 5.408965930587292803e-01 5.689862679034651816e-01 5.400713515706694334e-01 8.021800554237139558e-01 5.214457953790885281e-01 9.352723365705940539e-01 5.208633196432500556e-01 5.179145008726698807e-01 1.593731851720461140e-02 5.246231290535300351e-01 7.050882747968298912e-03 3.185963064585877191e-01 4.056168663347953229e-01 5.770823931191573219e-01 7.821067804913526267e-01 5.159270103575306354e-01 3.885362201593181020e-01 8.565435553918460121e-02 5.149220827003623269e-01 5.451724245154497828e-01 4.551113400289898969e-01 3.303523681504190457e-02 5.167421441523079029e-01 2.494561018541892328e-01 5.199500970566383051e-01 4.137145113434131938e-01 1.259352684736025685e+00 7.736947991659817170e-01 5.430485790827472847e-01 2.565434174621686325e-01 7.370506387530357806e-01 4.329729254451234466e-01 9.959230770713161096e-01 6.017317362147116544e-01 6.017145465663176207e-01 6.975215959499164731e-01 2.002263821831939516e+00 4.675642477057982416e-01 4.843303544821807582e-01 5.121194296369994126e-01 7.337330224528403333e-01 5.535267739550611132e-01 8.498335397086610454e-01 -5.757525070456230853e-01 3.597054522358278383e-01 5.125477623751514278e-01 4.280693162666514007e-01 3.847253246839361096e-01 -6.222127878324771322e-01 3.873526452441632961e-01 5.151206130270599148e-01 7.338922449008277171e-01 6.676389536805859004e-01 1.497798514499970590e+00 5.142926388960035178e-01 5.174410827521832568e-01 -7.109774100926909979e-01 5.174315787488238394e-01 1.225135840683484023e+00 7.128609955624132244e-01 2.742347355166860345e-01 2.528213955307579419e-01 -1.726309868869961628e+00 5.314119268652688355e-01 1.856199356549012580e-01 1.102274050043015929e+00 8.198503406974767538e-01 5.186121975120022709e-01 5.291867612573764035e-01 6.143572900078281274e-01 7.586154733093444236e-01 4.369979513531510040e-01 5.581992762191650970e-01 2.859343860186921299e-02 5.312048966381144322e-01 5.928016688438736415e-01 5.154923916442006870e-01 5.089573624920361583e-01 4.787734532527163078e-01 1.217064572720972571e+00 -1.021767148156388083e-01 -2.379270742710011821e-01 4.175530886711630307e-01 5.514587418752602277e-01 5.387778844250862287e-01 5.283216478003168737e-01 -8.633021158134444040e-01 3.178440446069608072e+00 5.294550879231085805e-01 4.447865125700768973e-01 4.300219403883587810e-01 5.178054029593158747e-01 5.103463845836823110e-01 5.541920255787567973e-01 3.258753058205939857e-01 5.983662705144014993e-01 5.192229744812230097e-01 5.641521988998098314e-01 3.408925127616481698e-01 4.117409351766299075e-01 5.594063037234323632e-01 4.056087297591811081e-01 5.143950923485410831e-01 5.512616691170821870e-01 6.656176048472399742e-01 1.014659784234660078e+00 2.323572054129322328e+00 5.283304414474753186e-01 4.977737634610920336e-01 4.109686403660092191e-01 4.864113693160210805e-01 3.702211041201845521e-01 5.159367389898609213e-01 5.107356835469819556e-01 5.115948183907781388e-01 5.430538409232459340e-01 4.796623854102762263e-01 7.590885916107226183e-01 3.652856888619014919e-01 4.439252647351845105e-01 4.407678159800104689e-01 5.261124994060751847e-01 1.141230399182907446e-01 9.186987777810378120e-01 5.681329439609967835e-01 1.108862401794561831e-01 1.911948890512584098e+00 2.918564669248509547e-01 4.189037152084433280e-01 5.918536954164986819e-01 6.364624806492906461e-02 5.350693806447145429e-01 1.518231027705904568e+00 7.853068119989894402e-01 7.362385908550960201e-01 5.161261325754362694e-01 5.479945912921021511e-01 4.564534224559632647e-01 6.593749191321359726e-01 5.468561598185759376e-01 5.166236229323935003e-01 -2.260717174501444549e-01 5.239773077032787718e-01 -1.507150008726581891e+00 4.828839965013361768e-01 5.084833502137594552e-01 5.061129867162451612e-01 4.401735276636619676e-01 9.186987778788717751e-01 2.203151324317571824e-01 5.335030235604751869e-01 1.346875411366618147e+00 -5.620210379719879912e-01 5.203745558748854583e-01 1.140736741659834186e+00 1.526383740472568418e+00 5.000460953474673564e-01 5.209500774554056690e-01 -5.715687350474146083e-02 -1.687899037223569154e+00 2.745570192147513411e-01 8.045923939837080763e-01 5.150474858883781204e-01 5.181033102466219287e-01 5.993408615469401068e-01 4.836239611430522833e-01 -4.113074749318342271e-01 8.228214171614708361e-01 4.967237235966128206e-01 3.297978976018657860e-01 5.444924365150619616e-01 -8.716647530263615246e-03 -1.698877199143761230e-01 1.800094368904392228e+00 4.132757287457717310e-01 5.214321134933511681e-01 5.155453708950515912e-01 3.252188052110361882e-01 5.684894970139837689e-01 -8.925943517165756125e-02 -1.193067335357221204e+00 5.182069286250338136e-01 5.423414237431075646e-01 5.075868062262886005e-01 6.110706890338165609e-01 5.075589361718688686e-01 5.456336180718278639e-01 5.560289612826526673e-01 5.700333160068326022e-01 1.033752562564551392e+00 7.214374297792355284e-01 5.074065740504883903e-01 6.009628235814913344e-01 4.661252334251563267e-01 4.523213372518077868e-01 3.939436904790061950e-02 5.545223107761685366e-01 4.671809408170770062e-01 5.049097477634160169e-01 7.581287668996982143e-01 8.996738904660521730e-01 8.498248705942518244e-01 -5.129033919762363558e-01 5.074013851604601832e-01 4.500180433118839418e-01 5.136304286058210877e-01 5.901246365189735110e-01 9.090403504798368894e-01 5.564133368027491811e-01 5.282581519525111347e-01 -2.651255001121805011e-01 -8.753723158461905740e-01 2.305911969564802266e+00 5.065692681305988820e-01 8.979169221816470925e-01 4.261178812268699434e-01 5.739803128276743660e-01 3.833862240719062564e-01 1.508035317107335738e-01 5.158889997843564279e-01 5.471683413255401529e-01 -5.247683540839188053e-03 5.126520054394758663e-01 4.340122591446703981e-01 5.124440182550182854e-01 6.195410942550115818e-01 5.206068256700796537e-01 6.164228118098644682e-01 4.109291079619504239e-01 5.254219045537773525e-01 4.379786493998111818e-01 5.094870539638901574e-01 4.146715967503780131e-01 5.372546229277810337e-01 -2.679962384170372913e-01 5.128336008338225671e-01 6.424251507986054044e-01 4.936560521241127875e-01 7.586887275099153394e-01 9.186987387184486487e-01 7.297280226369267098e-01 -6.014994245098318482e-01 9.851845933526366395e-01 1.809314225072918392e+00 4.953098782977358172e-01 4.638036762458931928e-01 1.080156291437097460e+00 5.676273829950910788e-01 7.586576605761126135e-01 5.148172055783466483e-01 1.841896783348391908e+00 5.199112555079605791e-01 4.301479247459088495e-01 1.234645486490807187e+00 -6.261525924164484946e-02 5.442993889913116945e-01 -1.600076572791100937e-01 -9.660533549843963730e-01 -1.696186707678023764e-01 7.731224493003784337e-01 5.724632730516118206e-01 5.091962412089168222e-01 -3.260503516132177704e-01 4.980473221506899750e-01 5.329587894171390616e-02 -3.866932611304160217e-01 5.069223372854899656e-01 5.177153236777441991e-01 5.277456474639224959e-01 5.463119924573280883e-01 5.199957876707217430e-01 9.116375208647403694e-01 -4.176037340048177615e-01 5.150371538131425231e-01 5.386262445091160034e-01 6.077898172405584720e-01 1.168789607720695622e+00 4.952105357615485537e-01 6.571231622494153601e-01 5.141372862772894958e-01 4.517527267142186498e-02 -3.676124971072209369e-01 5.408458813658797437e-01 5.499785303422100036e-01 6.819820875288916673e-01 5.192205575218870051e-01 3.513803050223658908e-01 5.193889269120539609e-01 5.141078929316914570e-01 3.766276525312537982e-01 5.241023638371841153e-01 8.396188245994241628e-01 2.564176283891800523e+00 -2.445934092041695540e-01 6.621592430276089791e-01 3.311126451560255091e-01 2.077305164736149012e-01 6.673813670890352823e-01 -5.715205186648539964e-02 -1.546927740568528886e+00 5.236547451471693648e-01 2.625935266363406573e+00 5.408308518456294012e-01 1.588561697908391079e-01 1.658366313925357660e-01 4.967232971405144415e-01 5.826978064429851889e-01 1.565318641912693876e+00 4.997941423256254123e-01 1.260944169946126292e-01 4.270240168802920122e-01 1.709444786048665677e+00 5.997045366946966993e-01 7.647338559297852667e-01 4.983931201979819869e-01 7.390446798819247931e-01 4.600337437823209807e-01 5.717579358469357942e-01 1.923070195834919796e-02 5.180997857755615943e-01 5.099022425862891339e-01 -5.756886228763259394e-01 -7.411840978677378122e-02 1.177018038645801123e+00 2.377589240414549054e-01 4.837716592990266573e-01 7.042648822021693178e-01 5.496017543606751543e-01 2.007941464402288378e+00 6.844922176853651674e-01 2.347572226242373300e-02 3.139475505908424502e-01 3.957177026796543928e-01 1.123593429050811610e+00 5.053420936639039240e-01 -2.752577878102692790e-02 5.061474079774195278e-01 -1.435320021266401833e-02 5.280317923077617603e-01 5.124082061383794517e-01 1.034497492441870375e-03 -4.594047294830732459e-02 6.668561084950408446e-01 5.752451714113088199e-01 5.780320737750527238e-01 2.386648144380876246e-01 4.397586600176180971e-01 5.056393404475909570e-01 5.178448516995962647e-01 5.418579989101494077e-01 4.793187894320866671e-01 6.072459302768485889e-01 1.017791142702248131e+00 3.139199439611896736e+00 9.385273569748990852e-01 5.197808477052812126e-01 6.216873471423878250e-01 2.151369919478215154e-01 5.134876293173681328e-01 8.501005602414644091e-01 4.995624257725035933e-01 1.316802850043780504e+00 4.500166808353395775e-01 -5.807236870269411044e-01 -1.809829382916787119e-02 4.092251781980914549e-01 6.137085832815946107e-01 5.332438726144365093e-01 5.108835208412063622e-01 4.630197868974422065e-02 5.021409412180335430e-01 4.245419615735385732e-01 -3.714270825301692280e+00 4.804713587939256070e-01 5.238843854889864149e-01 1.130403737070769354e+00 5.167854237021312080e-01 4.963892368050235593e-01 6.819087360572075873e-01 -8.907635552517527699e-01 -5.028821354676955568e-01 3.823114318075112456e-02 5.147153942475909405e-01 4.603717287404278657e-01 2.159368335124160765e-01 5.120303384894585585e-01 -3.398244675171379625e-01 5.985690608844859151e-01 5.115350640331759458e-01 6.953474578491619651e-01 5.458303868200262698e-01 4.710060997410187023e-01 1.538639924713254559e-01 -7.612538094007094136e-01 6.554700304029534852e-01 5.327217290337128430e-01 1.597627885370297707e-01 5.141733134575715569e-01 5.604109976970396145e-01 5.352154517543293855e-01 6.712343030504351882e-01 5.745173783138488588e-01 5.444988654253084537e-01 5.015270334127697183e-01 1.809314225693672284e+00 3.593998538887436811e-01 5.446714316111975762e-01 -1.237948422171686186e-01 5.489472274817143171e-01 6.305143155003375410e-01 5.280499732553279868e-01 4.915901700602507418e-01 3.559992956885494886e-01 9.403037453904223852e-01 1.207883708978945370e+00 5.562912190697199000e-01 5.823198755289642481e-01 5.965027514344236614e-01 4.742564071575882112e-01 5.107961710768488262e-01 5.171629725997154425e-01 9.851720712017744130e-01 7.109657435616351107e-01 -4.579585149371823705e-01 4.555722651763847719e-01 9.113962989262779368e-01 5.164612035903822784e-01 -2.187349067511792228e-02 5.268667452367971071e-01 1.365633604736789852e+00 -1.388814965102949939e-01 6.068556524275644515e-01 2.426057056295677083e-01 5.015081819441140620e-01 8.438458699888025105e-01 5.183391233727457914e-01 3.704281370451524835e-01 1.402223565718553777e+00 4.725597278751860197e-01 5.292804956698724528e-01 -6.680645754898189015e-01 4.489825498420034200e-01 1.041495048230822507e+00 6.077369826626672911e-01 7.906549423904866980e-02 9.734930813646039960e-01 -3.854112105228513913e-02 6.649638322440905025e-01 1.626158352863938283e+00 -8.599388266292243843e-01 5.766011081158677332e-01 5.167263811532066820e-01 -4.607206083248997497e-01 3.097110746739887843e-01 6.035137952873612655e-01 4.884055906460318952e-01 5.045590898675469393e-01 3.825070932372683363e-01 2.632036573473877095e-01 3.446926068697595547e-01 5.745295567933368375e-01 5.152145154195137966e-01 7.232085430435415685e-03 -1.161237603663153317e-01 5.082272595471977183e-01 1.064342202507342794e+00 4.741042150437760894e-01 -5.761798513517739639e-01 5.299155068392460421e-01 5.194826005054168361e-01 5.427870818732331015e-01 4.286716697620695377e-02 3.300582373694019855e-01 5.167925512511022390e-01 5.061087648882094392e-01 4.517709120835946557e-01 7.094403775012164681e-03 5.345398897297956031e-01 5.205205524559464170e-01 6.217013695069167900e-01 2.089779033576057543e+00 3.004436084684555027e-03 3.858150799646879459e-01 5.400177035255218083e-01 1.836103760174838007e+00 5.728482707743970392e-01 5.074330124151182897e-01 1.837663552747872270e-02 5.545222899211879053e-01 5.087425907399273362e-01 4.762250329435865348e-01 3.841321879142409190e-01 5.005151382562067486e-01 4.537230354104976326e-01 5.439498244244903580e-01 -5.373553038732128417e-01 5.160625782905331471e-01 5.422588046098980596e-01 5.459096443592768022e-01 1.128775741943776501e+00 5.263617592409235435e-01 -2.452413884102651875e-01 1.091402279285345944e+00 -1.275538817462364527e+00 -5.263833497916809989e-01 5.251939445135423989e-01 5.178169654337415606e-01 6.545328396155866146e-01 5.183995454721650464e-01 4.267384378883584128e-01 5.784350498181703992e-01 5.545222877703821496e-01 5.157301387957318184e-01 4.971526793857302673e-01 5.905006353179019785e-01 5.149181203640339488e-01 3.007455437730162662e-01 5.039032167540679064e-01 5.319044017105508670e-01 3.874084281382974004e-01 5.304347886852031069e-01 5.134258875980453052e-01 5.494746410496686995e-01 6.499296809496127869e-01 5.190456265491348864e-01 6.948522290346013097e-01 4.961143621061405717e-01 5.049651612197070261e-01 5.414923718977849854e-01 3.796813717704328184e-01 3.965532886268003931e-01 2.426988954393569653e+00 4.752189391278822672e-01 6.012142916092766409e-01 3.021583568928526975e-01 5.826237638448592548e-01 1.113849890628899386e+00 4.412128243482822398e-01 7.011953426944251833e-01 5.177012479047068405e-01
7.051468705548660232e-01 3.222612148062535820e-01 4.321488142318710701e-01 -3.348527169499843862e-03 3.106338912960918686e-01 3.248228485849222746e-01 5.343562306832368991e-01 4.239271682964254606e-01 3.008581734406823860e-01 3.250326244179196911e-01 2.057248158963587592e+00 1.718973474376227273e+00 -1.448521306821585197e+00 6.140339938246358598e-01 3.135066349909809702e-01 4.380425811571507233e-01 1.313391617432050074e-01 4.367267696358647644e-01 4.318658787847649561e-01 3.167306944621151032e-01 4.516726390252877588e-01 2.121761843628827027e+00 3.801850081767614298e-01 3.654532498294872367e-01 7.339259629943396535e-01 -2.071644767447184676e-01 4.380595255852396397e-01 2.119218334514137159e-01 2.778389050655328263e-01 -8.890865386314971142e-01 3.805061222208706018e-01 -1.383783656857276445e-01 2.889721316368963899e-01 3.294583238726160324e-01 -4.206583649829210847e-01 4.820670344538054430e-01 3.239450723175303359e-01 -3.642558349676539575e-01 -3.247423146943450689e+00 2.826521898629997809e-01 1.160582325715677321e+00 1.429288533049393461e-01 -1.668343763481482667e-01 7.917961872754994967e-01 6.041562417621546555e-01 3.280426908437176214e-01 -3.006139208304212541e-03 3.350247933148856050e-01 1.935853579803785141e-01 6.602071974956613687e-01 6.788071189435677111e-01 4.855142720404160284e-01 -2.094941270742657624e-01 2.185859258559981200e-01 6.010942750677134017e-01 6.524285524663431257e-01 3.466312422959033079e-01 2.457114283903633067e-01 3.462688159141229516e-01 3.583132804075564448e-01 4.277428048732633825e-01 4.220486986839466215e-01 3.120005879343675237e-01 3.801849894733355106e-01 -3.457700852547715420e-01 1.506004184372868315e-01 3.249775023212330138e-01 3.219192880769347065e-01 2.068380538613034669e-01 7.210957148716575782e-01 1.283561637613248874e-01 2.536944001308805152e-01 3.315351675357993688e-01 7.275948184754584824e-01 1.922742283970318322e+00 4.682415279105509587e-01 4.732099831452780681e-01 4.813430490770464476e-01 3.116915367268869863e-01 -1.340569762282458832e+00 3.168114694993290903e-01 5.878129281537117778e-01 2.336400686250563741e+00 8.899689237567733058e-02 2.647755862837551377e-01 -3.876782883943419300e-01 1.300627695153010466e-01 2.668169316118031431e-01 -5.781631885214868483e-01 -8.913403421049768127e-01 6.047230931484131045e-01 1.583596405185158540e+00 6.998382565479581430e-02 6.870669736504438907e-01 3.119900365084070648e-01 3.250699842455148647e-01 2.676711017761954081e-01 7.598323972850065111e-01 7.376152722417339547e-01 -2.115727396428535856e-01 -1.751333578632675581e-01 5.481089422236509051e-02 2.588787801317186665e-01 2.145640443174965384e-01 -2.819668517412084879e-02 3.114797470328742435e+00 -2.875633554037755335e-01 2.022134575708696980e-01 1.173002080899129135e-01 8.101489624902563635e-01 2.485942335092651001e-01 4.860814480343356725e-01 1.636489545581950311e-01 4.289458074441077629e-01 -4.824074071299795929e-01 2.204660787975080971e-01 1.689496216639806425e-01 4.341972859894400183e-01 1.086963060805273384e+00 3.134977602057378299e-01 -1.455322196534659218e+00 1.879923220203310874e-01 1.266542041387682116e-01 1.398747744685689298e+00 3.222274840615004798e-01 2.173745868745729837e+00 2.804056650856828203e-01 2.599946141166802893e-01 3.035760933500697978e-01 3.006077692345238694e-01 3.373558304481390491e-01 3.097100969185398456e-01 6.756773331502677893e-01 4.194427187478279029e-01 1.705659043670411101e-01 8.646579999647849846e-01 7.154398612089929443e-01 7.184230951581342950e-01 -3.352000097408791013e-01 2.054822899009991488e-01 3.384361930904822291e-01 3.217762153098056577e-01 3.138453286312732904e-01 2.532051168803817753e-01 3.137934999114403434e-01 6.960147038778027317e-01 -1.541644413894072418e-01 3.190005583274471146e-01 4.424781069635566055e-01 3.997475580347467083e-01 -2.384569363998773339e-01 2.429124743428019706e-02 3.280387243126877128e-01 2.669696636995742001e-01 3.139248613134055232e-01 3.020311971126421469e-01 -2.382052964442633147e+00 4.582748667186535840e-01 -5.979966730205273917e-01 -2.164864331987557400e-01 2.062295283312793326e-01 2.921485769635990271e-01 3.227414347636020087e-01 3.102346148205580301e-01 1.202072236692026397e-01 9.021260757620835902e-02 3.166861404926683554e-01 4.562085959281352854e-01 3.829081171058496547e-01 3.223958872255479613e-01 1.865480709177637364e-01 -2.086119595311071266e-03 3.280984380032425096e-01 3.104267173150735415e-01 -2.504562867152967609e+00 6.871052287114861601e-01 6.027978087558091280e-01 9.571478376802965427e-01 -4.571873532419341024e-01 1.172192666262814820e+00 9.858812260020381746e-03 3.067101005090808741e-01 1.237935550458300504e+00 3.111634876256071935e-01 3.089133105206487429e-01 2.653480533479243841e-01 3.724334935579600714e-01 2.876332529891010847e-01 -4.811605002091806638e-01 2.852951356994429255e-01 2.719118641645605350e-01 8.147922593514720369e-01 2.991489812460580433e-01 3.122124312409350066e-01 2.368424886911075222e-01 3.075045340872468169e-01 -1.657992402218558148e+00 2.946459747648737526e-01 2.736661570498477025e-01 3.482506757405931519e-01 6.601668322446184456e-02 3.196865041126359386e-01 3.852067294814157661e-01 1.403495759356921668e-01 -7.791318936191935496e-01 2.736661681997443196e-01 4.736596997713786172e-01 -5.146753112738722269e-01 3.614231032487503215e-01 1.775313713436206531e-01 2.462743512494289522e-01 -3.253743843229607080e+00 4.491079208255923105e-01 9.256479620238746708e-01 3.197019548192277516e-01 3.110186208452351830e-01 3.108294770133717688e-01 3.243729270538916465e-01 3.071610761773702625e-01 3.091596863199453371e-01 3.510193664068131381e-01 1.188806923210066757e-01 6.656144510622155064e-01 1.093217980763734332e-01 4.950277595450166546e-01 4.903415441598428237e-01 3.963731392214375759e-01 -6.734975413425863255e-01 2.289590771497643562e+00 3.958528272135028447e-01 1.241114522949662735e+00 -1.390896216844768496e+00 3.151370164556983600e-01 2.299580085616725889e-01 3.537423732966816781e-01 1.172259051041800948e+00 5.103686907429052511e-01 8.146123039646745445e-01 2.837495479941377075e-01 6.691587996041440389e-01 2.742471505649852759e-01 3.130211906567736402e-01 -1.170282699151724115e+00 4.062310755222329761e-01 3.085006506046608088e-01 4.924547131945441469e-01 8.948988042877422666e-01 -3.629263331987035435e-01 3.155681983301455773e+00 4.950043626541608677e-01 1.264426270090444948e+00 -2.054287046903401082e-01 3.080416893846197324e-01 3.801841239870086264e-01 3.292388401110054041e-01 2.368196999713637341e-01 3.748228827082653591e-01 -1.288832603218159900e-01 1.189536558861762627e-01 5.618701379331970669e-01 2.614084980870249875e-01 9.524382202436343370e-02 2.467150364055362699e-01 4.190332240813707809e-01 4.277427859937755761e-01 2.599023025350687965e-01 3.236256468019274912e+00 3.675613578694831851e-01 6.533346729265263608e-01 5.361868845287186547e-01 2.231498099614197816e-01 4.279049244960398957e-01 3.064628845570191440e-01 2.924856177710299376e-01 3.109405817760890200e-01 -5.675434706986435263e-01 4.463320185698567699e-01 2.853403825508280534e-01 1.336802831419983406e-01 2.922404356715572749e-01 1.534909217959916194e+00 3.252378843297638045e-01 3.011830340897685421e-01 1.996153161811266896e+00 5.015972558208363630e-01 2.759734963305576771e-01 2.638927216389156949e-01 3.456837629584154081e-01 2.204655990114235964e-01 -2.060590815351038607e+00 2.599760294775764202e-01 1.537066284426974683e+00 -4.321475707454375953e-02 3.516919363671485166e-01 6.901909692817850273e-01 2.982241952689371201e-01 -7.225213817320490506e-01 4.065661650305538166e-01 3.067949420691222229e-01 4.424506543474920339e-01 -3.914305930176915083e-01 3.012162020266898610e-01 -2.244417042674799134e+00 -2.111264154395759048e-03 3.136528042731908106e-01 6.018957193478599033e-01 3.073048353459629234e-01 3.114717162253499150e-01 4.807626797573051336e-01 1.909259824660310967e-01 -1.043232995802974850e-01 -7.646109009874144657e-01 7.140235687660438559e-04 6.869175411935621867e-01 3.142508751584063842e-01 5.004888982164564792e-01 2.962378450375036665e-01 -2.431368587520845500e-03 3.099817781331247191e-01 2.441614806227428325e+00 6.896335767131949179e-01 2.468869335939977705e-01 -1.158657428671143741e+00 2.255108769380414768e-01 4.685835653884915963e+00 3.671130496515932484e-01 -1.532632887203752847e-01 5.703855604668762735e-01 -5.584146601137014443e+00 5.172293247981741837e-01 1.548876551953189074e+00 3.107299981005504641e-01 5.332626780249939413e-01 -4.443468858971240110e-01 4.239925270181329475e-01 3.117344429233843139e-01 2.858683385148112488e-01 2.329254225878137630e-01 2.930708620647961116e+00 -3.729268038981907174e-01 3.169698216793809809e-01 -1.915557472630496028e+00 2.972439607454315791e-01 -3.642558313796404046e-01 7.498479354497823435e-01 5.281454104455614029e-01 2.720266303106074757e-01 2.917207003677346755e-01 1.275307276069543194e+00 1.445154814201859150e-01 2.736664199587049429e-01 4.062277409394006722e-01 1.403495744610424034e-01 3.082841348209298671e-01 3.925422865819636065e-01 -6.116952149731921251e-01 3.138583360812361445e-01 5.523662370336949179e-01 3.879442208776122114e-01 1.677515142393046776e-01 3.122934599368896724e-01 4.859520064220649860e-01 5.281453816356465047e-01 4.418174629697039779e-01 3.134877955822831797e-01 1.847082586557540484e-01 4.172322178910819468e-01 3.418343561126152785e+00 3.035705346110394443e-01 1.349108569959984738e-01 4.277424173998682355e-01 8.457922056463873517e-01 4.672040607761629993e-01 -1.940601114288398599e-01 6.830622784777017342e-01 3.243066718641913759e-01 1.185267408370199171e-01 4.063815454802196525e-01 6.696116324958135690e-01 5.986129356480012209e-01 7.848908063464931084e-01 8.148586719873507356e-01 3.620163256996832279e-01 1.403495759969992651e-01 1.403496591473940569e-01 2.319916428469131764e-01 1.591633187349911771e-01 1.119971001558942136e+00 4.016410988998985743e-01 3.018215692578998244e-01 3.254331435905573056e-01 3.081559956122590371e-01 7.666957154100848548e-01 2.736664908409764951e-01 3.128064731517036789e-01 4.417009407029608425e-01 2.514577951637826381e-01 -6.353188690790986248e-01 3.088132220412714291e-01 3.031809344000264139e-01 3.810945439992022288e-01 6.900647380356788041e-01 7.108428583816280844e-01 1.403495754051088951e-01 8.678611897168944656e-02 3.189381677093581224e-01 4.853431939805216144e-01 -5.920180958851103403e-01 1.889272544351439376e-01 -3.512665141753645415e+00 1.966089073004842147e+00 6.350344607364861726e-01 -4.615171140538573136e-01 -3.450269159855983217e-03 2.054104127451741757e+00 3.125239461939124386e-01 6.412070551252706530e-01 -9.199780189384668821e-03 3.453388819996653925e-01 4.299379979721272282e-01 3.235721722813647561e-01 -4.848119137659164801e-01 3.158358527281172057e-01 2.058668292610576156e+00 3.258910316291419584e-01 -4.291976566976554164e-01 3.226733782981524024e-01 3.201928480326560744e-01 -1.454665429425632484e+00 3.093818312456127484e-01 3.629068799930137423e-01 4.031430612360732968e-01 1.549750626779873297e-01 3.151112898474457413e-01 2.115168690634992299e-01 3.154711711298864296e-01 -1.610185076640521240e-01 3.099687632670555804e-01 1.093732544110747745e-01 3.179002830649328981e-01 3.154286248851080332e-01 1.479296863712351376e-02 4.105850724152063091e-01 5.689343569273378476e-01 -1.387418028447810592e+00 -5.796347826185720420e-01 -1.119656819052854690e-01 9.616499522869821626e-02 2.339310707033244452e-01 4.302555100917455633e-01 3.620801499817292712e-01 7.304311870401910545e-01 -1.256166372502286466e-01 3.077865804130099914e-01 3.285881420490193716e-01 9.357414710226429067e-02 -1.607798782781169611e-01 3.347874640059140816e-01 4.572365527583401312e-01 4.795256737484442366e-01 2.982380228765844077e-01 2.674471019365519120e-01 3.156492422935287534e-01 2.528167819699870256e-01 3.072633203169381488e-01 5.027098653380879245e-01 3.973533685959483308e-01 3.101284902759366968e-01 6.829052058326510188e-01 3.326928399327926389e-01 7.365554631083901516e-01 3.968925585874425593e-02 5.324873225903796747e-01 2.491904068250678783e-01 -1.450818396062659721e+00 3.170072790991744216e-01 6.440601828805334605e-01 3.696860513934962511e-01 3.223086590876559354e-01 2.492224331425792472e-01 2.042458984796318988e-01 6.857503139317562280e-01 3.134279656157970551e-01 3.972465611596743829e-01 3.114903696402649413e-01 2.810857661443934008e-01 1.995267559134508983e-01 5.051839890717970682e-01 2.964565127061631333e-01 2.192782172583873923e-01 1.113754357926381305e-01 6.655618131370072410e-02 1.638003041160083662e+00 2.274419906824920179e-01 3.636785150543743739e-01 3.819186453985378704e-01 -8.440341260036634541e-01 3.819577304465692769e-01 2.787079249165833050e-01 4.370822664802381241e-01 -4.378416766619180889e-02 3.024185941705282987e-01 1.597284217517245697e+00 8.909192901864865233e-01 4.361075625698362379e-01 3.201431292947132801e-01 3.527097976976076299e-01 3.388542225040883649e-01 9.212714018027451379e-01 3.037381587368223279e+00 3.134503797545012405e-01 3.320554315409465773e-02 5.907143164578556593e-01 -2.025690517814037472e-01 3.077225583803436249e-01 3.192431353463273114e-01 1.070548473123773325e+00 3.124959199662641907e-01 -3.260450206349220781e-01 3.801518417768210423e-01 1.260973680756823367e-01 6.423755238482331542e-01 1.771179926603348331e+00 2.783223030749899518e-01 2.580793717690577638e-01 1.658769556097531073e+00 4.021275756060916362e-01 3.061549104979837677e-01 1.929652280251991092e-01 2.592180762605040822e-01 -2.811524387244281921e-03 4.960038865625002735e-01 2.399617730498916635e-01 7.293083877361163925e-01 2.675568662465336867e-01 2.583343028150261733e-01 3.085422271221027191e-01 4.374698008136780891e-01 3.519809904490230901e-01 2.580530746246998963e-01 9.024483135555063651e-01 5.095025201596008468e-01 4.626075314902745594e-01 2.626542410621537371e-01 2.701723933471391059e-01 3.138751277315491306e-01 5.880461607293088200e-01 7.726131364724150297e-01 3.586216638376452104e-01 2.999334260425540744e-01 5.127482357750088315e-01 3.092827200891742345e-01 7.241643762420220121e-01 2.487370652294888795e-01 4.598659982536582036e-01 -3.138960480601206138e-01 3.109011841162793166e-01 3.086564516958266724e-01 4.298776458507110876e-01 2.743219353969177932e-01 2.853393478892589652e-01 1.784898710406858990e+00 6.437942451990395776e-02 2.670250734396229508e-01 -1.843441386829202111e-01 1.642157962828883155e+00 1.150289803077690021e+00 4.541709672792722252e-02 -4.543018089270746684e-01 4.148745935977899424e-01 3.421122150868449174e-01 5.105651933391233133e-01 3.125916504764658654e-01 3.131380198887809829e-01 2.017543166955293454e-01 3.418305028728915174e-01 3.663303669749787828e-01 -3.373825346922013253e-03 -2.059839920365290344e-01 3.607523855880603314e-01 2.890156024998516426e-01 2.205163140160200097e-01 8.692221864169866752e-01 4.277427938004018104e-01 2.524543772924903173e-01 8.429084735788940907e-01 4.758573570118324048e-01 6.048638664993275516e-01 4.614552689959190990e-01 6.922827860677136513e-01 1.470966671108155266e+00 3.498209114814739285e-01 2.080900870692521831e+00 -2.345367034333759038e-02 1.442070980222654730e-01 3.107020018420038610e-01 2.601046658798685796e-01 3.502117217254075432e-01 3.223849270439446690e-01 3.149638665859962883e-01 3.098790504263507217e-01 3.615891459684203446e-01 1.944209284597417930e-01 -3.173100826585990575e-01 2.459824737445633902e-01 -7.312338442275254091e-02 3.165009879420018213e-01 4.423958803608662449e-01 4.277427937470500985e-01 2.133627143013425709e-01 1.981012287920700388e-01 -1.241689379277700622e+00 1.955192508655141159e+00 3.098934610119848942e-01 -7.250336797656359300e-01 2.974065099614147112e-01 3.071771718074532420e-01 3.116971515259268077e-01 -4.763255910252909509e+00 3.525117868014145284e+00 6.265669804639925067e-01 6.217732694264318377e-02 3.196341675650125058e-01 3.130765707913499840e-01 2.853579030500973390e-01 2.612212589214286229e+00 6.225970722843816585e-01 3.195349779503005583e-01 2.204659605402720934e-01 2.736330479438098817e-01 2.676548228436336219e-01 8.655382052748802346e-01 -3.765734606485812153e-01 -1.183174872491172813e+00 -1.211233907189989134e+00 3.103060564452259085e-01 3.098086612328115330e-01 7.219570053061262760e-01 3.665842638536702669e-01 1.381861700658843173e+00 4.763051765197955922e-01 3.072200527284895677e-01 3.005759599222069811e-01 3.335605810764453727e-01 3.088179981684565645e-01 3.166941036271045395e-01 6.472531881669012499e-01 2.707013424948016000e-01 6.564797710654792784e-01 2.245383492576216999e-01 3.799556238423044963e-02 3.167388022272258907e-01 1.873593967427805429e-01 3.560934098392672387e-01 2.759639655586192397e-01 6.563040291232734580e-01 5.281453933379791632e-01 3.965583022781574707e-01 3.255372372255763147e-01 3.118835908039762628e-01 2.643505454848144032e-01 1.597264088066143728e+00 1.880149101398101319e+00 3.160682674524697422e-01 3.669207903306999641e-01 3.069236868073110247e-01 1.620328175752491773e-01 2.300617012710365616e-01 2.978306099196204593e-01 2.920110527888374885e-01 3.240719522031402788e-01 7.988666540253274162e-01 8.798158898110370885e-01 2.333731622540365647e-01 1.862207328716283916e+00 2.635201209257473365e-01 -2.132514661983738735e-01 -2.730352776244944768e-01 -3.142556437991430029e-01 3.083929103937765870e-01 2.595825767841288267e-01 7.093057556586680468e-01 3.159998042229934523e-01 4.589648005248102569e-01 2.903164322252528851e-01 3.659591193438887502e-01 3.737639894051946188e-01 -9.970388332073806120e-03 1.018381638381665066e+00 3.345484448598943228e-01 4.310808649373878421e-01 3.164507141061722040e-01 3.590539328036634892e-01 2.971150311798883559e-01 3.914902652791442672e-01 -1.005774614016389790e-01 2.228161449768739089e-01 3.268152181511639331e-01 -3.015757638064282386e-03 4.277427598538307008e-01 1.108744309899145186e+00 9.566935551168718188e-01 -7.300411487334557137e-01 -3.642558350324397454e-01 6.540203870398298980e-01 -3.313038762432362283e+00 1.567791173822048689e+00 2.676540495377184303e-01 -3.768818920012961381e-03 3.104861208476300538e-01 8.868973247145588434e-01 3.124137578787852809e-01 4.062310179195439130e-01 -4.367090111187399426e-01 8.244529924437441482e-01 2.927208806752125692e-01 8.780687286548528592e-01 2.084381107131492161e+00 -3.764633965789225267e-01 -1.456395543763441491e+00 2.391149203629748254e-01 3.240002050682947443e-01 7.646436627879832360e-01 3.422089169368342509e-01 7.045886761085879968e-01 4.691173738933880344e-01 2.130190098965785983e-01 3.195058884000245847e-01 3.125490817660021015e-01 2.350451748477578595e-01 3.082470714224569419e-01 1.404575483915437628e+00 1.624697805031842357e+00 3.029563203102210167e-01 2.837388303585214877e-01 1.163882774339285719e-01 -2.424327857026426780e-01 2.116964553570955254e-01 -2.243686705994222749e-02 3.114432004452808989e-01 7.056629318213166746e-01 -4.835769484757137526e-01 2.785592996715842706e-01 2.878948609152127691e-01 1.530709421793725045e-01 3.170736696034114344e-01 2.292238949498793532e-01 3.084190865806388238e-01 3.101741014154262288e-01 6.732182635313960911e-03 2.719479420919323487e-01 4.375921469392522467e-01 1.118004922121738520e+00 1.103636053090534253e+00 9.285637403971711556e-01 1.971495646245407518e-01 7.816703848835202528e-01 1.404900390762738871e-01 4.786592387900450163e-01 -2.116720419934075892e+00 3.169091614606668883e-01 6.563519369579075002e-01 2.804295144743876311e-01 9.539814028768005549e-01 1.367425656163716585e+00 2.204660792655734336e-01 2.663524283459463016e-01 3.739763766283569768e-01 3.207207010393929303e-01 5.518452228738082166e-01 8.817300088276366354e-01 -7.815603835357610718e-01 1.820660030954448783e-01 7.513658051181154596e-02 3.310622960733191067e-01 3.421302513716029670e-01 7.703215212411914647e-01 -2.125286147707515783e-01 3.988490037378796815e-01 3.113134065008681395e-01 3.480744097043462215e-01 8.905819562617446339e-01 4.277582082238872707e-01 -2.123788549973037454e-01 8.592072582588167196e-01 -4.537946251156198263e-02 5.709748171647904824e-01 2.593936680521509719e-01 1.284772100414905749e+00 5.757273899027484099e-01 7.307292920626754507e-01 4.387321065565242817e-01 4.866096114650038662e-01 -5.511904261264626292e-01 2.488769142058741002e-01 7.618880384195726441e-01 3.050347665240602524e-01 6.270750199757890719e-01 2.601804296013902618e-01 3.139808335317235688e-01 7.267597114276713732e-01 1.427354211125478611e-01 -2.044545626001710747e+00 2.205177785666612433e-01 2.654452247765212158e-01 8.346116990744327779e-01 3.854460607047328624e-01 4.023594071078142043e-01 3.504801700943458997e-01 2.992486875853983541e-01 3.843224160247332155e-01 6.236675704673064896e-02 -1.620245844111255273e+00 7.536153768509684658e-01 2.530992192791868267e-01 3.199681955347279949e-01 2.046594088216072693e-01 8.225398539808733700e-01 3.096598283810584329e-01 -1.432086573231108051e-01 3.310260464946261361e-01 1.120155408483457071e+00 2.665898480737145526e-01 4.154950422131823418e-01 1.054217967043771909e+00 3.766275302410880821e-01 2.776215637499694466e+00 3.419012237877800398e-01 3.238882430153224301e-01 6.963016994442423613e-01 3.214621102850296896e-01 3.187316413827277484e-01 -2.094599491511471179e+00 4.244959930478222065e-01 3.336005332326671402e-01 5.156680626646147347e-01 3.174031199907734746e-01 2.222601063950566669e-01 -2.100530350648090183e-01 2.049558850557632095e+00 -5.197438705678211202e-01 8.284941214149053046e-01 3.113700766607850334e-01 3.173978569543925987e-01 8.053143826548729844e-01 3.570477435228055496e-01 1.330872375915029160e+00 1.917766173075297342e-01 3.434355843467642444e-01 -8.831095014853577174e-01 -1.332419187858887299e-01 -4.324473291237637129e-01 -3.939091691417994756e+00 2.947354897784918659e+00 4.035060791482509429e-02 3.116304131146695466e-01 -1.623955918600571868e+00 3.062323760146102303e-01 3.263696963289262065e-01 2.809164308362231965e-01 1.588008311176732634e-01 6.403557669574888589e-01 5.982767394398055272e-01 1.040413236574571521e+00 -3.642558356517177076e-01 -2.255485906170147381e-01 2.202593324513207051e-01 -1.185622643150542554e+00 2.640090566339073352e-01 -6.442782227064717260e-01 3.108462357230003525e-01 4.628558629805036850e-01 7.305958922357738694e-02 4.443802296359189996e-01 2.678552056254870917e-01 -6.609821628424261686e-02 2.155437056738732093e-01 2.934988152745684475e-01 3.612982183396886704e-01 3.044860876709551967e-01 3.068402165775218071e-01 -7.302341712849533817e-01 5.281084207580818424e-01 1.537090112939811570e+00 6.538374846391373230e-02 2.387813739347033615e-01 3.535100752562344018e-01 1.209341775233683025e+00 3.253716825891092568e-01 1.255280791713072053e-01 8.921856269364913938e-01 2.811905960367441226e-01 1.859152411465252674e+00 2.787279105548732816e-01 1.274560995559666177e+00 3.151898068510877171e-01 7.362789500078373850e-01 1.349704391835399253e+00 3.445255825679101047e-01 3.821058808144631169e-01 9.280199193677799441e-01 -1.881477843391103077e-01 -5.799935317353784731e-02 2.015361292378896330e-01 3.006425163218207630e-01 3.545971945544563741e-01 1.431712560881673868e-01 1.692496231819792252e-01 -3.673333630716861253e-01 1.292542841040697166e+00 2.839527468167504232e-01 3.075348338088256250e-01 -3.174344389173731074e+00 5.285026009101666533e-01 3.035210291758811407e-01 4.162627784559879141e-01 4.109607660972243171e-01 4.766571699837190423e-01 -1.080675345001833154e+00 6.174101744595500429e-01 2.826063191270759556e-01 3.147337893831725908e-01 1.031981395814603575e+00 4.569110716359197633e-01 3.152483284147379883e-01 -1.400271569510183500e+00 4.084627671954640937e-01 8.904303161276188039e-01 2.965710210038522976e-01 3.053350417527385119e-01 3.553931537097427262e-01 7.109030448615697440e-01 -6.764874812322944908e-02 3.099622798994910999e-01 3.300823732496526164e-01 8.209543992901603693e-02 6.750766167835368092e-01 3.120700534787098634e-01 7.164886499933781350e-01 1.713420538431557616e-01 6.892156966402493978e-01 -2.286945236715884344e-01 -1.506735349747369668e+00 3.115786693030692112e-01 -1.794809928073672761e-02 3.373317371317579583e-01 3.792785597570312306e-01 5.454808744051115738e-02 5.281453980377399660e-01 3.172477725389653003e-01 8.388326751804002501e-02 4.492939063212428863e-01 2.526891265963621680e-01 3.190816657959984481e-01 2.715594112189459453e-01 -8.345237868599579834e-01 3.054957018250190059e-01 3.273267386994726524e-01 3.195365408272832219e-01 -2.137117726319361921e-01 3.058546183567577015e-01 8.161343494522321773e-01 -5.536149232059783820e-01 1.113037502263650502e+00 6.108431901660942298e-01 2.483486561675207205e-01 3.107871521044912599e-01 -2.041581787683200755e+00 3.335844563623647785e-01 1.978827549614411985e-01 2.610996156728578321e-01 5.281454386162413028e-01 3.133701516670125975e-01 2.892670930905483773e-01 8.145310788883539099e-02 3.078587841048815443e-01 4.358673427752292606e-01 3.803201362360519866e-01 2.886666998409021523e-01 2.926020265680885912e-01 3.065646307650271574e-01 3.145503331655491452e-01 2.661368126986511928e-01 6.627744121443435166e-02 3.168508026944961142e-01 6.128429766186268557e-01 1.914253539994449638e-01 3.189029353419919888e-01 -1.353170397613727427e-01 1.604185999941210583e-01 5.755445094004667528e-01 4.454290268545306297e+00 3.386332864769593942e-01 9.602010869600020870e-02 5.507500449158290179e-01 1.926023594843314091e-01 1.550602618995830184e+00 3.547225126628715808e-01 6.474848987206435202e-01 3.108893710236139696e-01
