# 
#                 ----------------------------------------------------
#                 Data from a 3D direct N-body simulation. 
# 
#                 rows are i-particle; 
#                 coumns are :mass, tag, x ,y, z, vx, vy, vz, ax, ay, az
# 
#                 NTHU, Computational Physics 
# 
#                 ----------------------------------------------------
#                 Time = 0.0
0.000000000000000000e+00 1.000000000000000000e+00 2.000000000000000000e+00 3.000000000000000000e+00 4.000000000000000000e+00 5.000000000000000000e+00 6.000000000000000000e+00 7.000000000000000000e+00 8.000000000000000000e+00 9.000000000000000000e+00 1.000000000000000000e+01 1.100000000000000000e+01 1.200000000000000000e+01 1.300000000000000000e+01 1.400000000000000000e+01 1.500000000000000000e+01 1.600000000000000000e+01 1.700000000000000000e+01 1.800000000000000000e+01 1.900000000000000000e+01 2.000000000000000000e+01 2.100000000000000000e+01 2.200000000000000000e+01 2.300000000000000000e+01 2.400000000000000000e+01 2.500000000000000000e+01 2.600000000000000000e+01 2.700000000000000000e+01 2.800000000000000000e+01 2.900000000000000000e+01 3.000000000000000000e+01 3.100000000000000000e+01 3.200000000000000000e+01 3.300000000000000000e+01 3.400000000000000000e+01 3.500000000000000000e+01 3.600000000000000000e+01 3.700000000000000000e+01 3.800000000000000000e+01 3.900000000000000000e+01 4.000000000000000000e+01 4.100000000000000000e+01 4.200000000000000000e+01 4.300000000000000000e+01 4.400000000000000000e+01 4.500000000000000000e+01 4.600000000000000000e+01 4.700000000000000000e+01 4.800000000000000000e+01 4.900000000000000000e+01 5.000000000000000000e+01 5.100000000000000000e+01 5.200000000000000000e+01 5.300000000000000000e+01 5.400000000000000000e+01 5.500000000000000000e+01 5.600000000000000000e+01 5.700000000000000000e+01 5.800000000000000000e+01 5.900000000000000000e+01 6.000000000000000000e+01 6.100000000000000000e+01 6.200000000000000000e+01 6.300000000000000000e+01 6.400000000000000000e+01 6.500000000000000000e+01 6.600000000000000000e+01 6.700000000000000000e+01 6.800000000000000000e+01 6.900000000000000000e+01 7.000000000000000000e+01 7.100000000000000000e+01 7.200000000000000000e+01 7.300000000000000000e+01 7.400000000000000000e+01 7.500000000000000000e+01 7.600000000000000000e+01 7.700000000000000000e+01 7.800000000000000000e+01 7.900000000000000000e+01 8.000000000000000000e+01 8.100000000000000000e+01 8.200000000000000000e+01 8.300000000000000000e+01 8.400000000000000000e+01 8.500000000000000000e+01 8.600000000000000000e+01 8.700000000000000000e+01 8.800000000000000000e+01 8.900000000000000000e+01 9.000000000000000000e+01 9.100000000000000000e+01 9.200000000000000000e+01 9.300000000000000000e+01 9.400000000000000000e+01 9.500000000000000000e+01 9.600000000000000000e+01 9.700000000000000000e+01 9.800000000000000000e+01 9.900000000000000000e+01 1.000000000000000000e+02 1.010000000000000000e+02 1.020000000000000000e+02 1.030000000000000000e+02 1.040000000000000000e+02 1.050000000000000000e+02 1.060000000000000000e+02 1.070000000000000000e+02 1.080000000000000000e+02 1.090000000000000000e+02 1.100000000000000000e+02 1.110000000000000000e+02 1.120000000000000000e+02 1.130000000000000000e+02 1.140000000000000000e+02 1.150000000000000000e+02 1.160000000000000000e+02 1.170000000000000000e+02 1.180000000000000000e+02 1.190000000000000000e+02 1.200000000000000000e+02 1.210000000000000000e+02 1.220000000000000000e+02 1.230000000000000000e+02 1.240000000000000000e+02 1.250000000000000000e+02 1.260000000000000000e+02 1.270000000000000000e+02 1.280000000000000000e+02 1.290000000000000000e+02 1.300000000000000000e+02 1.310000000000000000e+02 1.320000000000000000e+02 1.330000000000000000e+02 1.340000000000000000e+02 1.350000000000000000e+02 1.360000000000000000e+02 1.370000000000000000e+02 1.380000000000000000e+02 1.390000000000000000e+02 1.400000000000000000e+02 1.410000000000000000e+02 1.420000000000000000e+02 1.430000000000000000e+02 1.440000000000000000e+02 1.450000000000000000e+02 1.460000000000000000e+02 1.470000000000000000e+02 1.480000000000000000e+02 1.490000000000000000e+02 1.500000000000000000e+02 1.510000000000000000e+02 1.520000000000000000e+02 1.530000000000000000e+02 1.540000000000000000e+02 1.550000000000000000e+02 1.560000000000000000e+02 1.570000000000000000e+02 1.580000000000000000e+02 1.590000000000000000e+02 1.600000000000000000e+02 1.610000000000000000e+02 1.620000000000000000e+02 1.630000000000000000e+02 1.640000000000000000e+02 1.650000000000000000e+02 1.660000000000000000e+02 1.670000000000000000e+02 1.680000000000000000e+02 1.690000000000000000e+02 1.700000000000000000e+02 1.710000000000000000e+02 1.720000000000000000e+02 1.730000000000000000e+02 1.740000000000000000e+02 1.750000000000000000e+02 1.760000000000000000e+02 1.770000000000000000e+02 1.780000000000000000e+02 1.790000000000000000e+02 1.800000000000000000e+02 1.810000000000000000e+02 1.820000000000000000e+02 1.830000000000000000e+02 1.840000000000000000e+02 1.850000000000000000e+02 1.860000000000000000e+02 1.870000000000000000e+02 1.880000000000000000e+02 1.890000000000000000e+02 1.900000000000000000e+02 1.910000000000000000e+02 1.920000000000000000e+02 1.930000000000000000e+02 1.940000000000000000e+02 1.950000000000000000e+02 1.960000000000000000e+02 1.970000000000000000e+02 1.980000000000000000e+02 1.990000000000000000e+02 2.000000000000000000e+02 2.010000000000000000e+02 2.020000000000000000e+02 2.030000000000000000e+02 2.040000000000000000e+02 2.050000000000000000e+02 2.060000000000000000e+02 2.070000000000000000e+02 2.080000000000000000e+02 2.090000000000000000e+02 2.100000000000000000e+02 2.110000000000000000e+02 2.120000000000000000e+02 2.130000000000000000e+02 2.140000000000000000e+02 2.150000000000000000e+02 2.160000000000000000e+02 2.170000000000000000e+02 2.180000000000000000e+02 2.190000000000000000e+02 2.200000000000000000e+02 2.210000000000000000e+02 2.220000000000000000e+02 2.230000000000000000e+02 2.240000000000000000e+02 2.250000000000000000e+02 2.260000000000000000e+02 2.270000000000000000e+02 2.280000000000000000e+02 2.290000000000000000e+02 2.300000000000000000e+02 2.310000000000000000e+02 2.320000000000000000e+02 2.330000000000000000e+02 2.340000000000000000e+02 2.350000000000000000e+02 2.360000000000000000e+02 2.370000000000000000e+02 2.380000000000000000e+02 2.390000000000000000e+02 2.400000000000000000e+02 2.410000000000000000e+02 2.420000000000000000e+02 2.430000000000000000e+02 2.440000000000000000e+02 2.450000000000000000e+02 2.460000000000000000e+02 2.470000000000000000e+02 2.480000000000000000e+02 2.490000000000000000e+02 2.500000000000000000e+02 2.510000000000000000e+02 2.520000000000000000e+02 2.530000000000000000e+02 2.540000000000000000e+02 2.550000000000000000e+02 2.560000000000000000e+02 2.570000000000000000e+02 2.580000000000000000e+02 2.590000000000000000e+02 2.600000000000000000e+02 2.610000000000000000e+02 2.620000000000000000e+02 2.630000000000000000e+02 2.640000000000000000e+02 2.650000000000000000e+02 2.660000000000000000e+02 2.670000000000000000e+02 2.680000000000000000e+02 2.690000000000000000e+02 2.700000000000000000e+02 2.710000000000000000e+02 2.720000000000000000e+02 2.730000000000000000e+02 2.740000000000000000e+02 2.750000000000000000e+02 2.760000000000000000e+02 2.770000000000000000e+02 2.780000000000000000e+02 2.790000000000000000e+02 2.800000000000000000e+02 2.810000000000000000e+02 2.820000000000000000e+02 2.830000000000000000e+02 2.840000000000000000e+02 2.850000000000000000e+02 2.860000000000000000e+02 2.870000000000000000e+02 2.880000000000000000e+02 2.890000000000000000e+02 2.900000000000000000e+02 2.910000000000000000e+02 2.920000000000000000e+02 2.930000000000000000e+02 2.940000000000000000e+02 2.950000000000000000e+02 2.960000000000000000e+02 2.970000000000000000e+02 2.980000000000000000e+02 2.990000000000000000e+02 3.000000000000000000e+02 3.010000000000000000e+02 3.020000000000000000e+02 3.030000000000000000e+02 3.040000000000000000e+02 3.050000000000000000e+02 3.060000000000000000e+02 3.070000000000000000e+02 3.080000000000000000e+02 3.090000000000000000e+02 3.100000000000000000e+02 3.110000000000000000e+02 3.120000000000000000e+02 3.130000000000000000e+02 3.140000000000000000e+02 3.150000000000000000e+02 3.160000000000000000e+02 3.170000000000000000e+02 3.180000000000000000e+02 3.190000000000000000e+02 3.200000000000000000e+02 3.210000000000000000e+02 3.220000000000000000e+02 3.230000000000000000e+02 3.240000000000000000e+02 3.250000000000000000e+02 3.260000000000000000e+02 3.270000000000000000e+02 3.280000000000000000e+02 3.290000000000000000e+02 3.300000000000000000e+02 3.310000000000000000e+02 3.320000000000000000e+02 3.330000000000000000e+02 3.340000000000000000e+02 3.350000000000000000e+02 3.360000000000000000e+02 3.370000000000000000e+02 3.380000000000000000e+02 3.390000000000000000e+02 3.400000000000000000e+02 3.410000000000000000e+02 3.420000000000000000e+02 3.430000000000000000e+02 3.440000000000000000e+02 3.450000000000000000e+02 3.460000000000000000e+02 3.470000000000000000e+02 3.480000000000000000e+02 3.490000000000000000e+02 3.500000000000000000e+02 3.510000000000000000e+02 3.520000000000000000e+02 3.530000000000000000e+02 3.540000000000000000e+02 3.550000000000000000e+02 3.560000000000000000e+02 3.570000000000000000e+02 3.580000000000000000e+02 3.590000000000000000e+02 3.600000000000000000e+02 3.610000000000000000e+02 3.620000000000000000e+02 3.630000000000000000e+02 3.640000000000000000e+02 3.650000000000000000e+02 3.660000000000000000e+02 3.670000000000000000e+02 3.680000000000000000e+02 3.690000000000000000e+02 3.700000000000000000e+02 3.710000000000000000e+02 3.720000000000000000e+02 3.730000000000000000e+02 3.740000000000000000e+02 3.750000000000000000e+02 3.760000000000000000e+02 3.770000000000000000e+02 3.780000000000000000e+02 3.790000000000000000e+02 3.800000000000000000e+02 3.810000000000000000e+02 3.820000000000000000e+02 3.830000000000000000e+02 3.840000000000000000e+02 3.850000000000000000e+02 3.860000000000000000e+02 3.870000000000000000e+02 3.880000000000000000e+02 3.890000000000000000e+02 3.900000000000000000e+02 3.910000000000000000e+02 3.920000000000000000e+02 3.930000000000000000e+02 3.940000000000000000e+02 3.950000000000000000e+02 3.960000000000000000e+02 3.970000000000000000e+02 3.980000000000000000e+02 3.990000000000000000e+02 4.000000000000000000e+02 4.010000000000000000e+02 4.020000000000000000e+02 4.030000000000000000e+02 4.040000000000000000e+02 4.050000000000000000e+02 4.060000000000000000e+02 4.070000000000000000e+02 4.080000000000000000e+02 4.090000000000000000e+02 4.100000000000000000e+02 4.110000000000000000e+02 4.120000000000000000e+02 4.130000000000000000e+02 4.140000000000000000e+02 4.150000000000000000e+02 4.160000000000000000e+02 4.170000000000000000e+02 4.180000000000000000e+02 4.190000000000000000e+02 4.200000000000000000e+02 4.210000000000000000e+02 4.220000000000000000e+02 4.230000000000000000e+02 4.240000000000000000e+02 4.250000000000000000e+02 4.260000000000000000e+02 4.270000000000000000e+02 4.280000000000000000e+02 4.290000000000000000e+02 4.300000000000000000e+02 4.310000000000000000e+02 4.320000000000000000e+02 4.330000000000000000e+02 4.340000000000000000e+02 4.350000000000000000e+02 4.360000000000000000e+02 4.370000000000000000e+02 4.380000000000000000e+02 4.390000000000000000e+02 4.400000000000000000e+02 4.410000000000000000e+02 4.420000000000000000e+02 4.430000000000000000e+02 4.440000000000000000e+02 4.450000000000000000e+02 4.460000000000000000e+02 4.470000000000000000e+02 4.480000000000000000e+02 4.490000000000000000e+02 4.500000000000000000e+02 4.510000000000000000e+02 4.520000000000000000e+02 4.530000000000000000e+02 4.540000000000000000e+02 4.550000000000000000e+02 4.560000000000000000e+02 4.570000000000000000e+02 4.580000000000000000e+02 4.590000000000000000e+02 4.600000000000000000e+02 4.610000000000000000e+02 4.620000000000000000e+02 4.630000000000000000e+02 4.640000000000000000e+02 4.650000000000000000e+02 4.660000000000000000e+02 4.670000000000000000e+02 4.680000000000000000e+02 4.690000000000000000e+02 4.700000000000000000e+02 4.710000000000000000e+02 4.720000000000000000e+02 4.730000000000000000e+02 4.740000000000000000e+02 4.750000000000000000e+02 4.760000000000000000e+02 4.770000000000000000e+02 4.780000000000000000e+02 4.790000000000000000e+02 4.800000000000000000e+02 4.810000000000000000e+02 4.820000000000000000e+02 4.830000000000000000e+02 4.840000000000000000e+02 4.850000000000000000e+02 4.860000000000000000e+02 4.870000000000000000e+02 4.880000000000000000e+02 4.890000000000000000e+02 4.900000000000000000e+02 4.910000000000000000e+02 4.920000000000000000e+02 4.930000000000000000e+02 4.940000000000000000e+02 4.950000000000000000e+02 4.960000000000000000e+02 4.970000000000000000e+02 4.980000000000000000e+02 4.990000000000000000e+02 5.000000000000000000e+02 5.010000000000000000e+02 5.020000000000000000e+02 5.030000000000000000e+02 5.040000000000000000e+02 5.050000000000000000e+02 5.060000000000000000e+02 5.070000000000000000e+02 5.080000000000000000e+02 5.090000000000000000e+02 5.100000000000000000e+02 5.110000000000000000e+02 5.120000000000000000e+02 5.130000000000000000e+02 5.140000000000000000e+02 5.150000000000000000e+02 5.160000000000000000e+02 5.170000000000000000e+02 5.180000000000000000e+02 5.190000000000000000e+02 5.200000000000000000e+02 5.210000000000000000e+02 5.220000000000000000e+02 5.230000000000000000e+02 5.240000000000000000e+02 5.250000000000000000e+02 5.260000000000000000e+02 5.270000000000000000e+02 5.280000000000000000e+02 5.290000000000000000e+02 5.300000000000000000e+02 5.310000000000000000e+02 5.320000000000000000e+02 5.330000000000000000e+02 5.340000000000000000e+02 5.350000000000000000e+02 5.360000000000000000e+02 5.370000000000000000e+02 5.380000000000000000e+02 5.390000000000000000e+02 5.400000000000000000e+02 5.410000000000000000e+02 5.420000000000000000e+02 5.430000000000000000e+02 5.440000000000000000e+02 5.450000000000000000e+02 5.460000000000000000e+02 5.470000000000000000e+02 5.480000000000000000e+02 5.490000000000000000e+02 5.500000000000000000e+02 5.510000000000000000e+02 5.520000000000000000e+02 5.530000000000000000e+02 5.540000000000000000e+02 5.550000000000000000e+02 5.560000000000000000e+02 5.570000000000000000e+02 5.580000000000000000e+02 5.590000000000000000e+02 5.600000000000000000e+02 5.610000000000000000e+02 5.620000000000000000e+02 5.630000000000000000e+02 5.640000000000000000e+02 5.650000000000000000e+02 5.660000000000000000e+02 5.670000000000000000e+02 5.680000000000000000e+02 5.690000000000000000e+02 5.700000000000000000e+02 5.710000000000000000e+02 5.720000000000000000e+02 5.730000000000000000e+02 5.740000000000000000e+02 5.750000000000000000e+02 5.760000000000000000e+02 5.770000000000000000e+02 5.780000000000000000e+02 5.790000000000000000e+02 5.800000000000000000e+02 5.810000000000000000e+02 5.820000000000000000e+02 5.830000000000000000e+02 5.840000000000000000e+02 5.850000000000000000e+02 5.860000000000000000e+02 5.870000000000000000e+02 5.880000000000000000e+02 5.890000000000000000e+02 5.900000000000000000e+02 5.910000000000000000e+02 5.920000000000000000e+02 5.930000000000000000e+02 5.940000000000000000e+02 5.950000000000000000e+02 5.960000000000000000e+02 5.970000000000000000e+02 5.980000000000000000e+02 5.990000000000000000e+02 6.000000000000000000e+02 6.010000000000000000e+02 6.020000000000000000e+02 6.030000000000000000e+02 6.040000000000000000e+02 6.050000000000000000e+02 6.060000000000000000e+02 6.070000000000000000e+02 6.080000000000000000e+02 6.090000000000000000e+02 6.100000000000000000e+02 6.110000000000000000e+02 6.120000000000000000e+02 6.130000000000000000e+02 6.140000000000000000e+02 6.150000000000000000e+02 6.160000000000000000e+02 6.170000000000000000e+02 6.180000000000000000e+02 6.190000000000000000e+02 6.200000000000000000e+02 6.210000000000000000e+02 6.220000000000000000e+02 6.230000000000000000e+02 6.240000000000000000e+02 6.250000000000000000e+02 6.260000000000000000e+02 6.270000000000000000e+02 6.280000000000000000e+02 6.290000000000000000e+02 6.300000000000000000e+02 6.310000000000000000e+02 6.320000000000000000e+02 6.330000000000000000e+02 6.340000000000000000e+02 6.350000000000000000e+02 6.360000000000000000e+02 6.370000000000000000e+02 6.380000000000000000e+02 6.390000000000000000e+02 6.400000000000000000e+02 6.410000000000000000e+02 6.420000000000000000e+02 6.430000000000000000e+02 6.440000000000000000e+02 6.450000000000000000e+02 6.460000000000000000e+02 6.470000000000000000e+02 6.480000000000000000e+02 6.490000000000000000e+02 6.500000000000000000e+02 6.510000000000000000e+02 6.520000000000000000e+02 6.530000000000000000e+02 6.540000000000000000e+02 6.550000000000000000e+02 6.560000000000000000e+02 6.570000000000000000e+02 6.580000000000000000e+02 6.590000000000000000e+02 6.600000000000000000e+02 6.610000000000000000e+02 6.620000000000000000e+02 6.630000000000000000e+02 6.640000000000000000e+02 6.650000000000000000e+02 6.660000000000000000e+02 6.670000000000000000e+02 6.680000000000000000e+02 6.690000000000000000e+02 6.700000000000000000e+02 6.710000000000000000e+02 6.720000000000000000e+02 6.730000000000000000e+02 6.740000000000000000e+02 6.750000000000000000e+02 6.760000000000000000e+02 6.770000000000000000e+02 6.780000000000000000e+02 6.790000000000000000e+02 6.800000000000000000e+02 6.810000000000000000e+02 6.820000000000000000e+02 6.830000000000000000e+02 6.840000000000000000e+02 6.850000000000000000e+02 6.860000000000000000e+02 6.870000000000000000e+02 6.880000000000000000e+02 6.890000000000000000e+02 6.900000000000000000e+02 6.910000000000000000e+02 6.920000000000000000e+02 6.930000000000000000e+02 6.940000000000000000e+02 6.950000000000000000e+02 6.960000000000000000e+02 6.970000000000000000e+02 6.980000000000000000e+02 6.990000000000000000e+02 7.000000000000000000e+02 7.010000000000000000e+02 7.020000000000000000e+02 7.030000000000000000e+02 7.040000000000000000e+02 7.050000000000000000e+02 7.060000000000000000e+02 7.070000000000000000e+02 7.080000000000000000e+02 7.090000000000000000e+02 7.100000000000000000e+02 7.110000000000000000e+02 7.120000000000000000e+02 7.130000000000000000e+02 7.140000000000000000e+02 7.150000000000000000e+02 7.160000000000000000e+02 7.170000000000000000e+02 7.180000000000000000e+02 7.190000000000000000e+02 7.200000000000000000e+02 7.210000000000000000e+02 7.220000000000000000e+02 7.230000000000000000e+02 7.240000000000000000e+02 7.250000000000000000e+02 7.260000000000000000e+02 7.270000000000000000e+02 7.280000000000000000e+02 7.290000000000000000e+02 7.300000000000000000e+02 7.310000000000000000e+02 7.320000000000000000e+02 7.330000000000000000e+02 7.340000000000000000e+02 7.350000000000000000e+02 7.360000000000000000e+02 7.370000000000000000e+02 7.380000000000000000e+02 7.390000000000000000e+02 7.400000000000000000e+02 7.410000000000000000e+02 7.420000000000000000e+02 7.430000000000000000e+02 7.440000000000000000e+02 7.450000000000000000e+02 7.460000000000000000e+02 7.470000000000000000e+02 7.480000000000000000e+02 7.490000000000000000e+02 7.500000000000000000e+02 7.510000000000000000e+02 7.520000000000000000e+02 7.530000000000000000e+02 7.540000000000000000e+02 7.550000000000000000e+02 7.560000000000000000e+02 7.570000000000000000e+02 7.580000000000000000e+02 7.590000000000000000e+02 7.600000000000000000e+02 7.610000000000000000e+02 7.620000000000000000e+02 7.630000000000000000e+02 7.640000000000000000e+02 7.650000000000000000e+02 7.660000000000000000e+02 7.670000000000000000e+02 7.680000000000000000e+02 7.690000000000000000e+02 7.700000000000000000e+02 7.710000000000000000e+02 7.720000000000000000e+02 7.730000000000000000e+02 7.740000000000000000e+02 7.750000000000000000e+02 7.760000000000000000e+02 7.770000000000000000e+02 7.780000000000000000e+02 7.790000000000000000e+02 7.800000000000000000e+02 7.810000000000000000e+02 7.820000000000000000e+02 7.830000000000000000e+02 7.840000000000000000e+02 7.850000000000000000e+02 7.860000000000000000e+02 7.870000000000000000e+02 7.880000000000000000e+02 7.890000000000000000e+02 7.900000000000000000e+02 7.910000000000000000e+02 7.920000000000000000e+02 7.930000000000000000e+02 7.940000000000000000e+02 7.950000000000000000e+02 7.960000000000000000e+02 7.970000000000000000e+02 7.980000000000000000e+02 7.990000000000000000e+02 8.000000000000000000e+02 8.010000000000000000e+02 8.020000000000000000e+02 8.030000000000000000e+02 8.040000000000000000e+02 8.050000000000000000e+02 8.060000000000000000e+02 8.070000000000000000e+02 8.080000000000000000e+02 8.090000000000000000e+02 8.100000000000000000e+02 8.110000000000000000e+02 8.120000000000000000e+02 8.130000000000000000e+02 8.140000000000000000e+02 8.150000000000000000e+02 8.160000000000000000e+02 8.170000000000000000e+02 8.180000000000000000e+02 8.190000000000000000e+02 8.200000000000000000e+02 8.210000000000000000e+02 8.220000000000000000e+02 8.230000000000000000e+02 8.240000000000000000e+02 8.250000000000000000e+02 8.260000000000000000e+02 8.270000000000000000e+02 8.280000000000000000e+02 8.290000000000000000e+02 8.300000000000000000e+02 8.310000000000000000e+02 8.320000000000000000e+02 8.330000000000000000e+02 8.340000000000000000e+02 8.350000000000000000e+02 8.360000000000000000e+02 8.370000000000000000e+02 8.380000000000000000e+02 8.390000000000000000e+02 8.400000000000000000e+02 8.410000000000000000e+02 8.420000000000000000e+02 8.430000000000000000e+02 8.440000000000000000e+02 8.450000000000000000e+02 8.460000000000000000e+02 8.470000000000000000e+02 8.480000000000000000e+02 8.490000000000000000e+02 8.500000000000000000e+02 8.510000000000000000e+02 8.520000000000000000e+02 8.530000000000000000e+02 8.540000000000000000e+02 8.550000000000000000e+02 8.560000000000000000e+02 8.570000000000000000e+02 8.580000000000000000e+02 8.590000000000000000e+02 8.600000000000000000e+02 8.610000000000000000e+02 8.620000000000000000e+02 8.630000000000000000e+02 8.640000000000000000e+02 8.650000000000000000e+02 8.660000000000000000e+02 8.670000000000000000e+02 8.680000000000000000e+02 8.690000000000000000e+02 8.700000000000000000e+02 8.710000000000000000e+02 8.720000000000000000e+02 8.730000000000000000e+02 8.740000000000000000e+02 8.750000000000000000e+02 8.760000000000000000e+02 8.770000000000000000e+02 8.780000000000000000e+02 8.790000000000000000e+02 8.800000000000000000e+02 8.810000000000000000e+02 8.820000000000000000e+02 8.830000000000000000e+02 8.840000000000000000e+02 8.850000000000000000e+02 8.860000000000000000e+02 8.870000000000000000e+02 8.880000000000000000e+02 8.890000000000000000e+02 8.900000000000000000e+02 8.910000000000000000e+02 8.920000000000000000e+02 8.930000000000000000e+02 8.940000000000000000e+02 8.950000000000000000e+02 8.960000000000000000e+02 8.970000000000000000e+02 8.980000000000000000e+02 8.990000000000000000e+02 9.000000000000000000e+02 9.010000000000000000e+02 9.020000000000000000e+02 9.030000000000000000e+02 9.040000000000000000e+02 9.050000000000000000e+02 9.060000000000000000e+02 9.070000000000000000e+02 9.080000000000000000e+02 9.090000000000000000e+02 9.100000000000000000e+02 9.110000000000000000e+02 9.120000000000000000e+02 9.130000000000000000e+02 9.140000000000000000e+02 9.150000000000000000e+02 9.160000000000000000e+02 9.170000000000000000e+02 9.180000000000000000e+02 9.190000000000000000e+02 9.200000000000000000e+02 9.210000000000000000e+02 9.220000000000000000e+02 9.230000000000000000e+02 9.240000000000000000e+02 9.250000000000000000e+02 9.260000000000000000e+02 9.270000000000000000e+02 9.280000000000000000e+02 9.290000000000000000e+02 9.300000000000000000e+02 9.310000000000000000e+02 9.320000000000000000e+02 9.330000000000000000e+02 9.340000000000000000e+02 9.350000000000000000e+02 9.360000000000000000e+02 9.370000000000000000e+02 9.380000000000000000e+02 9.390000000000000000e+02 9.400000000000000000e+02 9.410000000000000000e+02 9.420000000000000000e+02 9.430000000000000000e+02 9.440000000000000000e+02 9.450000000000000000e+02 9.460000000000000000e+02 9.470000000000000000e+02 9.480000000000000000e+02 9.490000000000000000e+02 9.500000000000000000e+02 9.510000000000000000e+02 9.520000000000000000e+02 9.530000000000000000e+02 9.540000000000000000e+02 9.550000000000000000e+02 9.560000000000000000e+02 9.570000000000000000e+02 9.580000000000000000e+02 9.590000000000000000e+02 9.600000000000000000e+02 9.610000000000000000e+02 9.620000000000000000e+02 9.630000000000000000e+02 9.640000000000000000e+02 9.650000000000000000e+02 9.660000000000000000e+02 9.670000000000000000e+02 9.680000000000000000e+02 9.690000000000000000e+02 9.700000000000000000e+02 9.710000000000000000e+02 9.720000000000000000e+02 9.730000000000000000e+02 9.740000000000000000e+02 9.750000000000000000e+02 9.760000000000000000e+02 9.770000000000000000e+02 9.780000000000000000e+02 9.790000000000000000e+02 9.800000000000000000e+02 9.810000000000000000e+02 9.820000000000000000e+02 9.830000000000000000e+02 9.840000000000000000e+02 9.850000000000000000e+02 9.860000000000000000e+02 9.870000000000000000e+02 9.880000000000000000e+02 9.890000000000000000e+02 9.900000000000000000e+02 9.910000000000000000e+02 9.920000000000000000e+02 9.930000000000000000e+02 9.940000000000000000e+02 9.950000000000000000e+02 9.960000000000000000e+02 9.970000000000000000e+02 9.980000000000000000e+02 9.990000000000000000e+02
1.000000000000000000e+00 1.000000000000000000e+00 1.000000000000000000e+00 1.000000000000000000e+00 1.000000000000000000e+00 1.000000000000000000e+00 1.000000000000000000e+00 1.000000000000000000e+00 1.000000000000000000e+00 1.000000000000000000e+00 1.000000000000000000e+00 1.000000000000000000e+00 1.000000000000000000e+00 1.000000000000000000e+00 1.000000000000000000e+00 1.000000000000000000e+00 1.000000000000000000e+00 1.000000000000000000e+00 1.000000000000000000e+00 1.000000000000000000e+00 1.000000000000000000e+00 1.000000000000000000e+00 1.000000000000000000e+00 1.000000000000000000e+00 1.000000000000000000e+00 1.000000000000000000e+00 1.000000000000000000e+00 1.000000000000000000e+00 1.000000000000000000e+00 1.000000000000000000e+00 1.000000000000000000e+00 1.000000000000000000e+00 1.000000000000000000e+00 1.000000000000000000e+00 1.000000000000000000e+00 1.000000000000000000e+00 1.000000000000000000e+00 1.000000000000000000e+00 1.000000000000000000e+00 1.000000000000000000e+00 1.000000000000000000e+00 1.000000000000000000e+00 1.000000000000000000e+00 1.000000000000000000e+00 1.000000000000000000e+00 1.000000000000000000e+00 1.000000000000000000e+00 1.000000000000000000e+00 1.000000000000000000e+00 1.000000000000000000e+00 1.000000000000000000e+00 1.000000000000000000e+00 1.000000000000000000e+00 1.000000000000000000e+00 1.000000000000000000e+00 1.000000000000000000e+00 1.000000000000000000e+00 1.000000000000000000e+00 1.000000000000000000e+00 1.000000000000000000e+00 1.000000000000000000e+00 1.000000000000000000e+00 1.000000000000000000e+00 1.000000000000000000e+00 1.000000000000000000e+00 1.000000000000000000e+00 1.000000000000000000e+00 1.000000000000000000e+00 1.000000000000000000e+00 1.000000000000000000e+00 1.000000000000000000e+00 1.000000000000000000e+00 1.000000000000000000e+00 1.000000000000000000e+00 1.000000000000000000e+00 1.000000000000000000e+00 1.000000000000000000e+00 1.000000000000000000e+00 1.000000000000000000e+00 1.000000000000000000e+00 1.000000000000000000e+00 1.000000000000000000e+00 1.000000000000000000e+00 1.000000000000000000e+00 1.000000000000000000e+00 1.000000000000000000e+00 1.000000000000000000e+00 1.000000000000000000e+00 1.000000000000000000e+00 1.000000000000000000e+00 1.000000000000000000e+00 1.000000000000000000e+00 1.000000000000000000e+00 1.000000000000000000e+00 1.000000000000000000e+00 1.000000000000000000e+00 1.000000000000000000e+00 1.000000000000000000e+00 1.000000000000000000e+00 1.000000000000000000e+00 1.000000000000000000e+00 1.000000000000000000e+00 1.000000000000000000e+00 1.000000000000000000e+00 1.000000000000000000e+00 1.000000000000000000e+00 1.000000000000000000e+00 1.000000000000000000e+00 1.000000000000000000e+00 1.000000000000000000e+00 1.000000000000000000e+00 1.000000000000000000e+00 1.000000000000000000e+00 1.000000000000000000e+00 1.000000000000000000e+00 1.000000000000000000e+00 1.000000000000000000e+00 1.000000000000000000e+00 1.000000000000000000e+00 1.000000000000000000e+00 1.000000000000000000e+00 1.000000000000000000e+00 1.000000000000000000e+00 1.000000000000000000e+00 1.000000000000000000e+00 1.000000000000000000e+00 1.000000000000000000e+00 1.000000000000000000e+00 1.000000000000000000e+00 1.000000000000000000e+00 1.000000000000000000e+00 1.000000000000000000e+00 1.000000000000000000e+00 1.000000000000000000e+00 1.000000000000000000e+00 1.000000000000000000e+00 1.000000000000000000e+00 1.000000000000000000e+00 1.000000000000000000e+00 1.000000000000000000e+00 1.000000000000000000e+00 1.000000000000000000e+00 1.000000000000000000e+00 1.000000000000000000e+00 1.000000000000000000e+00 1.000000000000000000e+00 1.000000000000000000e+00 1.000000000000000000e+00 1.000000000000000000e+00 1.000000000000000000e+00 1.000000000000000000e+00 1.000000000000000000e+00 1.000000000000000000e+00 1.000000000000000000e+00 1.000000000000000000e+00 1.000000000000000000e+00 1.000000000000000000e+00 1.000000000000000000e+00 1.000000000000000000e+00 1.000000000000000000e+00 1.000000000000000000e+00 1.000000000000000000e+00 1.000000000000000000e+00 1.000000000000000000e+00 1.000000000000000000e+00 1.000000000000000000e+00 1.000000000000000000e+00 1.000000000000000000e+00 1.000000000000000000e+00 1.000000000000000000e+00 1.000000000000000000e+00 1.000000000000000000e+00 1.000000000000000000e+00 1.000000000000000000e+00 1.000000000000000000e+00 1.000000000000000000e+00 1.000000000000000000e+00 1.000000000000000000e+00 1.000000000000000000e+00 1.000000000000000000e+00 1.000000000000000000e+00 1.000000000000000000e+00 1.000000000000000000e+00 1.000000000000000000e+00 1.000000000000000000e+00 1.000000000000000000e+00 1.000000000000000000e+00 1.000000000000000000e+00 1.000000000000000000e+00 1.000000000000000000e+00 1.000000000000000000e+00 1.000000000000000000e+00 1.000000000000000000e+00 1.000000000000000000e+00 1.000000000000000000e+00 1.000000000000000000e+00 1.000000000000000000e+00 1.000000000000000000e+00 1.000000000000000000e+00 1.000000000000000000e+00 1.000000000000000000e+00 1.000000000000000000e+00 1.000000000000000000e+00 1.000000000000000000e+00 1.000000000000000000e+00 1.000000000000000000e+00 1.000000000000000000e+00 1.000000000000000000e+00 1.000000000000000000e+00 1.000000000000000000e+00 1.000000000000000000e+00 1.000000000000000000e+00 1.000000000000000000e+00 1.000000000000000000e+00 1.000000000000000000e+00 1.000000000000000000e+00 1.000000000000000000e+00 1.000000000000000000e+00 1.000000000000000000e+00 1.000000000000000000e+00 1.000000000000000000e+00 1.000000000000000000e+00 1.000000000000000000e+00 1.000000000000000000e+00 1.000000000000000000e+00 1.000000000000000000e+00 1.000000000000000000e+00 1.000000000000000000e+00 1.000000000000000000e+00 1.000000000000000000e+00 1.000000000000000000e+00 1.000000000000000000e+00 1.000000000000000000e+00 1.000000000000000000e+00 1.000000000000000000e+00 1.000000000000000000e+00 1.000000000000000000e+00 1.000000000000000000e+00 1.000000000000000000e+00 1.000000000000000000e+00 1.000000000000000000e+00 1.000000000000000000e+00 1.000000000000000000e+00 1.000000000000000000e+00 1.000000000000000000e+00 1.000000000000000000e+00 1.000000000000000000e+00 1.000000000000000000e+00 1.000000000000000000e+00 1.000000000000000000e+00 1.000000000000000000e+00 1.000000000000000000e+00 1.000000000000000000e+00 1.000000000000000000e+00 1.000000000000000000e+00 1.000000000000000000e+00 1.000000000000000000e+00 1.000000000000000000e+00 1.000000000000000000e+00 1.000000000000000000e+00 1.000000000000000000e+00 1.000000000000000000e+00 1.000000000000000000e+00 1.000000000000000000e+00 1.000000000000000000e+00 1.000000000000000000e+00 1.000000000000000000e+00 1.000000000000000000e+00 1.000000000000000000e+00 1.000000000000000000e+00 1.000000000000000000e+00 1.000000000000000000e+00 1.000000000000000000e+00 1.000000000000000000e+00 1.000000000000000000e+00 1.000000000000000000e+00 1.000000000000000000e+00 1.000000000000000000e+00 1.000000000000000000e+00 1.000000000000000000e+00 1.000000000000000000e+00 1.000000000000000000e+00 1.000000000000000000e+00 1.000000000000000000e+00 1.000000000000000000e+00 1.000000000000000000e+00 1.000000000000000000e+00 1.000000000000000000e+00 1.000000000000000000e+00 1.000000000000000000e+00 1.000000000000000000e+00 1.000000000000000000e+00 1.000000000000000000e+00 1.000000000000000000e+00 1.000000000000000000e+00 1.000000000000000000e+00 1.000000000000000000e+00 1.000000000000000000e+00 1.000000000000000000e+00 1.000000000000000000e+00 1.000000000000000000e+00 1.000000000000000000e+00 1.000000000000000000e+00 1.000000000000000000e+00 1.000000000000000000e+00 1.000000000000000000e+00 1.000000000000000000e+00 1.000000000000000000e+00 1.000000000000000000e+00 1.000000000000000000e+00 1.000000000000000000e+00 1.000000000000000000e+00 1.000000000000000000e+00 1.000000000000000000e+00 1.000000000000000000e+00 1.000000000000000000e+00 1.000000000000000000e+00 1.000000000000000000e+00 1.000000000000000000e+00 1.000000000000000000e+00 1.000000000000000000e+00 1.000000000000000000e+00 1.000000000000000000e+00 1.000000000000000000e+00 1.000000000000000000e+00 1.000000000000000000e+00 1.000000000000000000e+00 1.000000000000000000e+00 1.000000000000000000e+00 1.000000000000000000e+00 1.000000000000000000e+00 1.000000000000000000e+00 1.000000000000000000e+00 1.000000000000000000e+00 1.000000000000000000e+00 1.000000000000000000e+00 1.000000000000000000e+00 1.000000000000000000e+00 1.000000000000000000e+00 1.000000000000000000e+00 1.000000000000000000e+00 1.000000000000000000e+00 1.000000000000000000e+00 1.000000000000000000e+00 1.000000000000000000e+00 1.000000000000000000e+00 1.000000000000000000e+00 1.000000000000000000e+00 1.000000000000000000e+00 1.000000000000000000e+00 1.000000000000000000e+00 1.000000000000000000e+00 1.000000000000000000e+00 1.000000000000000000e+00 1.000000000000000000e+00 1.000000000000000000e+00 1.000000000000000000e+00 1.000000000000000000e+00 1.000000000000000000e+00 1.000000000000000000e+00 1.000000000000000000e+00 1.000000000000000000e+00 1.000000000000000000e+00 1.000000000000000000e+00 1.000000000000000000e+00 1.000000000000000000e+00 1.000000000000000000e+00 1.000000000000000000e+00 1.000000000000000000e+00 1.000000000000000000e+00 1.000000000000000000e+00 1.000000000000000000e+00 1.000000000000000000e+00 1.000000000000000000e+00 1.000000000000000000e+00 1.000000000000000000e+00 1.000000000000000000e+00 1.000000000000000000e+00 1.000000000000000000e+00 1.000000000000000000e+00 1.000000000000000000e+00 1.000000000000000000e+00 1.000000000000000000e+00 1.000000000000000000e+00 1.000000000000000000e+00 1.000000000000000000e+00 1.000000000000000000e+00 1.000000000000000000e+00 1.000000000000000000e+00 1.000000000000000000e+00 1.000000000000000000e+00 1.000000000000000000e+00 1.000000000000000000e+00 1.000000000000000000e+00 1.000000000000000000e+00 1.000000000000000000e+00 1.000000000000000000e+00 1.000000000000000000e+00 1.000000000000000000e+00 1.000000000000000000e+00 1.000000000000000000e+00 1.000000000000000000e+00 1.000000000000000000e+00 1.000000000000000000e+00 1.000000000000000000e+00 1.000000000000000000e+00 1.000000000000000000e+00 1.000000000000000000e+00 1.000000000000000000e+00 1.000000000000000000e+00 1.000000000000000000e+00 1.000000000000000000e+00 1.000000000000000000e+00 1.000000000000000000e+00 1.000000000000000000e+00 1.000000000000000000e+00 1.000000000000000000e+00 1.000000000000000000e+00 1.000000000000000000e+00 1.000000000000000000e+00 1.000000000000000000e+00 1.000000000000000000e+00 1.000000000000000000e+00 1.000000000000000000e+00 1.000000000000000000e+00 1.000000000000000000e+00 1.000000000000000000e+00 1.000000000000000000e+00 1.000000000000000000e+00 1.000000000000000000e+00 1.000000000000000000e+00 1.000000000000000000e+00 1.000000000000000000e+00 1.000000000000000000e+00 1.000000000000000000e+00 1.000000000000000000e+00 1.000000000000000000e+00 1.000000000000000000e+00 1.000000000000000000e+00 1.000000000000000000e+00 1.000000000000000000e+00 1.000000000000000000e+00 1.000000000000000000e+00 1.000000000000000000e+00 1.000000000000000000e+00 1.000000000000000000e+00 1.000000000000000000e+00 1.000000000000000000e+00 1.000000000000000000e+00 1.000000000000000000e+00 1.000000000000000000e+00 1.000000000000000000e+00 1.000000000000000000e+00 1.000000000000000000e+00 1.000000000000000000e+00 1.000000000000000000e+00 1.000000000000000000e+00 1.000000000000000000e+00 1.000000000000000000e+00 1.000000000000000000e+00 1.000000000000000000e+00 1.000000000000000000e+00 1.000000000000000000e+00 1.000000000000000000e+00 1.000000000000000000e+00 1.000000000000000000e+00 1.000000000000000000e+00 1.000000000000000000e+00 1.000000000000000000e+00 1.000000000000000000e+00 1.000000000000000000e+00 1.000000000000000000e+00 1.000000000000000000e+00 1.000000000000000000e+00 1.000000000000000000e+00 1.000000000000000000e+00 1.000000000000000000e+00 1.000000000000000000e+00 1.000000000000000000e+00 1.000000000000000000e+00 1.000000000000000000e+00 1.000000000000000000e+00 1.000000000000000000e+00 1.000000000000000000e+00 1.000000000000000000e+00 1.000000000000000000e+00 1.000000000000000000e+00 1.000000000000000000e+00 1.000000000000000000e+00 1.000000000000000000e+00 1.000000000000000000e+00 1.000000000000000000e+00 1.000000000000000000e+00 1.000000000000000000e+00 1.000000000000000000e+00 1.000000000000000000e+00 1.000000000000000000e+00 1.000000000000000000e+00 1.000000000000000000e+00 1.000000000000000000e+00 1.000000000000000000e+00 1.000000000000000000e+00 1.000000000000000000e+00 1.000000000000000000e+00 1.000000000000000000e+00 1.000000000000000000e+00 1.000000000000000000e+00 1.000000000000000000e+00 1.000000000000000000e+00 1.000000000000000000e+00 1.000000000000000000e+00 1.000000000000000000e+00 1.000000000000000000e+00 1.000000000000000000e+00 1.000000000000000000e+00 1.000000000000000000e+00 1.000000000000000000e+00 1.000000000000000000e+00 1.000000000000000000e+00 1.000000000000000000e+00 1.000000000000000000e+00 1.000000000000000000e+00 1.000000000000000000e+00 1.000000000000000000e+00 1.000000000000000000e+00 1.000000000000000000e+00 1.000000000000000000e+00 1.000000000000000000e+00 1.000000000000000000e+00 1.000000000000000000e+00 1.000000000000000000e+00 1.000000000000000000e+00 1.000000000000000000e+00 1.000000000000000000e+00 1.000000000000000000e+00 1.000000000000000000e+00 1.000000000000000000e+00 1.000000000000000000e+00 1.000000000000000000e+00 1.000000000000000000e+00 1.000000000000000000e+00 1.000000000000000000e+00 1.000000000000000000e+00 1.000000000000000000e+00 1.000000000000000000e+00 1.000000000000000000e+00 1.000000000000000000e+00 1.000000000000000000e+00 1.000000000000000000e+00 1.000000000000000000e+00 1.000000000000000000e+00 1.000000000000000000e+00 1.000000000000000000e+00 1.000000000000000000e+00 1.000000000000000000e+00 1.000000000000000000e+00 1.000000000000000000e+00 1.000000000000000000e+00 1.000000000000000000e+00 1.000000000000000000e+00 1.000000000000000000e+00 1.000000000000000000e+00 1.000000000000000000e+00 1.000000000000000000e+00 1.000000000000000000e+00 1.000000000000000000e+00 1.000000000000000000e+00 1.000000000000000000e+00 1.000000000000000000e+00 1.000000000000000000e+00 1.000000000000000000e+00 1.000000000000000000e+00 1.000000000000000000e+00 1.000000000000000000e+00 1.000000000000000000e+00 1.000000000000000000e+00 1.000000000000000000e+00 1.000000000000000000e+00 1.000000000000000000e+00 1.000000000000000000e+00 1.000000000000000000e+00 1.000000000000000000e+00 1.000000000000000000e+00 1.000000000000000000e+00 1.000000000000000000e+00 1.000000000000000000e+00 1.000000000000000000e+00 1.000000000000000000e+00 1.000000000000000000e+00 1.000000000000000000e+00 1.000000000000000000e+00 1.000000000000000000e+00 1.000000000000000000e+00 1.000000000000000000e+00 1.000000000000000000e+00 1.000000000000000000e+00 1.000000000000000000e+00 1.000000000000000000e+00 1.000000000000000000e+00 1.000000000000000000e+00 1.000000000000000000e+00 1.000000000000000000e+00 1.000000000000000000e+00 1.000000000000000000e+00 1.000000000000000000e+00 1.000000000000000000e+00 1.000000000000000000e+00 1.000000000000000000e+00 1.000000000000000000e+00 1.000000000000000000e+00 1.000000000000000000e+00 1.000000000000000000e+00 1.000000000000000000e+00 1.000000000000000000e+00 1.000000000000000000e+00 1.000000000000000000e+00 1.000000000000000000e+00 1.000000000000000000e+00 1.000000000000000000e+00 1.000000000000000000e+00 1.000000000000000000e+00 1.000000000000000000e+00 1.000000000000000000e+00 1.000000000000000000e+00 1.000000000000000000e+00 1.000000000000000000e+00 1.000000000000000000e+00 1.000000000000000000e+00 1.000000000000000000e+00 1.000000000000000000e+00 1.000000000000000000e+00 1.000000000000000000e+00 1.000000000000000000e+00 1.000000000000000000e+00 1.000000000000000000e+00 1.000000000000000000e+00 1.000000000000000000e+00 1.000000000000000000e+00 1.000000000000000000e+00 1.000000000000000000e+00 1.000000000000000000e+00 1.000000000000000000e+00 1.000000000000000000e+00 1.000000000000000000e+00 1.000000000000000000e+00 1.000000000000000000e+00 1.000000000000000000e+00 1.000000000000000000e+00 1.000000000000000000e+00 1.000000000000000000e+00 1.000000000000000000e+00 1.000000000000000000e+00 1.000000000000000000e+00 1.000000000000000000e+00 1.000000000000000000e+00 1.000000000000000000e+00 1.000000000000000000e+00 1.000000000000000000e+00 1.000000000000000000e+00 1.000000000000000000e+00 1.000000000000000000e+00 1.000000000000000000e+00 1.000000000000000000e+00 1.000000000000000000e+00 1.000000000000000000e+00 1.000000000000000000e+00 1.000000000000000000e+00 1.000000000000000000e+00 1.000000000000000000e+00 1.000000000000000000e+00 1.000000000000000000e+00 1.000000000000000000e+00 1.000000000000000000e+00 1.000000000000000000e+00 1.000000000000000000e+00 1.000000000000000000e+00 1.000000000000000000e+00 1.000000000000000000e+00 1.000000000000000000e+00 1.000000000000000000e+00 1.000000000000000000e+00 1.000000000000000000e+00 1.000000000000000000e+00 1.000000000000000000e+00 1.000000000000000000e+00 1.000000000000000000e+00 1.000000000000000000e+00 1.000000000000000000e+00 1.000000000000000000e+00 1.000000000000000000e+00 1.000000000000000000e+00 1.000000000000000000e+00 1.000000000000000000e+00 1.000000000000000000e+00 1.000000000000000000e+00 1.000000000000000000e+00 1.000000000000000000e+00 1.000000000000000000e+00 1.000000000000000000e+00 1.000000000000000000e+00 1.000000000000000000e+00 1.000000000000000000e+00 1.000000000000000000e+00 1.000000000000000000e+00 1.000000000000000000e+00 1.000000000000000000e+00 1.000000000000000000e+00 1.000000000000000000e+00 1.000000000000000000e+00 1.000000000000000000e+00 1.000000000000000000e+00 1.000000000000000000e+00 1.000000000000000000e+00 1.000000000000000000e+00 1.000000000000000000e+00 1.000000000000000000e+00 1.000000000000000000e+00 1.000000000000000000e+00 1.000000000000000000e+00 1.000000000000000000e+00 1.000000000000000000e+00 1.000000000000000000e+00 1.000000000000000000e+00 1.000000000000000000e+00 1.000000000000000000e+00 1.000000000000000000e+00 1.000000000000000000e+00 1.000000000000000000e+00 1.000000000000000000e+00 1.000000000000000000e+00 1.000000000000000000e+00 1.000000000000000000e+00 1.000000000000000000e+00 1.000000000000000000e+00 1.000000000000000000e+00 1.000000000000000000e+00 1.000000000000000000e+00 1.000000000000000000e+00 1.000000000000000000e+00 1.000000000000000000e+00 1.000000000000000000e+00 1.000000000000000000e+00 1.000000000000000000e+00 1.000000000000000000e+00 1.000000000000000000e+00 1.000000000000000000e+00 1.000000000000000000e+00 1.000000000000000000e+00 1.000000000000000000e+00 1.000000000000000000e+00 1.000000000000000000e+00 1.000000000000000000e+00 1.000000000000000000e+00 1.000000000000000000e+00 1.000000000000000000e+00 1.000000000000000000e+00 1.000000000000000000e+00 1.000000000000000000e+00 1.000000000000000000e+00 1.000000000000000000e+00 1.000000000000000000e+00 1.000000000000000000e+00 1.000000000000000000e+00 1.000000000000000000e+00 1.000000000000000000e+00 1.000000000000000000e+00 1.000000000000000000e+00 1.000000000000000000e+00 1.000000000000000000e+00 1.000000000000000000e+00 1.000000000000000000e+00 1.000000000000000000e+00 1.000000000000000000e+00 1.000000000000000000e+00 1.000000000000000000e+00 1.000000000000000000e+00 1.000000000000000000e+00 1.000000000000000000e+00 1.000000000000000000e+00 1.000000000000000000e+00 1.000000000000000000e+00 1.000000000000000000e+00 1.000000000000000000e+00 1.000000000000000000e+00 1.000000000000000000e+00 1.000000000000000000e+00 1.000000000000000000e+00 1.000000000000000000e+00 1.000000000000000000e+00 1.000000000000000000e+00 1.000000000000000000e+00 1.000000000000000000e+00 1.000000000000000000e+00 1.000000000000000000e+00 1.000000000000000000e+00 1.000000000000000000e+00 1.000000000000000000e+00 1.000000000000000000e+00 1.000000000000000000e+00 1.000000000000000000e+00 1.000000000000000000e+00 1.000000000000000000e+00 1.000000000000000000e+00 1.000000000000000000e+00 1.000000000000000000e+00 1.000000000000000000e+00 1.000000000000000000e+00 1.000000000000000000e+00 1.000000000000000000e+00 1.000000000000000000e+00 1.000000000000000000e+00 1.000000000000000000e+00 1.000000000000000000e+00 1.000000000000000000e+00 1.000000000000000000e+00 1.000000000000000000e+00 1.000000000000000000e+00 1.000000000000000000e+00 1.000000000000000000e+00 1.000000000000000000e+00 1.000000000000000000e+00 1.000000000000000000e+00 1.000000000000000000e+00 1.000000000000000000e+00 1.000000000000000000e+00 1.000000000000000000e+00 1.000000000000000000e+00 1.000000000000000000e+00 1.000000000000000000e+00 1.000000000000000000e+00 1.000000000000000000e+00 1.000000000000000000e+00 1.000000000000000000e+00 1.000000000000000000e+00 1.000000000000000000e+00 1.000000000000000000e+00 1.000000000000000000e+00 1.000000000000000000e+00 1.000000000000000000e+00 1.000000000000000000e+00 1.000000000000000000e+00 1.000000000000000000e+00 1.000000000000000000e+00 1.000000000000000000e+00 1.000000000000000000e+00 1.000000000000000000e+00 1.000000000000000000e+00 1.000000000000000000e+00 1.000000000000000000e+00 1.000000000000000000e+00 1.000000000000000000e+00 1.000000000000000000e+00 1.000000000000000000e+00 1.000000000000000000e+00 1.000000000000000000e+00 1.000000000000000000e+00 1.000000000000000000e+00 1.000000000000000000e+00 1.000000000000000000e+00 1.000000000000000000e+00 1.000000000000000000e+00 1.000000000000000000e+00 1.000000000000000000e+00 1.000000000000000000e+00 1.000000000000000000e+00 1.000000000000000000e+00 1.000000000000000000e+00 1.000000000000000000e+00 1.000000000000000000e+00 1.000000000000000000e+00 1.000000000000000000e+00 1.000000000000000000e+00 1.000000000000000000e+00 1.000000000000000000e+00 1.000000000000000000e+00 1.000000000000000000e+00 1.000000000000000000e+00 1.000000000000000000e+00 1.000000000000000000e+00 1.000000000000000000e+00 1.000000000000000000e+00 1.000000000000000000e+00 1.000000000000000000e+00 1.000000000000000000e+00 1.000000000000000000e+00 1.000000000000000000e+00 1.000000000000000000e+00 1.000000000000000000e+00 1.000000000000000000e+00 1.000000000000000000e+00 1.000000000000000000e+00 1.000000000000000000e+00 1.000000000000000000e+00 1.000000000000000000e+00 1.000000000000000000e+00 1.000000000000000000e+00 1.000000000000000000e+00 1.000000000000000000e+00 1.000000000000000000e+00 1.000000000000000000e+00 1.000000000000000000e+00 1.000000000000000000e+00 1.000000000000000000e+00 1.000000000000000000e+00 1.000000000000000000e+00 1.000000000000000000e+00 1.000000000000000000e+00 1.000000000000000000e+00 1.000000000000000000e+00 1.000000000000000000e+00 1.000000000000000000e+00 1.000000000000000000e+00 1.000000000000000000e+00 1.000000000000000000e+00 1.000000000000000000e+00 1.000000000000000000e+00 1.000000000000000000e+00 1.000000000000000000e+00 1.000000000000000000e+00 1.000000000000000000e+00 1.000000000000000000e+00 1.000000000000000000e+00 1.000000000000000000e+00 1.000000000000000000e+00 1.000000000000000000e+00 1.000000000000000000e+00 1.000000000000000000e+00 1.000000000000000000e+00 1.000000000000000000e+00 1.000000000000000000e+00 1.000000000000000000e+00 1.000000000000000000e+00 1.000000000000000000e+00 1.000000000000000000e+00 1.000000000000000000e+00 1.000000000000000000e+00 1.000000000000000000e+00 1.000000000000000000e+00 1.000000000000000000e+00 1.000000000000000000e+00 1.000000000000000000e+00 1.000000000000000000e+00 1.000000000000000000e+00 1.000000000000000000e+00 1.000000000000000000e+00 1.000000000000000000e+00 1.000000000000000000e+00 1.000000000000000000e+00 1.000000000000000000e+00 1.000000000000000000e+00 1.000000000000000000e+00 1.000000000000000000e+00 1.000000000000000000e+00 1.000000000000000000e+00 1.000000000000000000e+00 1.000000000000000000e+00 1.000000000000000000e+00 1.000000000000000000e+00 1.000000000000000000e+00 1.000000000000000000e+00 1.000000000000000000e+00 1.000000000000000000e+00 1.000000000000000000e+00 1.000000000000000000e+00 1.000000000000000000e+00 1.000000000000000000e+00 1.000000000000000000e+00 1.000000000000000000e+00 1.000000000000000000e+00 1.000000000000000000e+00 1.000000000000000000e+00 1.000000000000000000e+00 1.000000000000000000e+00 1.000000000000000000e+00 1.000000000000000000e+00 1.000000000000000000e+00 1.000000000000000000e+00 1.000000000000000000e+00 1.000000000000000000e+00 1.000000000000000000e+00 1.000000000000000000e+00 1.000000000000000000e+00 1.000000000000000000e+00 1.000000000000000000e+00 1.000000000000000000e+00 1.000000000000000000e+00 1.000000000000000000e+00 1.000000000000000000e+00 1.000000000000000000e+00 1.000000000000000000e+00 1.000000000000000000e+00 1.000000000000000000e+00 1.000000000000000000e+00 1.000000000000000000e+00 1.000000000000000000e+00 1.000000000000000000e+00 1.000000000000000000e+00 1.000000000000000000e+00 1.000000000000000000e+00 1.000000000000000000e+00
5.927522006252585601e-02 5.271161215456046101e-01 -2.885232665300748178e-01 7.781948211854393671e-01 5.236042811427540355e-01 5.499937411482800353e-01 5.710621654277920900e-01 3.944818785915475412e-01 5.664227015831641010e-01 5.268719701228187224e-01 1.086806654973855757e+00 -7.334160819792033825e-01 1.424314548167471051e+00 4.685379228412923092e-01 5.214119390544649235e-01 4.202115152025900913e-01 8.365608488211115912e-01 9.799411518935161602e-01 7.482621383247410884e-01 5.276372255464256700e-01 3.694127157111693482e-01 9.949671418892168662e-01 3.539561671553888567e-01 5.590189227319694032e-01 6.696806459927101551e-02 6.631117904943326646e-01 4.174269725086925398e-01 7.141268936565541292e-01 5.126646843184995417e-01 1.635556935353264851e+00 4.911437351610373203e-01 6.027280876365908036e-01 7.184682602747073377e-01 5.108096712127552230e-01 6.899018976359686528e-01 4.621504842213700615e-01 5.710024105963183993e-01 1.863486211226280442e+00 -9.381269040559571393e-02 5.132368143919118220e-01 -2.251548715245009213e-01 -5.622936850372718398e-01 7.459614470035029754e-01 2.313099401498251440e-01 3.246531834816928086e-01 4.929910574331674011e-01 7.779441358163969866e-01 5.374670964259076200e-01 6.769937736328841549e-01 9.170141756759770876e-03 3.554385561615638206e-02 7.577674200245730907e-01 6.832680242889237476e-01 4.174118424345263922e-01 4.658574556961804225e-01 2.264343677850889913e-02 5.683372333713746505e-01 5.033417280147883810e-01 2.007049390725807181e-01 5.485260182595835809e-01 9.288363365474283651e-01 4.565826183406840322e-01 4.941803504658845436e-01 3.539560374538511800e-01 6.752061246167954112e-01 6.582036491258155264e-01 5.272846702033741062e-01 4.286412375878855263e-01 5.538974973303050220e-01 4.616065612319664169e-02 4.671882180997430356e-01 5.972229046724386592e-01 5.182108814419428278e-01 1.425869713420712878e-02 1.528375235569054302e+00 5.292909007511963360e-01 6.388721587539651914e-01 7.156724247666005345e-01 5.243808932391106348e-01 1.389201894510706747e+00 5.431594953811422766e-01 3.595178471178765989e-01 1.451870723098371174e+00 7.661636606564902197e-01 5.202673693828211432e-01 7.509671921729046407e-01 7.963097710260441664e-01 5.149831505729295378e-01 4.261303522556307843e-01 5.767277297931299174e-01 3.278717123293966584e-01 2.239894176384404911e+00 7.869550816462276277e-01 6.086668201566679259e-02 4.782857780713989371e-01 5.162602951931366535e-01 5.620167052758369142e-01 4.848307836791224679e-01 1.902840419249180737e-01 6.581527722837409167e-01 1.647479398406907380e+00 6.876062030677034809e-01 5.070652066508141154e-01 5.736865703238837044e-01 8.539900629138417187e-01 -2.151816306046534955e+00 -1.253293383527467553e+00 5.129935382076608041e-01 6.257025252941603721e-01 9.676426752851841062e-01 5.929037778111643231e-01 4.195161488688505802e-01 1.850375601126593716e-01 5.106758386177150388e-01 5.286416783596313840e-01 5.035553730467584588e-01 4.541274804667142506e-01 4.908772932782989873e-01 1.005293648370432447e+00 5.083515954476155452e-01 1.319697141844150545e+00 5.364198037143603770e-01 6.448198756006483512e-01 -5.547512978282521656e-01 5.156824201096593674e-01 1.980896457954185674e+00 4.916425633176726429e-01 5.174825865191381435e-01 6.714041259795174854e-01 4.972553293164115318e-01 5.806624264138555702e-01 5.190737907304231458e-01 4.398551179789854659e-01 5.021176092452682704e-01 -3.889542068676246633e-01 -1.728132754178013653e-01 6.766375161707172126e-01 4.955890708973815367e-02 1.011872211834087265e+00 5.392003397261361242e-01 5.403714283984107913e-01 8.758634267834181086e-01 4.797057312624843362e-01 4.755267936607088797e-01 5.213606841127064184e-01 3.056253359979185444e-02 9.797503168955637998e-01 -1.748386794137749278e-01 4.204777273532160908e-01 -9.293719897011735176e-01 7.508381424339901633e-01 -2.833230337638977803e-01 4.929863580908652732e-01 5.357596745644258585e-01 5.449144246972331684e-01 5.305820861477911210e-01 2.048025665578951937e+00 -1.719118325260091951e-01 8.277529068564556392e-01 6.552302715194026073e-01 5.619611232983851012e-01 4.600968374620181267e-01 5.177238649218709465e-01 5.227313654953140709e-01 1.065128142284786694e+00 2.570568733166626041e-01 8.522413576168145211e-01 3.017728681541606561e-01 3.874587912728016947e-01 6.344296562093733050e-01 6.178501133988179017e-01 7.780042260877999549e-01 4.929830624504183412e-01 5.255909457384080330e-01 4.026334264319971767e-01 4.493728810018999403e-02 2.239295871463656551e-01 1.119137109231134186e-01 7.582674295881698390e-01 1.144265378516088782e+00 6.634721220916124373e-01 5.185573456227062783e-01 -1.654487766357129186e-01 4.456794790290150021e-01 4.407449587170090832e-01 5.255707869605612537e-01 5.286769966786895036e-01 5.007148395503654426e-01 2.877055854463342666e+00 4.777524278761133281e-01 5.708663984735825592e-01 -9.282898986059371360e-01 5.126550147894622933e-01 4.998832455006469999e-01 2.026907518704652578e-01 5.200645185594129360e-01 9.471355856764344106e-01 5.129399335936726256e-01 4.199943396016301844e-01 5.642933506573682978e-01 6.335345078470622227e-01 5.290454816739068589e-01 8.424642865305381756e-01 6.024813738208758540e-01 5.432063674596521174e-01 4.199943008237237985e-01 1.909831180305130161e-01 1.302778821900508310e+00 5.506839783888098916e-01 4.909805482012568612e-01 4.208696421970251067e-01 -9.712602484030125050e-02 4.999276400710792045e-01 1.542921016063381612e-01 5.290519301346440217e-01 5.272377290119893978e-01 5.257668990174395596e-01 5.258990772359545263e-01 5.184672433810956216e-01 5.250766287684468514e-01 4.419301039216302907e-01 5.551030998503724279e-01 -7.233762082900434542e-01 6.273612107430147633e-01 4.796725294790440408e-01 3.499186708441544003e-01 2.083184478949393677e-03 1.343983128854459030e+00 9.739212837717087234e-01 4.897223941171393591e-01 -1.018511961752428252e-01 1.068828333533275776e+00 5.211445390538388400e-01 4.762110260858822275e-01 6.664413114033606034e-01 4.061724102314706597e-01 2.451323319786002097e-01 1.626715489490505040e-01 -1.667813645257883448e-01 -6.152297369359853441e-02 5.249981355616252232e-01 5.004629036005371345e-01 -1.206797550443759887e-01 4.415419049764985893e-01 5.262385298697336289e-01 5.261158474642061433e-01 -9.234555233629748727e-02 7.638340788741158072e-01 -2.385968591635621472e+00 6.168059440997926135e-01 -6.764190851642249980e-01 5.004882978812325023e-01 5.208180524347195695e-01 3.539558344937659973e-01 4.915478559660834690e-01 5.524404371685287529e-01 5.082033084390896738e-01 7.897765980203423908e-01 5.729456326363646657e-01 1.703198418363804478e+00 6.841077459862242582e-01 6.764432982007329009e-01 4.513918661485259998e-01 4.100864761958020188e-01 9.288363706072843007e-01 4.840411790734647224e-01 2.751205033956234391e+00 4.450290803634193160e-01 2.189542936002825124e-01 7.724353247447295345e-01 5.137904835300585171e-01 9.282074807521172310e-01 5.219934974194065935e-01 5.811841307376344190e-01 5.229562695633522829e-01 1.157239143331502351e+00 7.657011039479456604e-01 8.558222335199614506e-01 7.987036591632612481e-01 5.862872962213264705e-01 6.858372864243057476e-01 5.074533212342410282e-01 3.717730705247476730e-01 -7.513443107598631876e-01 3.915748278174474017e-01 4.289972330049943161e-01 5.464856771912902644e-01 4.951670808655783129e-01 5.035554402788140482e-01 6.122608745498232530e-01 5.123142669801904470e-01 -9.340218898657595137e-01 7.665477345926247077e-01 5.045887908416680778e-01 -1.467706079260702734e-02 4.572294829737756361e-01 1.861162978944963520e+00 5.068872045175615293e-01 5.219271521992359109e-01 4.204844068925793765e-01 -3.517240766671917651e+00 5.218691327737686736e-01 2.961174787815787912e+00 7.784778874525501990e-01 5.320224614175451672e-01 -5.693468612616919833e-01 5.160724545869379565e-01 5.224861776163440830e-01 4.556157492666934594e-01 4.494749165236904820e-01 3.355380955680244415e-01 6.521847585436447714e-01 3.137748196464266726e-01 5.254659420078378051e-01 5.183095289380325044e-01 3.568068031786804650e-01 5.271281851194520307e-01 7.786217691712129518e-01 5.207444791698994102e-01 1.215573471475942302e+00 4.326511196223375988e-02 2.243307138471725359e+00 2.690532369877813412e+00 4.831046987976423956e-01 -2.387138994514418910e-01 3.868874854171803213e-01 3.997042197970103738e-01 7.433181548241853953e-01 1.400347975098021669e+00 5.308083915289931731e-01 1.137342864492536965e+00 5.209476806159859530e-01 1.186319434746676421e-01 1.262522640256878326e+00 5.679340488408727294e-01 5.670900504879253790e-01 5.326422094978641164e-01 9.097124013970859790e-01 -3.861788497716748925e+00 1.663522254425095825e+00 5.320992748611267364e-01 6.349188958336809963e-01 5.275797211355761629e-01 1.863486217434468628e+00 2.948696845052480309e-01 5.658584073504574485e-01 4.760526934375734487e-01 6.143518601620674424e-01 1.369455679759604250e+00 5.221169316322396003e-01 4.199944666344748168e-01 4.415378415619481411e-01 6.024813803924339295e-01 4.161861327937355082e-01 5.707110445647874952e-01 9.043008383921085080e-01 5.209665140145328666e-01 3.811540031494384251e-01 1.407865585132429265e-01 6.549995389565606008e-01 5.253219108613021993e-01 2.799490961692677748e-01 5.658584023340117453e-01 6.207264821081184270e-01 5.232654560476794892e-01 1.049613384475147848e+00 9.301428696799700635e-01 1.162604380534578707e+00 5.221195725388686482e-01 2.125387266131389952e-01 9.288370432793207065e-01 -1.099586769384247598e-01 9.338685808174487235e-01 6.306556398313131195e-01 4.378182171684016910e-02 4.436078910671305553e-01 8.865261609467758319e-01 3.837791282719307251e-01 4.787179710600270033e-01 3.194981357304470526e-01 -3.417230658488731865e-01 -2.534509002186898563e+00 5.470498769632802238e-01 6.024813778876936254e-01 6.024814163059540872e-01 5.170476576194249496e-01 3.551881177804784850e-01 -2.406992942545519709e-01 2.797999083677506493e-01 5.233208384850359662e-01 7.126442681088911435e-01 5.239204400407179163e-01 1.020313151057592238e+00 4.199947463623904254e-01 5.231431697350888976e-01 4.978032991020570619e-01 2.944584483155068821e-01 6.623974931875209471e-01 5.234245961735262131e-01 5.211572534147603797e-01 4.929889552284527632e-01 3.199672387439166377e-01 2.108110456810316155e-02 6.024813778834154920e-01 6.638301692803941778e-01 5.213136255168613342e-01 3.899321636359749932e-01 8.602408906691548784e-01 7.655375354882228978e-01 5.647334403227468602e-01 1.927811812267231639e+00 4.875846600788610319e-01 -3.212317561664983501e+00 7.777974809485085350e-01 1.549579255251089860e+00 5.929821727851789515e-01 -1.119274310678436635e+00 8.513811323045448187e-01 4.349333598465946471e-01 5.339561411763050769e-01 5.376380446180725192e-01 -4.489957670112599275e-01 5.035915578947818272e-01 1.079152564494066935e+00 4.463985637099006643e-01 -4.123852232899803960e-01 5.109811822064308506e-01 5.364884265408841335e-01 7.956125639042378461e-01 5.045287066483504779e-01 6.104383428823144664e-01 -5.503450395476656709e-01 5.611304561282801640e-01 5.186598146233906137e-01 5.258493529240630959e-01 5.306045822563083547e-01 7.708981602938660416e-01 5.226957959430482692e-01 6.274036447628983382e-01 4.177062056536918755e-01 5.212001354362019168e-01 2.320894954376814534e-01 3.369237139860847829e-01 3.683652726405237110e-01 9.747427881942926087e-01 5.592833195694508763e-01 3.266802883899173615e+00 6.552381376004772218e-01 6.665812365992577204e-01 5.438333355292355176e-01 5.375311181815101147e-01 1.379765156749815369e-02 4.953103132820969590e-01 5.380006937297642233e-01 5.181106120411620442e-01 1.155605344889926611e+00 7.711939329398735943e-01 5.168768283961395760e-01 4.366258866088671975e-01 1.120019037686732055e+00 5.200447361780738964e-01 5.608509345274034219e-01 5.375943901796566005e-01 8.584924686760619927e-01 5.180020718210874842e-01 9.487650681664268060e-01 5.017551450466600782e-01 5.233158961869757153e-01 4.190239446693112130e-02 5.335883986117975208e-01 1.821962112923116925e-02 2.848329981706351210e-01 3.983713569835772295e-01 5.729699901793809946e-01 7.901883215696372531e-01 5.276909728282209722e-01 3.829641439052666185e-01 1.271856191134844716e-01 5.011997898801060503e-01 5.126248112518392297e-01 4.417407149364464547e-01 1.935318929197785663e-03 5.208036868128460561e-01 2.682501795233285247e-01 5.250647605281476560e-01 4.085841481855833068e-01 1.264371796694382377e+00 7.503343006450892139e-01 5.079831037617847933e-01 2.452497804186589692e-01 8.154813702795430386e-01 4.519151436997513316e-01 1.004401268088291665e+00 5.724059210957221921e-01 6.240615541709472192e-01 7.095803786756559317e-01 2.034603353497567824e+00 5.055912490983676122e-01 5.657148565129268558e-01 5.180445651508774896e-01 7.663428538353967978e-01 6.131787310335194974e-01 8.730350671228754855e-01 -5.873220779484988885e-01 4.172944802575422885e-01 5.242703556688514954e-01 4.390404577251535434e-01 4.554893323972936114e-01 -6.420644732661588971e-01 3.846904653189441858e-01 5.262998535908889330e-01 7.219718507302846922e-01 6.702555689305582654e-01 1.564095689806753953e+00 5.215369939658801579e-01 5.267617195139396857e-01 -7.368536261755104233e-01 5.194696725308795004e-01 1.249190545031453325e+00 7.274806059761899091e-01 2.939441003436226163e-01 2.299143678078486575e-01 -1.864912318178761685e+00 5.668406971056730859e-01 1.948020772233918785e-01 1.111310890587629663e+00 8.294719913198550509e-01 5.483186632537059291e-01 5.621821616827127333e-01 5.422540536777445963e-01 7.778312159450400110e-01 4.176811208344952120e-01 5.523009082076928422e-01 1.112873473101527386e-02 6.024309081003071942e-01 5.050881563945979202e-01 3.852114038530310425e-01 5.155755245027486833e-01 4.340604137157612619e-01 1.240095139264798529e+00 -9.565043275473093798e-02 -2.477182073977544363e-01 4.100520878713002637e-01 5.137012197271844105e-01 5.266563724248464196e-01 5.012107893225294930e-01 -8.921856484036414514e-01 3.230697078853532744e+00 4.648663048563572153e-01 4.371444023125879985e-01 4.574569198285147187e-01 5.191733413666664854e-01 5.044550845599288236e-01 4.735326719106272564e-01 3.288510815798920683e-01 6.162064923962714547e-01 5.227486495267487099e-01 4.573258118354658897e-01 3.131378437689043004e-01 4.039562334110889941e-01 5.661076983242250282e-01 4.050511633015372315e-01 5.552162218862360943e-01 5.151093170296789925e-01 6.843946224644270604e-01 1.027704071837230781e+00 2.352574477992268598e+00 4.906386493847373909e-01 5.014371726801944984e-01 3.323955756363961012e-01 4.741575094996335338e-01 3.895054447198345593e-01 5.206312031596276313e-01 5.287404906175906527e-01 4.896310292105723327e-01 5.866276593756845070e-01 5.592153155837948919e-01 7.782839275687717384e-01 3.644778768059965257e-01 3.865531783180724545e-01 3.927090574287819824e-01 4.814304877081098111e-01 1.039108727537677718e-01 9.288363530264533985e-01 5.224272385582883205e-01 8.323777221020847716e-02 1.914835841566948194e+00 3.285102376825181913e-01 4.015066886646493916e-01 5.981233551119444769e-01 6.650633762481743261e-02 5.540330261798115385e-01 1.537954985814555364e+00 8.075546638528872112e-01 6.847278418354488805e-01 5.238222785424653249e-01 5.113069915511035957e-01 4.218949799307684656e-01 6.344215777064559081e-01 5.118882315742034894e-01 5.251020964934663970e-01 -2.802289030488975818e-01 4.691453823053265415e-01 -1.625650900422793033e+00 5.014737536173993204e-01 5.252463047544498886e-01 5.311940026024207784e-01 4.204853750239674337e-01 9.288363529463682378e-01 2.259830030093702702e-01 5.044995413114400362e-01 1.378121059823594452e+00 -5.876008440460593896e-01 5.251995400095107458e-01 1.161174486621815882e+00 1.569904324747130264e+00 5.936469536973791872e-01 5.256316293782208326e-01 -6.799056268707784345e-02 -1.730460622885126254e+00 2.668182028302474307e-01 8.505102728561491077e-01 5.358495495574062684e-01 5.211240751222382395e-01 6.194833307566737224e-01 4.795801872730588999e-01 -4.309060084486456832e-01 8.385036023750702672e-01 5.035555931675921304e-01 3.241430223693806401e-01 5.041063821260058919e-01 3.796896907479509198e-03 -1.633545690788156257e-01 1.841159042783241828e+00 4.102051815195005280e-01 5.090175261850098387e-01 5.230480885415939030e-01 3.191330430784127259e-01 4.875030431643296858e-01 -1.506961376419161946e-01 -1.361414953952490237e+00 5.179294157963059142e-01 4.818212220281811731e-01 4.847274644902616614e-01 5.405192137092605931e-01 5.311815627874580947e-01 5.471883645083513992e-01 5.122145547029713919e-01 5.565342772152276352e-01 1.041741169427870872e+00 7.100791522307685621e-01 5.316234003679224385e-01 6.365617832874097548e-01 5.504572431133257782e-01 5.622097984950460425e-01 5.973094120690780606e-02 5.658583638801595317e-01 4.259335138609107729e-01 5.786745517542282169e-01 7.495282773543696653e-01 8.278264383702158558e-01 8.730341141342085054e-01 -5.529727587371905395e-01 5.299528652862067757e-01 4.776327091106746248e-01 5.208135243272109527e-01 5.970193759463039429e-01 9.161779939161585062e-01 4.826461539753211238e-01 5.181395953153343781e-01 -3.145568583004412222e-01 -9.074539425924793568e-01 2.354660216732794797e+00 5.154041313374400080e-01 9.071644588582309376e-01 4.162451411671088675e-01 5.789042777353584635e-01 4.038231039303918357e-01 1.528910671675529076e-01 5.225517055024466728e-01 5.090547098313249474e-01 -5.368117472764902471e-04 5.217130861863631397e-01 4.580439441309390181e-01 5.180413185408677679e-01 4.756161977766857896e-01 5.239704266101663510e-01 6.414266494798632756e-01 4.315627111833164054e-01 5.631867372636925051e-01 5.297746881903436789e-01 5.289169007072076489e-01 4.153933832463587161e-01 5.224315252414802879e-01 -2.451264491263279999e-01 5.183601650931710658e-01 6.413781034667397352e-01 5.545413263631978618e-01 7.781445657680989836e-01 9.288360541881754973e-01 7.245117899554046614e-01 -6.204086589609930646e-01 9.772536277793938408e-01 1.863486211190246378e+00 5.115459699993579745e-01 4.637414431363831580e-01 1.090583974868892359e+00 5.601136508605950581e-01 7.782485456316181605e-01 5.234741477711132296e-01 1.893558292410259192e+00 5.254275756775060868e-01 4.415410216275948430e-01 1.237085027170536256e+00 -6.873959733267544225e-02 4.989958612868667376e-01 -1.519201290483514488e-01 -9.939764195896052534e-01 -1.636281350532590717e-01 7.758738525225673532e-01 5.660101131649692974e-01 5.280691610849055362e-01 -3.168851227160570661e-01 5.483596294596158049e-01 4.852536824922454306e-02 -4.191570029962918276e-01 5.479809788104779145e-01 5.257567229529548358e-01 5.209143987447194535e-01 5.044160268457026364e-01 4.718901669899606688e-01 9.206581995557203690e-01 -4.503579015038476352e-01 5.240333518073345687e-01 4.967869865312556366e-01 5.762441535744599053e-01 1.178365963533074323e+00 4.793104923831563724e-01 6.962974653709439465e-01 5.239924052126153642e-01 4.955238074780753815e-02 -4.487372722979606210e-01 5.470107081664260518e-01 5.322377175703126850e-01 6.876069844487323612e-01 5.137420133327775806e-01 3.794963327199548098e-01 5.244289968232008770e-01 5.201915457953750765e-01 4.188359905804900363e-01 5.410802928894919983e-01 8.415393974534183252e-01 2.605630971200531665e+00 -2.523541327291644043e-01 6.555323977254053913e-01 3.504569746657789642e-01 1.986273901113580764e-01 6.498059291302888951e-01 -5.460741109407903082e-02 -1.603935437748071235e+00 4.985412892259533102e-01 2.668499012896872191e+00 5.916953313218317190e-01 1.719849971169973291e-01 1.527561787426405804e-01 5.035553750848485999e-01 5.934611688953704833e-01 1.591006197561311453e+00 5.227362967318324172e-01 1.259254056026719581e-01 4.120220984390308705e-01 1.749984570299543130e+00 5.965065760258122518e-01 7.989842104920026333e-01 5.171202269166992327e-01 7.377369357756127233e-01 4.666640928454569015e-01 5.839753266764317052e-01 2.773832959671612697e-02 5.182752800240452151e-01 5.865584712467056816e-01 -5.874330376351775129e-01 -1.097601945397512768e-01 1.184393138880846852e+00 2.407888647921084535e-01 4.782325586031046516e-01 7.245990245384276163e-01 5.109768362709367073e-01 2.027393825062180355e+00 6.567350208911318932e-01 1.532282965994046300e-02 3.804552380586223581e-01 3.988495925380957652e-01 1.148071635281892267e+00 5.026989448593879306e-01 -2.352571441862294152e-02 5.172082252692042914e-01 -5.574149744381112770e-03 5.138470998833346570e-01 5.265605638312518266e-01 1.292103212543867057e-02 -2.007059868398866631e-02 6.589936702795133883e-01 4.919950763845694630e-01 5.899401194191875586e-01 1.820442189236137209e-01 4.032410277822316980e-01 5.313351431269301983e-01 4.455922790025890756e-01 4.870437847984478985e-01 4.798034875977532643e-01 5.771486249196468021e-01 1.021981780268597539e+00 3.191146648124067564e+00 9.685891833173299048e-01 5.321017574350423995e-01 5.566712350245826002e-01 2.192115216092386243e-01 5.197042821368886845e-01 8.616377321187316252e-01 5.105055356685104240e-01 1.317251809357161685e+00 5.078748243287127817e-01 -5.961996561182556498e-01 -2.098157151969456610e-02 4.300725804587026690e-01 6.162529802054086403e-01 5.791416667524079687e-01 5.196034332189608529e-01 5.858494045178585380e-02 5.192195653524249721e-01 5.453801255899365374e-01 -3.862661783858972964e+00 4.781387438364167464e-01 5.219070476354543686e-01 1.141948487805182655e+00 5.258057051496318746e-01 4.103088871922055403e-01 6.692080407261442598e-01 -9.180253030552434357e-01 -4.981835335458067449e-01 2.266725963187972079e-02 5.198398749700806620e-01 6.062198276692667420e-01 2.097148587905909023e-01 5.117078093483417023e-01 -3.479372862963157065e-01 5.462422654167324865e-01 5.613412918889424397e-01 6.969621915339070384e-01 5.559252498797868647e-01 4.664761119448838644e-01 1.433502995687126746e-01 -7.897036355693757281e-01 6.548031901264762533e-01 5.632465448154143628e-01 1.539766710471302535e-01 5.225543861692988346e-01 5.149174691424583949e-01 5.132848229341764323e-01 6.654385775639068967e-01 5.819227047827043586e-01 5.511541273444401368e-01 5.047400031946654986e-01 1.863486215274122504e+00 3.487178211221100277e-01 5.301557029232647489e-01 -1.398052986648263551e-01 5.158690011503115347e-01 6.435391116692082969e-01 5.341512348847613501e-01 4.819717231486608799e-01 3.744787463779693515e-01 9.607305882743559788e-01 1.230144150972971584e+00 5.537476985108027439e-01 5.849882809991993060e-01 5.971566132076807643e-01 4.985499953470240442e-01 5.311146134525893681e-01 5.219391265017196968e-01 9.772893435143321650e-01 6.795003343463588141e-01 -4.665594851364263662e-01 4.667908118912210691e-01 9.008576128945061656e-01 5.141570420998047286e-01 -4.008321492021656857e-02 5.278143665401350271e-01 1.521019574374246286e+00 -1.381939383229044693e-01 6.598896388430569582e-01 2.337445450690245063e-01 4.717594082646120457e-01 8.742815418006815165e-01 5.235966140691468151e-01 3.745240986607021871e-01 1.413467444717196209e+00 4.697927085429198235e-01 5.157520162100636130e-01 -7.164143436210491656e-01 4.401958495910484048e-01 1.039037903448132960e+00 6.269638263421426494e-01 6.454388789917218927e-02 9.956565043256342395e-01 -1.509676883164562736e-02 7.409864109119465025e-01 1.662722259537051217e+00 -8.689895192898912102e-01 5.759400272966240797e-01 5.222349199640183848e-01 -4.838998426046500212e-01 3.013685158782289930e-01 5.665439769590749908e-01 5.186035545716803918e-01 4.737501094648258193e-01 4.350208753419309571e-01 2.626417416303200025e-01 3.493572584008930448e-01 5.751106622336593643e-01 5.237527781151296580e-01 9.285243898825077183e-03 -1.629959355192983905e-01 5.123720923129216898e-01 1.069619395678105045e+00 5.499769054981892280e-01 -5.869317497182505727e-01 4.387398629353150281e-01 5.228883903893839502e-01 5.666714797281680038e-01 4.779601596907483846e-02 3.238368888384042799e-01 5.249905584368221856e-01 5.264614507754578066e-01 4.536041511203817156e-01 -1.379965716501109496e-02 5.561260797492738606e-01 5.342550999643139731e-01 5.708181783518757602e-01 2.112668205256024390e+00 -1.498654006878234746e-02 3.898159027333766291e-01 5.739023444155675335e-01 1.860431884610564746e+00 4.837463448483623196e-01 5.608055649329481973e-01 2.822569844186489582e-02 5.658584289210524254e-01 5.232065739177200747e-01 4.780354464567752593e-01 4.021391689744757691e-01 5.311016401357786521e-01 4.375630681293349866e-01 5.235915339628689491e-01 -5.656757981931017643e-01 5.247569783413287281e-01 4.967311731450416157e-01 5.216449329932124623e-01 1.273933941013177584e+00 5.159568365755438091e-01 -2.498587874734826964e-01 1.133707088965926646e+00 -1.326301759388512691e+00 -5.475841744118769006e-01 5.413420546438254544e-01 5.234385524406595103e-01 6.677696695574522057e-01 5.182562563759532948e-01 5.143574295565008780e-01 5.035445956801996026e-01 5.658584238402969424e-01 5.217974179900596310e-01 5.204956926091797165e-01 6.047746061815613139e-01 5.196407486963063871e-01 3.219629000500395244e-01 5.251370212785779756e-01 5.400880235187193179e-01 4.107461200744569330e-01 5.211173542450774354e-01 5.175254121740621160e-01 5.140153934612169406e-01 6.544201877599032935e-01 5.215500148244385237e-01 7.238730003649908040e-01 5.170413776811739748e-01 5.361215884979593227e-01 5.368478272338427226e-01 4.246567777875155936e-01 3.546541103868010025e-01 2.485852634159344987e+00 5.166356805524467966e-01 6.305773477171923158e-01 2.965106482297878432e-01 5.784177250579846108e-01 1.122441275513877956e+00 4.153956782706485495e-01 6.887100299214032884e-01 5.224127644650207181e-01
7.177483726104685324e-01 2.941464832836848120e-01 4.525592542734822588e-01 -3.651251802574335265e-02 3.074275698065254692e-01 3.972685972148421452e-01 5.394306893532458957e-01 3.880336238432406937e-01 3.808037604918447783e-01 3.178244005145787199e-01 2.086803564132886368e+00 1.739922243674664193e+00 -1.479846045118177855e+00 5.818223978554255549e-01 3.107466583639512669e-01 4.648119229634595229e-01 1.366030744465534519e-01 4.496796162889712400e-01 4.039172489506684949e-01 3.096713014029768285e-01 4.092808087363541403e-01 2.159969793356784962e+00 3.500154135634175323e-01 3.416660869563355463e-01 7.554121099647309601e-01 -1.644567102364176414e-01 4.026214874210832795e-01 1.842843600015166561e-01 3.045675990249137044e-01 -9.363591519788422302e-01 4.539649435702270419e-01 -1.634468739946991211e-01 2.893776375571145976e-01 3.122933163918077404e-01 -4.090489772579498085e-01 5.048759610497702832e-01 3.341666751642889954e-01 -3.985293788194018694e-01 -3.319767949169567078e+00 3.309187726069665603e-01 1.206126655552685278e+00 1.469045952419563150e-01 -1.696143137757556429e-01 7.914658179326888865e-01 5.495233282843271505e-01 3.171142892938301761e-01 -3.631412240411078379e-02 3.115930218845532895e-01 1.289320855954004530e-01 6.538018743184512704e-01 6.934785618628762638e-01 5.083062059775688146e-01 -1.410303053390257189e-01 2.468695031044998989e-01 5.900668506897108756e-01 6.619181027137633899e-01 2.904110967414409439e-01 2.591175590331877832e-01 3.448576792148879133e-01 3.088628864977196464e-01 4.343335851174349171e-01 4.380069773815035705e-01 3.447553433338922391e-01 3.500154316024411405e-01 -3.410285234080683292e-01 1.174337168128380404e-01 3.106899662239545057e-01 3.067545519519147557e-01 2.501074666571224681e-01 7.016761986071289314e-01 1.692160249175867215e-01 2.479797471477782067e-01 3.040249879328902338e-01 7.220274431804120097e-01 1.951751332896687341e+00 4.035743214362529918e-01 4.791421665507982763e-01 4.829799705054116932e-01 3.085981332617780404e-01 -1.362220528858313795e+00 3.250150046402184301e-01 5.300319909043873512e-01 2.412963494419608335e+00 6.611180344973269229e-02 2.465606332541493972e-01 -3.466955591248323532e-01 1.438138878971998436e-01 3.323021449742726841e-01 -5.856822855358965185e-01 -9.160139203095791771e-01 5.495340779533309794e-01 1.619166943970208772e+00 5.122212945294292441e-02 6.811040701473978221e-01 3.697726782166057546e-01 3.509317631034677420e-01 2.744977560874992117e-01 7.890809984817516165e-01 7.363469303834973001e-01 -1.578169898576930463e-01 -1.833556866063866808e-01 5.635604727083699805e-02 3.330333529315253061e-01 2.191003028877552827e-01 -6.369219242337277598e-02 3.182863533330647421e+00 -2.967560342680093388e-01 3.670767202247758321e-01 7.362994801876539264e-02 8.124401754292696065e-01 2.812555273055265537e-01 5.326886467431358740e-01 1.617935762122574284e-01 3.533743884345180164e-01 -4.714846200561387257e-01 2.908711827240152981e-01 8.264753317751964701e-02 4.046208241534974270e-01 1.195794098535689631e+00 3.448572988101022418e-01 -1.480441541256707128e+00 1.181228060961418275e-01 6.742294267409401631e-02 1.493077889273430658e+00 3.136229336817022428e-01 2.212534447496963708e+00 3.932688704815338609e-01 2.006302135559304700e-01 3.145884853471650477e-01 3.134828366421103518e-01 3.437243312914726734e-01 3.055826776896923280e-01 6.705648563261644712e-01 4.114244710860147647e-01 1.588685574303185244e-01 8.537390683851180384e-01 7.302393689131593257e-01 7.041104111747065186e-01 -3.415737798014157889e-01 2.268946027906048879e-01 3.008689044398984991e-01 3.221763880138643898e-01 3.622773081842473597e-01 2.649911729901900936e-01 3.056511909642789515e-01 7.011129841289023279e-01 -1.858070797236464344e-01 3.194271118569141366e-01 4.182517866825260500e-01 4.042962712100716671e-01 -1.913035928381059125e-01 2.918578732724399702e-02 3.171199732581255204e-01 2.947178558709705465e-01 2.722113241634248615e-01 3.076797140357798166e-01 -2.519551603321949607e+00 4.710864938504446542e-01 -6.111207496344880363e-01 -1.610356780714528868e-01 1.366061540598164925e-01 3.924332665122681196e-01 3.115694100197797245e-01 3.072589399629501172e-01 1.316233973507806021e-01 1.236251492841101834e-01 3.205692424455020006e-01 4.933064416741630431e-01 4.671477501067845539e-01 2.716358101851598650e-01 2.352576677010691231e-01 -3.664666521728759258e-02 3.170401285008436765e-01 3.118614604435191451e-01 -2.545515841495205045e+00 6.676490593129570383e-01 5.689749543314787106e-01 9.308483819036400542e-01 -4.613549294063604700e-01 1.175236062016790539e+00 5.162338380145602146e-02 3.182961403281091561e-01 1.248265934277771327e+00 3.696815909214860585e-01 3.142024336260184625e-01 3.397744435859031964e-01 2.794686653123624742e-01 3.315997615561930845e-01 -5.043097313916274915e-01 3.405982690238127386e-01 3.423071186023506907e-01 8.267425403087135249e-01 3.319978635938464762e-01 3.698516059314841398e-01 2.514692844599227262e-01 3.103035027463233453e-01 -1.702965815447268438e+00 3.128073899763863519e-01 3.661187847398105211e-01 2.606546605250256166e-01 3.154167039568025327e-02 3.878648008699213112e-01 3.908274034012393372e-01 1.533955780513057698e-01 -7.543214672606168847e-01 3.661187840906357516e-01 4.955451043436955305e-01 -5.261085533930069946e-01 3.337066319305826423e-01 2.323271403053600304e-01 2.283083392462086081e-01 -3.319865513770789978e+00 4.188905961255312560e-01 9.108755939091279785e-01 3.096747458218095939e-01 3.068000379395834365e-01 3.072725198060387020e-01 3.328408292634923993e-01 3.078767403479601428e-01 3.047071323855619629e-01 3.782637437864270202e-01 8.605124452579955563e-02 6.734358714394560463e-01 1.076037402132452858e-01 4.392435917622017350e-01 5.304462711720905332e-01 4.119012657625132356e-01 -7.108042729524369774e-01 2.342869269016160771e+00 4.108947008222424424e-01 1.254549158759312277e+00 -1.404314503748356646e+00 3.061361244302104878e-01 2.771639850292496043e-01 3.460834328963726669e-01 1.197459295781330590e+00 5.299266746425860264e-01 8.374807790867228041e-01 2.892779989438120647e-01 6.661065416811723372e-01 2.228559089246489877e-01 2.869616746722540301e-01 -1.196316630535386727e+00 4.214300929942327301e-01 3.106964563329143170e-01 5.053712075409183546e-01 8.732201862043947882e-01 -3.853323464998532621e-01 3.236769744313462205e+00 5.010454817039401432e-01 1.312971088016157140e+00 -3.044187935031673065e-01 3.037715110343765512e-01 3.500156121612676974e-01 3.560003373030135032e-01 2.663335932847395449e-01 2.910474888404437910e-01 -1.603734056877468839e-01 8.802953308405600530e-02 5.628623508552942356e-01 2.354585306130215494e-01 1.045110855005835365e-01 2.395317853176425482e-01 4.900039776826670135e-01 4.343335498138906625e-01 2.560206048977012316e-01 3.311819142143379135e+00 3.406556048742309106e-01 6.506590180663364142e-01 5.203538045345510454e-01 2.560419702177564316e-01 4.348427503155024021e-01 3.111329495441944037e-01 3.005996973679424533e-01 3.081299766950182928e-01 -6.286795443771000524e-01 4.129352014338791843e-01 2.851170122446288202e-01 1.470723450892778006e-01 3.472227424574851895e-01 1.557878418269541099e+00 3.728846179590042387e-01 3.227147614232611095e-01 2.014274443969136019e+00 5.121444240605673714e-01 2.983292936596422251e-01 2.838958938489405393e-01 2.945935553722576206e-01 2.908713121372319410e-01 -2.078024184780010941e+00 3.348635837783300873e-01 1.603751583748258769e+00 -8.947626617349033196e-02 3.570945174933442545e-01 6.611676830516443060e-01 3.383460043998696709e-01 -7.330672700548757081e-01 3.631146962757782481e-01 3.173293081731221044e-01 4.182750165254874863e-01 -4.054563332758325256e-01 3.085062029163353481e-01 -2.370332256605576227e+00 -3.608109906669344780e-02 3.005486346690967037e-01 5.969211965847885937e-01 3.088556427087392753e-01 3.091483909760545656e-01 4.955295751147317240e-01 1.673388634121232288e-01 -7.813549830655752704e-02 -7.775478710278417305e-01 -4.234894069120300093e-03 6.882915246614568217e-01 3.033540837406666912e-01 4.987758412024022037e-01 2.881598739245162522e-01 -3.600082593691145139e-02 3.147828584728701862e-01 2.484645140855048062e+00 6.790535491409463997e-01 2.472290154354673253e-01 -1.186240356091924797e+00 2.416880646877193062e-01 4.798373010466391975e+00 4.091898368521001972e-01 -1.927563731424499771e-01 5.721091948744159161e-01 -5.705403773911260856e+00 5.335572146776308422e-01 1.583816743722215037e+00 3.059847463068557927e-01 5.237372093982886057e-01 -4.557980495557261147e-01 4.310296913318654721e-01 2.537964095111766571e-01 3.356027411404693406e-01 2.137852886988166612e-01 2.999883129278364091e+00 -3.839312933402329597e-01 3.025333611050880500e-01 -1.940277468947253059e+00 2.922595541242544726e-01 -3.985293800249518070e-01 7.597092140223861145e-01 4.960509481359652861e-01 2.595330578094743879e-01 2.838502310956802499e-01 1.263184542780393826e+00 1.579471291321674631e-01 3.661188268230737286e-01 4.214338563887787825e-01 1.533955698041293558e-01 3.738878712522339942e-01 3.860730511806657606e-01 -6.251734568431235317e-01 3.097656241335890459e-01 5.622931674719983119e-01 4.048002184254538283e-01 1.790044723817312833e-01 3.052579551447406336e-01 5.091157456672703585e-01 4.960510501465502653e-01 5.031105985678471226e-01 3.042485477262749094e-01 1.653073541132628888e-01 3.795999119517624032e-01 3.525734714388871094e+00 2.980973364258749925e-01 1.055995571511540443e-01 4.343324619757909510e-01 8.368851827959373768e-01 4.699732503518743165e-01 -1.935997298992167825e-01 6.874117849091658794e-01 3.515413729093975759e-01 1.270976407550072074e-01 4.231535141266193345e-01 6.810032787338941018e-01 5.329131489292489032e-01 7.976380015102000343e-01 8.232467823513277549e-01 2.490575068645806966e-01 1.533955781044037125e-01 1.533955149525076112e-01 2.554083348206667714e-01 2.178493747956664062e-01 1.119655862564150839e+00 3.876962673170487039e-01 2.962390506159276460e-01 2.720607742935766682e-01 3.084805524423211986e-01 7.465343523745124887e-01 3.661182477429895110e-01 3.087755745748752556e-01 4.231550574361967465e-01 2.029508184656643177e-01 -6.419246542379535292e-01 2.893451927542026181e-01 3.065308068482202608e-01 3.721677395812997835e-01 6.692544148380300539e-01 6.658185785202397344e-01 1.533955793385984590e-01 1.352842854833127550e-01 3.030632668096238103e-01 5.141388140064946377e-01 -5.956788636935053116e-01 1.735940823263117938e-01 -3.586378582741749366e+00 2.031103353671295242e+00 6.304776678012626867e-01 -4.849200663296168168e-01 -3.656070832307568158e-02 2.088890278298257908e+00 3.231498253389163411e-01 6.520488129321454496e-01 -5.918595407525603647e-02 3.955768165225641564e-01 3.982706887946781960e-01 3.050965842057489774e-01 -5.536726052118177144e-01 3.645231768666527539e-01 2.095433948472089192e+00 2.240671777105850970e-01 -4.631877562859234576e-01 2.942057244114337777e-01 3.074018084269279361e-01 -1.466695883455775506e+00 2.828919247507181156e-01 3.715709540036999381e-01 4.035530651343453012e-01 1.145429503509726860e-01 3.078246561068276876e-01 2.154156051727781074e-01 3.216959916726452873e-01 -1.613399754734958502e-01 2.963631148741764365e-01 1.075393738030357704e-01 3.014898509276314198e-01 3.045056582664423250e-01 1.169282974331942171e-02 3.759114142023607941e-01 5.040871522618860512e-01 -1.425005129582434193e+00 -6.689361328836569420e-01 -1.195633727389483619e-01 1.439129096855597256e-01 1.597455308041254018e-01 4.356961004135178062e-01 3.588294784275420923e-01 7.135308600046288419e-01 -1.415781390117216154e-01 3.344831189359675494e-01 3.054251436507706696e-01 9.588443386871790819e-02 -1.616587963505105585e-01 2.709065759146313535e-01 4.625928629354787991e-01 4.800496742492816327e-01 3.471224262015860651e-01 2.908221731738074856e-01 3.105614048049766818e-01 2.448164663406817154e-01 3.102729914764447150e-01 4.858625717693393908e-01 2.575705713787102002e-01 3.073104007035835639e-01 6.873193179764862659e-01 3.249846794208872680e-01 7.182296057096988484e-01 -1.884826499338062081e-02 5.749219161889614904e-01 2.936962847634698170e-01 -1.474681530555676190e+00 3.120934013542868701e-01 6.329825134051122459e-01 3.492754318563356941e-01 3.383487688950820305e-01 3.366600886054815778e-01 1.672810969843178952e-01 6.851025377524071480e-01 3.072590892179834499e-01 4.267997143818325623e-01 3.092434745433071397e-01 2.738492640890818342e-01 1.789149422406743073e-01 4.773206903876528462e-01 3.184284422339311860e-01 1.681322430957213621e-01 3.571805742140945344e-02 1.051762667397287271e-01 1.669561899452905784e+00 1.651183920937337180e-01 3.391216788655935233e-01 3.907390928037214883e-01 -8.677821478552583123e-01 3.098701287961526107e-01 2.268213320081247653e-01 2.852104623257725735e-01 -8.899091149903771980e-02 2.675252179421820364e-01 1.695024068304935350e+00 8.950703042732262027e-01 4.697835223602347399e-01 2.744084254581027893e-01 3.180635715077248515e-01 3.464618727692732603e-01 9.342752184693063899e-01 3.094921366150528375e+00 3.075864974199570279e-01 1.364537198739745189e-02 5.848432789538108301e-01 -2.399807399282456732e-01 3.089901729323702995e-01 2.984685046733674407e-01 1.088111109770311780e+00 3.130041580667483614e-01 -3.458321275061440603e-01 3.908011226977427532e-01 1.386422578889065227e-01 6.184928316708441232e-01 1.860963434644423486e+00 2.481742483993777115e-01 2.818431549562513405e-01 1.674223527621095498e+00 3.903673402422780381e-01 2.446941810296572040e-01 1.519255465325052568e-01 1.842049054071505654e-01 -3.600594860119361862e-02 5.233497741852451979e-01 2.452879087233439115e-01 7.146405836724993854e-01 2.798029049573790839e-01 2.049303405480756013e-01 3.300293611787533665e-01 3.667251091925461948e-01 4.334178911676565549e-01 2.638096044873168289e-01 8.798849671606835399e-01 5.177712841577479796e-01 5.096028398388597891e-01 3.183550259034080288e-01 2.393775964584055616e-01 3.024187692075537837e-01 5.931744693700614635e-01 7.802296348185473462e-01 3.719137657937282571e-01 3.267910480722983069e-01 5.947876559818634501e-01 3.041304960818417835e-01 6.968128317839138441e-01 3.301382278264295422e-01 4.803272776024382629e-01 -3.053908652609097496e-01 3.116982977980093938e-01 3.338254216920165662e-01 4.523494136667148280e-01 2.122195474358652412e-01 3.557990505728166331e-01 1.826582792485233364e+00 5.149225361221204320e-03 3.312968748151214338e-01 -2.197843072834257672e-01 1.686774232098480431e+00 1.163595704670928210e+00 3.708892992479755069e-02 -4.410085642755814939e-01 4.445778759229646604e-01 2.774027425708094907e-01 4.870366016241460261e-01 3.083943029717008955e-01 3.047366565897111634e-01 2.296946966084180974e-01 3.339965503932127433e-01 2.732319997930259259e-01 -3.640647452926918520e-02 -2.339739727207355569e-01 3.130147323946074200e-01 2.300487774257824192e-01 2.504743295525788671e-01 8.825876113034083481e-01 4.343335674537776026e-01 3.196710889845989501e-01 8.592000400129694571e-01 4.752540285668110931e-01 5.494127583962028494e-01 4.553614530946737959e-01 6.994875723543463319e-01 1.484277641192345509e+00 3.959091028902623211e-01 2.125256366932045005e+00 -2.262032913994647954e-02 1.570024390100794864e-01 3.081868523665278747e-01 3.343937716242212366e-01 3.815611481801197691e-01 2.716568685562285590e-01 3.012894080939925723e-01 3.070633671273089726e-01 3.701081178645615477e-01 2.225815400504894681e-01 -3.554225002969819136e-01 2.870557419003675892e-01 -5.749323612572617564e-02 3.041881814535947748e-01 4.183229345191080140e-01 4.343335674398172142e-01 2.318519282278427851e-01 2.261897158330032076e-01 -1.297484405942244790e+00 1.987721031158361074e+00 3.099147205477630895e-01 -7.582932516875250384e-01 2.968709732559580705e-01 3.326438363934518527e-01 3.116968072682124724e-01 -4.862624836409326079e+00 3.587704243447050967e+00 6.347936551572345154e-01 2.319391609383891426e-02 3.289432865039696452e-01 3.122554665200532598e-01 2.566079653527598703e-01 2.660552371566824004e+00 6.312175277891459713e-01 3.191284575865387385e-01 2.908711030639671291e-01 3.066183704967372359e-01 3.381860081333434853e-01 8.557976306427572677e-01 -3.729336845592453042e-01 -1.230221383641321165e+00 -1.239204275067899319e+00 3.097476879840740382e-01 3.138013142921996512e-01 7.400404409704726127e-01 3.676810489533631210e-01 1.494727687493374368e+00 4.910809320570923009e-01 3.068417740644934777e-01 3.354922727198830779e-01 3.099636865317700329e-01 3.444658039392008986e-01 3.031522779266060397e-01 6.389876630903122967e-01 2.953405156948292754e-01 6.614607568489226930e-01 2.340873815145022296e-01 6.143537811106844493e-02 3.028814204186829340e-01 1.780121602667308067e-01 2.693779137737992713e-01 2.747731901767520579e-01 6.318217690156503474e-01 4.960509811864334817e-01 2.776433005248944985e-01 2.403169793056192383e-01 3.044958538188042851e-01 2.754159120471348920e-01 1.695048224070525356e+00 1.939800282095805573e+00 3.038166952886954264e-01 3.257974279940786255e-01 3.101851548379986889e-01 1.680931903737862554e-01 2.221544587089143985e-01 4.153870466063175337e-01 3.019302806310444343e-01 3.283240376384610748e-01 8.101352432969696205e-01 8.961514783621432612e-01 3.015086150088026606e-01 1.893539574485261889e+00 3.518500010272285206e-01 -2.730131513058040582e-01 -2.711232738301865286e-01 -3.038381852168445252e-01 3.075861106824352986e-01 3.347846926696849135e-01 7.105507859608092280e-01 3.162628151985922287e-01 4.455872473131044509e-01 2.866889178283702488e-01 3.217216625873643432e-01 2.714003285512368580e-01 -6.386615865248664037e-02 1.009293796296893975e+00 3.121067427270134420e-01 3.380183658548960857e-01 3.019068270326876746e-01 3.504270928713191235e-01 3.369959939501866453e-01 3.968965313646384829e-01 -8.020734123477249455e-02 2.222107135295633140e-01 2.790167734983624026e-01 -3.640356327605975828e-02 4.343338725147266044e-01 1.095890535644227670e+00 9.719203084733724074e-01 -7.200260149794842635e-01 -3.985293788005753735e-01 6.610595781103443258e-01 -3.379853859780808545e+00 1.583672929616018576e+00 2.892468874877742735e-01 -3.679525591774482352e-02 3.125446304954024312e-01 9.058572479778619346e-01 3.127294049244400687e-01 4.214301152088428259e-01 -4.384383309345165070e-01 8.157665240501562609e-01 3.156140463009299291e-01 8.601189888282649854e-01 2.114312181285665115e+00 -3.729611164475347684e-01 -1.485987754364032076e+00 2.504693656269346702e-01 3.058970547335597145e-01 7.493024643493970682e-01 2.729298068378948061e-01 7.001488953411422189e-01 4.691070187493603383e-01 3.178306775745518009e-01 3.069287276769354644e-01 3.101514675873969784e-01 3.032056990408347752e-01 3.106489705986920646e-01 1.435959113845362234e+00 1.667936021561913895e+00 3.168759907069199633e-01 3.500047716185907820e-01 2.332700772858669613e-01 -2.499272452710885883e-01 2.278983644249693019e-01 -5.589549703497675992e-02 3.083374874830595025e-01 7.040066613154868369e-01 -5.546153127754708256e-01 2.801073230677718628e-01 3.037920761323065766e-01 1.547313093666127792e-01 3.354687725555540734e-01 1.869498947519762644e-01 3.085667468137400782e-01 3.085251399930563632e-01 5.338485173006661533e-02 2.987243391797890779e-01 4.330320414777834581e-01 1.135440791288781393e+00 1.111010393165225096e+00 9.127232816907823176e-01 2.133214441893513946e-01 7.935428598767753083e-01 1.583236510737233427e-01 5.028546444853885244e-01 -2.183892625266055099e+00 2.969493132626955245e-01 6.629530673406870411e-01 2.960734853443141024e-01 9.458370013287844547e-01 1.381562656861813565e+00 2.908711872302713886e-01 2.427194725600397007e-01 3.759278342144362073e-01 4.074716318614727273e-01 5.480004192505393279e-01 9.571832282104600909e-01 -8.188683939319504335e-01 2.573515547794705260e-01 2.540046638611632643e-02 3.045244313445456541e-01 3.405302565540848647e-01 7.623674371657612747e-01 -2.698283621228101947e-01 4.108650381178851063e-01 3.151515045351929722e-01 3.612917437059871562e-01 8.953716077382636307e-01 4.338004839999355378e-01 -2.223152416431646572e-01 8.581010067272391018e-01 -3.648747410576592964e-02 5.609584449817233143e-01 3.340699783667586131e-01 1.297953587860952052e+00 5.997733527279499599e-01 7.135395755138547180e-01 4.341055243019667498e-01 4.835023852586196602e-01 -5.898478283094070740e-01 2.228761151252827977e-01 7.507751643758553417e-01 3.005299842331530247e-01 6.082412220428555782e-01 3.233074162348522629e-01 3.040741159726257914e-01 7.134402067683455195e-01 1.647246711987814805e-01 -2.072580066873540794e+00 2.057299083577811272e-01 2.503592079330865250e-01 9.297488724188491815e-01 3.397907023488028200e-01 3.534535014146141796e-01 3.821703414512638286e-01 3.106664879139890423e-01 4.036129574527415609e-01 1.066437634436946946e-01 -1.634670071345323716e+00 7.652797792763180729e-01 2.414397373020784054e-01 3.225991600463697928e-01 2.497816995050574362e-01 8.191954306149886733e-01 3.035891733764029543e-01 -1.569407636479208390e-01 3.518782820073003137e-01 1.126363715707479729e+00 2.883389576817984579e-01 4.165403748602730660e-01 1.039965653797581213e+00 4.238427708784608949e-01 2.850842512354578417e+00 3.229104549039898409e-01 3.293788799623522112e-01 7.133057640695171786e-01 2.872557799390992317e-01 3.358839993890231357e-01 -2.177970706942854218e+00 4.577086237743057118e-01 3.032141629038620501e-01 5.195798107305462654e-01 3.110975637990447407e-01 1.915320133925406676e-01 -1.706594775800242825e-01 2.084663319268014181e+00 -5.180344598839691228e-01 8.249065647684943325e-01 3.088937316695699598e-01 3.085277634714434503e-01 8.508641526615613460e-01 2.794808332542545459e-01 1.347640631938543221e+00 2.293084996913037910e-01 4.054109814103192266e-01 -8.875618433675982466e-01 -1.300981588280765433e-01 -5.972755339626211191e-01 -4.072191588810300189e+00 3.006479971680066310e+00 1.944900011781013766e-02 2.822621774986830978e-01 -1.668341845422675718e+00 3.115055551252099986e-01 4.384002978188065724e-01 3.270529299647773613e-01 1.848316665356512511e-01 6.430739477047273667e-01 6.043304572616986503e-01 1.098976172028908849e+00 -3.985293799256305891e-01 -2.378834805991842105e-01 2.562243218750072105e-01 -1.198892500968216090e+00 3.267457916081740188e-01 -6.593414258050043220e-01 2.932435431621705502e-01 4.426703921725707591e-01 1.158233715310288819e-01 4.593610432426357137e-01 2.621122176344788390e-01 -1.409831341906466265e-02 2.578227643162844251e-01 2.826858192032575823e-01 3.670165045773493562e-01 3.248560908525501278e-01 3.058923412937070152e-01 -7.199163553873559884e-01 4.667722575057103862e-01 1.548645033863922382e+00 7.723181979486253013e-02 2.352383724777839524e-01 2.422045314362323010e-01 1.203343306159057047e+00 3.327925341051551356e-01 8.975721991607837902e-02 8.840458261704288168e-01 2.315544355477903438e-01 1.891079531114632895e+00 2.861801741171640101e-01 1.367308286394686823e+00 3.123545353963218529e-01 7.340629898254528163e-01 1.358738995508482983e+00 4.010975829035578477e-01 2.750126416345694547e-01 9.512078499870131321e-01 -1.837595819230767313e-01 -6.782153986915727406e-02 2.497726107089200953e-01 3.063034008204656433e-01 3.644598415275101533e-01 1.457733284415984043e-01 1.098476953917512100e-01 -3.877475538215880979e-01 1.292173798809930219e+00 2.987831786682857982e-01 3.062550913990104151e-01 -3.264070333635543886e+00 5.631810811307413900e-01 2.189648938936990252e-01 3.481961520615667327e-01 3.674991196312373809e-01 4.260614045896116697e-01 -1.125867804831521379e+00 6.343818065037906129e-01 2.959612290369913468e-01 3.085749303193229265e-01 1.019231609274934502e+00 4.690004790009051350e-01 3.122343164156795581e-01 -1.420721392905085478e+00 3.524268340031546654e-01 8.955254643330304853e-01 3.646813499779727463e-01 3.032566660714949291e-01 2.917888389197738630e-01 7.107324841241173807e-01 -4.513081960444477458e-02 3.075640756980704826e-01 3.044000684124033018e-01 1.009838214866312089e-01 6.665846001173962865e-01 2.433069490763583587e-01 6.872857997187076240e-01 1.861912776915172762e-01 6.940676465833992559e-01 -2.494168394807223521e-01 -1.512727313925852357e+00 2.820334782076338032e-01 -2.133463145940687686e-02 2.732936973523097945e-01 3.531573013044850828e-01 5.586472706333953098e-02 4.960510628746781503e-01 3.171578385951295820e-01 8.404485258318811214e-02 4.238727587721284884e-01 3.364350720849988430e-01 2.841412025371440331e-01 3.384700949338819709e-01 -8.660506961958086558e-01 3.000780194257511302e-01 3.208973507686559423e-01 2.819435906603993680e-01 -3.379164639821631844e-01 3.121641809141381674e-01 8.397081666949072210e-01 -6.202792931901213169e-01 1.139230352757269582e+00 6.209625249834902494e-01 3.215588868077208784e-01 3.052968168829370277e-01 -2.070986150352882138e+00 3.049389264449442472e-01 2.542277148853863689e-01 3.206672015135477727e-01 4.960509259597794540e-01 3.094061240301541060e-01 3.467760403477501141e-01 5.534569221763756958e-02 3.061418416008729326e-01 4.332173142926055709e-01 2.868651400885473546e-01 2.366923964414672232e-01 2.820943516680599616e-01 3.025992194395901169e-01 3.138149146990951155e-01 3.331337257811839980e-01 1.363051382664802469e-01 3.074008315703492533e-01 6.292428668833501826e-01 1.572975400082176900e-01 3.131356329504559888e-01 -1.503308961153438927e-01 1.983309779387724403e-01 6.471291833678461947e-01 4.581801414582608700e+00 3.320600202992428085e-01 6.423512105905829217e-02 5.715063766605276152e-01 1.751523032129899682e-01 1.573097735470811775e+00 3.280072159572026691e-01 6.317444561441782902e-01 3.021956100151780289e-01
