# 
#                 ----------------------------------------------------
#                 Data from a 3D direct N-body simulation. 
# 
#                 rows are i-particle; 
#                 coumns are :mass, tag, x ,y, z, vx, vy, vz, ax, ay, az
# 
#                 NTHU, Computational Physics 
# 
#                 ----------------------------------------------------
#                 Time = 0.0
0.000000000000000000e+00 1.000000000000000000e+00 2.000000000000000000e+00 3.000000000000000000e+00 4.000000000000000000e+00 5.000000000000000000e+00 6.000000000000000000e+00 7.000000000000000000e+00 8.000000000000000000e+00 9.000000000000000000e+00 1.000000000000000000e+01 1.100000000000000000e+01 1.200000000000000000e+01 1.300000000000000000e+01 1.400000000000000000e+01 1.500000000000000000e+01 1.600000000000000000e+01 1.700000000000000000e+01 1.800000000000000000e+01 1.900000000000000000e+01 2.000000000000000000e+01 2.100000000000000000e+01 2.200000000000000000e+01 2.300000000000000000e+01 2.400000000000000000e+01 2.500000000000000000e+01 2.600000000000000000e+01 2.700000000000000000e+01 2.800000000000000000e+01 2.900000000000000000e+01 3.000000000000000000e+01 3.100000000000000000e+01 3.200000000000000000e+01 3.300000000000000000e+01 3.400000000000000000e+01 3.500000000000000000e+01 3.600000000000000000e+01 3.700000000000000000e+01 3.800000000000000000e+01 3.900000000000000000e+01 4.000000000000000000e+01 4.100000000000000000e+01 4.200000000000000000e+01 4.300000000000000000e+01 4.400000000000000000e+01 4.500000000000000000e+01 4.600000000000000000e+01 4.700000000000000000e+01 4.800000000000000000e+01 4.900000000000000000e+01 5.000000000000000000e+01 5.100000000000000000e+01 5.200000000000000000e+01 5.300000000000000000e+01 5.400000000000000000e+01 5.500000000000000000e+01 5.600000000000000000e+01 5.700000000000000000e+01 5.800000000000000000e+01 5.900000000000000000e+01 6.000000000000000000e+01 6.100000000000000000e+01 6.200000000000000000e+01 6.300000000000000000e+01 6.400000000000000000e+01 6.500000000000000000e+01 6.600000000000000000e+01 6.700000000000000000e+01 6.800000000000000000e+01 6.900000000000000000e+01 7.000000000000000000e+01 7.100000000000000000e+01 7.200000000000000000e+01 7.300000000000000000e+01 7.400000000000000000e+01 7.500000000000000000e+01 7.600000000000000000e+01 7.700000000000000000e+01 7.800000000000000000e+01 7.900000000000000000e+01 8.000000000000000000e+01 8.100000000000000000e+01 8.200000000000000000e+01 8.300000000000000000e+01 8.400000000000000000e+01 8.500000000000000000e+01 8.600000000000000000e+01 8.700000000000000000e+01 8.800000000000000000e+01 8.900000000000000000e+01 9.000000000000000000e+01 9.100000000000000000e+01 9.200000000000000000e+01 9.300000000000000000e+01 9.400000000000000000e+01 9.500000000000000000e+01 9.600000000000000000e+01 9.700000000000000000e+01 9.800000000000000000e+01 9.900000000000000000e+01 1.000000000000000000e+02 1.010000000000000000e+02 1.020000000000000000e+02 1.030000000000000000e+02 1.040000000000000000e+02 1.050000000000000000e+02 1.060000000000000000e+02 1.070000000000000000e+02 1.080000000000000000e+02 1.090000000000000000e+02 1.100000000000000000e+02 1.110000000000000000e+02 1.120000000000000000e+02 1.130000000000000000e+02 1.140000000000000000e+02 1.150000000000000000e+02 1.160000000000000000e+02 1.170000000000000000e+02 1.180000000000000000e+02 1.190000000000000000e+02 1.200000000000000000e+02 1.210000000000000000e+02 1.220000000000000000e+02 1.230000000000000000e+02 1.240000000000000000e+02 1.250000000000000000e+02 1.260000000000000000e+02 1.270000000000000000e+02 1.280000000000000000e+02 1.290000000000000000e+02 1.300000000000000000e+02 1.310000000000000000e+02 1.320000000000000000e+02 1.330000000000000000e+02 1.340000000000000000e+02 1.350000000000000000e+02 1.360000000000000000e+02 1.370000000000000000e+02 1.380000000000000000e+02 1.390000000000000000e+02 1.400000000000000000e+02 1.410000000000000000e+02 1.420000000000000000e+02 1.430000000000000000e+02 1.440000000000000000e+02 1.450000000000000000e+02 1.460000000000000000e+02 1.470000000000000000e+02 1.480000000000000000e+02 1.490000000000000000e+02 1.500000000000000000e+02 1.510000000000000000e+02 1.520000000000000000e+02 1.530000000000000000e+02 1.540000000000000000e+02 1.550000000000000000e+02 1.560000000000000000e+02 1.570000000000000000e+02 1.580000000000000000e+02 1.590000000000000000e+02 1.600000000000000000e+02 1.610000000000000000e+02 1.620000000000000000e+02 1.630000000000000000e+02 1.640000000000000000e+02 1.650000000000000000e+02 1.660000000000000000e+02 1.670000000000000000e+02 1.680000000000000000e+02 1.690000000000000000e+02 1.700000000000000000e+02 1.710000000000000000e+02 1.720000000000000000e+02 1.730000000000000000e+02 1.740000000000000000e+02 1.750000000000000000e+02 1.760000000000000000e+02 1.770000000000000000e+02 1.780000000000000000e+02 1.790000000000000000e+02 1.800000000000000000e+02 1.810000000000000000e+02 1.820000000000000000e+02 1.830000000000000000e+02 1.840000000000000000e+02 1.850000000000000000e+02 1.860000000000000000e+02 1.870000000000000000e+02 1.880000000000000000e+02 1.890000000000000000e+02 1.900000000000000000e+02 1.910000000000000000e+02 1.920000000000000000e+02 1.930000000000000000e+02 1.940000000000000000e+02 1.950000000000000000e+02 1.960000000000000000e+02 1.970000000000000000e+02 1.980000000000000000e+02 1.990000000000000000e+02 2.000000000000000000e+02 2.010000000000000000e+02 2.020000000000000000e+02 2.030000000000000000e+02 2.040000000000000000e+02 2.050000000000000000e+02 2.060000000000000000e+02 2.070000000000000000e+02 2.080000000000000000e+02 2.090000000000000000e+02 2.100000000000000000e+02 2.110000000000000000e+02 2.120000000000000000e+02 2.130000000000000000e+02 2.140000000000000000e+02 2.150000000000000000e+02 2.160000000000000000e+02 2.170000000000000000e+02 2.180000000000000000e+02 2.190000000000000000e+02 2.200000000000000000e+02 2.210000000000000000e+02 2.220000000000000000e+02 2.230000000000000000e+02 2.240000000000000000e+02 2.250000000000000000e+02 2.260000000000000000e+02 2.270000000000000000e+02 2.280000000000000000e+02 2.290000000000000000e+02 2.300000000000000000e+02 2.310000000000000000e+02 2.320000000000000000e+02 2.330000000000000000e+02 2.340000000000000000e+02 2.350000000000000000e+02 2.360000000000000000e+02 2.370000000000000000e+02 2.380000000000000000e+02 2.390000000000000000e+02 2.400000000000000000e+02 2.410000000000000000e+02 2.420000000000000000e+02 2.430000000000000000e+02 2.440000000000000000e+02 2.450000000000000000e+02 2.460000000000000000e+02 2.470000000000000000e+02 2.480000000000000000e+02 2.490000000000000000e+02 2.500000000000000000e+02 2.510000000000000000e+02 2.520000000000000000e+02 2.530000000000000000e+02 2.540000000000000000e+02 2.550000000000000000e+02 2.560000000000000000e+02 2.570000000000000000e+02 2.580000000000000000e+02 2.590000000000000000e+02 2.600000000000000000e+02 2.610000000000000000e+02 2.620000000000000000e+02 2.630000000000000000e+02 2.640000000000000000e+02 2.650000000000000000e+02 2.660000000000000000e+02 2.670000000000000000e+02 2.680000000000000000e+02 2.690000000000000000e+02 2.700000000000000000e+02 2.710000000000000000e+02 2.720000000000000000e+02 2.730000000000000000e+02 2.740000000000000000e+02 2.750000000000000000e+02 2.760000000000000000e+02 2.770000000000000000e+02 2.780000000000000000e+02 2.790000000000000000e+02 2.800000000000000000e+02 2.810000000000000000e+02 2.820000000000000000e+02 2.830000000000000000e+02 2.840000000000000000e+02 2.850000000000000000e+02 2.860000000000000000e+02 2.870000000000000000e+02 2.880000000000000000e+02 2.890000000000000000e+02 2.900000000000000000e+02 2.910000000000000000e+02 2.920000000000000000e+02 2.930000000000000000e+02 2.940000000000000000e+02 2.950000000000000000e+02 2.960000000000000000e+02 2.970000000000000000e+02 2.980000000000000000e+02 2.990000000000000000e+02 3.000000000000000000e+02 3.010000000000000000e+02 3.020000000000000000e+02 3.030000000000000000e+02 3.040000000000000000e+02 3.050000000000000000e+02 3.060000000000000000e+02 3.070000000000000000e+02 3.080000000000000000e+02 3.090000000000000000e+02 3.100000000000000000e+02 3.110000000000000000e+02 3.120000000000000000e+02 3.130000000000000000e+02 3.140000000000000000e+02 3.150000000000000000e+02 3.160000000000000000e+02 3.170000000000000000e+02 3.180000000000000000e+02 3.190000000000000000e+02 3.200000000000000000e+02 3.210000000000000000e+02 3.220000000000000000e+02 3.230000000000000000e+02 3.240000000000000000e+02 3.250000000000000000e+02 3.260000000000000000e+02 3.270000000000000000e+02 3.280000000000000000e+02 3.290000000000000000e+02 3.300000000000000000e+02 3.310000000000000000e+02 3.320000000000000000e+02 3.330000000000000000e+02 3.340000000000000000e+02 3.350000000000000000e+02 3.360000000000000000e+02 3.370000000000000000e+02 3.380000000000000000e+02 3.390000000000000000e+02 3.400000000000000000e+02 3.410000000000000000e+02 3.420000000000000000e+02 3.430000000000000000e+02 3.440000000000000000e+02 3.450000000000000000e+02 3.460000000000000000e+02 3.470000000000000000e+02 3.480000000000000000e+02 3.490000000000000000e+02 3.500000000000000000e+02 3.510000000000000000e+02 3.520000000000000000e+02 3.530000000000000000e+02 3.540000000000000000e+02 3.550000000000000000e+02 3.560000000000000000e+02 3.570000000000000000e+02 3.580000000000000000e+02 3.590000000000000000e+02 3.600000000000000000e+02 3.610000000000000000e+02 3.620000000000000000e+02 3.630000000000000000e+02 3.640000000000000000e+02 3.650000000000000000e+02 3.660000000000000000e+02 3.670000000000000000e+02 3.680000000000000000e+02 3.690000000000000000e+02 3.700000000000000000e+02 3.710000000000000000e+02 3.720000000000000000e+02 3.730000000000000000e+02 3.740000000000000000e+02 3.750000000000000000e+02 3.760000000000000000e+02 3.770000000000000000e+02 3.780000000000000000e+02 3.790000000000000000e+02 3.800000000000000000e+02 3.810000000000000000e+02 3.820000000000000000e+02 3.830000000000000000e+02 3.840000000000000000e+02 3.850000000000000000e+02 3.860000000000000000e+02 3.870000000000000000e+02 3.880000000000000000e+02 3.890000000000000000e+02 3.900000000000000000e+02 3.910000000000000000e+02 3.920000000000000000e+02 3.930000000000000000e+02 3.940000000000000000e+02 3.950000000000000000e+02 3.960000000000000000e+02 3.970000000000000000e+02 3.980000000000000000e+02 3.990000000000000000e+02 4.000000000000000000e+02 4.010000000000000000e+02 4.020000000000000000e+02 4.030000000000000000e+02 4.040000000000000000e+02 4.050000000000000000e+02 4.060000000000000000e+02 4.070000000000000000e+02 4.080000000000000000e+02 4.090000000000000000e+02 4.100000000000000000e+02 4.110000000000000000e+02 4.120000000000000000e+02 4.130000000000000000e+02 4.140000000000000000e+02 4.150000000000000000e+02 4.160000000000000000e+02 4.170000000000000000e+02 4.180000000000000000e+02 4.190000000000000000e+02 4.200000000000000000e+02 4.210000000000000000e+02 4.220000000000000000e+02 4.230000000000000000e+02 4.240000000000000000e+02 4.250000000000000000e+02 4.260000000000000000e+02 4.270000000000000000e+02 4.280000000000000000e+02 4.290000000000000000e+02 4.300000000000000000e+02 4.310000000000000000e+02 4.320000000000000000e+02 4.330000000000000000e+02 4.340000000000000000e+02 4.350000000000000000e+02 4.360000000000000000e+02 4.370000000000000000e+02 4.380000000000000000e+02 4.390000000000000000e+02 4.400000000000000000e+02 4.410000000000000000e+02 4.420000000000000000e+02 4.430000000000000000e+02 4.440000000000000000e+02 4.450000000000000000e+02 4.460000000000000000e+02 4.470000000000000000e+02 4.480000000000000000e+02 4.490000000000000000e+02 4.500000000000000000e+02 4.510000000000000000e+02 4.520000000000000000e+02 4.530000000000000000e+02 4.540000000000000000e+02 4.550000000000000000e+02 4.560000000000000000e+02 4.570000000000000000e+02 4.580000000000000000e+02 4.590000000000000000e+02 4.600000000000000000e+02 4.610000000000000000e+02 4.620000000000000000e+02 4.630000000000000000e+02 4.640000000000000000e+02 4.650000000000000000e+02 4.660000000000000000e+02 4.670000000000000000e+02 4.680000000000000000e+02 4.690000000000000000e+02 4.700000000000000000e+02 4.710000000000000000e+02 4.720000000000000000e+02 4.730000000000000000e+02 4.740000000000000000e+02 4.750000000000000000e+02 4.760000000000000000e+02 4.770000000000000000e+02 4.780000000000000000e+02 4.790000000000000000e+02 4.800000000000000000e+02 4.810000000000000000e+02 4.820000000000000000e+02 4.830000000000000000e+02 4.840000000000000000e+02 4.850000000000000000e+02 4.860000000000000000e+02 4.870000000000000000e+02 4.880000000000000000e+02 4.890000000000000000e+02 4.900000000000000000e+02 4.910000000000000000e+02 4.920000000000000000e+02 4.930000000000000000e+02 4.940000000000000000e+02 4.950000000000000000e+02 4.960000000000000000e+02 4.970000000000000000e+02 4.980000000000000000e+02 4.990000000000000000e+02 5.000000000000000000e+02 5.010000000000000000e+02 5.020000000000000000e+02 5.030000000000000000e+02 5.040000000000000000e+02 5.050000000000000000e+02 5.060000000000000000e+02 5.070000000000000000e+02 5.080000000000000000e+02 5.090000000000000000e+02 5.100000000000000000e+02 5.110000000000000000e+02 5.120000000000000000e+02 5.130000000000000000e+02 5.140000000000000000e+02 5.150000000000000000e+02 5.160000000000000000e+02 5.170000000000000000e+02 5.180000000000000000e+02 5.190000000000000000e+02 5.200000000000000000e+02 5.210000000000000000e+02 5.220000000000000000e+02 5.230000000000000000e+02 5.240000000000000000e+02 5.250000000000000000e+02 5.260000000000000000e+02 5.270000000000000000e+02 5.280000000000000000e+02 5.290000000000000000e+02 5.300000000000000000e+02 5.310000000000000000e+02 5.320000000000000000e+02 5.330000000000000000e+02 5.340000000000000000e+02 5.350000000000000000e+02 5.360000000000000000e+02 5.370000000000000000e+02 5.380000000000000000e+02 5.390000000000000000e+02 5.400000000000000000e+02 5.410000000000000000e+02 5.420000000000000000e+02 5.430000000000000000e+02 5.440000000000000000e+02 5.450000000000000000e+02 5.460000000000000000e+02 5.470000000000000000e+02 5.480000000000000000e+02 5.490000000000000000e+02 5.500000000000000000e+02 5.510000000000000000e+02 5.520000000000000000e+02 5.530000000000000000e+02 5.540000000000000000e+02 5.550000000000000000e+02 5.560000000000000000e+02 5.570000000000000000e+02 5.580000000000000000e+02 5.590000000000000000e+02 5.600000000000000000e+02 5.610000000000000000e+02 5.620000000000000000e+02 5.630000000000000000e+02 5.640000000000000000e+02 5.650000000000000000e+02 5.660000000000000000e+02 5.670000000000000000e+02 5.680000000000000000e+02 5.690000000000000000e+02 5.700000000000000000e+02 5.710000000000000000e+02 5.720000000000000000e+02 5.730000000000000000e+02 5.740000000000000000e+02 5.750000000000000000e+02 5.760000000000000000e+02 5.770000000000000000e+02 5.780000000000000000e+02 5.790000000000000000e+02 5.800000000000000000e+02 5.810000000000000000e+02 5.820000000000000000e+02 5.830000000000000000e+02 5.840000000000000000e+02 5.850000000000000000e+02 5.860000000000000000e+02 5.870000000000000000e+02 5.880000000000000000e+02 5.890000000000000000e+02 5.900000000000000000e+02 5.910000000000000000e+02 5.920000000000000000e+02 5.930000000000000000e+02 5.940000000000000000e+02 5.950000000000000000e+02 5.960000000000000000e+02 5.970000000000000000e+02 5.980000000000000000e+02 5.990000000000000000e+02 6.000000000000000000e+02 6.010000000000000000e+02 6.020000000000000000e+02 6.030000000000000000e+02 6.040000000000000000e+02 6.050000000000000000e+02 6.060000000000000000e+02 6.070000000000000000e+02 6.080000000000000000e+02 6.090000000000000000e+02 6.100000000000000000e+02 6.110000000000000000e+02 6.120000000000000000e+02 6.130000000000000000e+02 6.140000000000000000e+02 6.150000000000000000e+02 6.160000000000000000e+02 6.170000000000000000e+02 6.180000000000000000e+02 6.190000000000000000e+02 6.200000000000000000e+02 6.210000000000000000e+02 6.220000000000000000e+02 6.230000000000000000e+02 6.240000000000000000e+02 6.250000000000000000e+02 6.260000000000000000e+02 6.270000000000000000e+02 6.280000000000000000e+02 6.290000000000000000e+02 6.300000000000000000e+02 6.310000000000000000e+02 6.320000000000000000e+02 6.330000000000000000e+02 6.340000000000000000e+02 6.350000000000000000e+02 6.360000000000000000e+02 6.370000000000000000e+02 6.380000000000000000e+02 6.390000000000000000e+02 6.400000000000000000e+02 6.410000000000000000e+02 6.420000000000000000e+02 6.430000000000000000e+02 6.440000000000000000e+02 6.450000000000000000e+02 6.460000000000000000e+02 6.470000000000000000e+02 6.480000000000000000e+02 6.490000000000000000e+02 6.500000000000000000e+02 6.510000000000000000e+02 6.520000000000000000e+02 6.530000000000000000e+02 6.540000000000000000e+02 6.550000000000000000e+02 6.560000000000000000e+02 6.570000000000000000e+02 6.580000000000000000e+02 6.590000000000000000e+02 6.600000000000000000e+02 6.610000000000000000e+02 6.620000000000000000e+02 6.630000000000000000e+02 6.640000000000000000e+02 6.650000000000000000e+02 6.660000000000000000e+02 6.670000000000000000e+02 6.680000000000000000e+02 6.690000000000000000e+02 6.700000000000000000e+02 6.710000000000000000e+02 6.720000000000000000e+02 6.730000000000000000e+02 6.740000000000000000e+02 6.750000000000000000e+02 6.760000000000000000e+02 6.770000000000000000e+02 6.780000000000000000e+02 6.790000000000000000e+02 6.800000000000000000e+02 6.810000000000000000e+02 6.820000000000000000e+02 6.830000000000000000e+02 6.840000000000000000e+02 6.850000000000000000e+02 6.860000000000000000e+02 6.870000000000000000e+02 6.880000000000000000e+02 6.890000000000000000e+02 6.900000000000000000e+02 6.910000000000000000e+02 6.920000000000000000e+02 6.930000000000000000e+02 6.940000000000000000e+02 6.950000000000000000e+02 6.960000000000000000e+02 6.970000000000000000e+02 6.980000000000000000e+02 6.990000000000000000e+02 7.000000000000000000e+02 7.010000000000000000e+02 7.020000000000000000e+02 7.030000000000000000e+02 7.040000000000000000e+02 7.050000000000000000e+02 7.060000000000000000e+02 7.070000000000000000e+02 7.080000000000000000e+02 7.090000000000000000e+02 7.100000000000000000e+02 7.110000000000000000e+02 7.120000000000000000e+02 7.130000000000000000e+02 7.140000000000000000e+02 7.150000000000000000e+02 7.160000000000000000e+02 7.170000000000000000e+02 7.180000000000000000e+02 7.190000000000000000e+02 7.200000000000000000e+02 7.210000000000000000e+02 7.220000000000000000e+02 7.230000000000000000e+02 7.240000000000000000e+02 7.250000000000000000e+02 7.260000000000000000e+02 7.270000000000000000e+02 7.280000000000000000e+02 7.290000000000000000e+02 7.300000000000000000e+02 7.310000000000000000e+02 7.320000000000000000e+02 7.330000000000000000e+02 7.340000000000000000e+02 7.350000000000000000e+02 7.360000000000000000e+02 7.370000000000000000e+02 7.380000000000000000e+02 7.390000000000000000e+02 7.400000000000000000e+02 7.410000000000000000e+02 7.420000000000000000e+02 7.430000000000000000e+02 7.440000000000000000e+02 7.450000000000000000e+02 7.460000000000000000e+02 7.470000000000000000e+02 7.480000000000000000e+02 7.490000000000000000e+02 7.500000000000000000e+02 7.510000000000000000e+02 7.520000000000000000e+02 7.530000000000000000e+02 7.540000000000000000e+02 7.550000000000000000e+02 7.560000000000000000e+02 7.570000000000000000e+02 7.580000000000000000e+02 7.590000000000000000e+02 7.600000000000000000e+02 7.610000000000000000e+02 7.620000000000000000e+02 7.630000000000000000e+02 7.640000000000000000e+02 7.650000000000000000e+02 7.660000000000000000e+02 7.670000000000000000e+02 7.680000000000000000e+02 7.690000000000000000e+02 7.700000000000000000e+02 7.710000000000000000e+02 7.720000000000000000e+02 7.730000000000000000e+02 7.740000000000000000e+02 7.750000000000000000e+02 7.760000000000000000e+02 7.770000000000000000e+02 7.780000000000000000e+02 7.790000000000000000e+02 7.800000000000000000e+02 7.810000000000000000e+02 7.820000000000000000e+02 7.830000000000000000e+02 7.840000000000000000e+02 7.850000000000000000e+02 7.860000000000000000e+02 7.870000000000000000e+02 7.880000000000000000e+02 7.890000000000000000e+02 7.900000000000000000e+02 7.910000000000000000e+02 7.920000000000000000e+02 7.930000000000000000e+02 7.940000000000000000e+02 7.950000000000000000e+02 7.960000000000000000e+02 7.970000000000000000e+02 7.980000000000000000e+02 7.990000000000000000e+02 8.000000000000000000e+02 8.010000000000000000e+02 8.020000000000000000e+02 8.030000000000000000e+02 8.040000000000000000e+02 8.050000000000000000e+02 8.060000000000000000e+02 8.070000000000000000e+02 8.080000000000000000e+02 8.090000000000000000e+02 8.100000000000000000e+02 8.110000000000000000e+02 8.120000000000000000e+02 8.130000000000000000e+02 8.140000000000000000e+02 8.150000000000000000e+02 8.160000000000000000e+02 8.170000000000000000e+02 8.180000000000000000e+02 8.190000000000000000e+02 8.200000000000000000e+02 8.210000000000000000e+02 8.220000000000000000e+02 8.230000000000000000e+02 8.240000000000000000e+02 8.250000000000000000e+02 8.260000000000000000e+02 8.270000000000000000e+02 8.280000000000000000e+02 8.290000000000000000e+02 8.300000000000000000e+02 8.310000000000000000e+02 8.320000000000000000e+02 8.330000000000000000e+02 8.340000000000000000e+02 8.350000000000000000e+02 8.360000000000000000e+02 8.370000000000000000e+02 8.380000000000000000e+02 8.390000000000000000e+02 8.400000000000000000e+02 8.410000000000000000e+02 8.420000000000000000e+02 8.430000000000000000e+02 8.440000000000000000e+02 8.450000000000000000e+02 8.460000000000000000e+02 8.470000000000000000e+02 8.480000000000000000e+02 8.490000000000000000e+02 8.500000000000000000e+02 8.510000000000000000e+02 8.520000000000000000e+02 8.530000000000000000e+02 8.540000000000000000e+02 8.550000000000000000e+02 8.560000000000000000e+02 8.570000000000000000e+02 8.580000000000000000e+02 8.590000000000000000e+02 8.600000000000000000e+02 8.610000000000000000e+02 8.620000000000000000e+02 8.630000000000000000e+02 8.640000000000000000e+02 8.650000000000000000e+02 8.660000000000000000e+02 8.670000000000000000e+02 8.680000000000000000e+02 8.690000000000000000e+02 8.700000000000000000e+02 8.710000000000000000e+02 8.720000000000000000e+02 8.730000000000000000e+02 8.740000000000000000e+02 8.750000000000000000e+02 8.760000000000000000e+02 8.770000000000000000e+02 8.780000000000000000e+02 8.790000000000000000e+02 8.800000000000000000e+02 8.810000000000000000e+02 8.820000000000000000e+02 8.830000000000000000e+02 8.840000000000000000e+02 8.850000000000000000e+02 8.860000000000000000e+02 8.870000000000000000e+02 8.880000000000000000e+02 8.890000000000000000e+02 8.900000000000000000e+02 8.910000000000000000e+02 8.920000000000000000e+02 8.930000000000000000e+02 8.940000000000000000e+02 8.950000000000000000e+02 8.960000000000000000e+02 8.970000000000000000e+02 8.980000000000000000e+02 8.990000000000000000e+02 9.000000000000000000e+02 9.010000000000000000e+02 9.020000000000000000e+02 9.030000000000000000e+02 9.040000000000000000e+02 9.050000000000000000e+02 9.060000000000000000e+02 9.070000000000000000e+02 9.080000000000000000e+02 9.090000000000000000e+02 9.100000000000000000e+02 9.110000000000000000e+02 9.120000000000000000e+02 9.130000000000000000e+02 9.140000000000000000e+02 9.150000000000000000e+02 9.160000000000000000e+02 9.170000000000000000e+02 9.180000000000000000e+02 9.190000000000000000e+02 9.200000000000000000e+02 9.210000000000000000e+02 9.220000000000000000e+02 9.230000000000000000e+02 9.240000000000000000e+02 9.250000000000000000e+02 9.260000000000000000e+02 9.270000000000000000e+02 9.280000000000000000e+02 9.290000000000000000e+02 9.300000000000000000e+02 9.310000000000000000e+02 9.320000000000000000e+02 9.330000000000000000e+02 9.340000000000000000e+02 9.350000000000000000e+02 9.360000000000000000e+02 9.370000000000000000e+02 9.380000000000000000e+02 9.390000000000000000e+02 9.400000000000000000e+02 9.410000000000000000e+02 9.420000000000000000e+02 9.430000000000000000e+02 9.440000000000000000e+02 9.450000000000000000e+02 9.460000000000000000e+02 9.470000000000000000e+02 9.480000000000000000e+02 9.490000000000000000e+02 9.500000000000000000e+02 9.510000000000000000e+02 9.520000000000000000e+02 9.530000000000000000e+02 9.540000000000000000e+02 9.550000000000000000e+02 9.560000000000000000e+02 9.570000000000000000e+02 9.580000000000000000e+02 9.590000000000000000e+02 9.600000000000000000e+02 9.610000000000000000e+02 9.620000000000000000e+02 9.630000000000000000e+02 9.640000000000000000e+02 9.650000000000000000e+02 9.660000000000000000e+02 9.670000000000000000e+02 9.680000000000000000e+02 9.690000000000000000e+02 9.700000000000000000e+02 9.710000000000000000e+02 9.720000000000000000e+02 9.730000000000000000e+02 9.740000000000000000e+02 9.750000000000000000e+02 9.760000000000000000e+02 9.770000000000000000e+02 9.780000000000000000e+02 9.790000000000000000e+02 9.800000000000000000e+02 9.810000000000000000e+02 9.820000000000000000e+02 9.830000000000000000e+02 9.840000000000000000e+02 9.850000000000000000e+02 9.860000000000000000e+02 9.870000000000000000e+02 9.880000000000000000e+02 9.890000000000000000e+02 9.900000000000000000e+02 9.910000000000000000e+02 9.920000000000000000e+02 9.930000000000000000e+02 9.940000000000000000e+02 9.950000000000000000e+02 9.960000000000000000e+02 9.970000000000000000e+02 9.980000000000000000e+02 9.990000000000000000e+02
1.000000000000000000e+00 1.000000000000000000e+00 1.000000000000000000e+00 1.000000000000000000e+00 1.000000000000000000e+00 1.000000000000000000e+00 1.000000000000000000e+00 1.000000000000000000e+00 1.000000000000000000e+00 1.000000000000000000e+00 1.000000000000000000e+00 1.000000000000000000e+00 1.000000000000000000e+00 1.000000000000000000e+00 1.000000000000000000e+00 1.000000000000000000e+00 1.000000000000000000e+00 1.000000000000000000e+00 1.000000000000000000e+00 1.000000000000000000e+00 1.000000000000000000e+00 1.000000000000000000e+00 1.000000000000000000e+00 1.000000000000000000e+00 1.000000000000000000e+00 1.000000000000000000e+00 1.000000000000000000e+00 1.000000000000000000e+00 1.000000000000000000e+00 1.000000000000000000e+00 1.000000000000000000e+00 1.000000000000000000e+00 1.000000000000000000e+00 1.000000000000000000e+00 1.000000000000000000e+00 1.000000000000000000e+00 1.000000000000000000e+00 1.000000000000000000e+00 1.000000000000000000e+00 1.000000000000000000e+00 1.000000000000000000e+00 1.000000000000000000e+00 1.000000000000000000e+00 1.000000000000000000e+00 1.000000000000000000e+00 1.000000000000000000e+00 1.000000000000000000e+00 1.000000000000000000e+00 1.000000000000000000e+00 1.000000000000000000e+00 1.000000000000000000e+00 1.000000000000000000e+00 1.000000000000000000e+00 1.000000000000000000e+00 1.000000000000000000e+00 1.000000000000000000e+00 1.000000000000000000e+00 1.000000000000000000e+00 1.000000000000000000e+00 1.000000000000000000e+00 1.000000000000000000e+00 1.000000000000000000e+00 1.000000000000000000e+00 1.000000000000000000e+00 1.000000000000000000e+00 1.000000000000000000e+00 1.000000000000000000e+00 1.000000000000000000e+00 1.000000000000000000e+00 1.000000000000000000e+00 1.000000000000000000e+00 1.000000000000000000e+00 1.000000000000000000e+00 1.000000000000000000e+00 1.000000000000000000e+00 1.000000000000000000e+00 1.000000000000000000e+00 1.000000000000000000e+00 1.000000000000000000e+00 1.000000000000000000e+00 1.000000000000000000e+00 1.000000000000000000e+00 1.000000000000000000e+00 1.000000000000000000e+00 1.000000000000000000e+00 1.000000000000000000e+00 1.000000000000000000e+00 1.000000000000000000e+00 1.000000000000000000e+00 1.000000000000000000e+00 1.000000000000000000e+00 1.000000000000000000e+00 1.000000000000000000e+00 1.000000000000000000e+00 1.000000000000000000e+00 1.000000000000000000e+00 1.000000000000000000e+00 1.000000000000000000e+00 1.000000000000000000e+00 1.000000000000000000e+00 1.000000000000000000e+00 1.000000000000000000e+00 1.000000000000000000e+00 1.000000000000000000e+00 1.000000000000000000e+00 1.000000000000000000e+00 1.000000000000000000e+00 1.000000000000000000e+00 1.000000000000000000e+00 1.000000000000000000e+00 1.000000000000000000e+00 1.000000000000000000e+00 1.000000000000000000e+00 1.000000000000000000e+00 1.000000000000000000e+00 1.000000000000000000e+00 1.000000000000000000e+00 1.000000000000000000e+00 1.000000000000000000e+00 1.000000000000000000e+00 1.000000000000000000e+00 1.000000000000000000e+00 1.000000000000000000e+00 1.000000000000000000e+00 1.000000000000000000e+00 1.000000000000000000e+00 1.000000000000000000e+00 1.000000000000000000e+00 1.000000000000000000e+00 1.000000000000000000e+00 1.000000000000000000e+00 1.000000000000000000e+00 1.000000000000000000e+00 1.000000000000000000e+00 1.000000000000000000e+00 1.000000000000000000e+00 1.000000000000000000e+00 1.000000000000000000e+00 1.000000000000000000e+00 1.000000000000000000e+00 1.000000000000000000e+00 1.000000000000000000e+00 1.000000000000000000e+00 1.000000000000000000e+00 1.000000000000000000e+00 1.000000000000000000e+00 1.000000000000000000e+00 1.000000000000000000e+00 1.000000000000000000e+00 1.000000000000000000e+00 1.000000000000000000e+00 1.000000000000000000e+00 1.000000000000000000e+00 1.000000000000000000e+00 1.000000000000000000e+00 1.000000000000000000e+00 1.000000000000000000e+00 1.000000000000000000e+00 1.000000000000000000e+00 1.000000000000000000e+00 1.000000000000000000e+00 1.000000000000000000e+00 1.000000000000000000e+00 1.000000000000000000e+00 1.000000000000000000e+00 1.000000000000000000e+00 1.000000000000000000e+00 1.000000000000000000e+00 1.000000000000000000e+00 1.000000000000000000e+00 1.000000000000000000e+00 1.000000000000000000e+00 1.000000000000000000e+00 1.000000000000000000e+00 1.000000000000000000e+00 1.000000000000000000e+00 1.000000000000000000e+00 1.000000000000000000e+00 1.000000000000000000e+00 1.000000000000000000e+00 1.000000000000000000e+00 1.000000000000000000e+00 1.000000000000000000e+00 1.000000000000000000e+00 1.000000000000000000e+00 1.000000000000000000e+00 1.000000000000000000e+00 1.000000000000000000e+00 1.000000000000000000e+00 1.000000000000000000e+00 1.000000000000000000e+00 1.000000000000000000e+00 1.000000000000000000e+00 1.000000000000000000e+00 1.000000000000000000e+00 1.000000000000000000e+00 1.000000000000000000e+00 1.000000000000000000e+00 1.000000000000000000e+00 1.000000000000000000e+00 1.000000000000000000e+00 1.000000000000000000e+00 1.000000000000000000e+00 1.000000000000000000e+00 1.000000000000000000e+00 1.000000000000000000e+00 1.000000000000000000e+00 1.000000000000000000e+00 1.000000000000000000e+00 1.000000000000000000e+00 1.000000000000000000e+00 1.000000000000000000e+00 1.000000000000000000e+00 1.000000000000000000e+00 1.000000000000000000e+00 1.000000000000000000e+00 1.000000000000000000e+00 1.000000000000000000e+00 1.000000000000000000e+00 1.000000000000000000e+00 1.000000000000000000e+00 1.000000000000000000e+00 1.000000000000000000e+00 1.000000000000000000e+00 1.000000000000000000e+00 1.000000000000000000e+00 1.000000000000000000e+00 1.000000000000000000e+00 1.000000000000000000e+00 1.000000000000000000e+00 1.000000000000000000e+00 1.000000000000000000e+00 1.000000000000000000e+00 1.000000000000000000e+00 1.000000000000000000e+00 1.000000000000000000e+00 1.000000000000000000e+00 1.000000000000000000e+00 1.000000000000000000e+00 1.000000000000000000e+00 1.000000000000000000e+00 1.000000000000000000e+00 1.000000000000000000e+00 1.000000000000000000e+00 1.000000000000000000e+00 1.000000000000000000e+00 1.000000000000000000e+00 1.000000000000000000e+00 1.000000000000000000e+00 1.000000000000000000e+00 1.000000000000000000e+00 1.000000000000000000e+00 1.000000000000000000e+00 1.000000000000000000e+00 1.000000000000000000e+00 1.000000000000000000e+00 1.000000000000000000e+00 1.000000000000000000e+00 1.000000000000000000e+00 1.000000000000000000e+00 1.000000000000000000e+00 1.000000000000000000e+00 1.000000000000000000e+00 1.000000000000000000e+00 1.000000000000000000e+00 1.000000000000000000e+00 1.000000000000000000e+00 1.000000000000000000e+00 1.000000000000000000e+00 1.000000000000000000e+00 1.000000000000000000e+00 1.000000000000000000e+00 1.000000000000000000e+00 1.000000000000000000e+00 1.000000000000000000e+00 1.000000000000000000e+00 1.000000000000000000e+00 1.000000000000000000e+00 1.000000000000000000e+00 1.000000000000000000e+00 1.000000000000000000e+00 1.000000000000000000e+00 1.000000000000000000e+00 1.000000000000000000e+00 1.000000000000000000e+00 1.000000000000000000e+00 1.000000000000000000e+00 1.000000000000000000e+00 1.000000000000000000e+00 1.000000000000000000e+00 1.000000000000000000e+00 1.000000000000000000e+00 1.000000000000000000e+00 1.000000000000000000e+00 1.000000000000000000e+00 1.000000000000000000e+00 1.000000000000000000e+00 1.000000000000000000e+00 1.000000000000000000e+00 1.000000000000000000e+00 1.000000000000000000e+00 1.000000000000000000e+00 1.000000000000000000e+00 1.000000000000000000e+00 1.000000000000000000e+00 1.000000000000000000e+00 1.000000000000000000e+00 1.000000000000000000e+00 1.000000000000000000e+00 1.000000000000000000e+00 1.000000000000000000e+00 1.000000000000000000e+00 1.000000000000000000e+00 1.000000000000000000e+00 1.000000000000000000e+00 1.000000000000000000e+00 1.000000000000000000e+00 1.000000000000000000e+00 1.000000000000000000e+00 1.000000000000000000e+00 1.000000000000000000e+00 1.000000000000000000e+00 1.000000000000000000e+00 1.000000000000000000e+00 1.000000000000000000e+00 1.000000000000000000e+00 1.000000000000000000e+00 1.000000000000000000e+00 1.000000000000000000e+00 1.000000000000000000e+00 1.000000000000000000e+00 1.000000000000000000e+00 1.000000000000000000e+00 1.000000000000000000e+00 1.000000000000000000e+00 1.000000000000000000e+00 1.000000000000000000e+00 1.000000000000000000e+00 1.000000000000000000e+00 1.000000000000000000e+00 1.000000000000000000e+00 1.000000000000000000e+00 1.000000000000000000e+00 1.000000000000000000e+00 1.000000000000000000e+00 1.000000000000000000e+00 1.000000000000000000e+00 1.000000000000000000e+00 1.000000000000000000e+00 1.000000000000000000e+00 1.000000000000000000e+00 1.000000000000000000e+00 1.000000000000000000e+00 1.000000000000000000e+00 1.000000000000000000e+00 1.000000000000000000e+00 1.000000000000000000e+00 1.000000000000000000e+00 1.000000000000000000e+00 1.000000000000000000e+00 1.000000000000000000e+00 1.000000000000000000e+00 1.000000000000000000e+00 1.000000000000000000e+00 1.000000000000000000e+00 1.000000000000000000e+00 1.000000000000000000e+00 1.000000000000000000e+00 1.000000000000000000e+00 1.000000000000000000e+00 1.000000000000000000e+00 1.000000000000000000e+00 1.000000000000000000e+00 1.000000000000000000e+00 1.000000000000000000e+00 1.000000000000000000e+00 1.000000000000000000e+00 1.000000000000000000e+00 1.000000000000000000e+00 1.000000000000000000e+00 1.000000000000000000e+00 1.000000000000000000e+00 1.000000000000000000e+00 1.000000000000000000e+00 1.000000000000000000e+00 1.000000000000000000e+00 1.000000000000000000e+00 1.000000000000000000e+00 1.000000000000000000e+00 1.000000000000000000e+00 1.000000000000000000e+00 1.000000000000000000e+00 1.000000000000000000e+00 1.000000000000000000e+00 1.000000000000000000e+00 1.000000000000000000e+00 1.000000000000000000e+00 1.000000000000000000e+00 1.000000000000000000e+00 1.000000000000000000e+00 1.000000000000000000e+00 1.000000000000000000e+00 1.000000000000000000e+00 1.000000000000000000e+00 1.000000000000000000e+00 1.000000000000000000e+00 1.000000000000000000e+00 1.000000000000000000e+00 1.000000000000000000e+00 1.000000000000000000e+00 1.000000000000000000e+00 1.000000000000000000e+00 1.000000000000000000e+00 1.000000000000000000e+00 1.000000000000000000e+00 1.000000000000000000e+00 1.000000000000000000e+00 1.000000000000000000e+00 1.000000000000000000e+00 1.000000000000000000e+00 1.000000000000000000e+00 1.000000000000000000e+00 1.000000000000000000e+00 1.000000000000000000e+00 1.000000000000000000e+00 1.000000000000000000e+00 1.000000000000000000e+00 1.000000000000000000e+00 1.000000000000000000e+00 1.000000000000000000e+00 1.000000000000000000e+00 1.000000000000000000e+00 1.000000000000000000e+00 1.000000000000000000e+00 1.000000000000000000e+00 1.000000000000000000e+00 1.000000000000000000e+00 1.000000000000000000e+00 1.000000000000000000e+00 1.000000000000000000e+00 1.000000000000000000e+00 1.000000000000000000e+00 1.000000000000000000e+00 1.000000000000000000e+00 1.000000000000000000e+00 1.000000000000000000e+00 1.000000000000000000e+00 1.000000000000000000e+00 1.000000000000000000e+00 1.000000000000000000e+00 1.000000000000000000e+00 1.000000000000000000e+00 1.000000000000000000e+00 1.000000000000000000e+00 1.000000000000000000e+00 1.000000000000000000e+00 1.000000000000000000e+00 1.000000000000000000e+00 1.000000000000000000e+00 1.000000000000000000e+00 1.000000000000000000e+00 1.000000000000000000e+00 1.000000000000000000e+00 1.000000000000000000e+00 1.000000000000000000e+00 1.000000000000000000e+00 1.000000000000000000e+00 1.000000000000000000e+00 1.000000000000000000e+00 1.000000000000000000e+00 1.000000000000000000e+00 1.000000000000000000e+00 1.000000000000000000e+00 1.000000000000000000e+00 1.000000000000000000e+00 1.000000000000000000e+00 1.000000000000000000e+00 1.000000000000000000e+00 1.000000000000000000e+00 1.000000000000000000e+00 1.000000000000000000e+00 1.000000000000000000e+00 1.000000000000000000e+00 1.000000000000000000e+00 1.000000000000000000e+00 1.000000000000000000e+00 1.000000000000000000e+00 1.000000000000000000e+00 1.000000000000000000e+00 1.000000000000000000e+00 1.000000000000000000e+00 1.000000000000000000e+00 1.000000000000000000e+00 1.000000000000000000e+00 1.000000000000000000e+00 1.000000000000000000e+00 1.000000000000000000e+00 1.000000000000000000e+00 1.000000000000000000e+00 1.000000000000000000e+00 1.000000000000000000e+00 1.000000000000000000e+00 1.000000000000000000e+00 1.000000000000000000e+00 1.000000000000000000e+00 1.000000000000000000e+00 1.000000000000000000e+00 1.000000000000000000e+00 1.000000000000000000e+00 1.000000000000000000e+00 1.000000000000000000e+00 1.000000000000000000e+00 1.000000000000000000e+00 1.000000000000000000e+00 1.000000000000000000e+00 1.000000000000000000e+00 1.000000000000000000e+00 1.000000000000000000e+00 1.000000000000000000e+00 1.000000000000000000e+00 1.000000000000000000e+00 1.000000000000000000e+00 1.000000000000000000e+00 1.000000000000000000e+00 1.000000000000000000e+00 1.000000000000000000e+00 1.000000000000000000e+00 1.000000000000000000e+00 1.000000000000000000e+00 1.000000000000000000e+00 1.000000000000000000e+00 1.000000000000000000e+00 1.000000000000000000e+00 1.000000000000000000e+00 1.000000000000000000e+00 1.000000000000000000e+00 1.000000000000000000e+00 1.000000000000000000e+00 1.000000000000000000e+00 1.000000000000000000e+00 1.000000000000000000e+00 1.000000000000000000e+00 1.000000000000000000e+00 1.000000000000000000e+00 1.000000000000000000e+00 1.000000000000000000e+00 1.000000000000000000e+00 1.000000000000000000e+00 1.000000000000000000e+00 1.000000000000000000e+00 1.000000000000000000e+00 1.000000000000000000e+00 1.000000000000000000e+00 1.000000000000000000e+00 1.000000000000000000e+00 1.000000000000000000e+00 1.000000000000000000e+00 1.000000000000000000e+00 1.000000000000000000e+00 1.000000000000000000e+00 1.000000000000000000e+00 1.000000000000000000e+00 1.000000000000000000e+00 1.000000000000000000e+00 1.000000000000000000e+00 1.000000000000000000e+00 1.000000000000000000e+00 1.000000000000000000e+00 1.000000000000000000e+00 1.000000000000000000e+00 1.000000000000000000e+00 1.000000000000000000e+00 1.000000000000000000e+00 1.000000000000000000e+00 1.000000000000000000e+00 1.000000000000000000e+00 1.000000000000000000e+00 1.000000000000000000e+00 1.000000000000000000e+00 1.000000000000000000e+00 1.000000000000000000e+00 1.000000000000000000e+00 1.000000000000000000e+00 1.000000000000000000e+00 1.000000000000000000e+00 1.000000000000000000e+00 1.000000000000000000e+00 1.000000000000000000e+00 1.000000000000000000e+00 1.000000000000000000e+00 1.000000000000000000e+00 1.000000000000000000e+00 1.000000000000000000e+00 1.000000000000000000e+00 1.000000000000000000e+00 1.000000000000000000e+00 1.000000000000000000e+00 1.000000000000000000e+00 1.000000000000000000e+00 1.000000000000000000e+00 1.000000000000000000e+00 1.000000000000000000e+00 1.000000000000000000e+00 1.000000000000000000e+00 1.000000000000000000e+00 1.000000000000000000e+00 1.000000000000000000e+00 1.000000000000000000e+00 1.000000000000000000e+00 1.000000000000000000e+00 1.000000000000000000e+00 1.000000000000000000e+00 1.000000000000000000e+00 1.000000000000000000e+00 1.000000000000000000e+00 1.000000000000000000e+00 1.000000000000000000e+00 1.000000000000000000e+00 1.000000000000000000e+00 1.000000000000000000e+00 1.000000000000000000e+00 1.000000000000000000e+00 1.000000000000000000e+00 1.000000000000000000e+00 1.000000000000000000e+00 1.000000000000000000e+00 1.000000000000000000e+00 1.000000000000000000e+00 1.000000000000000000e+00 1.000000000000000000e+00 1.000000000000000000e+00 1.000000000000000000e+00 1.000000000000000000e+00 1.000000000000000000e+00 1.000000000000000000e+00 1.000000000000000000e+00 1.000000000000000000e+00 1.000000000000000000e+00 1.000000000000000000e+00 1.000000000000000000e+00 1.000000000000000000e+00 1.000000000000000000e+00 1.000000000000000000e+00 1.000000000000000000e+00 1.000000000000000000e+00 1.000000000000000000e+00 1.000000000000000000e+00 1.000000000000000000e+00 1.000000000000000000e+00 1.000000000000000000e+00 1.000000000000000000e+00 1.000000000000000000e+00 1.000000000000000000e+00 1.000000000000000000e+00 1.000000000000000000e+00 1.000000000000000000e+00 1.000000000000000000e+00 1.000000000000000000e+00 1.000000000000000000e+00 1.000000000000000000e+00 1.000000000000000000e+00 1.000000000000000000e+00 1.000000000000000000e+00 1.000000000000000000e+00 1.000000000000000000e+00 1.000000000000000000e+00 1.000000000000000000e+00 1.000000000000000000e+00 1.000000000000000000e+00 1.000000000000000000e+00 1.000000000000000000e+00 1.000000000000000000e+00 1.000000000000000000e+00 1.000000000000000000e+00 1.000000000000000000e+00 1.000000000000000000e+00 1.000000000000000000e+00 1.000000000000000000e+00 1.000000000000000000e+00 1.000000000000000000e+00 1.000000000000000000e+00 1.000000000000000000e+00 1.000000000000000000e+00 1.000000000000000000e+00 1.000000000000000000e+00 1.000000000000000000e+00 1.000000000000000000e+00 1.000000000000000000e+00 1.000000000000000000e+00 1.000000000000000000e+00 1.000000000000000000e+00 1.000000000000000000e+00 1.000000000000000000e+00 1.000000000000000000e+00 1.000000000000000000e+00 1.000000000000000000e+00 1.000000000000000000e+00 1.000000000000000000e+00 1.000000000000000000e+00 1.000000000000000000e+00 1.000000000000000000e+00 1.000000000000000000e+00 1.000000000000000000e+00 1.000000000000000000e+00 1.000000000000000000e+00 1.000000000000000000e+00 1.000000000000000000e+00 1.000000000000000000e+00 1.000000000000000000e+00 1.000000000000000000e+00 1.000000000000000000e+00 1.000000000000000000e+00 1.000000000000000000e+00 1.000000000000000000e+00 1.000000000000000000e+00 1.000000000000000000e+00 1.000000000000000000e+00 1.000000000000000000e+00 1.000000000000000000e+00 1.000000000000000000e+00 1.000000000000000000e+00 1.000000000000000000e+00 1.000000000000000000e+00 1.000000000000000000e+00 1.000000000000000000e+00 1.000000000000000000e+00 1.000000000000000000e+00 1.000000000000000000e+00 1.000000000000000000e+00 1.000000000000000000e+00 1.000000000000000000e+00 1.000000000000000000e+00 1.000000000000000000e+00 1.000000000000000000e+00 1.000000000000000000e+00 1.000000000000000000e+00 1.000000000000000000e+00 1.000000000000000000e+00 1.000000000000000000e+00 1.000000000000000000e+00 1.000000000000000000e+00 1.000000000000000000e+00 1.000000000000000000e+00 1.000000000000000000e+00 1.000000000000000000e+00 1.000000000000000000e+00 1.000000000000000000e+00 1.000000000000000000e+00 1.000000000000000000e+00 1.000000000000000000e+00 1.000000000000000000e+00 1.000000000000000000e+00 1.000000000000000000e+00 1.000000000000000000e+00 1.000000000000000000e+00 1.000000000000000000e+00 1.000000000000000000e+00 1.000000000000000000e+00 1.000000000000000000e+00 1.000000000000000000e+00 1.000000000000000000e+00 1.000000000000000000e+00 1.000000000000000000e+00 1.000000000000000000e+00 1.000000000000000000e+00 1.000000000000000000e+00 1.000000000000000000e+00 1.000000000000000000e+00 1.000000000000000000e+00 1.000000000000000000e+00 1.000000000000000000e+00 1.000000000000000000e+00 1.000000000000000000e+00 1.000000000000000000e+00 1.000000000000000000e+00 1.000000000000000000e+00 1.000000000000000000e+00 1.000000000000000000e+00 1.000000000000000000e+00 1.000000000000000000e+00 1.000000000000000000e+00 1.000000000000000000e+00 1.000000000000000000e+00 1.000000000000000000e+00 1.000000000000000000e+00 1.000000000000000000e+00 1.000000000000000000e+00 1.000000000000000000e+00 1.000000000000000000e+00 1.000000000000000000e+00 1.000000000000000000e+00 1.000000000000000000e+00 1.000000000000000000e+00 1.000000000000000000e+00 1.000000000000000000e+00 1.000000000000000000e+00 1.000000000000000000e+00 1.000000000000000000e+00 1.000000000000000000e+00 1.000000000000000000e+00 1.000000000000000000e+00 1.000000000000000000e+00 1.000000000000000000e+00 1.000000000000000000e+00 1.000000000000000000e+00 1.000000000000000000e+00 1.000000000000000000e+00 1.000000000000000000e+00 1.000000000000000000e+00 1.000000000000000000e+00 1.000000000000000000e+00 1.000000000000000000e+00 1.000000000000000000e+00 1.000000000000000000e+00 1.000000000000000000e+00 1.000000000000000000e+00 1.000000000000000000e+00 1.000000000000000000e+00 1.000000000000000000e+00 1.000000000000000000e+00 1.000000000000000000e+00 1.000000000000000000e+00 1.000000000000000000e+00 1.000000000000000000e+00 1.000000000000000000e+00 1.000000000000000000e+00 1.000000000000000000e+00 1.000000000000000000e+00 1.000000000000000000e+00 1.000000000000000000e+00 1.000000000000000000e+00 1.000000000000000000e+00 1.000000000000000000e+00 1.000000000000000000e+00 1.000000000000000000e+00 1.000000000000000000e+00 1.000000000000000000e+00 1.000000000000000000e+00 1.000000000000000000e+00 1.000000000000000000e+00 1.000000000000000000e+00 1.000000000000000000e+00 1.000000000000000000e+00 1.000000000000000000e+00 1.000000000000000000e+00 1.000000000000000000e+00 1.000000000000000000e+00 1.000000000000000000e+00 1.000000000000000000e+00 1.000000000000000000e+00 1.000000000000000000e+00 1.000000000000000000e+00 1.000000000000000000e+00 1.000000000000000000e+00 1.000000000000000000e+00 1.000000000000000000e+00 1.000000000000000000e+00 1.000000000000000000e+00 1.000000000000000000e+00 1.000000000000000000e+00 1.000000000000000000e+00 1.000000000000000000e+00 1.000000000000000000e+00 1.000000000000000000e+00 1.000000000000000000e+00 1.000000000000000000e+00 1.000000000000000000e+00 1.000000000000000000e+00 1.000000000000000000e+00 1.000000000000000000e+00 1.000000000000000000e+00 1.000000000000000000e+00 1.000000000000000000e+00 1.000000000000000000e+00 1.000000000000000000e+00 1.000000000000000000e+00 1.000000000000000000e+00 1.000000000000000000e+00 1.000000000000000000e+00 1.000000000000000000e+00 1.000000000000000000e+00 1.000000000000000000e+00 1.000000000000000000e+00 1.000000000000000000e+00 1.000000000000000000e+00 1.000000000000000000e+00 1.000000000000000000e+00 1.000000000000000000e+00 1.000000000000000000e+00 1.000000000000000000e+00 1.000000000000000000e+00 1.000000000000000000e+00 1.000000000000000000e+00 1.000000000000000000e+00 1.000000000000000000e+00 1.000000000000000000e+00 1.000000000000000000e+00 1.000000000000000000e+00 1.000000000000000000e+00 1.000000000000000000e+00 1.000000000000000000e+00 1.000000000000000000e+00 1.000000000000000000e+00 1.000000000000000000e+00 1.000000000000000000e+00 1.000000000000000000e+00 1.000000000000000000e+00 1.000000000000000000e+00 1.000000000000000000e+00 1.000000000000000000e+00 1.000000000000000000e+00 1.000000000000000000e+00 1.000000000000000000e+00 1.000000000000000000e+00 1.000000000000000000e+00 1.000000000000000000e+00 1.000000000000000000e+00 1.000000000000000000e+00 1.000000000000000000e+00 1.000000000000000000e+00 1.000000000000000000e+00 1.000000000000000000e+00 1.000000000000000000e+00 1.000000000000000000e+00 1.000000000000000000e+00 1.000000000000000000e+00 1.000000000000000000e+00 1.000000000000000000e+00 1.000000000000000000e+00 1.000000000000000000e+00 1.000000000000000000e+00 1.000000000000000000e+00 1.000000000000000000e+00 1.000000000000000000e+00 1.000000000000000000e+00 1.000000000000000000e+00 1.000000000000000000e+00 1.000000000000000000e+00 1.000000000000000000e+00 1.000000000000000000e+00 1.000000000000000000e+00 1.000000000000000000e+00 1.000000000000000000e+00 1.000000000000000000e+00 1.000000000000000000e+00 1.000000000000000000e+00 1.000000000000000000e+00 1.000000000000000000e+00 1.000000000000000000e+00 1.000000000000000000e+00 1.000000000000000000e+00 1.000000000000000000e+00 1.000000000000000000e+00 1.000000000000000000e+00 1.000000000000000000e+00 1.000000000000000000e+00 1.000000000000000000e+00 1.000000000000000000e+00 1.000000000000000000e+00 1.000000000000000000e+00 1.000000000000000000e+00 1.000000000000000000e+00 1.000000000000000000e+00 1.000000000000000000e+00 1.000000000000000000e+00 1.000000000000000000e+00 1.000000000000000000e+00 1.000000000000000000e+00 1.000000000000000000e+00 1.000000000000000000e+00 1.000000000000000000e+00 1.000000000000000000e+00 1.000000000000000000e+00 1.000000000000000000e+00 1.000000000000000000e+00 1.000000000000000000e+00 1.000000000000000000e+00 1.000000000000000000e+00 1.000000000000000000e+00 1.000000000000000000e+00 1.000000000000000000e+00 1.000000000000000000e+00 1.000000000000000000e+00 1.000000000000000000e+00 1.000000000000000000e+00 1.000000000000000000e+00 1.000000000000000000e+00 1.000000000000000000e+00 1.000000000000000000e+00 1.000000000000000000e+00 1.000000000000000000e+00 1.000000000000000000e+00 1.000000000000000000e+00 1.000000000000000000e+00 1.000000000000000000e+00 1.000000000000000000e+00 1.000000000000000000e+00 1.000000000000000000e+00 1.000000000000000000e+00 1.000000000000000000e+00
6.155519110722235815e-02 5.501763384738450613e-01 -3.117098959346610298e-01 7.880649699025059629e-01 5.245608138693713673e-01 5.792691361092816571e-01 5.492401501600315816e-01 4.711537800978092272e-01 5.639136760247117630e-01 5.216524844280108208e-01 1.089917584172683807e+00 -7.522567660134795720e-01 1.434105711134693761e+00 4.740639827740044665e-01 5.218964532304507520e-01 4.401468889022545072e-01 8.087057196884788191e-01 9.788089433341932155e-01 7.533078858282963308e-01 4.971572553556385388e-01 3.817015306847116318e-01 1.000636851793290871e+00 3.517304703520121034e-01 5.831053465672434433e-01 5.692805149787860675e-02 6.545816707077151131e-01 4.522620385080955430e-01 7.245086468671347868e-01 5.243556241563840370e-01 1.664511034838354497e+00 4.849585346928156349e-01 5.974888731529857111e-01 7.185422649007233709e-01 5.127211518540969459e-01 6.817093033213554865e-01 4.692959980928482766e-01 5.976870480752832782e-01 1.900315503166125408e+00 -1.068541251926115182e-01 5.302421582991051485e-01 -2.513955898818612811e-01 -5.618917804150196371e-01 7.441875095897352299e-01 2.337504685208569855e-01 3.543821033054647129e-01 5.031693172150640825e-01 7.884440778015983087e-01 5.558836277239095347e-01 7.009179823190275771e-01 1.179209272343650396e-02 4.942117566398514239e-02 7.204116056332428020e-01 6.859314822692021973e-01 4.133477907776884619e-01 4.723737379359744804e-01 2.862184285333945269e-02 5.782170481351857072e-01 5.238906634796676176e-01 2.057749575915561457e-01 5.029337013068666540e-01 9.358859393361944612e-01 4.322348032004378338e-01 5.264595966852526621e-01 3.517306006046519440e-01 6.718308803613489699e-01 6.861972151767009587e-01 5.299095088964630440e-01 5.238944191969843178e-01 5.151675762172645001e-01 5.887023072650836991e-02 5.025632204403430725e-01 5.743721273806796646e-01 5.422430811048772892e-01 2.393419364701762989e-02 1.539072270277150656e+00 5.111592836022017527e-01 6.409256370998032137e-01 7.064187677545676891e-01 5.201977817578350427e-01 1.391884337665537652e+00 5.254732967087863971e-01 3.872077041058372693e-01 1.476386847044118156e+00 7.823635041633154596e-01 5.331474616804307010e-01 7.476692169628458284e-01 7.944663072393275405e-01 5.003688624902172810e-01 4.328620169228282188e-01 5.771017324695283390e-01 3.549747113984240143e-01 2.270969944104304084e+00 7.995672081261092634e-01 8.565111774525889510e-02 5.036021699947212937e-01 5.491220571435130315e-01 5.289175790131855903e-01 4.886643612993493702e-01 1.909575877306281255e-01 6.597357620490064134e-01 1.667191256071805627e+00 6.850082794871430458e-01 5.120605929394353995e-01 4.918514529590550244e-01 8.479713593468580779e-01 -2.194591650191977106e+00 -1.271290213357962218e+00 4.900223666104699949e-01 6.368708467278861862e-01 9.652384393526950435e-01 5.633127037440172069e-01 4.148830717856902828e-01 1.995381330182366963e-01 5.267723649562336963e-01 5.320229369995126412e-01 5.296516373506280351e-01 4.450195341686820627e-01 4.782101745345167521e-01 1.044643508567862034e+00 5.204489950217331407e-01 1.328020008274768182e+00 5.290288435457882743e-01 6.657225509185962231e-01 -6.131797430031266094e-01 5.217603228311367136e-01 1.998334937923173404e+00 4.521394226034626818e-01 4.942779328015695084e-01 6.607046377953217364e-01 5.296331934247769935e-01 5.945258304430124374e-01 5.171925975926964236e-01 4.497536154334780822e-01 5.888432208679579283e-01 -4.376318388857153296e-01 -1.710654726405877457e-01 6.923472873078406753e-01 3.793380732821145795e-02 1.017982764979762811e+00 4.886149529699385097e-01 5.408677324217802118e-01 8.813265482988509314e-01 4.284083731707606368e-01 4.719959627082510045e-01 5.193393417106594301e-01 1.943951342180904457e-02 1.008223054774693539e+00 -2.535063334213683017e-01 4.129324173133576692e-01 -9.498262087376795337e-01 7.388493155414019853e-01 -2.756987379658125681e-01 5.031585790280175274e-01 4.831745863361475157e-01 6.153730285080225570e-01 5.271321009622847997e-01 2.099488400413605405e+00 -2.053576106237628984e-01 8.360253448423954348e-01 6.429950446730932079e-01 5.742669587957940358e-01 5.067751718168521657e-01 5.028924803918273234e-01 5.227097824166541118e-01 1.056719447410315427e+00 2.945053866060871051e-01 8.512768549935495477e-01 2.766537933819063211e-01 3.584724459610099112e-01 5.778164503173338629e-01 6.635790277197696208e-01 7.867778786338804897e-01 5.032183891489371286e-01 5.230130964721586562e-01 4.015667295100704415e-01 4.033534374329375560e-02 2.437000705025348934e-01 1.245479280054136023e-01 7.638708599315606751e-01 1.144920761944544729e+00 6.397187500665147963e-01 5.214984923561609698e-01 -1.588983055122909493e-01 4.659178625532954809e-01 3.830100178986680093e-01 4.773579595537900122e-01 5.343259735113365938e-01 5.470868291232805491e-01 2.920491157637708390e+00 4.770066950842303255e-01 5.820730518416696864e-01 -9.467222516794989717e-01 5.223077039853071257e-01 4.911067318639607548e-01 2.104387764895599977e-01 5.172093708951892577e-01 9.533135668154696374e-01 5.371869478383726193e-01 3.562320861944578421e-01 5.666905503641673780e-01 6.329842487796877304e-01 5.494937286766796714e-01 7.935253051483683873e-01 6.027554332427996764e-01 5.432017393770166569e-01 3.562321039852479609e-01 1.657901053735372499e-01 1.310058205463583647e+00 5.164207379242234941e-01 5.555672787668919366e-01 4.178521217706109292e-01 -1.028114591254114946e-01 5.090666033559478887e-01 1.536215024062121404e-01 5.313477298491725564e-01 5.255145885878496070e-01 5.234050777758257889e-01 5.236731988187017794e-01 5.272597816889751376e-01 5.212478418187210805e-01 4.511194674160413087e-01 5.349033789631729707e-01 -7.309769727706374454e-01 6.345957768665947407e-01 5.342282293804746507e-01 3.378989369654210595e-01 -4.277786413674491972e-02 1.363390801024775945e+00 9.814630366123004990e-01 4.861955486435748375e-01 -1.009711078534490103e-01 1.075548438882886870e+00 5.224155258554848968e-01 5.138603831199660688e-01 6.791385608819919817e-01 4.029559440107237100e-01 2.104404146646517981e-01 1.515376341926674419e-01 -1.731786900777132210e-01 -4.010397996556049754e-02 6.027975466574673202e-01 5.340266841634198069e-01 -1.287901835721920185e-01 4.672768832653316773e-01 5.236208705605808200e-01 5.511427676660579644e-01 -8.806178557497314208e-02 7.688758985011615588e-01 -2.441000385988990384e+00 6.101979426138075535e-01 -7.148790055240055175e-01 5.030488888885771281e-01 5.148840310583849833e-01 3.517293448255184862e-01 5.160537064549277630e-01 4.882113158481287685e-01 4.918839264661727384e-01 8.027135631599529031e-01 5.815885710549314469e-01 1.708854913390659869e+00 6.852770078020324895e-01 6.649168730159528140e-01 4.502517545825994172e-01 4.501749897808947631e-01 9.358858990075894502e-01 5.398951366396173013e-01 2.789417066594335193e+00 4.405529803879321138e-01 2.118794023135570637e-01 7.892302236799303428e-01 5.227741608614555613e-01 9.365231145070597174e-01 5.197405098562447590e-01 5.625161241419607272e-01 5.209965856317080313e-01 1.186657121028721562e+00 7.585085367700059589e-01 8.519871834269253652e-01 7.899517416362475952e-01 5.903382625169628639e-01 6.893230901345068773e-01 5.109875619102380861e-01 3.655112034788351449e-01 -7.670254024499686407e-01 3.947484625833161953e-01 3.766307298513382196e-01 4.816124793844118179e-01 5.373455054413709409e-01 5.296516492917682228e-01 6.157338187892270609e-01 5.069221314583010063e-01 -9.838322748822483366e-01 7.872740131855080481e-01 4.717256672459106959e-01 -1.832261218626073454e-02 4.540804407739385540e-01 1.866533448655763427e+00 5.104314832938637858e-01 5.198247430228423172e-01 4.129188895385382252e-01 -3.571561248591849314e+00 5.221682705040562311e-01 3.039177935763742955e+00 7.868585483215669862e-01 5.440737526438563787e-01 -5.646065237764787970e-01 5.187924944055273269e-01 5.241036213325753756e-01 4.657052934961254387e-01 4.504762691185015266e-01 3.237782215844873801e-01 6.573338351233719568e-01 3.135257719896330508e-01 5.279145587906460824e-01 5.199583984409971160e-01 3.722988778443082070e-01 5.222971194831117492e-01 7.871620404843675534e-01 5.196854553178942293e-01 1.224111294269807360e+00 6.062830982830853810e-02 2.255905535141872864e+00 2.718007283171643085e+00 4.727147073589149651e-01 -2.518938180612394495e-01 3.840210608046316088e-01 3.998714833162116400e-01 7.489209738284571261e-01 1.412813214368169534e+00 5.282921213037797825e-01 1.142946267546941064e+00 5.210218382559872463e-01 1.170657414742184849e-01 1.266319260250720058e+00 6.171998621140529773e-01 5.765290957751525447e-01 5.420099666782656200e-01 9.097070295641896953e-01 -3.938506737881523279e+00 1.679774420342327712e+00 5.329984876917611691e-01 6.334596649969886917e-01 5.269538075649636832e-01 1.900315495133101384e+00 2.902477560187989858e-01 5.708131995580455476e-01 4.499279456102122099e-01 6.711710897500260398e-01 1.364401879994379563e+00 4.918811558038160836e-01 3.562317841736642454e-01 4.672825145881732145e-01 6.027554308743413580e-01 3.536390225172148516e-01 5.688140045749073836e-01 9.073953950722835060e-01 5.218640386547450660e-01 3.818943803205028797e-01 1.230748878683476932e-01 6.415576670439332441e-01 5.237594071167086529e-01 2.411154781329578611e-01 5.708132142940913756e-01 5.915565871081086557e-01 5.178712178154946111e-01 1.061336890018462986e+00 9.021860165021926559e-01 1.176147520339851926e+00 5.309964727228454473e-01 2.092296896426823205e-01 9.358852136243588360e-01 -1.102921686068190354e-01 9.345438593917793080e-01 6.308302784615862357e-01 5.636794319654267471e-02 3.847107503821594610e-01 8.428471472783277685e-01 3.822063631257443528e-01 4.635067108297502014e-01 3.508166402733485234e-01 -3.453290625790716439e-01 -2.571537185779587453e+00 5.719258114469560894e-01 6.027554131658039438e-01 6.027553829645362349e-01 5.156344087843158785e-01 3.364802193575571199e-01 -2.516079305434827940e-01 2.675792009446152364e-01 5.228623326281497397e-01 7.019220334357542113e-01 5.225317036632137757e-01 1.005366560125218411e+00 3.562319100211539524e-01 5.194059158620556449e-01 5.090997352577838475e-01 3.130491918799560569e-01 6.647692402320810601e-01 5.290546026057005857e-01 5.237762581018082786e-01 4.876323043329802154e-01 3.405872350766220302e-01 2.885562116792218454e-02 6.027554304527950046e-01 6.627419264797197451e-01 5.202979266180386420e-01 3.879446240805010104e-01 8.602322205410514178e-01 7.781678965394275282e-01 5.652692925606436214e-01 1.965303533477265274e+00 4.759510705311017498e-01 -3.287607199855123952e+00 7.882664298681931747e-01 1.564093506119474064e+00 5.659207709457004798e-01 -1.145037879627187616e+00 8.872398253940427804e-01 4.324833248606539948e-01 5.382578790370410315e-01 5.120225108926170776e-01 -5.044762414733783285e-01 5.165529081286620583e-01 1.084006131963915376e+00 4.478738092589146791e-01 -4.408997728118492776e-01 5.129522200351223082e-01 5.160029189081593026e-01 7.972279717054927550e-01 5.376773733492846707e-01 6.274837588883039885e-01 -5.636586533891423390e-01 5.597558966318817442e-01 5.196145064104608080e-01 4.537077648724587298e-01 5.083399545232532013e-01 7.731360706961557527e-01 5.218291786095629048e-01 6.345154055324357945e-01 3.430308090033435398e-01 5.413134266642775083e-01 2.061542624757304321e-01 3.615425249919104189e-01 3.934834426124599327e-01 9.814678361397899398e-01 5.637000569506849246e-01 3.303186872345103442e+00 6.529035010181110099e-01 6.749591801751066988e-01 5.383343658816851507e-01 4.980658897213544600e-01 9.735146179004556047e-03 5.006039520712489699e-01 5.549382177207201616e-01 5.437838651310007432e-01 1.150927781990585430e+00 7.731943042248191622e-01 5.129402533848667067e-01 4.339841103381404386e-01 1.120654809900237803e+00 5.322995301180946104e-01 5.239787093912615656e-01 5.063574666924071099e-01 8.903133847166480042e-01 5.135890842054926519e-01 9.563738958058503048e-01 4.660452868476165356e-01 5.208030476719492929e-01 5.830980420107077095e-02 5.178020073641123044e-01 2.725474068308183020e-02 2.633884544150985607e-01 3.947757346807092005e-01 5.501884893312369851e-01 7.960153489747311406e-01 5.214687425659561004e-01 3.816688225818740676e-01 1.609978365237039188e-01 5.080514346764625211e-01 4.957136923346256441e-01 4.428670138690113389e-01 -8.586968228183299023e-03 5.166716731506095783e-01 2.919141614097354731e-01 5.201094112923813073e-01 4.076031193986953127e-01 1.266190761184474045e+00 7.296094975713510733e-01 5.237816165724545892e-01 2.408130756629066338e-01 8.651524435008954850e-01 4.696259806149955529e-01 1.010153957985161277e+00 5.418436356241088658e-01 6.036767502626551041e-01 7.180357887730458577e-01 2.056720903533729050e+00 5.448327947843940589e-01 6.106013444286151337e-01 5.554188320779192001e-01 7.875704008376681609e-01 5.982909267994278579e-01 8.887098517959992616e-01 -5.945519053180411406e-01 4.646885562137362258e-01 5.235460636937422363e-01 4.531974540857962030e-01 5.342536220037522599e-01 -6.550016151732224179e-01 3.828714157967098575e-01 5.248279922889746985e-01 7.104519291817606996e-01 6.716936812225117182e-01 1.608520510393528946e+00 5.172794791744265153e-01 5.234437600020344084e-01 -7.539644863112697770e-01 5.323459483000566594e-01 1.265591284044114140e+00 7.363818640573666086e-01 3.078241642422821500e-01 2.161279349369606417e-01 -1.959564916131939061e+00 5.456014257547227020e-01 2.090197781534852972e-01 1.117401625661795572e+00 8.371920190140056395e-01 5.537204155262407390e-01 5.816557462398829204e-01 4.857338664453030308e-01 7.879982438258252841e-01 4.080952130900292740e-01 5.482640281411660377e-01 1.211937287327484805e-02 6.375122523852954082e-01 4.496392969083474189e-01 3.400403705255873876e-01 5.252555480582418168e-01 4.184662051110754066e-01 1.253424971468936500e+00 -9.110092792731426525e-02 -2.543747415167192383e-01 4.112129073544893432e-01 4.843614616583861721e-01 5.229283338440920970e-01 5.623675613206845503e-01 -9.119403104325090048e-01 3.265992429728722168e+00 4.230359353113856691e-01 4.346271644906988252e-01 4.772204217135590509e-01 5.245509523569598098e-01 4.994485783688076275e-01 4.380776713137409240e-01 3.328569734918916945e-01 6.279531021769267918e-01 5.217102442593907208e-01 4.456756841690629467e-01 2.942825457877016881e-01 4.183893455135427319e-01 5.331065958270210237e-01 4.046788601311814282e-01 5.837266612510749741e-01 5.008016973259596938e-01 6.969595078339704264e-01 1.036393831984719016e+00 2.372188421078435194e+00 4.668673493093901117e-01 5.041387310634446450e-01 2.895685464910331408e-01 4.810688925039827146e-01 4.118993757227240593e-01 5.224865408353075447e-01 5.297240944588672562e-01 4.763142424191222912e-01 5.907573225977899023e-01 5.908412768630648682e-01 7.876336374079536684e-01 3.652759578866203727e-01 3.816744409722794273e-01 3.804241293183044381e-01 4.558371099939197424e-01 9.695257736019377570e-02 9.358859181641513425e-01 4.274842954304539644e-01 6.607256808539467563e-02 1.916108713346365677e+00 3.547439609068425703e-01 4.019202134453702113e-01 6.024141843598386226e-01 6.850418114402552494e-02 5.514060894523553635e-01 1.551836086999237585e+00 8.186529330235063906e-01 6.450265022692370787e-01 5.230830550801504053e-01 5.075709444501234069e-01 4.040673761965212774e-01 5.778085065473400617e-01 5.425957842208687376e-01 5.215293195096578627e-01 -3.153262430343223843e-01 4.340043280228381706e-01 -1.706637966771136883e+00 5.589193930194440441e-01 5.375482966823494912e-01 5.339393864857612249e-01 4.129059301894361100e-01 9.358859182333391091e-01 2.369953630093321051e-01 4.931886685334460063e-01 1.399251267120907860e+00 -6.050748321595266210e-01 5.234248371308520831e-01 1.174762706017454583e+00 1.599439260097325732e+00 6.035912308087210132e-01 5.258324177103363972e-01 -7.539646273071110016e-02 -1.759520293428727289e+00 2.615415006166940115e-01 8.753375924805633090e-01 5.456234086366718028e-01 5.223261701883502583e-01 6.082998139961844908e-01 4.768134557816887664e-01 -4.442688163823185210e-01 8.512105810524316363e-01 5.296513115224164014e-01 3.229662981041924730e-01 5.215061557011481108e-01 1.242226011471147390e-02 -1.587476204164647853e-01 1.869051406595700460e+00 4.081640734564052631e-01 4.543167054222386203e-01 5.174421926437561270e-01 3.149971163540745689e-01 4.437520921774790739e-01 -1.923510845552056647e-01 -1.476138026866963937e+00 5.229144262652200004e-01 4.967530003157232255e-01 5.693649216770768628e-01 4.701950922369126928e-01 5.339936016936189800e-01 5.473666144308463322e-01 5.341167901342712687e-01 5.457342623700445206e-01 1.046955996803463407e+00 6.987944864884794161e-01 5.334984050875976047e-01 6.577012723703795638e-01 5.570039996590002707e-01 5.940824842272954820e-01 6.912126303714982711e-02 5.708132415190089182e-01 4.355410655468668901e-01 5.807246202423588244e-01 7.304770147037080719e-01 7.696594414148926200e-01 8.887310379144413020e-01 -5.803392832975027282e-01 5.354365648307422010e-01 5.324183240895478120e-01 5.170801284074747484e-01 6.000180360753306630e-01 9.191734116928033105e-01 4.311765682244520503e-01 5.237295742541882015e-01 -3.463780879405200519e-01 -9.293928071065086227e-01 2.387715160045499108e+00 5.342460308073889719e-01 9.134863441458019873e-01 4.403398974349929107e-01 5.868855533737880048e-01 4.184256304954126482e-01 1.545362921279788970e-01 5.189029335096876361e-01 5.089082787068441860e-01 1.481939975721861986e-02 5.170204480727065288e-01 4.820240995068664769e-01 5.186294314799637650e-01 3.923445415872628406e-01 5.310056919482908366e-01 6.583144036686493505e-01 4.457566555943868192e-01 4.812368815672175004e-01 5.562475272658526926e-01 5.262762265821500085e-01 4.245766404135325467e-01 5.075477531831623645e-01 -2.288307306996241741e-01 5.221452110830402393e-01 6.404288363410741702e-01 5.048640976672237324e-01 7.883099011869909578e-01 9.358861882628483064e-01 7.206525293996862702e-01 -6.333091678512323686e-01 9.714441986346332714e-01 1.900315503204623058e+00 5.224219021068351454e-01 4.636995598404214936e-01 1.097694649480947859e+00 5.272786272919098849e-01 7.884013457888887633e-01 5.177947071651682887e-01 1.928691919191894533e+00 5.244935190984524320e-01 4.672776666918168620e-01 1.239537355103018212e+00 -7.135084570867974985e-02 5.281214698343444924e-01 -1.470196900269732099e-01 -1.013024602214406711e+00 -1.587274760561870057e-01 7.825879193887439467e-01 5.158012802422250465e-01 5.408549298429858876e-01 -3.098664660405866522e-01 5.021884891875605383e-01 3.652990989747575967e-02 -4.405994923224287318e-01 5.543016398596251060e-01 5.057006014630874846e-01 5.204255089160505499e-01 5.125983418955909476e-01 4.687330446799515271e-01 9.268058594932793159e-01 -4.726518354117560938e-01 5.217813845937322448e-01 5.121577439270034171e-01 5.017094387521854326e-01 1.184792075582189241e+00 4.708431686685535245e-01 7.216032559061988927e-01 5.202879248229367315e-01 4.443507428992789915e-02 -5.038548703712485421e-01 4.813283082766420251e-01 4.726093558494959268e-01 6.850283561731658200e-01 5.162228674812814333e-01 4.070975685343727335e-01 5.269130353127793320e-01 5.198393153162548241e-01 4.517548782658513118e-01 5.343380037409174443e-01 8.426959317619159284e-01 2.633874632792857717e+00 -2.575560563883410037e-01 6.501262843125972246e-01 3.812762191737591455e-01 1.940899746087078326e-01 6.374003075890137815e-01 -5.126334237425819729e-02 -1.642850058547445258e+00 5.286895645868251448e-01 2.697588575193910820e+00 5.687661525875352675e-01 1.820644364434954032e-01 1.439178030309971601e-01 5.296516883455214542e-01 5.971782319688367924e-01 1.608343433172905845e+00 5.370136858638882016e-01 1.254779796108071444e-01 4.021402566068869588e-01 1.777296807892987607e+00 5.514424197473382083e-01 8.174851638681939203e-01 5.211049813018395760e-01 7.374938831289081786e-01 4.714797098010261034e-01 5.885528722954462832e-01 3.401180379059471487e-02 5.174815092354119184e-01 6.182772095167834436e-01 -5.947348069414363225e-01 -1.328495092056153348e-01 1.189244081241166207e+00 2.431205717996052784e-01 4.759481533978173751e-01 7.344385857374223781e-01 5.085398553686958367e-01 2.040579619666277544e+00 6.335584016938408114e-01 9.880572274506818978e-03 4.366151422949126060e-01 4.080944757336757989e-01 1.164147595145313296e+00 5.066379874794447735e-01 -1.441768112633202113e-02 5.214773695456028646e-01 6.949744167589724970e-04 5.010386885428157466e-01 5.240540910424035248e-01 3.242313573494493700e-02 -1.711776398020542229e-04 6.557805523924574720e-01 4.440807706027601887e-01 5.787211339781376251e-01 1.442247315589392787e-01 3.955160410056459130e-01 5.140824096399022602e-01 4.245222949265368695e-01 5.042596493180341310e-01 4.813472032124203048e-01 5.564129214797284284e-01 1.024798959177212421e+00 3.227075301766938686e+00 9.840580596883580222e-01 5.110549003093388665e-01 4.946139042232665095e-01 2.221764924777303307e-01 5.182584002948833479e-01 8.685685934462727964e-01 5.199617685176534110e-01 1.317341710962461221e+00 5.468596979705416805e-01 -6.067221061333676335e-01 -2.163579330783694035e-02 4.565058493539579931e-01 6.179933498206335862e-01 5.831745396516401225e-01 5.235675412943699980e-01 5.245855178325446733e-02 5.210862382025338579e-01 6.234663498875925303e-01 -3.964127673820799114e+00 4.782616544549576076e-01 5.403493274519954870e-01 1.149799291844799232e+00 5.145507836787186484e-01 3.691460217919023123e-01 6.529856070593735851e-01 -9.366523672381925625e-01 -4.942895549944840150e-01 1.198907848354808375e-02 5.228916665140284081e-01 6.641581388216739601e-01 2.064264169308192287e-01 5.095369024704331506e-01 -3.531403495051512187e-01 5.082917218310686325e-01 5.828867631707795871e-01 6.979660615424145842e-01 5.629052265510136044e-01 4.636130604141459055e-01 1.361636780794683588e-01 -8.091134201503290546e-01 6.519971251998406547e-01 5.383089702954222400e-01 1.501213106985896384e-01 5.175308899805374230e-01 4.809308491219976833e-01 5.323928001881773620e-01 6.561716365198413392e-01 5.870685071691383872e-01 5.555533643292978052e-01 5.068806818645302803e-01 1.900315504326590910e+00 3.415936549544865697e-01 5.171403589511003318e-01 -1.496556972070304248e-01 4.953707797666008217e-01 6.537638117921749092e-01 5.008117536387431956e-01 4.754112080091127401e-01 3.953142114332066637e-01 9.726261968526258572e-01 1.242862690047864094e+00 5.514257143149039475e-01 5.515139152391849153e-01 5.973286524719947366e-01 5.168666377057802297e-01 5.206246414489364982e-01 5.217461343441494037e-01 9.713918786644801795e-01 6.469808868344459896e-01 -4.722557449464291346e-01 4.746519478881042198e-01 8.920264378468902855e-01 5.130002537105656790e-01 -5.242190833644227305e-02 5.188561943738152493e-01 1.626591141007626362e+00 -1.366429138424492540e-01 6.926981827521649926e-01 2.277439043729204415e-01 5.180246004894354384e-01 8.946926702923362340e-01 5.190354348593557710e-01 3.776419274261362813e-01 1.421061772505656462e+00 4.731866392094754570e-01 5.083102939902938155e-01 -7.489606050150814376e-01 4.352957847510486311e-01 1.037278528117659304e+00 6.385584617474237001e-01 5.940058745046586375e-02 1.009156757471131094e+00 1.641971442213488799e-03 7.849232838448378935e-01 1.687408676258429274e+00 -8.748288669908683701e-01 5.318146967802358516e-01 5.211517616538702269e-01 -4.997185449540197388e-01 3.018698934596129035e-01 5.131447354095465263e-01 5.389161892156143496e-01 4.534836467815320238e-01 4.871148332372643441e-01 2.623921807685942187e-01 3.565120190604094130e-01 5.372784506046673902e-01 5.220752031766021650e-01 1.056256458502662782e-02 -1.926560661193192359e-01 5.346131678419118183e-01 1.073165098384443850e+00 5.975655223428498752e-01 -5.950242877899972749e-01 4.134137812627682873e-01 5.233457377902215324e-01 5.728834632029563556e-01 4.885737571181943822e-02 3.222123514885280593e-01 5.265636465322729443e-01 5.265190338921206248e-01 4.570188328595891081e-01 -1.536045254309309320e-02 5.317401926029152737e-01 5.430348680822623120e-01 5.268535606969207974e-01 2.128194250498615325e+00 -2.627432295686871547e-02 3.925964996432622089e-01 5.257210564106884476e-01 1.876916002749603019e+00 5.017116165309296605e-01 5.829090503560501180e-01 3.830030124821630355e-02 5.708132305696598241e-01 5.216736219272225528e-01 4.782087595836867489e-01 4.282691896711328661e-01 5.347799813550926373e-01 4.799903425497932252e-01 5.305632857028768079e-01 -5.847073434577122475e-01 5.251846592164419736e-01 5.281769100632138780e-01 5.266298898189406552e-01 1.372684855763851353e+00 5.152571301143187288e-01 -2.525452028718761510e-01 1.162318825981686787e+00 -1.360962258356257504e+00 -5.620698267253214642e-01 4.874729679237475022e-01 5.208957192839462902e-01 6.735935146022711262e-01 5.435651272055836980e-01 5.635375118578498377e-01 5.085351278411750497e-01 5.708131958060685962e-01 5.187636596321882898e-01 5.735223621448408693e-01 6.135171154400316240e-01 5.228597282191688178e-01 3.383533512179164315e-01 5.292161590409037997e-01 5.319706966176153129e-01 4.270959404283582450e-01 5.191156470394504563e-01 5.199407554357657890e-01 5.013813234259354434e-01 6.468292683590183278e-01 5.220686343739565638e-01 7.395590231837919637e-01 5.327810171523663652e-01 5.232491903426235158e-01 5.336157996037844686e-01 4.566465827401873789e-01 3.273426161929162137e-01 2.526107017927310405e+00 5.634454085399800416e-01 6.488836021103078222e-01 2.990821112513368796e-01 5.722082527314547029e-01 1.128659540667398042e+00 4.304151387593430078e-01 6.798701385509487993e-01 5.228964254992692906e-01
7.140603178618556424e-01 2.891674591245934067e-01 4.660691734164847944e-01 -5.435260757129262155e-02 3.043126877342767767e-01 4.293158008991074248e-01 5.419183627569386097e-01 3.518778094412997048e-01 4.097100181241574157e-01 2.867431879315413545e-01 2.106960312475827379e+00 1.754202105020661762e+00 -1.500945869179864500e+00 5.535987085948271824e-01 3.101951881043459314e-01 4.706411746390528061e-01 1.418947063002772568e-01 4.587519917828473126e-01 3.792394037547502927e-01 3.221353348172217856e-01 3.683922932937821471e-01 2.186082512197657923e+00 3.271055317071547286e-01 3.233261614852142030e-01 7.682652629388808663e-01 -1.335297673985332834e-01 3.691237078307895159e-01 1.701012944829940199e-01 3.769353326136952731e-01 -9.685770899411541013e-01 4.705342951247409311e-01 -1.760768833079737195e-01 2.900661838434432371e-01 2.747561172105569272e-01 -3.987002842026701743e-01 5.106083083902140940e-01 3.293083913195312129e-01 -4.218742764501133835e-01 -3.369436902483859519e+00 2.912323664384858235e-01 1.237010928315087632e+00 1.497972946672448957e-01 -1.712726776945604212e-01 7.909315514855189688e-01 5.002913099670716068e-01 3.004930264274049967e-01 -5.479829435139663835e-02 3.304089543484861613e-01 8.671753822511195364e-02 6.617508406300374180e-01 7.005847793111735777e-01 5.196815310740238170e-01 -8.910404341852995458e-02 2.690750451651022779e-01 5.704090272877063716e-01 6.816963990207138835e-01 2.651629377074687932e-01 3.341472668893445963e-01 3.439617999030913920e-01 2.799021902684142860e-01 4.397123021966827250e-01 4.211139549854917563e-01 3.043053959782267004e-01 3.271055192051635085e-01 -3.352108258359827175e-01 1.041973850162199317e-01 2.885341706356673863e-01 2.998170884572617378e-01 3.263511905969559979e-01 6.800832319559592110e-01 2.214280996153786540e-01 2.716959566179595886e-01 3.101799746311776906e-01 7.000479900425704560e-01 1.971547343914318517e+00 3.390254513883553811e-01 4.831973081970544204e-01 4.837035177840587896e-01 3.037288713371449900e-01 -1.376650988061937753e+00 3.233007518368110622e-01 4.807238811146313240e-01 2.465167760789945373e+00 5.523874017749308418e-02 2.340670685352403968e-01 -3.167271809033370689e-01 1.565841048491000143e-01 3.848937666908681665e-01 -5.905099134859179699e-01 -9.325674146854403546e-01 5.004363598166419180e-01 1.643424265090995373e+00 4.191732464037865868e-02 6.852637941519207354e-01 3.657821923636683792e-01 3.637770887536861952e-01 3.090773675521703567e-01 8.076781623023560064e-01 7.354001006213980451e-01 -1.234134931844789451e-01 -1.886504140666867280e-01 5.911502688594059973e-02 3.490320202609201727e-01 2.430963530770742231e-01 -8.630595206357118132e-02 3.229391995988808439e+00 -3.030220802589236317e-01 4.297313825476649640e-01 5.618360672151516411e-02 8.135452993474666661e-01 3.097763425398938342e-01 5.557479845868388280e-01 1.628907781143428268e-01 2.823566295242060931e-01 -4.636540424336650368e-01 3.498217911187351814e-01 3.757442923643176946e-02 3.386228888679564952e-01 1.269240260253037933e+00 3.063097838353878721e-01 -1.497505350899742904e+00 7.265005942936184069e-02 3.651203047136734881e-02 1.557310203966941975e+00 2.982439088987752229e-01 2.239056976565999779e+00 4.207931209143183082e-01 2.114328194133793526e-01 3.225369752582237237e-01 2.983392538745178735e-01 3.444673111499777507e-01 3.014663540605606595e-01 6.614699951304072734e-01 3.728236327293144026e-01 1.511598976149413076e-01 8.467020058385663628e-01 7.383818538607029858e-01 6.921154063057306516e-01 -3.458268567650591985e-01 2.681642997796739869e-01 3.471272326581794632e-01 3.224429546470514163e-01 3.726536307498710121e-01 3.313191297251735778e-01 3.008080358245938668e-01 7.002076085306396802e-01 -2.052204979785478556e-01 3.197222152924870109e-01 3.952981441403511931e-01 4.074117259371991540e-01 -1.564003076406743908e-01 3.320650076000460083e-02 3.004998787558652018e-01 3.403655964860943239e-01 2.559874745033562937e-01 2.976120831699070046e-01 -2.613475855838075290e+00 4.798539450867345124e-01 -6.195710399730316453e-01 -1.204971613397281816e-01 1.130072737353929047e-01 4.453771396668367855e-01 3.126597880337908530e-01 3.043265966962596103e-01 1.396094469628580692e-01 1.488444404845898628e-01 3.235701226791589669e-01 5.135939627710974786e-01 5.088504775425279902e-01 2.471428452843048018e-01 2.781560541775954798e-01 -5.600169351587262756e-02 3.004972585544657959e-01 3.061558904138957926e-01 -2.573305721664724377e+00 6.622571901258593741e-01 5.434029735715155685e-01 9.106949119691158945e-01 -4.638978037214504524e-01 1.176877062383639538e+00 8.939945828832115970e-02 2.968076855911330747e-01 1.254867390649863523e+00 4.040873918805767406e-01 3.218733987746639769e-01 3.844996716038062701e-01 2.680106761976692731e-01 2.883591635142090936e-01 -5.200728746668022984e-01 3.806377002517221109e-01 3.917184496129628712e-01 8.347128565857364624e-01 3.470607404576490085e-01 3.572582301009662453e-01 2.617748636725115152e-01 3.028516245125487116e-01 -1.733358685231623175e+00 2.888602719506991878e-01 3.987165372245812800e-01 2.230515932163448511e-01 1.493346094467789924e-02 3.686929572618115047e-01 3.922580691884318127e-01 1.630252370194937572e-01 -7.361872699546945231e-01 3.987165585858091221e-01 5.095750389818207715e-01 -5.338744851413481651e-01 2.970325806351629683e-01 3.012251909963513108e-01 2.163180829633800650e-01 -3.364868587695343027e+00 3.790300075079602871e-01 8.986255495067363430e-01 3.154411672631080021e-01 3.073575402618019536e-01 3.003250506773542106e-01 3.158073952523022809e-01 2.977029380547075443e-01 2.988972253898403708e-01 3.940823614021963794e-01 7.628165685272285390e-02 6.786451061248460759e-01 1.197812656453933478e-01 3.763027924825299020e-01 5.558911669521021670e-01 4.230778429089147585e-01 -7.357075654524793951e-01 2.379229405903084071e+00 4.205633370297816587e-01 1.263684323516650609e+00 -1.413297377873069971e+00 3.059740083832694357e-01 3.188581413834489231e-01 3.320135920777622096e-01 1.213271273523259364e+00 5.383463515539771427e-01 8.530969586618178946e-01 2.930914932213306567e-01 6.629600371066398656e-01 2.003711954876096490e-01 3.324101973476379368e-01 -1.214201007311856761e+00 4.098494431143325789e-01 3.031308249015499112e-01 5.093165865993383168e-01 8.580961074613357997e-01 -3.991001900644556843e-01 3.292171172167658533e+00 4.908122131770779606e-01 1.345822421806990743e+00 -3.694284881171870372e-01 3.064757714650931941e-01 3.271026114965441267e-01 3.565992449973344192e-01 3.321994291326829662e-01 2.097358082356690911e-01 -1.777551469143155427e-01 6.978215980951711639e-02 5.634267727447478391e-01 2.168219954421508056e-01 1.147418749266641419e-01 2.486777820296024177e-01 5.266060909174382632e-01 4.397123385934725848e-01 2.766196940077507715e-01 3.363439055082812157e+00 3.187086416265123567e-01 6.487284548854330701e-01 5.052285613571922962e-01 3.606240473659920731e-01 4.392171710719394717e-01 3.019018675722746625e-01 2.976871696049473992e-01 3.031077144777274968e-01 -6.701250676279668639e-01 3.877679250935773259e-01 2.849347159319089995e-01 1.531570446024601295e-01 3.605576549207639703e-01 1.573537682017252415e+00 3.257556816284170598e-01 3.373240309201979703e-01 2.026502307430536387e+00 5.193502451827610722e-01 3.442835178650945904e-01 3.337479819642000245e-01 3.090585813033941420e-01 3.498205468821218855e-01 -2.089422305410092662e+00 3.448625844254678552e-01 1.649102678999031513e+00 -1.190179484011796712e-01 3.499754544970387626e-01 6.473518309980004215e-01 3.419761482085232340e-01 -7.399560671651792543e-01 3.250130163140539374e-01 3.062274704116870194e-01 3.952611359246167022e-01 -4.150327252548141055e-01 2.980888794192844693e-01 -2.456395889438512725e+00 -5.598193179042396106e-02 2.849409206981735054e-01 5.934166043770756627e-01 3.038823097972734866e-01 3.087209744637458009e-01 4.982138085574762121e-01 1.533074912275273205e-01 -5.616371529162679510e-02 -7.862676073733843030e-01 -7.561389462567561469e-03 6.868895145923163970e-01 3.084719700195353576e-01 4.864020897131706156e-01 3.126822697220986158e-01 -5.545895655820162751e-02 3.032548186617428088e-01 2.514040109087212649e+00 6.904485220149518820e-01 2.474568828245453100e-01 -1.204980232391460682e+00 2.555973033495557711e-01 4.875286827781500243e+00 4.336914814425129050e-01 -2.174208073580471967e-01 5.730315172177283811e-01 -5.788346991268928043e+00 5.446214709800886178e-01 1.607476601859609167e+00 2.995231433509399355e-01 5.168331849651611742e-01 -4.629417383905991557e-01 4.059867287273577485e-01 2.197341601217785989e-01 3.580964461581676583e-01 2.015565137241916716e-01 3.047174589206824269e+00 -3.914474211531600578e-01 3.164843368880361774e-01 -1.957147797597558192e+00 2.915777405370770792e-01 -4.218742731972866533e-01 7.661436887805432860e-01 4.696829080204941720e-01 2.617191777789992235e-01 2.905376270793704196e-01 1.254308370965664610e+00 1.688731524533430284e-01 3.987166541606301795e-01 4.098428703485233471e-01 1.630252377926379448e-01 4.159493374171950864e-01 3.793149252164896290e-01 -6.339430470217316538e-01 3.060801351119243896e-01 5.649745634083533918e-01 4.150955355936818414e-01 1.926086957076012518e-01 2.991925865331199752e-01 5.198139139955391119e-01 4.696828099664309697e-01 5.328013314338062578e-01 3.039401288326435413e-01 1.525242761848633333e-01 3.528407732912867134e-01 3.599054361603028607e+00 2.705006907564009855e-01 8.780708916980696499e-02 4.397133926200982867e-01 8.305245568615055030e-01 4.710472552375023492e-01 -1.908319897275742583e-01 6.967016310265217172e-01 3.385036043165288722e-01 1.344850970521864753e-01 4.343387793273355002e-01 6.849052466661018634e-01 4.910632469033168745e-01 8.062890285418862213e-01 8.289729696490814037e-01 1.856277831371944131e-01 1.630252087382342285e-01 1.630253127772292587e-01 3.381172202627996115e-01 2.623476511095474972e-01 1.119310985551066562e+00 3.776799366395921509e-01 2.919323580823004471e-01 2.373470293263604813e-01 3.022961750475284259e-01 7.316890594828493466e-01 3.987172050734595352e-01 3.043236775475092193e-01 3.872009150480634210e-01 1.718758467263915013e-01 -6.474796403210455464e-01 3.091941065354738005e-01 3.041806280443301036e-01 3.328238938007294090e-01 6.498936761546901808e-01 6.395022184386213171e-01 1.630252345328806751e-01 1.711754913401915268e-01 2.987389960200625416e-01 5.192324126511809190e-01 -5.990175514264519663e-01 1.666800450376482168e-01 -3.636775136342111026e+00 2.075514208410789596e+00 6.179421203972751409e-01 -5.009109336373941401e-01 -5.422712187942246853e-02 2.113891205630347603e+00 3.281581397096842712e-01 6.594509781253217184e-01 -8.909367416283647811e-02 4.265167368596962660e-01 3.751570032842633240e-01 3.226992038734442514e-01 -6.012745196238373779e-01 3.060391998953915227e-01 2.120572812772754556e+00 1.881733787877313824e-01 -4.862016298632021449e-01 2.858763271558856789e-01 3.018025944219372980e-01 -1.480433493970677139e+00 3.415373386864735683e-01 3.741749598170561186e-01 4.038219051496960699e-01 1.016705297617453985e-01 3.083929885465788723e-01 2.384025802185466281e-01 2.716277201183924239e-01 -1.619082018461787675e-01 2.893679806812279875e-01 1.198042564583794989e-01 3.010756429165394876e-01 3.092401320117056929e-01 1.358929373650040809e-02 3.516365954412994377e-01 4.513185202146536845e-01 -1.450680744877385075e+00 -7.291178819129139344e-01 -1.247514339866230559e-01 1.761706425877630766e-01 1.131238752311164719e-01 4.391716748889814004e-01 3.501988405485406131e-01 6.999668827506402291e-01 -1.470675678428210176e-01 3.252704536199467200e-01 3.085334760513149255e-01 9.777589750054499484e-02 -1.617214410493099108e-01 3.363761674719623618e-01 4.554990796769585737e-01 4.802056375550782241e-01 3.299123986195110492e-01 3.102686440872691187e-01 2.985640574727545515e-01 2.394120386258307143e-01 3.047573890886098313e-01 4.700219216976679326e-01 2.105165402949579490e-01 3.035951891352323684e-01 6.961130388653020695e-01 2.888227699136351467e-01 6.925632385304666405e-01 -5.663866249628377730e-02 6.011952778107843010e-01 3.226690987906577490e-01 -1.489054605014763499e+00 2.977310848378656449e-01 6.188592050168945091e-01 3.352007095305963857e-01 3.386232081494547352e-01 3.768721928436927215e-01 1.563134161056730920e-01 6.889631663938661221e-01 3.007418765099512670e-01 4.436583685594984727e-01 3.024396108529531779e-01 2.707762205025300295e-01 1.649512111581040719e-01 4.542804738812761256e-01 2.981168619686284660e-01 1.340829351263854441e-01 -1.269185238874359807e-02 1.428599959882359549e-01 1.691036960641160158e+00 1.491347085829998753e-01 3.111476817077525325e-01 3.968094080343271823e-01 -8.840229092683866696e-01 2.768395063991646032e-01 2.192462673901653114e-01 2.201642992128038101e-01 -1.188521746133123780e-01 2.591776877590255546e-01 1.761235930047570175e+00 8.987334575935918002e-01 4.779591118770286640e-01 2.625094141684441440e-01 2.979714572161801800e-01 3.442505332138643959e-01 9.428589305833020573e-01 3.134275917100090680e+00 3.066446765948607767e-01 4.852033943772107727e-03 5.801725493068929929e-01 -2.651493930878624505e-01 2.999977140186347313e-01 2.991324647064014242e-01 1.099755933793438389e+00 2.889009486007591554e-01 -3.593143719849749007e-01 3.978891787751147602e-01 1.476662335211104682e-01 5.999456739953037410e-01 1.922278890836538245e+00 2.860096340944118798e-01 2.989588108725324545e-01 1.684514417570353695e+00 3.827308153793491097e-01 2.788122286844927911e-01 1.445446916750605659e-01 1.543976938415966282e-01 -5.477410570983608229e-02 5.269216338946978162e-01 2.489890100124054206e-01 6.994608402465817276e-01 2.896935352156778110e-01 1.914321014337299065e-01 3.414487038401788910e-01 2.745500275147458313e-01 4.629221197772057095e-01 2.677172851611806514e-01 8.633175934664735207e-01 5.234031812798594085e-01 5.270948779049410282e-01 3.779807645489173251e-01 2.672225002417552564e-01 3.127419359865139525e-01 5.967119986220340566e-01 7.852678524673979421e-01 3.761157122098915395e-01 3.471118499779748956e-01 6.432045337590234224e-01 3.009375350682651495e-01 6.731794988882455755e-01 3.809577816965157848e-01 4.936957143964286754e-01 -2.965725873787973810e-01 3.040512872888876394e-01 3.223591576635942979e-01 4.675675824581690954e-01 1.829084048543878349e-01 3.666052996708044076e-01 1.855033009029318336e+00 -2.918877528488383888e-02 3.863329152481644324e-01 -2.428985597797799212e-01 1.716757491987629169e+00 1.172593931344429130e+00 4.302867977561700835e-02 -4.294590807273093724e-01 4.592037332073468092e-01 2.439160168859020317e-01 4.578631722830707740e-01 3.051374762249902672e-01 3.031558030348969757e-01 2.551460735088381671e-01 3.258362405068727652e-01 2.451170809060723710e-01 -5.415086319896923739e-02 -2.496888084440031241e-01 2.826210636175531810e-01 2.030157202260897409e-01 2.733817137148419341e-01 8.916917097210923515e-01 4.397123209177090652e-01 3.234590812926901315e-01 8.683089049300618534e-01 4.747349084823298537e-01 5.000962430300608386e-01 4.334770830594693036e-01 7.044178387015020970e-01 1.493225500596475408e+00 4.085895800398442468e-01 2.154383758531818405e+00 -1.651567700998294447e-02 1.675352670474492822e-01 3.050241065755074366e-01 3.482475982506830769e-01 4.003360107590639982e-01 2.471166038267135212e-01 2.904556277687819210e-01 3.023438775313092020e-01 3.758864446837599793e-01 2.487422046069547588e-01 -3.814693098246249026e-01 3.376805210089494080e-01 -4.016843382341652585e-02 3.152420569251582205e-01 3.951915051686092917e-01 4.397123209546375810e-01 2.465243760346810808e-01 2.619728484777612554e-01 -1.335218198664008149e+00 2.009930877648406611e+00 3.009090252880293193e-01 -7.803222579317484753e-01 2.965598246695417828e-01 3.428315316598649076e-01 3.063841392176235301e-01 -4.930561402492242173e+00 3.630432072738403182e+00 6.403985331029869998e-01 -3.173340268364721259e-04 3.238273950468967821e-01 3.069294950685411139e-01 2.422156165962242036e-01 2.693616299421928595e+00 6.371050449907136315e-01 3.195773061455989827e-01 3.498216983626797338e-01 3.299579790095142906e-01 3.207146200466359787e-01 8.489109353970081262e-01 -3.699338399853177584e-01 -1.262188053018180600e+00 -1.257753417914650562e+00 2.944833606097714829e-01 3.058772778233019296e-01 7.523256777950296792e-01 3.459437076909813169e-01 1.571217806406744355e+00 5.011617575286756443e-01 2.998495613756820277e-01 3.367177584065167983e-01 3.033206678685432811e-01 3.269391471911163860e-01 3.160659318825858599e-01 6.312327759328328902e-01 3.732634342458033272e-01 6.573350320175060935e-01 2.406848014711319705e-01 8.065612214253223278e-02 3.162608363085177010e-01 1.743355493866890760e-01 2.304748700372528381e-01 3.371459855879394008e-01 6.236066901078745062e-01 4.696828722524662436e-01 2.057643906646235699e-01 2.398177564533828521e-01 2.993406498107827884e-01 2.835737532878707112e-01 1.761226101652455966e+00 1.980545403846718733e+00 3.155375101628483114e-01 2.824465273588036007e-01 3.046407926160906166e-01 1.776956266877320889e-01 2.172089331965902370e-01 4.625976015891966608e-01 2.958251943749393709e-01 3.314089513384709251e-01 8.178106174685535468e-01 9.072268125585942755e-01 3.743621999968628766e-01 1.914954811998393902e+00 4.050476411850580383e-01 -3.083967050885270123e-01 -2.674312123357259763e-01 -2.963606870342054278e-01 3.006363684751646170e-01 3.531970391583938440e-01 7.060181054597913786e-01 2.985688367957667344e-01 4.159196331595847451e-01 3.229346586276558018e-01 2.784859217087033989e-01 2.611041624410015971e-01 -9.902814170471987976e-02 1.000207674161127214e+00 2.927740227638828685e-01 2.452865536365341492e-01 2.952055426699575214e-01 3.451062597173319424e-01 2.784090282731959687e-01 4.007822996995510367e-01 -6.586780618630500017e-02 2.218677126924885612e-01 3.067174322892987082e-01 -5.492098760181244460e-02 4.397120678042695796e-01 1.086315733579216625e+00 9.823151162761539767e-01 -7.122042465548554802e-01 -4.218742765082833523e-01 6.620128331648028608e-01 -3.425512280689718914e+00 1.594566390619020835e+00 3.118885661667978870e-01 -5.399947265173878075e-02 3.065603127228188063e-01 9.187294808744630448e-01 3.082757786819796952e-01 4.098492668991666754e-01 -4.400925269097283876e-01 8.079331214087750457e-01 3.025867672181551948e-01 8.456403275106723072e-01 2.134720199389758211e+00 -3.701134073574123273e-01 -1.502246910543310721e+00 3.101450137654608863e-01 2.986168212283500933e-01 7.386231096283537578e-01 3.237180531754511592e-01 6.898058171581511466e-01 4.690418049529036515e-01 3.913314804635281696e-01 2.924991154286568085e-01 2.984935274376406822e-01 3.497753048210288651e-01 3.181361833189095822e-01 1.457384862287111504e+00 1.697342404736225552e+00 3.118226388805844240e-01 3.319715746837646475e-01 3.435932221064123548e-01 -2.549043798717106624e-01 2.411106768345181173e-01 -7.609598495540163821e-02 3.027492760999874744e-01 7.043133947622566282e-01 -6.018775764188422084e-01 3.445743668248667513e-01 3.312711175820403642e-01 1.592213226966045503e-01 2.721721723338320631e-01 1.635253821748054448e-01 3.028037802902677766e-01 3.023818762518372671e-01 9.303803540748009637e-02 3.110720602454648542e-01 4.298196220932523071e-01 1.147324856547534466e+00 1.115939158985683743e+00 8.989800180429121657e-01 2.340071917566577397e-01 7.996703289394294645e-01 1.701444744028714207e-01 5.190343094715327288e-01 -2.229747184165580265e+00 3.048779785631064443e-01 6.674673661636858490e-01 3.058775338198838623e-01 9.381267065717896481e-01 1.390791522481666265e+00 3.498217627075903002e-01 2.303621407978304614e-01 3.771921889834349284e-01 4.479925430772598305e-01 5.460648725675315562e-01 1.005976387556079654e+00 -8.440322680944990497e-01 3.277442124062862616e-01 -4.524781831506383134e-03 3.176598559104017450e-01 3.394767278835332802e-01 7.513862961065070900e-01 -3.096935598696771152e-01 4.190663126727665611e-01 3.127150483960490224e-01 3.552851492278978895e-01 8.983272452196061630e-01 4.378725473172804250e-01 -2.291663543551102356e-01 8.568044747004008865e-01 -2.442339643751883366e-02 5.497275379022091846e-01 3.456163247464208998e-01 1.306902031976352685e+00 6.085047904195429735e-01 6.994063498919282917e-01 4.243566040157747410e-01 4.736079966587510293e-01 -6.153747738538740686e-01 2.182933269869221093e-01 7.366474358620312968e-01 3.045462699329923861e-01 5.953291122606678698e-01 2.911557909569967295e-01 2.998677562635627680e-01 6.974801901310632157e-01 1.804283494237383656e-01 -2.089452524569079817e+00 2.375689610810293451e-01 2.522167550265709823e-01 9.929463395542168502e-01 3.067056257672480246e-01 2.831728710618464095e-01 3.698077799343506000e-01 3.072929863074074786e-01 4.138912826197405637e-01 1.414626865442676351e-01 -1.644286925047335979e+00 7.734172084562076499e-01 2.339053681433556631e-01 2.806137079661478739e-01 3.513574170274283981e-01 8.157732500289334165e-01 3.000983396223829147e-01 -1.653943207314528818e-01 3.581755069070375885e-01 1.130396561381648013e+00 3.486020679807784184e-01 4.172613737099333253e-01 1.028870963667950944e+00 4.399910448314048872e-01 2.901830852221839674e+00 3.099919872142527510e-01 2.884844924561458246e-01 7.163786808933950701e-01 3.151368011604563923e-01 3.177123651793934411e-01 -2.234976867952840784e+00 4.727303897280095146e-01 3.100446869265906513e-01 5.222311193326476531e-01 2.905006856081883693e-01 1.932313096500446470e-01 -1.353311118424097015e-01 2.108650393365508968e+00 -5.163112622961064657e-01 8.203699100414130196e-01 3.038979197370859642e-01 3.333628182960721720e-01 8.795293228325078427e-01 2.769973243880560210e-01 1.358644919466805989e+00 2.622556781827566352e-01 4.259261314296160505e-01 -8.896643300842209667e-01 -1.236244141849383027e-01 -7.084463119942687737e-01 -4.163185622574066436e+00 3.046813375714975791e+00 1.229978300459539514e-02 2.897646297026575390e-01 -1.698302438747728127e+00 3.015445378131033083e-01 5.033800823976325445e-01 3.000794298013749750e-01 2.030415815754087472e-01 6.448011932451256367e-01 6.080249657207500436e-01 1.138384135064823832e+00 -4.218742779183951019e-01 -2.458012525925346026e-01 3.051299861728827834e-01 -1.207690836890074060e+00 4.034046401521763636e-01 -6.684886973190912185e-01 3.204986326310791389e-01 4.278292877661146743e-01 1.541255889122922773e-01 4.678106682265902316e-01 2.582109043381374258e-01 2.894681186544922902e-02 3.098920606060446281e-01 2.752886602955930684e-01 3.677973512933245259e-01 2.707298727373327329e-01 2.992158316375047034e-01 -7.120259846584510166e-01 4.151451635867937084e-01 1.556159928020986571e+00 8.594754876032904833e-02 2.327734792225773508e-01 2.550868635895426340e-01 1.198858321997513299e+00 3.111462256749234490e-01 6.541752171509845892e-02 8.766277209402519865e-01 1.969773870764608970e-01 1.912397145299792323e+00 3.265105851241567048e-01 1.429692079577024266e+00 2.932795541269017647e-01 7.316589185025967890e-01 1.364816515614492909e+00 4.326774355602803768e-01 2.087276220481856792e-01 9.668113775428146539e-01 -1.764813834006612181e-01 -7.457970129458113551e-02 2.821028889105517967e-01 3.103747466658927645e-01 3.709844535019481415e-01 1.479839751871026288e-01 7.458888419899450950e-02 -4.015247175107569122e-01 1.291680402093214663e+00 3.013121103100505072e-01 2.998274653500175857e-01 -3.325328438078601234e+00 5.800011902814703468e-01 2.012048962507275718e-01 2.910441501099306771e-01 3.354512738821314732e-01 3.682678449116630892e-01 -1.156193488759290400e+00 6.415982000222173465e-01 3.045177279369171708e-01 3.156969977848454456e-01 1.010178835690608290e+00 4.767196622076004253e-01 2.896379323386563676e-01 -1.434551557389094567e+00 3.125795918880865942e-01 8.982320315911768160e-01 3.990118761082032117e-01 2.951622645645423093e-01 2.420850805428818309e-01 7.064257731853897937e-01 -2.726683122760360095e-02 3.049586373876805312e-01 2.904652676910819409e-01 1.155911234448217528e-01 6.656420005886918290e-01 2.469652845120116347e-01 6.636343780137626824e-01 2.170055895055439665e-01 6.973510813313320567e-01 -2.625314867027833121e-01 -1.516342036323664377e+00 2.944043070383163263e-01 -2.360703676922941419e-02 2.523070889096494795e-01 3.181633437823718769e-01 5.854198436095228025e-02 4.696831741087155176e-01 3.093680624113559485e-01 8.754345381166127316e-02 3.952186266132570180e-01 2.981789654937761491e-01 2.763906505514999723e-01 3.537978652563583126e-01 -8.872301894642855569e-01 3.013486746268229099e-01 3.467439096789478592e-01 3.059013487365467299e-01 -4.224469596608240174e-01 3.073626860139412886e-01 8.555362636146035538e-01 -6.653647861585127998e-01 1.157125472379062270e+00 6.278828533739369000e-01 3.185727178812681748e-01 3.004278711398978841e-01 -2.092784835516805941e+00 3.100002993837854270e-01 3.618769328122855011e-01 3.344541501363017533e-01 4.696829276147228560e-01 3.055608331987798021e-01 3.409050709437563276e-01 4.335024714005802915e-02 3.002847723047674666e-01 4.298933150589652752e-01 3.061683157500530994e-01 2.589160316496429415e-01 2.753006006207223688e-01 2.958833473894887378e-01 2.996455891382404646e-01 3.807160777498336812e-01 1.951160862622731973e-01 3.055670981687818033e-01 6.346326799883815761e-01 1.345685439919107051e-01 3.044359488592799368e-01 -1.600344684596607114e-01 2.260367969919539199e-01 6.911471095774869289e-01 4.669002455708087140e+00 2.983261036092082485e-01 5.074156037426916233e-02 5.779229316105920500e-01 1.720424703783008658e-01 1.588716009095126891e+00 3.025084635495224328e-01 6.201849731613334749e-01 2.996780798420566883e-01
