# 
#                 ----------------------------------------------------
#                 Data from a 3D direct N-body simulation. 
# 
#                 rows are i-particle; 
#                 coumns are :mass, tag, x ,y, z, vx, vy, vz, ax, ay, az
# 
#                 NTHU, Computational Physics 
# 
#                 ----------------------------------------------------
#                 Time = 0.0
0.000000000000000000e+00 1.000000000000000000e+00 2.000000000000000000e+00 3.000000000000000000e+00 4.000000000000000000e+00 5.000000000000000000e+00 6.000000000000000000e+00 7.000000000000000000e+00 8.000000000000000000e+00 9.000000000000000000e+00 1.000000000000000000e+01 1.100000000000000000e+01 1.200000000000000000e+01 1.300000000000000000e+01 1.400000000000000000e+01 1.500000000000000000e+01 1.600000000000000000e+01 1.700000000000000000e+01 1.800000000000000000e+01 1.900000000000000000e+01 2.000000000000000000e+01 2.100000000000000000e+01 2.200000000000000000e+01 2.300000000000000000e+01 2.400000000000000000e+01 2.500000000000000000e+01 2.600000000000000000e+01 2.700000000000000000e+01 2.800000000000000000e+01 2.900000000000000000e+01 3.000000000000000000e+01 3.100000000000000000e+01 3.200000000000000000e+01 3.300000000000000000e+01 3.400000000000000000e+01 3.500000000000000000e+01 3.600000000000000000e+01 3.700000000000000000e+01 3.800000000000000000e+01 3.900000000000000000e+01 4.000000000000000000e+01 4.100000000000000000e+01 4.200000000000000000e+01 4.300000000000000000e+01 4.400000000000000000e+01 4.500000000000000000e+01 4.600000000000000000e+01 4.700000000000000000e+01 4.800000000000000000e+01 4.900000000000000000e+01 5.000000000000000000e+01 5.100000000000000000e+01 5.200000000000000000e+01 5.300000000000000000e+01 5.400000000000000000e+01 5.500000000000000000e+01 5.600000000000000000e+01 5.700000000000000000e+01 5.800000000000000000e+01 5.900000000000000000e+01 6.000000000000000000e+01 6.100000000000000000e+01 6.200000000000000000e+01 6.300000000000000000e+01 6.400000000000000000e+01 6.500000000000000000e+01 6.600000000000000000e+01 6.700000000000000000e+01 6.800000000000000000e+01 6.900000000000000000e+01 7.000000000000000000e+01 7.100000000000000000e+01 7.200000000000000000e+01 7.300000000000000000e+01 7.400000000000000000e+01 7.500000000000000000e+01 7.600000000000000000e+01 7.700000000000000000e+01 7.800000000000000000e+01 7.900000000000000000e+01 8.000000000000000000e+01 8.100000000000000000e+01 8.200000000000000000e+01 8.300000000000000000e+01 8.400000000000000000e+01 8.500000000000000000e+01 8.600000000000000000e+01 8.700000000000000000e+01 8.800000000000000000e+01 8.900000000000000000e+01 9.000000000000000000e+01 9.100000000000000000e+01 9.200000000000000000e+01 9.300000000000000000e+01 9.400000000000000000e+01 9.500000000000000000e+01 9.600000000000000000e+01 9.700000000000000000e+01 9.800000000000000000e+01 9.900000000000000000e+01 1.000000000000000000e+02 1.010000000000000000e+02 1.020000000000000000e+02 1.030000000000000000e+02 1.040000000000000000e+02 1.050000000000000000e+02 1.060000000000000000e+02 1.070000000000000000e+02 1.080000000000000000e+02 1.090000000000000000e+02 1.100000000000000000e+02 1.110000000000000000e+02 1.120000000000000000e+02 1.130000000000000000e+02 1.140000000000000000e+02 1.150000000000000000e+02 1.160000000000000000e+02 1.170000000000000000e+02 1.180000000000000000e+02 1.190000000000000000e+02 1.200000000000000000e+02 1.210000000000000000e+02 1.220000000000000000e+02 1.230000000000000000e+02 1.240000000000000000e+02 1.250000000000000000e+02 1.260000000000000000e+02 1.270000000000000000e+02 1.280000000000000000e+02 1.290000000000000000e+02 1.300000000000000000e+02 1.310000000000000000e+02 1.320000000000000000e+02 1.330000000000000000e+02 1.340000000000000000e+02 1.350000000000000000e+02 1.360000000000000000e+02 1.370000000000000000e+02 1.380000000000000000e+02 1.390000000000000000e+02 1.400000000000000000e+02 1.410000000000000000e+02 1.420000000000000000e+02 1.430000000000000000e+02 1.440000000000000000e+02 1.450000000000000000e+02 1.460000000000000000e+02 1.470000000000000000e+02 1.480000000000000000e+02 1.490000000000000000e+02 1.500000000000000000e+02 1.510000000000000000e+02 1.520000000000000000e+02 1.530000000000000000e+02 1.540000000000000000e+02 1.550000000000000000e+02 1.560000000000000000e+02 1.570000000000000000e+02 1.580000000000000000e+02 1.590000000000000000e+02 1.600000000000000000e+02 1.610000000000000000e+02 1.620000000000000000e+02 1.630000000000000000e+02 1.640000000000000000e+02 1.650000000000000000e+02 1.660000000000000000e+02 1.670000000000000000e+02 1.680000000000000000e+02 1.690000000000000000e+02 1.700000000000000000e+02 1.710000000000000000e+02 1.720000000000000000e+02 1.730000000000000000e+02 1.740000000000000000e+02 1.750000000000000000e+02 1.760000000000000000e+02 1.770000000000000000e+02 1.780000000000000000e+02 1.790000000000000000e+02 1.800000000000000000e+02 1.810000000000000000e+02 1.820000000000000000e+02 1.830000000000000000e+02 1.840000000000000000e+02 1.850000000000000000e+02 1.860000000000000000e+02 1.870000000000000000e+02 1.880000000000000000e+02 1.890000000000000000e+02 1.900000000000000000e+02 1.910000000000000000e+02 1.920000000000000000e+02 1.930000000000000000e+02 1.940000000000000000e+02 1.950000000000000000e+02 1.960000000000000000e+02 1.970000000000000000e+02 1.980000000000000000e+02 1.990000000000000000e+02 2.000000000000000000e+02 2.010000000000000000e+02 2.020000000000000000e+02 2.030000000000000000e+02 2.040000000000000000e+02 2.050000000000000000e+02 2.060000000000000000e+02 2.070000000000000000e+02 2.080000000000000000e+02 2.090000000000000000e+02 2.100000000000000000e+02 2.110000000000000000e+02 2.120000000000000000e+02 2.130000000000000000e+02 2.140000000000000000e+02 2.150000000000000000e+02 2.160000000000000000e+02 2.170000000000000000e+02 2.180000000000000000e+02 2.190000000000000000e+02 2.200000000000000000e+02 2.210000000000000000e+02 2.220000000000000000e+02 2.230000000000000000e+02 2.240000000000000000e+02 2.250000000000000000e+02 2.260000000000000000e+02 2.270000000000000000e+02 2.280000000000000000e+02 2.290000000000000000e+02 2.300000000000000000e+02 2.310000000000000000e+02 2.320000000000000000e+02 2.330000000000000000e+02 2.340000000000000000e+02 2.350000000000000000e+02 2.360000000000000000e+02 2.370000000000000000e+02 2.380000000000000000e+02 2.390000000000000000e+02 2.400000000000000000e+02 2.410000000000000000e+02 2.420000000000000000e+02 2.430000000000000000e+02 2.440000000000000000e+02 2.450000000000000000e+02 2.460000000000000000e+02 2.470000000000000000e+02 2.480000000000000000e+02 2.490000000000000000e+02 2.500000000000000000e+02 2.510000000000000000e+02 2.520000000000000000e+02 2.530000000000000000e+02 2.540000000000000000e+02 2.550000000000000000e+02 2.560000000000000000e+02 2.570000000000000000e+02 2.580000000000000000e+02 2.590000000000000000e+02 2.600000000000000000e+02 2.610000000000000000e+02 2.620000000000000000e+02 2.630000000000000000e+02 2.640000000000000000e+02 2.650000000000000000e+02 2.660000000000000000e+02 2.670000000000000000e+02 2.680000000000000000e+02 2.690000000000000000e+02 2.700000000000000000e+02 2.710000000000000000e+02 2.720000000000000000e+02 2.730000000000000000e+02 2.740000000000000000e+02 2.750000000000000000e+02 2.760000000000000000e+02 2.770000000000000000e+02 2.780000000000000000e+02 2.790000000000000000e+02 2.800000000000000000e+02 2.810000000000000000e+02 2.820000000000000000e+02 2.830000000000000000e+02 2.840000000000000000e+02 2.850000000000000000e+02 2.860000000000000000e+02 2.870000000000000000e+02 2.880000000000000000e+02 2.890000000000000000e+02 2.900000000000000000e+02 2.910000000000000000e+02 2.920000000000000000e+02 2.930000000000000000e+02 2.940000000000000000e+02 2.950000000000000000e+02 2.960000000000000000e+02 2.970000000000000000e+02 2.980000000000000000e+02 2.990000000000000000e+02 3.000000000000000000e+02 3.010000000000000000e+02 3.020000000000000000e+02 3.030000000000000000e+02 3.040000000000000000e+02 3.050000000000000000e+02 3.060000000000000000e+02 3.070000000000000000e+02 3.080000000000000000e+02 3.090000000000000000e+02 3.100000000000000000e+02 3.110000000000000000e+02 3.120000000000000000e+02 3.130000000000000000e+02 3.140000000000000000e+02 3.150000000000000000e+02 3.160000000000000000e+02 3.170000000000000000e+02 3.180000000000000000e+02 3.190000000000000000e+02 3.200000000000000000e+02 3.210000000000000000e+02 3.220000000000000000e+02 3.230000000000000000e+02 3.240000000000000000e+02 3.250000000000000000e+02 3.260000000000000000e+02 3.270000000000000000e+02 3.280000000000000000e+02 3.290000000000000000e+02 3.300000000000000000e+02 3.310000000000000000e+02 3.320000000000000000e+02 3.330000000000000000e+02 3.340000000000000000e+02 3.350000000000000000e+02 3.360000000000000000e+02 3.370000000000000000e+02 3.380000000000000000e+02 3.390000000000000000e+02 3.400000000000000000e+02 3.410000000000000000e+02 3.420000000000000000e+02 3.430000000000000000e+02 3.440000000000000000e+02 3.450000000000000000e+02 3.460000000000000000e+02 3.470000000000000000e+02 3.480000000000000000e+02 3.490000000000000000e+02 3.500000000000000000e+02 3.510000000000000000e+02 3.520000000000000000e+02 3.530000000000000000e+02 3.540000000000000000e+02 3.550000000000000000e+02 3.560000000000000000e+02 3.570000000000000000e+02 3.580000000000000000e+02 3.590000000000000000e+02 3.600000000000000000e+02 3.610000000000000000e+02 3.620000000000000000e+02 3.630000000000000000e+02 3.640000000000000000e+02 3.650000000000000000e+02 3.660000000000000000e+02 3.670000000000000000e+02 3.680000000000000000e+02 3.690000000000000000e+02 3.700000000000000000e+02 3.710000000000000000e+02 3.720000000000000000e+02 3.730000000000000000e+02 3.740000000000000000e+02 3.750000000000000000e+02 3.760000000000000000e+02 3.770000000000000000e+02 3.780000000000000000e+02 3.790000000000000000e+02 3.800000000000000000e+02 3.810000000000000000e+02 3.820000000000000000e+02 3.830000000000000000e+02 3.840000000000000000e+02 3.850000000000000000e+02 3.860000000000000000e+02 3.870000000000000000e+02 3.880000000000000000e+02 3.890000000000000000e+02 3.900000000000000000e+02 3.910000000000000000e+02 3.920000000000000000e+02 3.930000000000000000e+02 3.940000000000000000e+02 3.950000000000000000e+02 3.960000000000000000e+02 3.970000000000000000e+02 3.980000000000000000e+02 3.990000000000000000e+02 4.000000000000000000e+02 4.010000000000000000e+02 4.020000000000000000e+02 4.030000000000000000e+02 4.040000000000000000e+02 4.050000000000000000e+02 4.060000000000000000e+02 4.070000000000000000e+02 4.080000000000000000e+02 4.090000000000000000e+02 4.100000000000000000e+02 4.110000000000000000e+02 4.120000000000000000e+02 4.130000000000000000e+02 4.140000000000000000e+02 4.150000000000000000e+02 4.160000000000000000e+02 4.170000000000000000e+02 4.180000000000000000e+02 4.190000000000000000e+02 4.200000000000000000e+02 4.210000000000000000e+02 4.220000000000000000e+02 4.230000000000000000e+02 4.240000000000000000e+02 4.250000000000000000e+02 4.260000000000000000e+02 4.270000000000000000e+02 4.280000000000000000e+02 4.290000000000000000e+02 4.300000000000000000e+02 4.310000000000000000e+02 4.320000000000000000e+02 4.330000000000000000e+02 4.340000000000000000e+02 4.350000000000000000e+02 4.360000000000000000e+02 4.370000000000000000e+02 4.380000000000000000e+02 4.390000000000000000e+02 4.400000000000000000e+02 4.410000000000000000e+02 4.420000000000000000e+02 4.430000000000000000e+02 4.440000000000000000e+02 4.450000000000000000e+02 4.460000000000000000e+02 4.470000000000000000e+02 4.480000000000000000e+02 4.490000000000000000e+02 4.500000000000000000e+02 4.510000000000000000e+02 4.520000000000000000e+02 4.530000000000000000e+02 4.540000000000000000e+02 4.550000000000000000e+02 4.560000000000000000e+02 4.570000000000000000e+02 4.580000000000000000e+02 4.590000000000000000e+02 4.600000000000000000e+02 4.610000000000000000e+02 4.620000000000000000e+02 4.630000000000000000e+02 4.640000000000000000e+02 4.650000000000000000e+02 4.660000000000000000e+02 4.670000000000000000e+02 4.680000000000000000e+02 4.690000000000000000e+02 4.700000000000000000e+02 4.710000000000000000e+02 4.720000000000000000e+02 4.730000000000000000e+02 4.740000000000000000e+02 4.750000000000000000e+02 4.760000000000000000e+02 4.770000000000000000e+02 4.780000000000000000e+02 4.790000000000000000e+02 4.800000000000000000e+02 4.810000000000000000e+02 4.820000000000000000e+02 4.830000000000000000e+02 4.840000000000000000e+02 4.850000000000000000e+02 4.860000000000000000e+02 4.870000000000000000e+02 4.880000000000000000e+02 4.890000000000000000e+02 4.900000000000000000e+02 4.910000000000000000e+02 4.920000000000000000e+02 4.930000000000000000e+02 4.940000000000000000e+02 4.950000000000000000e+02 4.960000000000000000e+02 4.970000000000000000e+02 4.980000000000000000e+02 4.990000000000000000e+02 5.000000000000000000e+02 5.010000000000000000e+02 5.020000000000000000e+02 5.030000000000000000e+02 5.040000000000000000e+02 5.050000000000000000e+02 5.060000000000000000e+02 5.070000000000000000e+02 5.080000000000000000e+02 5.090000000000000000e+02 5.100000000000000000e+02 5.110000000000000000e+02 5.120000000000000000e+02 5.130000000000000000e+02 5.140000000000000000e+02 5.150000000000000000e+02 5.160000000000000000e+02 5.170000000000000000e+02 5.180000000000000000e+02 5.190000000000000000e+02 5.200000000000000000e+02 5.210000000000000000e+02 5.220000000000000000e+02 5.230000000000000000e+02 5.240000000000000000e+02 5.250000000000000000e+02 5.260000000000000000e+02 5.270000000000000000e+02 5.280000000000000000e+02 5.290000000000000000e+02 5.300000000000000000e+02 5.310000000000000000e+02 5.320000000000000000e+02 5.330000000000000000e+02 5.340000000000000000e+02 5.350000000000000000e+02 5.360000000000000000e+02 5.370000000000000000e+02 5.380000000000000000e+02 5.390000000000000000e+02 5.400000000000000000e+02 5.410000000000000000e+02 5.420000000000000000e+02 5.430000000000000000e+02 5.440000000000000000e+02 5.450000000000000000e+02 5.460000000000000000e+02 5.470000000000000000e+02 5.480000000000000000e+02 5.490000000000000000e+02 5.500000000000000000e+02 5.510000000000000000e+02 5.520000000000000000e+02 5.530000000000000000e+02 5.540000000000000000e+02 5.550000000000000000e+02 5.560000000000000000e+02 5.570000000000000000e+02 5.580000000000000000e+02 5.590000000000000000e+02 5.600000000000000000e+02 5.610000000000000000e+02 5.620000000000000000e+02 5.630000000000000000e+02 5.640000000000000000e+02 5.650000000000000000e+02 5.660000000000000000e+02 5.670000000000000000e+02 5.680000000000000000e+02 5.690000000000000000e+02 5.700000000000000000e+02 5.710000000000000000e+02 5.720000000000000000e+02 5.730000000000000000e+02 5.740000000000000000e+02 5.750000000000000000e+02 5.760000000000000000e+02 5.770000000000000000e+02 5.780000000000000000e+02 5.790000000000000000e+02 5.800000000000000000e+02 5.810000000000000000e+02 5.820000000000000000e+02 5.830000000000000000e+02 5.840000000000000000e+02 5.850000000000000000e+02 5.860000000000000000e+02 5.870000000000000000e+02 5.880000000000000000e+02 5.890000000000000000e+02 5.900000000000000000e+02 5.910000000000000000e+02 5.920000000000000000e+02 5.930000000000000000e+02 5.940000000000000000e+02 5.950000000000000000e+02 5.960000000000000000e+02 5.970000000000000000e+02 5.980000000000000000e+02 5.990000000000000000e+02 6.000000000000000000e+02 6.010000000000000000e+02 6.020000000000000000e+02 6.030000000000000000e+02 6.040000000000000000e+02 6.050000000000000000e+02 6.060000000000000000e+02 6.070000000000000000e+02 6.080000000000000000e+02 6.090000000000000000e+02 6.100000000000000000e+02 6.110000000000000000e+02 6.120000000000000000e+02 6.130000000000000000e+02 6.140000000000000000e+02 6.150000000000000000e+02 6.160000000000000000e+02 6.170000000000000000e+02 6.180000000000000000e+02 6.190000000000000000e+02 6.200000000000000000e+02 6.210000000000000000e+02 6.220000000000000000e+02 6.230000000000000000e+02 6.240000000000000000e+02 6.250000000000000000e+02 6.260000000000000000e+02 6.270000000000000000e+02 6.280000000000000000e+02 6.290000000000000000e+02 6.300000000000000000e+02 6.310000000000000000e+02 6.320000000000000000e+02 6.330000000000000000e+02 6.340000000000000000e+02 6.350000000000000000e+02 6.360000000000000000e+02 6.370000000000000000e+02 6.380000000000000000e+02 6.390000000000000000e+02 6.400000000000000000e+02 6.410000000000000000e+02 6.420000000000000000e+02 6.430000000000000000e+02 6.440000000000000000e+02 6.450000000000000000e+02 6.460000000000000000e+02 6.470000000000000000e+02 6.480000000000000000e+02 6.490000000000000000e+02 6.500000000000000000e+02 6.510000000000000000e+02 6.520000000000000000e+02 6.530000000000000000e+02 6.540000000000000000e+02 6.550000000000000000e+02 6.560000000000000000e+02 6.570000000000000000e+02 6.580000000000000000e+02 6.590000000000000000e+02 6.600000000000000000e+02 6.610000000000000000e+02 6.620000000000000000e+02 6.630000000000000000e+02 6.640000000000000000e+02 6.650000000000000000e+02 6.660000000000000000e+02 6.670000000000000000e+02 6.680000000000000000e+02 6.690000000000000000e+02 6.700000000000000000e+02 6.710000000000000000e+02 6.720000000000000000e+02 6.730000000000000000e+02 6.740000000000000000e+02 6.750000000000000000e+02 6.760000000000000000e+02 6.770000000000000000e+02 6.780000000000000000e+02 6.790000000000000000e+02 6.800000000000000000e+02 6.810000000000000000e+02 6.820000000000000000e+02 6.830000000000000000e+02 6.840000000000000000e+02 6.850000000000000000e+02 6.860000000000000000e+02 6.870000000000000000e+02 6.880000000000000000e+02 6.890000000000000000e+02 6.900000000000000000e+02 6.910000000000000000e+02 6.920000000000000000e+02 6.930000000000000000e+02 6.940000000000000000e+02 6.950000000000000000e+02 6.960000000000000000e+02 6.970000000000000000e+02 6.980000000000000000e+02 6.990000000000000000e+02 7.000000000000000000e+02 7.010000000000000000e+02 7.020000000000000000e+02 7.030000000000000000e+02 7.040000000000000000e+02 7.050000000000000000e+02 7.060000000000000000e+02 7.070000000000000000e+02 7.080000000000000000e+02 7.090000000000000000e+02 7.100000000000000000e+02 7.110000000000000000e+02 7.120000000000000000e+02 7.130000000000000000e+02 7.140000000000000000e+02 7.150000000000000000e+02 7.160000000000000000e+02 7.170000000000000000e+02 7.180000000000000000e+02 7.190000000000000000e+02 7.200000000000000000e+02 7.210000000000000000e+02 7.220000000000000000e+02 7.230000000000000000e+02 7.240000000000000000e+02 7.250000000000000000e+02 7.260000000000000000e+02 7.270000000000000000e+02 7.280000000000000000e+02 7.290000000000000000e+02 7.300000000000000000e+02 7.310000000000000000e+02 7.320000000000000000e+02 7.330000000000000000e+02 7.340000000000000000e+02 7.350000000000000000e+02 7.360000000000000000e+02 7.370000000000000000e+02 7.380000000000000000e+02 7.390000000000000000e+02 7.400000000000000000e+02 7.410000000000000000e+02 7.420000000000000000e+02 7.430000000000000000e+02 7.440000000000000000e+02 7.450000000000000000e+02 7.460000000000000000e+02 7.470000000000000000e+02 7.480000000000000000e+02 7.490000000000000000e+02 7.500000000000000000e+02 7.510000000000000000e+02 7.520000000000000000e+02 7.530000000000000000e+02 7.540000000000000000e+02 7.550000000000000000e+02 7.560000000000000000e+02 7.570000000000000000e+02 7.580000000000000000e+02 7.590000000000000000e+02 7.600000000000000000e+02 7.610000000000000000e+02 7.620000000000000000e+02 7.630000000000000000e+02 7.640000000000000000e+02 7.650000000000000000e+02 7.660000000000000000e+02 7.670000000000000000e+02 7.680000000000000000e+02 7.690000000000000000e+02 7.700000000000000000e+02 7.710000000000000000e+02 7.720000000000000000e+02 7.730000000000000000e+02 7.740000000000000000e+02 7.750000000000000000e+02 7.760000000000000000e+02 7.770000000000000000e+02 7.780000000000000000e+02 7.790000000000000000e+02 7.800000000000000000e+02 7.810000000000000000e+02 7.820000000000000000e+02 7.830000000000000000e+02 7.840000000000000000e+02 7.850000000000000000e+02 7.860000000000000000e+02 7.870000000000000000e+02 7.880000000000000000e+02 7.890000000000000000e+02 7.900000000000000000e+02 7.910000000000000000e+02 7.920000000000000000e+02 7.930000000000000000e+02 7.940000000000000000e+02 7.950000000000000000e+02 7.960000000000000000e+02 7.970000000000000000e+02 7.980000000000000000e+02 7.990000000000000000e+02 8.000000000000000000e+02 8.010000000000000000e+02 8.020000000000000000e+02 8.030000000000000000e+02 8.040000000000000000e+02 8.050000000000000000e+02 8.060000000000000000e+02 8.070000000000000000e+02 8.080000000000000000e+02 8.090000000000000000e+02 8.100000000000000000e+02 8.110000000000000000e+02 8.120000000000000000e+02 8.130000000000000000e+02 8.140000000000000000e+02 8.150000000000000000e+02 8.160000000000000000e+02 8.170000000000000000e+02 8.180000000000000000e+02 8.190000000000000000e+02 8.200000000000000000e+02 8.210000000000000000e+02 8.220000000000000000e+02 8.230000000000000000e+02 8.240000000000000000e+02 8.250000000000000000e+02 8.260000000000000000e+02 8.270000000000000000e+02 8.280000000000000000e+02 8.290000000000000000e+02 8.300000000000000000e+02 8.310000000000000000e+02 8.320000000000000000e+02 8.330000000000000000e+02 8.340000000000000000e+02 8.350000000000000000e+02 8.360000000000000000e+02 8.370000000000000000e+02 8.380000000000000000e+02 8.390000000000000000e+02 8.400000000000000000e+02 8.410000000000000000e+02 8.420000000000000000e+02 8.430000000000000000e+02 8.440000000000000000e+02 8.450000000000000000e+02 8.460000000000000000e+02 8.470000000000000000e+02 8.480000000000000000e+02 8.490000000000000000e+02 8.500000000000000000e+02 8.510000000000000000e+02 8.520000000000000000e+02 8.530000000000000000e+02 8.540000000000000000e+02 8.550000000000000000e+02 8.560000000000000000e+02 8.570000000000000000e+02 8.580000000000000000e+02 8.590000000000000000e+02 8.600000000000000000e+02 8.610000000000000000e+02 8.620000000000000000e+02 8.630000000000000000e+02 8.640000000000000000e+02 8.650000000000000000e+02 8.660000000000000000e+02 8.670000000000000000e+02 8.680000000000000000e+02 8.690000000000000000e+02 8.700000000000000000e+02 8.710000000000000000e+02 8.720000000000000000e+02 8.730000000000000000e+02 8.740000000000000000e+02 8.750000000000000000e+02 8.760000000000000000e+02 8.770000000000000000e+02 8.780000000000000000e+02 8.790000000000000000e+02 8.800000000000000000e+02 8.810000000000000000e+02 8.820000000000000000e+02 8.830000000000000000e+02 8.840000000000000000e+02 8.850000000000000000e+02 8.860000000000000000e+02 8.870000000000000000e+02 8.880000000000000000e+02 8.890000000000000000e+02 8.900000000000000000e+02 8.910000000000000000e+02 8.920000000000000000e+02 8.930000000000000000e+02 8.940000000000000000e+02 8.950000000000000000e+02 8.960000000000000000e+02 8.970000000000000000e+02 8.980000000000000000e+02 8.990000000000000000e+02 9.000000000000000000e+02 9.010000000000000000e+02 9.020000000000000000e+02 9.030000000000000000e+02 9.040000000000000000e+02 9.050000000000000000e+02 9.060000000000000000e+02 9.070000000000000000e+02 9.080000000000000000e+02 9.090000000000000000e+02 9.100000000000000000e+02 9.110000000000000000e+02 9.120000000000000000e+02 9.130000000000000000e+02 9.140000000000000000e+02 9.150000000000000000e+02 9.160000000000000000e+02 9.170000000000000000e+02 9.180000000000000000e+02 9.190000000000000000e+02 9.200000000000000000e+02 9.210000000000000000e+02 9.220000000000000000e+02 9.230000000000000000e+02 9.240000000000000000e+02 9.250000000000000000e+02 9.260000000000000000e+02 9.270000000000000000e+02 9.280000000000000000e+02 9.290000000000000000e+02 9.300000000000000000e+02 9.310000000000000000e+02 9.320000000000000000e+02 9.330000000000000000e+02 9.340000000000000000e+02 9.350000000000000000e+02 9.360000000000000000e+02 9.370000000000000000e+02 9.380000000000000000e+02 9.390000000000000000e+02 9.400000000000000000e+02 9.410000000000000000e+02 9.420000000000000000e+02 9.430000000000000000e+02 9.440000000000000000e+02 9.450000000000000000e+02 9.460000000000000000e+02 9.470000000000000000e+02 9.480000000000000000e+02 9.490000000000000000e+02 9.500000000000000000e+02 9.510000000000000000e+02 9.520000000000000000e+02 9.530000000000000000e+02 9.540000000000000000e+02 9.550000000000000000e+02 9.560000000000000000e+02 9.570000000000000000e+02 9.580000000000000000e+02 9.590000000000000000e+02 9.600000000000000000e+02 9.610000000000000000e+02 9.620000000000000000e+02 9.630000000000000000e+02 9.640000000000000000e+02 9.650000000000000000e+02 9.660000000000000000e+02 9.670000000000000000e+02 9.680000000000000000e+02 9.690000000000000000e+02 9.700000000000000000e+02 9.710000000000000000e+02 9.720000000000000000e+02 9.730000000000000000e+02 9.740000000000000000e+02 9.750000000000000000e+02 9.760000000000000000e+02 9.770000000000000000e+02 9.780000000000000000e+02 9.790000000000000000e+02 9.800000000000000000e+02 9.810000000000000000e+02 9.820000000000000000e+02 9.830000000000000000e+02 9.840000000000000000e+02 9.850000000000000000e+02 9.860000000000000000e+02 9.870000000000000000e+02 9.880000000000000000e+02 9.890000000000000000e+02 9.900000000000000000e+02 9.910000000000000000e+02 9.920000000000000000e+02 9.930000000000000000e+02 9.940000000000000000e+02 9.950000000000000000e+02 9.960000000000000000e+02 9.970000000000000000e+02 9.980000000000000000e+02 9.990000000000000000e+02
1.000000000000000000e+00 1.000000000000000000e+00 1.000000000000000000e+00 1.000000000000000000e+00 1.000000000000000000e+00 1.000000000000000000e+00 1.000000000000000000e+00 1.000000000000000000e+00 1.000000000000000000e+00 1.000000000000000000e+00 1.000000000000000000e+00 1.000000000000000000e+00 1.000000000000000000e+00 1.000000000000000000e+00 1.000000000000000000e+00 1.000000000000000000e+00 1.000000000000000000e+00 1.000000000000000000e+00 1.000000000000000000e+00 1.000000000000000000e+00 1.000000000000000000e+00 1.000000000000000000e+00 1.000000000000000000e+00 1.000000000000000000e+00 1.000000000000000000e+00 1.000000000000000000e+00 1.000000000000000000e+00 1.000000000000000000e+00 1.000000000000000000e+00 1.000000000000000000e+00 1.000000000000000000e+00 1.000000000000000000e+00 1.000000000000000000e+00 1.000000000000000000e+00 1.000000000000000000e+00 1.000000000000000000e+00 1.000000000000000000e+00 1.000000000000000000e+00 1.000000000000000000e+00 1.000000000000000000e+00 1.000000000000000000e+00 1.000000000000000000e+00 1.000000000000000000e+00 1.000000000000000000e+00 1.000000000000000000e+00 1.000000000000000000e+00 1.000000000000000000e+00 1.000000000000000000e+00 1.000000000000000000e+00 1.000000000000000000e+00 1.000000000000000000e+00 1.000000000000000000e+00 1.000000000000000000e+00 1.000000000000000000e+00 1.000000000000000000e+00 1.000000000000000000e+00 1.000000000000000000e+00 1.000000000000000000e+00 1.000000000000000000e+00 1.000000000000000000e+00 1.000000000000000000e+00 1.000000000000000000e+00 1.000000000000000000e+00 1.000000000000000000e+00 1.000000000000000000e+00 1.000000000000000000e+00 1.000000000000000000e+00 1.000000000000000000e+00 1.000000000000000000e+00 1.000000000000000000e+00 1.000000000000000000e+00 1.000000000000000000e+00 1.000000000000000000e+00 1.000000000000000000e+00 1.000000000000000000e+00 1.000000000000000000e+00 1.000000000000000000e+00 1.000000000000000000e+00 1.000000000000000000e+00 1.000000000000000000e+00 1.000000000000000000e+00 1.000000000000000000e+00 1.000000000000000000e+00 1.000000000000000000e+00 1.000000000000000000e+00 1.000000000000000000e+00 1.000000000000000000e+00 1.000000000000000000e+00 1.000000000000000000e+00 1.000000000000000000e+00 1.000000000000000000e+00 1.000000000000000000e+00 1.000000000000000000e+00 1.000000000000000000e+00 1.000000000000000000e+00 1.000000000000000000e+00 1.000000000000000000e+00 1.000000000000000000e+00 1.000000000000000000e+00 1.000000000000000000e+00 1.000000000000000000e+00 1.000000000000000000e+00 1.000000000000000000e+00 1.000000000000000000e+00 1.000000000000000000e+00 1.000000000000000000e+00 1.000000000000000000e+00 1.000000000000000000e+00 1.000000000000000000e+00 1.000000000000000000e+00 1.000000000000000000e+00 1.000000000000000000e+00 1.000000000000000000e+00 1.000000000000000000e+00 1.000000000000000000e+00 1.000000000000000000e+00 1.000000000000000000e+00 1.000000000000000000e+00 1.000000000000000000e+00 1.000000000000000000e+00 1.000000000000000000e+00 1.000000000000000000e+00 1.000000000000000000e+00 1.000000000000000000e+00 1.000000000000000000e+00 1.000000000000000000e+00 1.000000000000000000e+00 1.000000000000000000e+00 1.000000000000000000e+00 1.000000000000000000e+00 1.000000000000000000e+00 1.000000000000000000e+00 1.000000000000000000e+00 1.000000000000000000e+00 1.000000000000000000e+00 1.000000000000000000e+00 1.000000000000000000e+00 1.000000000000000000e+00 1.000000000000000000e+00 1.000000000000000000e+00 1.000000000000000000e+00 1.000000000000000000e+00 1.000000000000000000e+00 1.000000000000000000e+00 1.000000000000000000e+00 1.000000000000000000e+00 1.000000000000000000e+00 1.000000000000000000e+00 1.000000000000000000e+00 1.000000000000000000e+00 1.000000000000000000e+00 1.000000000000000000e+00 1.000000000000000000e+00 1.000000000000000000e+00 1.000000000000000000e+00 1.000000000000000000e+00 1.000000000000000000e+00 1.000000000000000000e+00 1.000000000000000000e+00 1.000000000000000000e+00 1.000000000000000000e+00 1.000000000000000000e+00 1.000000000000000000e+00 1.000000000000000000e+00 1.000000000000000000e+00 1.000000000000000000e+00 1.000000000000000000e+00 1.000000000000000000e+00 1.000000000000000000e+00 1.000000000000000000e+00 1.000000000000000000e+00 1.000000000000000000e+00 1.000000000000000000e+00 1.000000000000000000e+00 1.000000000000000000e+00 1.000000000000000000e+00 1.000000000000000000e+00 1.000000000000000000e+00 1.000000000000000000e+00 1.000000000000000000e+00 1.000000000000000000e+00 1.000000000000000000e+00 1.000000000000000000e+00 1.000000000000000000e+00 1.000000000000000000e+00 1.000000000000000000e+00 1.000000000000000000e+00 1.000000000000000000e+00 1.000000000000000000e+00 1.000000000000000000e+00 1.000000000000000000e+00 1.000000000000000000e+00 1.000000000000000000e+00 1.000000000000000000e+00 1.000000000000000000e+00 1.000000000000000000e+00 1.000000000000000000e+00 1.000000000000000000e+00 1.000000000000000000e+00 1.000000000000000000e+00 1.000000000000000000e+00 1.000000000000000000e+00 1.000000000000000000e+00 1.000000000000000000e+00 1.000000000000000000e+00 1.000000000000000000e+00 1.000000000000000000e+00 1.000000000000000000e+00 1.000000000000000000e+00 1.000000000000000000e+00 1.000000000000000000e+00 1.000000000000000000e+00 1.000000000000000000e+00 1.000000000000000000e+00 1.000000000000000000e+00 1.000000000000000000e+00 1.000000000000000000e+00 1.000000000000000000e+00 1.000000000000000000e+00 1.000000000000000000e+00 1.000000000000000000e+00 1.000000000000000000e+00 1.000000000000000000e+00 1.000000000000000000e+00 1.000000000000000000e+00 1.000000000000000000e+00 1.000000000000000000e+00 1.000000000000000000e+00 1.000000000000000000e+00 1.000000000000000000e+00 1.000000000000000000e+00 1.000000000000000000e+00 1.000000000000000000e+00 1.000000000000000000e+00 1.000000000000000000e+00 1.000000000000000000e+00 1.000000000000000000e+00 1.000000000000000000e+00 1.000000000000000000e+00 1.000000000000000000e+00 1.000000000000000000e+00 1.000000000000000000e+00 1.000000000000000000e+00 1.000000000000000000e+00 1.000000000000000000e+00 1.000000000000000000e+00 1.000000000000000000e+00 1.000000000000000000e+00 1.000000000000000000e+00 1.000000000000000000e+00 1.000000000000000000e+00 1.000000000000000000e+00 1.000000000000000000e+00 1.000000000000000000e+00 1.000000000000000000e+00 1.000000000000000000e+00 1.000000000000000000e+00 1.000000000000000000e+00 1.000000000000000000e+00 1.000000000000000000e+00 1.000000000000000000e+00 1.000000000000000000e+00 1.000000000000000000e+00 1.000000000000000000e+00 1.000000000000000000e+00 1.000000000000000000e+00 1.000000000000000000e+00 1.000000000000000000e+00 1.000000000000000000e+00 1.000000000000000000e+00 1.000000000000000000e+00 1.000000000000000000e+00 1.000000000000000000e+00 1.000000000000000000e+00 1.000000000000000000e+00 1.000000000000000000e+00 1.000000000000000000e+00 1.000000000000000000e+00 1.000000000000000000e+00 1.000000000000000000e+00 1.000000000000000000e+00 1.000000000000000000e+00 1.000000000000000000e+00 1.000000000000000000e+00 1.000000000000000000e+00 1.000000000000000000e+00 1.000000000000000000e+00 1.000000000000000000e+00 1.000000000000000000e+00 1.000000000000000000e+00 1.000000000000000000e+00 1.000000000000000000e+00 1.000000000000000000e+00 1.000000000000000000e+00 1.000000000000000000e+00 1.000000000000000000e+00 1.000000000000000000e+00 1.000000000000000000e+00 1.000000000000000000e+00 1.000000000000000000e+00 1.000000000000000000e+00 1.000000000000000000e+00 1.000000000000000000e+00 1.000000000000000000e+00 1.000000000000000000e+00 1.000000000000000000e+00 1.000000000000000000e+00 1.000000000000000000e+00 1.000000000000000000e+00 1.000000000000000000e+00 1.000000000000000000e+00 1.000000000000000000e+00 1.000000000000000000e+00 1.000000000000000000e+00 1.000000000000000000e+00 1.000000000000000000e+00 1.000000000000000000e+00 1.000000000000000000e+00 1.000000000000000000e+00 1.000000000000000000e+00 1.000000000000000000e+00 1.000000000000000000e+00 1.000000000000000000e+00 1.000000000000000000e+00 1.000000000000000000e+00 1.000000000000000000e+00 1.000000000000000000e+00 1.000000000000000000e+00 1.000000000000000000e+00 1.000000000000000000e+00 1.000000000000000000e+00 1.000000000000000000e+00 1.000000000000000000e+00 1.000000000000000000e+00 1.000000000000000000e+00 1.000000000000000000e+00 1.000000000000000000e+00 1.000000000000000000e+00 1.000000000000000000e+00 1.000000000000000000e+00 1.000000000000000000e+00 1.000000000000000000e+00 1.000000000000000000e+00 1.000000000000000000e+00 1.000000000000000000e+00 1.000000000000000000e+00 1.000000000000000000e+00 1.000000000000000000e+00 1.000000000000000000e+00 1.000000000000000000e+00 1.000000000000000000e+00 1.000000000000000000e+00 1.000000000000000000e+00 1.000000000000000000e+00 1.000000000000000000e+00 1.000000000000000000e+00 1.000000000000000000e+00 1.000000000000000000e+00 1.000000000000000000e+00 1.000000000000000000e+00 1.000000000000000000e+00 1.000000000000000000e+00 1.000000000000000000e+00 1.000000000000000000e+00 1.000000000000000000e+00 1.000000000000000000e+00 1.000000000000000000e+00 1.000000000000000000e+00 1.000000000000000000e+00 1.000000000000000000e+00 1.000000000000000000e+00 1.000000000000000000e+00 1.000000000000000000e+00 1.000000000000000000e+00 1.000000000000000000e+00 1.000000000000000000e+00 1.000000000000000000e+00 1.000000000000000000e+00 1.000000000000000000e+00 1.000000000000000000e+00 1.000000000000000000e+00 1.000000000000000000e+00 1.000000000000000000e+00 1.000000000000000000e+00 1.000000000000000000e+00 1.000000000000000000e+00 1.000000000000000000e+00 1.000000000000000000e+00 1.000000000000000000e+00 1.000000000000000000e+00 1.000000000000000000e+00 1.000000000000000000e+00 1.000000000000000000e+00 1.000000000000000000e+00 1.000000000000000000e+00 1.000000000000000000e+00 1.000000000000000000e+00 1.000000000000000000e+00 1.000000000000000000e+00 1.000000000000000000e+00 1.000000000000000000e+00 1.000000000000000000e+00 1.000000000000000000e+00 1.000000000000000000e+00 1.000000000000000000e+00 1.000000000000000000e+00 1.000000000000000000e+00 1.000000000000000000e+00 1.000000000000000000e+00 1.000000000000000000e+00 1.000000000000000000e+00 1.000000000000000000e+00 1.000000000000000000e+00 1.000000000000000000e+00 1.000000000000000000e+00 1.000000000000000000e+00 1.000000000000000000e+00 1.000000000000000000e+00 1.000000000000000000e+00 1.000000000000000000e+00 1.000000000000000000e+00 1.000000000000000000e+00 1.000000000000000000e+00 1.000000000000000000e+00 1.000000000000000000e+00 1.000000000000000000e+00 1.000000000000000000e+00 1.000000000000000000e+00 1.000000000000000000e+00 1.000000000000000000e+00 1.000000000000000000e+00 1.000000000000000000e+00 1.000000000000000000e+00 1.000000000000000000e+00 1.000000000000000000e+00 1.000000000000000000e+00 1.000000000000000000e+00 1.000000000000000000e+00 1.000000000000000000e+00 1.000000000000000000e+00 1.000000000000000000e+00 1.000000000000000000e+00 1.000000000000000000e+00 1.000000000000000000e+00 1.000000000000000000e+00 1.000000000000000000e+00 1.000000000000000000e+00 1.000000000000000000e+00 1.000000000000000000e+00 1.000000000000000000e+00 1.000000000000000000e+00 1.000000000000000000e+00 1.000000000000000000e+00 1.000000000000000000e+00 1.000000000000000000e+00 1.000000000000000000e+00 1.000000000000000000e+00 1.000000000000000000e+00 1.000000000000000000e+00 1.000000000000000000e+00 1.000000000000000000e+00 1.000000000000000000e+00 1.000000000000000000e+00 1.000000000000000000e+00 1.000000000000000000e+00 1.000000000000000000e+00 1.000000000000000000e+00 1.000000000000000000e+00 1.000000000000000000e+00 1.000000000000000000e+00 1.000000000000000000e+00 1.000000000000000000e+00 1.000000000000000000e+00 1.000000000000000000e+00 1.000000000000000000e+00 1.000000000000000000e+00 1.000000000000000000e+00 1.000000000000000000e+00 1.000000000000000000e+00 1.000000000000000000e+00 1.000000000000000000e+00 1.000000000000000000e+00 1.000000000000000000e+00 1.000000000000000000e+00 1.000000000000000000e+00 1.000000000000000000e+00 1.000000000000000000e+00 1.000000000000000000e+00 1.000000000000000000e+00 1.000000000000000000e+00 1.000000000000000000e+00 1.000000000000000000e+00 1.000000000000000000e+00 1.000000000000000000e+00 1.000000000000000000e+00 1.000000000000000000e+00 1.000000000000000000e+00 1.000000000000000000e+00 1.000000000000000000e+00 1.000000000000000000e+00 1.000000000000000000e+00 1.000000000000000000e+00 1.000000000000000000e+00 1.000000000000000000e+00 1.000000000000000000e+00 1.000000000000000000e+00 1.000000000000000000e+00 1.000000000000000000e+00 1.000000000000000000e+00 1.000000000000000000e+00 1.000000000000000000e+00 1.000000000000000000e+00 1.000000000000000000e+00 1.000000000000000000e+00 1.000000000000000000e+00 1.000000000000000000e+00 1.000000000000000000e+00 1.000000000000000000e+00 1.000000000000000000e+00 1.000000000000000000e+00 1.000000000000000000e+00 1.000000000000000000e+00 1.000000000000000000e+00 1.000000000000000000e+00 1.000000000000000000e+00 1.000000000000000000e+00 1.000000000000000000e+00 1.000000000000000000e+00 1.000000000000000000e+00 1.000000000000000000e+00 1.000000000000000000e+00 1.000000000000000000e+00 1.000000000000000000e+00 1.000000000000000000e+00 1.000000000000000000e+00 1.000000000000000000e+00 1.000000000000000000e+00 1.000000000000000000e+00 1.000000000000000000e+00 1.000000000000000000e+00 1.000000000000000000e+00 1.000000000000000000e+00 1.000000000000000000e+00 1.000000000000000000e+00 1.000000000000000000e+00 1.000000000000000000e+00 1.000000000000000000e+00 1.000000000000000000e+00 1.000000000000000000e+00 1.000000000000000000e+00 1.000000000000000000e+00 1.000000000000000000e+00 1.000000000000000000e+00 1.000000000000000000e+00 1.000000000000000000e+00 1.000000000000000000e+00 1.000000000000000000e+00 1.000000000000000000e+00 1.000000000000000000e+00 1.000000000000000000e+00 1.000000000000000000e+00 1.000000000000000000e+00 1.000000000000000000e+00 1.000000000000000000e+00 1.000000000000000000e+00 1.000000000000000000e+00 1.000000000000000000e+00 1.000000000000000000e+00 1.000000000000000000e+00 1.000000000000000000e+00 1.000000000000000000e+00 1.000000000000000000e+00 1.000000000000000000e+00 1.000000000000000000e+00 1.000000000000000000e+00 1.000000000000000000e+00 1.000000000000000000e+00 1.000000000000000000e+00 1.000000000000000000e+00 1.000000000000000000e+00 1.000000000000000000e+00 1.000000000000000000e+00 1.000000000000000000e+00 1.000000000000000000e+00 1.000000000000000000e+00 1.000000000000000000e+00 1.000000000000000000e+00 1.000000000000000000e+00 1.000000000000000000e+00 1.000000000000000000e+00 1.000000000000000000e+00 1.000000000000000000e+00 1.000000000000000000e+00 1.000000000000000000e+00 1.000000000000000000e+00 1.000000000000000000e+00 1.000000000000000000e+00 1.000000000000000000e+00 1.000000000000000000e+00 1.000000000000000000e+00 1.000000000000000000e+00 1.000000000000000000e+00 1.000000000000000000e+00 1.000000000000000000e+00 1.000000000000000000e+00 1.000000000000000000e+00 1.000000000000000000e+00 1.000000000000000000e+00 1.000000000000000000e+00 1.000000000000000000e+00 1.000000000000000000e+00 1.000000000000000000e+00 1.000000000000000000e+00 1.000000000000000000e+00 1.000000000000000000e+00 1.000000000000000000e+00 1.000000000000000000e+00 1.000000000000000000e+00 1.000000000000000000e+00 1.000000000000000000e+00 1.000000000000000000e+00 1.000000000000000000e+00 1.000000000000000000e+00 1.000000000000000000e+00 1.000000000000000000e+00 1.000000000000000000e+00 1.000000000000000000e+00 1.000000000000000000e+00 1.000000000000000000e+00 1.000000000000000000e+00 1.000000000000000000e+00 1.000000000000000000e+00 1.000000000000000000e+00 1.000000000000000000e+00 1.000000000000000000e+00 1.000000000000000000e+00 1.000000000000000000e+00 1.000000000000000000e+00 1.000000000000000000e+00 1.000000000000000000e+00 1.000000000000000000e+00 1.000000000000000000e+00 1.000000000000000000e+00 1.000000000000000000e+00 1.000000000000000000e+00 1.000000000000000000e+00 1.000000000000000000e+00 1.000000000000000000e+00 1.000000000000000000e+00 1.000000000000000000e+00 1.000000000000000000e+00 1.000000000000000000e+00 1.000000000000000000e+00 1.000000000000000000e+00 1.000000000000000000e+00 1.000000000000000000e+00 1.000000000000000000e+00 1.000000000000000000e+00 1.000000000000000000e+00 1.000000000000000000e+00 1.000000000000000000e+00 1.000000000000000000e+00 1.000000000000000000e+00 1.000000000000000000e+00 1.000000000000000000e+00 1.000000000000000000e+00 1.000000000000000000e+00 1.000000000000000000e+00 1.000000000000000000e+00 1.000000000000000000e+00 1.000000000000000000e+00 1.000000000000000000e+00 1.000000000000000000e+00 1.000000000000000000e+00 1.000000000000000000e+00 1.000000000000000000e+00 1.000000000000000000e+00 1.000000000000000000e+00 1.000000000000000000e+00 1.000000000000000000e+00 1.000000000000000000e+00 1.000000000000000000e+00 1.000000000000000000e+00 1.000000000000000000e+00 1.000000000000000000e+00 1.000000000000000000e+00 1.000000000000000000e+00 1.000000000000000000e+00 1.000000000000000000e+00 1.000000000000000000e+00 1.000000000000000000e+00 1.000000000000000000e+00 1.000000000000000000e+00 1.000000000000000000e+00 1.000000000000000000e+00 1.000000000000000000e+00 1.000000000000000000e+00 1.000000000000000000e+00 1.000000000000000000e+00 1.000000000000000000e+00 1.000000000000000000e+00 1.000000000000000000e+00 1.000000000000000000e+00 1.000000000000000000e+00 1.000000000000000000e+00 1.000000000000000000e+00 1.000000000000000000e+00 1.000000000000000000e+00 1.000000000000000000e+00 1.000000000000000000e+00 1.000000000000000000e+00 1.000000000000000000e+00 1.000000000000000000e+00 1.000000000000000000e+00 1.000000000000000000e+00 1.000000000000000000e+00 1.000000000000000000e+00 1.000000000000000000e+00 1.000000000000000000e+00 1.000000000000000000e+00 1.000000000000000000e+00 1.000000000000000000e+00 1.000000000000000000e+00 1.000000000000000000e+00 1.000000000000000000e+00 1.000000000000000000e+00 1.000000000000000000e+00 1.000000000000000000e+00 1.000000000000000000e+00 1.000000000000000000e+00 1.000000000000000000e+00 1.000000000000000000e+00 1.000000000000000000e+00 1.000000000000000000e+00 1.000000000000000000e+00 1.000000000000000000e+00 1.000000000000000000e+00 1.000000000000000000e+00 1.000000000000000000e+00 1.000000000000000000e+00 1.000000000000000000e+00 1.000000000000000000e+00 1.000000000000000000e+00 1.000000000000000000e+00 1.000000000000000000e+00 1.000000000000000000e+00 1.000000000000000000e+00 1.000000000000000000e+00 1.000000000000000000e+00 1.000000000000000000e+00 1.000000000000000000e+00 1.000000000000000000e+00 1.000000000000000000e+00 1.000000000000000000e+00 1.000000000000000000e+00 1.000000000000000000e+00 1.000000000000000000e+00 1.000000000000000000e+00 1.000000000000000000e+00 1.000000000000000000e+00 1.000000000000000000e+00 1.000000000000000000e+00 1.000000000000000000e+00 1.000000000000000000e+00 1.000000000000000000e+00 1.000000000000000000e+00 1.000000000000000000e+00 1.000000000000000000e+00 1.000000000000000000e+00 1.000000000000000000e+00 1.000000000000000000e+00 1.000000000000000000e+00 1.000000000000000000e+00 1.000000000000000000e+00 1.000000000000000000e+00 1.000000000000000000e+00 1.000000000000000000e+00 1.000000000000000000e+00 1.000000000000000000e+00 1.000000000000000000e+00 1.000000000000000000e+00 1.000000000000000000e+00 1.000000000000000000e+00 1.000000000000000000e+00 1.000000000000000000e+00 1.000000000000000000e+00 1.000000000000000000e+00 1.000000000000000000e+00 1.000000000000000000e+00 1.000000000000000000e+00 1.000000000000000000e+00 1.000000000000000000e+00 1.000000000000000000e+00 1.000000000000000000e+00 1.000000000000000000e+00 1.000000000000000000e+00 1.000000000000000000e+00 1.000000000000000000e+00 1.000000000000000000e+00 1.000000000000000000e+00 1.000000000000000000e+00 1.000000000000000000e+00 1.000000000000000000e+00 1.000000000000000000e+00 1.000000000000000000e+00 1.000000000000000000e+00 1.000000000000000000e+00 1.000000000000000000e+00 1.000000000000000000e+00 1.000000000000000000e+00 1.000000000000000000e+00 1.000000000000000000e+00 1.000000000000000000e+00 1.000000000000000000e+00 1.000000000000000000e+00 1.000000000000000000e+00 1.000000000000000000e+00 1.000000000000000000e+00 1.000000000000000000e+00 1.000000000000000000e+00 1.000000000000000000e+00 1.000000000000000000e+00 1.000000000000000000e+00 1.000000000000000000e+00 1.000000000000000000e+00 1.000000000000000000e+00 1.000000000000000000e+00 1.000000000000000000e+00 1.000000000000000000e+00 1.000000000000000000e+00 1.000000000000000000e+00 1.000000000000000000e+00 1.000000000000000000e+00 1.000000000000000000e+00 1.000000000000000000e+00 1.000000000000000000e+00 1.000000000000000000e+00 1.000000000000000000e+00 1.000000000000000000e+00 1.000000000000000000e+00 1.000000000000000000e+00 1.000000000000000000e+00 1.000000000000000000e+00 1.000000000000000000e+00 1.000000000000000000e+00 1.000000000000000000e+00 1.000000000000000000e+00 1.000000000000000000e+00 1.000000000000000000e+00 1.000000000000000000e+00 1.000000000000000000e+00 1.000000000000000000e+00 1.000000000000000000e+00 1.000000000000000000e+00 1.000000000000000000e+00 1.000000000000000000e+00 1.000000000000000000e+00 1.000000000000000000e+00 1.000000000000000000e+00 1.000000000000000000e+00 1.000000000000000000e+00 1.000000000000000000e+00 1.000000000000000000e+00 1.000000000000000000e+00 1.000000000000000000e+00 1.000000000000000000e+00 1.000000000000000000e+00 1.000000000000000000e+00 1.000000000000000000e+00 1.000000000000000000e+00 1.000000000000000000e+00 1.000000000000000000e+00 1.000000000000000000e+00 1.000000000000000000e+00 1.000000000000000000e+00 1.000000000000000000e+00 1.000000000000000000e+00 1.000000000000000000e+00 1.000000000000000000e+00 1.000000000000000000e+00 1.000000000000000000e+00 1.000000000000000000e+00 1.000000000000000000e+00 1.000000000000000000e+00 1.000000000000000000e+00 1.000000000000000000e+00 1.000000000000000000e+00 1.000000000000000000e+00 1.000000000000000000e+00 1.000000000000000000e+00 1.000000000000000000e+00 1.000000000000000000e+00 1.000000000000000000e+00 1.000000000000000000e+00 1.000000000000000000e+00 1.000000000000000000e+00 1.000000000000000000e+00 1.000000000000000000e+00 1.000000000000000000e+00 1.000000000000000000e+00 1.000000000000000000e+00 1.000000000000000000e+00 1.000000000000000000e+00 1.000000000000000000e+00 1.000000000000000000e+00 1.000000000000000000e+00 1.000000000000000000e+00 1.000000000000000000e+00 1.000000000000000000e+00 1.000000000000000000e+00 1.000000000000000000e+00 1.000000000000000000e+00 1.000000000000000000e+00 1.000000000000000000e+00 1.000000000000000000e+00 1.000000000000000000e+00 1.000000000000000000e+00 1.000000000000000000e+00 1.000000000000000000e+00 1.000000000000000000e+00 1.000000000000000000e+00 1.000000000000000000e+00 1.000000000000000000e+00 1.000000000000000000e+00 1.000000000000000000e+00 1.000000000000000000e+00 1.000000000000000000e+00 1.000000000000000000e+00 1.000000000000000000e+00 1.000000000000000000e+00 1.000000000000000000e+00 1.000000000000000000e+00 1.000000000000000000e+00 1.000000000000000000e+00 1.000000000000000000e+00 1.000000000000000000e+00 1.000000000000000000e+00 1.000000000000000000e+00 1.000000000000000000e+00 1.000000000000000000e+00 1.000000000000000000e+00 1.000000000000000000e+00 1.000000000000000000e+00 1.000000000000000000e+00 1.000000000000000000e+00 1.000000000000000000e+00 1.000000000000000000e+00 1.000000000000000000e+00 1.000000000000000000e+00 1.000000000000000000e+00 1.000000000000000000e+00 1.000000000000000000e+00 1.000000000000000000e+00 1.000000000000000000e+00 1.000000000000000000e+00 1.000000000000000000e+00 1.000000000000000000e+00 1.000000000000000000e+00 1.000000000000000000e+00 1.000000000000000000e+00 1.000000000000000000e+00 1.000000000000000000e+00 1.000000000000000000e+00 1.000000000000000000e+00 1.000000000000000000e+00 1.000000000000000000e+00 1.000000000000000000e+00 1.000000000000000000e+00 1.000000000000000000e+00 1.000000000000000000e+00 1.000000000000000000e+00 1.000000000000000000e+00 1.000000000000000000e+00 1.000000000000000000e+00 1.000000000000000000e+00 1.000000000000000000e+00 1.000000000000000000e+00 1.000000000000000000e+00 1.000000000000000000e+00 1.000000000000000000e+00 1.000000000000000000e+00 1.000000000000000000e+00 1.000000000000000000e+00 1.000000000000000000e+00 1.000000000000000000e+00 1.000000000000000000e+00 1.000000000000000000e+00 1.000000000000000000e+00 1.000000000000000000e+00 1.000000000000000000e+00 1.000000000000000000e+00 1.000000000000000000e+00 1.000000000000000000e+00 1.000000000000000000e+00 1.000000000000000000e+00 1.000000000000000000e+00 1.000000000000000000e+00 1.000000000000000000e+00 1.000000000000000000e+00 1.000000000000000000e+00
3.297810583017200814e-02 5.153490272102548841e-01 -2.476516924266075337e-01 7.566698635780917392e-01 5.163984673369501621e-01 5.023540078917126950e-01 6.054299207541269379e-01 3.128730140481276734e-01 5.382757693654857123e-01 5.183883457420684904e-01 1.081760275981370034e+00 -7.029029767814986007e-01 1.408195494553210692e+00 4.566902423923576704e-01 5.142853748706356365e-01 3.987746621261614721e-01 8.758493973935168597e-01 9.780920601413086723e-01 7.197814187412223674e-01 5.211853257661698269e-01 3.843437371099118760e-01 9.858062453344039744e-01 3.979662904268307377e-01 5.044113252234546652e-01 8.701393381306365971e-02 6.705526816409066448e-01 3.825199991710009906e-01 6.767587066676993279e-01 5.563775230642906688e-01 1.588563403590177447e+00 5.065947856617967204e-01 6.094950147059481349e-01 7.191210417660985899e-01 5.217516567087825408e-01 7.022003350616803363e-01 4.529310561869855367e-01 5.126601183904886394e-01 1.803586962268661775e+00 -7.455547237908345670e-02 5.078829719618043192e-01 -1.824016841042889192e-01 -5.615556860014119245e-01 7.485773161008653087e-01 2.274149783963451688e-01 2.932027662463943529e-01 5.075291327799301699e-01 7.565112788639255514e-01 5.278722329408087610e-01 6.347148176296357747e-01 1.541719296584114114e-02 1.768114678437759241e-02 8.072613939661955618e-01 6.775610658904717143e-01 4.367512252084514435e-01 4.588154341226494126e-01 1.799210124260095661e-02 5.074272628680817077e-01 5.242174804700726609e-01 1.930001846510026320e-01 4.808982423475200996e-01 9.177229810355916895e-01 5.084888518737468166e-01 5.344229987416222460e-01 3.979664489593286447e-01 6.796302321888990638e-01 5.995334775395138038e-01 5.194726680076107161e-01 3.344715855895493695e-01 5.644525569899971895e-01 1.346748473252929595e-02 4.285945956387125499e-01 5.694635232445776074e-01 5.158402982068673870e-01 1.190843125204673822e-02 1.511021948068405063e+00 5.500215587798923389e-01 6.355609271287994133e-01 7.294671962604466486e-01 5.171427855624602943e-01 1.384502509138440196e+00 5.232338669882982130e-01 3.243316036181779216e-01 1.412123813740443490e+00 7.298216331309165250e-01 4.995063521020685626e-01 7.549745919609688327e-01 8.035520036552279421e-01 5.501478812982532052e-01 4.153796993718292252e-01 5.761070674814219306e-01 2.894441836925268907e-01 2.189530681442698690e+00 7.574756995117958303e-01 -3.705437575910228154e-03 5.038463712555749652e-01 4.734810774527803967e-01 5.621530848331113273e-01 4.785709037469175753e-01 1.896166976846299923e-01 6.622184365657663996e-01 1.614119258120010780e+00 6.892378149112140528e-01 5.474036743721280018e-01 6.836443944033868680e-01 8.595219037155988895e-01 -2.082647217117798544e+00 -1.224114950565028614e+00 5.383298706278414336e-01 5.994327151815787014e-01 9.707407986540649292e-01 5.679043048360437052e-01 4.344759056027466815e-01 1.698081828298748375e-01 4.936164805465284022e-01 5.232033734804285574e-01 4.974254490991385502e-01 4.782068419809713533e-01 5.311394772904558526e-01 9.406483945484224174e-01 5.187461324402584673e-01 1.306127728967467538e+00 5.491290455904905832e-01 6.010545674404058625e-01 -4.597551750892787670e-01 5.135277134252507203e-01 1.952695287135335578e+00 5.548057003816081467e-01 5.539072756646481466e-01 6.833954654208145296e-01 5.209267168995304065e-01 5.260292518969106323e-01 5.108018043178251810e-01 4.246932173337222283e-01 3.694123286956917940e-01 -3.078282234368478476e-01 -1.675604479292535920e-01 6.497802802717783655e-01 5.229903837110784492e-02 1.002047458014694081e+00 6.176246126812383608e-01 5.072045707915832091e-01 8.667697204691581225e-01 5.817213829195742036e-01 5.639492729824149286e-01 5.169249268878790549e-01 5.053985698078601596e-02 9.297372156368617357e-01 -4.427189148757040837e-02 4.426609923958327864e-01 -8.963042734689342650e-01 7.666447463986308941e-01 -2.927552973355542210e-01 5.075286728336104725e-01 5.614912430689793510e-01 4.522621460146061256e-01 5.180533543689517240e-01 1.964745171633899501e+00 -1.176317812375469313e-01 8.168366457381828205e-01 6.841163526021060148e-01 5.358060388833916221e-01 4.156607311457512499e-01 4.962753526707557872e-01 5.143785328479016927e-01 1.077806956735006372e+00 2.017203019911183171e-01 8.506215314283551709e-01 3.547772899301265270e-01 4.623248569108813211e-01 6.587897187080480332e-01 5.262871237740961439e-01 7.564359942461433839e-01 5.075422279647665569e-01 5.189508975106498223e-01 4.043813736567323791e-01 4.653479363459558926e-02 1.983426823721970433e-01 9.369743764640701966e-02 7.489918144541346523e-01 1.142602948242596783e+00 6.934493734481720351e-01 5.286988533811305402e-01 -1.755942669395557099e-01 4.392865807950692703e-01 6.089616209278482239e-01 5.410620829151183697e-01 5.121370519231722707e-01 5.052752538029411378e-01 2.806474151269429562e+00 5.459766737105731238e-01 5.448168620535237539e-01 -8.973915379830642580e-01 5.325068247554078926e-01 5.414857718028851519e-01 1.906932747738238343e-01 5.147916011153614857e-01 9.370240442768028588e-01 5.290466801338307157e-01 5.856469450275280098e-01 4.504133376080762252e-01 6.295395220585450202e-01 4.916661688400334462e-01 9.076659331511518491e-01 6.012742148612213455e-01 5.432236966875393369e-01 5.856469015727137073e-01 2.344676602401286614e-01 1.290843835747717661e+00 5.552800168004015102e-01 4.095495830648065438e-01 4.298219198079669123e-01 -8.609546481846691579e-02 4.851188315424092012e-01 1.575766865102883052e-01 5.062722588238058874e-01 5.099741812740370417e-01 5.198285998466468660e-01 5.161345030327852967e-01 5.187505992590728532e-01 5.198817976161818066e-01 4.370564737080268602e-01 5.870118077272572510e-01 -7.100248926529274529e-01 6.048648943449589366e-01 3.945642875081431522e-01 3.718350161423829570e-01 7.552200570579332972e-02 1.311646819256572227e+00 9.616972068911739946e-01 4.956321965408943542e-01 -1.032153671552220181e-01 1.057849665822158780e+00 5.140093881710909862e-01 4.474798531609740504e-01 5.993573017404881798e-01 4.115299977611202586e-01 3.151045485637142263e-01 1.807033260172329070e-01 -1.563811581124661121e-01 -9.251852035201794944e-02 4.042369089020518280e-01 5.310457918077300388e-01 -1.092769112844501345e-01 4.309925343256531538e-01 5.181941338441621303e-01 4.894079480699964346e-01 -9.867960072057767318e-02 7.546641140124683567e-01 -2.296933975260066152e+00 6.130767699808786775e-01 -6.135885438120638469e-01 4.976566108397927346e-01 5.175906586785696817e-01 3.979657709634909502e-01 4.753266770283250953e-01 5.654635523137082620e-01 5.430216052746598132e-01 7.652056804476213836e-01 5.572975683401668601e-01 1.693222390113227727e+00 6.796895431493621409e-01 6.897880136616093560e-01 4.729548474641583899e-01 3.607600778471621306e-01 9.177230235740115871e-01 4.208120295255203813e-01 2.689370222937307986e+00 4.954544453648188074e-01 2.304400896190057779e-01 7.350691456273742430e-01 5.049955838321511514e-01 9.171890973361574995e-01 5.170633238774838825e-01 5.647441925860687828e-01 5.165314449428362042e-01 1.109276779599917662e+00 7.697990543938912911e-01 8.615873086984128237e-01 8.074348246336255919e-01 4.826479535718959935e-01 6.802001417595462396e-01 5.197417711357192882e-01 3.831111010529805738e-01 -7.258004061428230402e-01 3.866442868801073796e-01 5.808171400766146686e-01 5.631386180851503109e-01 5.164928885249608914e-01 4.974253878194476730e-01 6.083673917150405064e-01 5.489995562925480410e-01 -8.530278580050491000e-01 7.300091618265643900e-01 5.499408793918039162e-01 1.040463510329210639e-02 5.480878435245866154e-01 1.851677728598205563e+00 5.043357915879755904e-01 5.144234365796408470e-01 4.426494831204088043e-01 -3.429303304122810925e+00 5.189994016236215701e-01 2.835024070060416346e+00 7.567790207930856772e-01 5.293595527232719533e-01 -5.760174530670099102e-01 5.119676022328171205e-01 5.164097809475187706e-01 4.411499021296826917e-01 4.515659316427748649e-01 3.573507617543348336e-01 6.439688279888829969e-01 3.142659778458652964e-01 5.211794254778083779e-01 5.162910557731558159e-01 3.518370541640482574e-01 5.317716179162307322e-01 7.569374127965543542e-01 5.190734105112915220e-01 1.201750465154888481e+00 1.230748180175159599e-02 2.222570456867792199e+00 2.645792571622552103e+00 5.086043475090601396e-01 -2.174003129825186342e-01 4.073303614707096121e-01 4.012741687008915537e-01 7.331715029157083174e-01 1.380206163652811790e+00 5.347701345784682259e-01 1.127686988736593898e+00 5.155502069296239442e-01 1.228256428005939510e-01 1.254600487919175889e+00 4.692570950318626366e-01 5.429667973906039391e-01 5.049617033277281619e-01 8.984818820059997657e-01 -3.737748188425900064e+00 1.637238540709680779e+00 5.121192785861580221e-01 6.372902269101811124e-01 5.177933933998658533e-01 1.803586954637612205e+00 3.025418316410577457e-01 5.531098363153652553e-01 5.266769026480695448e-01 4.847781355988172725e-01 1.376641670182642496e+00 5.714640020318387803e-01 5.856466685856043242e-01 4.309969197294507559e-01 6.012742166716773529e-01 5.369527746993492112e-01 5.680406331732349434e-01 8.978066317057984413e-01 5.149266304389336080e-01 3.850042999965072599e-01 1.787205761968907736e-01 6.611389240212925955e-01 5.189385572234923583e-01 3.569979221230659139e-01 5.531098716190427922e-01 6.537798129978984463e-01 5.175801863172713180e-01 1.024729482993956386e+00 9.693279951692540530e-01 1.140666956984638380e+00 5.172301565062842332e-01 2.248247845820617596e-01 9.177236187447257443e-01 -1.093305748921306747e-01 9.335247393028553997e-01 6.294168221614444558e-01 1.117413965862801284e-02 5.712676661434685776e-01 9.474121564073499924e-01 3.873630799328637297e-01 5.046659441429751647e-01 2.890763501826461579e-01 -3.356286872619687611e-01 -2.474538848381340639e+00 4.912217652736366458e-01 6.012742162883967234e-01 6.012741767481960542e-01 4.982400583328112087e-01 3.995814493533875744e-01 -2.229119687405069217e-01 3.049831392839948419e-01 5.159319570483883455e-01 6.968107635032351199e-01 5.176868214636777266e-01 1.042380910050675791e+00 5.856469235339973878e-01 5.168059154914956821e-01 4.865521200742061181e-01 2.744251522081708750e-01 6.564297794577537148e-01 5.212662194671513483e-01 5.173065650204917709e-01 5.313323478927254317e-01 2.921020235231139295e-01 1.700868654751996889e-02 6.012742155802736077e-01 6.608713207051889471e-01 5.147231792586464127e-01 4.062802758847758322e-01 8.590565516116777101e-01 7.269480433751932535e-01 5.638542532870293167e-01 1.867132965698811820e+00 5.061075981353134745e-01 -3.090530772225512202e+00 7.562603831471832461e-01 1.525437131065097374e+00 5.656965596286540610e-01 -1.077429365669914541e+00 7.839232504816918690e-01 4.469324992781020800e-01 5.251487934589189610e-01 5.393731698334575109e-01 -3.585046623742373928e-01 5.193868468865118215e-01 1.071301294709796403e+00 5.234432421181341999e-01 -3.658374981804755066e-01 5.170598056191564318e-01 5.184495082751600092e-01 7.841545221659704801e-01 5.140368454593369218e-01 5.662113006997917530e-01 -5.272149827396908073e-01 5.610283253228124378e-01 5.099664527687353122e-01 6.386193476052400841e-01 5.283843405331181131e-01 7.677416533862116976e-01 5.140350122588124293e-01 6.048341785569024687e-01 5.994662573326119404e-01 5.206023035417383094e-01 2.811964396161922841e-01 2.995916246318006126e-01 3.372846870626696747e-01 9.638602713627609786e-01 5.521188048528899994e-01 3.207957483142656496e+00 6.588605890409855448e-01 6.407262691376227615e-01 5.522800493703113878e-01 5.909810697833944859e-01 2.612264202237593591e-02 4.881188750911206742e-01 4.973230201116288218e-01 5.188513927386101399e-01 1.161620300925116256e+00 7.674258270411041805e-01 5.225831935396052508e-01 4.426969355127639560e-01 1.117788775581633587e+00 5.384602778497287190e-01 5.673583852816341810e-01 5.458541646213024290e-01 7.954918501444253609e-01 5.185643491624932766e-01 9.337731566919853510e-01 5.174289611157015800e-01 5.158234775743194556e-01 1.359690753613321257e-02 5.215594745674940746e-01 7.395217669948488115e-03 3.223462445261682796e-01 4.065551995572128097e-01 5.760315319664054412e-01 7.811450915681831253e-01 5.212887860249623140e-01 3.893865486252135466e-01 8.176994810509460865e-02 5.190181172565911938e-01 5.465678364125153843e-01 4.579562490738832703e-01 3.595138030284736330e-02 5.143341749517955641e-01 2.484367526541106652e-01 5.171935202297948120e-01 4.146355718701932314e-01 1.258657277181155498e+00 7.756923769015101611e-01 5.466838542152775426e-01 2.580610977498757896e-01 7.282690014534174416e-01 4.313725479249885808e-01 9.950256486445007154e-01 6.028022888608481900e-01 5.969339524081950232e-01 6.962731288663100981e-01 1.998858677749294710e+00 4.653620238232232809e-01 4.769274019707032131e-01 5.124654087330067220e-01 7.301675630095912917e-01 5.372618611803459121e-01 8.473667366275936530e-01 -5.744758696539141729e-01 3.548775646840341413e-01 5.121337364764904088e-01 4.276793272345376651e-01 3.808445908630349597e-01 -6.200566691507217731e-01 3.876331272522960392e-01 5.175358278495881814e-01 7.347270079444065960e-01 6.673307535373436128e-01 1.490718243459209225e+00 5.164423663837633960e-01 5.206102082646276719e-01 -7.081920582696824562e-01 5.155470438043529002e-01 1.222597708604717726e+00 7.112069657434125780e-01 2.722002258805478747e-01 2.554229285301258812e-01 -1.711700605295003452e+00 5.244089650233704214e-01 1.854381874840708433e-01 1.101313389006154386e+00 8.189735766403808404e-01 5.171144253874511154e-01 5.259689083100933527e-01 6.190357584012973202e-01 7.562359969186577269e-01 4.394593172518839741e-01 5.588221239795492234e-01 2.948385050859934908e-02 5.239727629695724032e-01 6.000366773588335922e-01 5.374504600775795726e-01 5.080809636922705153e-01 4.873614146258402613e-01 1.214383958919020623e+00 -1.028605347282749161e-01 -2.368920419906586083e-01 4.192085310232067652e-01 5.508758876759382028e-01 5.407465896081712353e-01 5.196353974024022770e-01 -8.602609161011830485e-01 3.172891193596286907e+00 5.363808833823840994e-01 4.458237874442017024e-01 4.274065311811433565e-01 5.121870922761824207e-01 5.109213424597047748e-01 5.637393972192301650e-01 3.257788478682763222e-01 5.964768287104644795e-01 5.159565795653958675e-01 5.760543442599886932e-01 3.438445050340643849e-01 4.154822864806916316e-01 5.557288849618977622e-01 4.056683723906708838e-01 5.102264480318832174e-01 5.512432021130611037e-01 6.636115860071231110e-01 1.013262035312836540e+00 2.320495460103059848e+00 5.324585100011645089e-01 4.974073187952245956e-01 4.206451799398611135e-01 4.903357287345284643e-01 3.689907398776505199e-01 5.133854661809341691e-01 5.125721869869557246e-01 5.141949341292998410e-01 5.363932791266783351e-01 4.781301553028901585e-01 7.566336712748314985e-01 3.655178862944118978e-01 4.534938107776095850e-01 4.476397824752254007e-01 5.308883915600794978e-01 1.152010569810604651e-01 9.177230053249918473e-01 5.666598544846476182e-01 1.139754544765864269e-01 1.911573750747506129e+00 2.888770548395780957e-01 4.217126824531019502e-01 5.911938440938303563e-01 6.334944929373005629e-02 5.309552866208947508e-01 1.516203839369958617e+00 7.825402014090278024e-01 7.412204441909587826e-01 5.169079179027812332e-01 5.478179776084998176e-01 4.604827041366623686e-01 6.587999988986052990e-01 5.416596558801550776e-01 5.185042423505143994e-01 -2.201588910740386040e-01 5.297982961339752217e-01 -1.494666297653464371e+00 4.848929022941798617e-01 5.068592050649035619e-01 5.099335751031160990e-01 4.426408830059496702e-01 9.177230053910205854e-01 2.203557830498032444e-01 5.372135562279967136e-01 1.343560345693499247e+00 -5.593255467310493945e-01 5.208773273934647063e-01 1.138543703409470309e+00 1.521777050857418878e+00 4.845220396123634532e-01 5.189038615140187938e-01 -5.601580316334146131e-02 -1.683412524810949273e+00 2.753734525691180490e-01 7.990053453267818018e-01 5.135289970773030399e-01 5.139875432121586707e-01 5.933025513039399401e-01 4.840496269353835035e-01 -4.092396606747086829e-01 8.213860051845187638e-01 4.974261488081002103e-01 3.306983868832631956e-01 5.455303888457578854e-01 -1.002766356429307497e-02 -1.705042946560023365e-01 1.795750336699990068e+00 4.136050683754510793e-01 5.133673550078717840e-01 5.184341488411641219e-01 3.258622215246336218e-01 5.757026039067734136e-01 -8.274978622441231391e-02 -1.175294945298697602e+00 5.128657363289486071e-01 5.385534610690561053e-01 5.157742363945700959e-01 6.137399979040197850e-01 5.115738354024073065e-01 5.453793957671553283e-01 5.594631804940206621e-01 5.712745418026803357e-01 1.032886210732517629e+00 7.223675312850490471e-01 5.116678493268492778e-01 5.967170551553308000e-01 4.620401838450254872e-01 4.453158286144560662e-01 3.649574904458479513e-02 5.531098487907065708e-01 4.745272234901447561e-01 4.946972120678063134e-01 7.578650825919692746e-01 9.065335557633487085e-01 8.473639708333408072e-01 -5.086803675098450217e-01 5.107982229840560828e-01 4.518025347239210676e-01 5.174647438908184238e-01 5.890795746864337934e-01 9.080926629495119640e-01 5.598097979368991117e-01 5.278304663014512510e-01 -2.597071253118757861e-01 -8.719941167981262176e-01 2.300749399496737180e+00 5.075991481198532940e-01 8.969429424350782165e-01 4.297269841565292681e-01 5.736370220755564464e-01 3.813022971217134849e-01 1.506057285652366851e-01 5.170967669774050313e-01 5.474785530657262367e-01 -4.911268196235620519e-03 5.152918939612290972e-01 4.322679228878082980e-01 5.131953081761422286e-01 6.325817925904402284e-01 5.199176315622460187e-01 6.137735099893139035e-01 4.087783198364454140e-01 5.146216347744642094e-01 4.294139290982927348e-01 5.139834774455166455e-01 4.158937792159732583e-01 5.367570646927561917e-01 -2.703380456356218597e-01 5.122526589129142716e-01 6.425092782118020374e-01 4.852915715311675871e-01 7.566934889093025474e-01 9.177228191952927494e-01 7.302484207638061386e-01 -5.995051148146451903e-01 9.859800987212586909e-01 1.803586962299215113e+00 4.935788571355341769e-01 4.638102999800086113e-01 1.079056111782456417e+00 5.664070977240113214e-01 7.567839503446001093e-01 5.175797816856649858e-01 1.836436103443763068e+00 5.183494399458923318e-01 4.309934626026212801e-01 1.234479137621661060e+00 -6.180377409070929307e-02 5.501108384811731478e-01 -1.609557017970421333e-01 -9.631082025860167040e-01 -1.702257166489753448e-01 7.735173049971375558e-01 5.707572050668254793e-01 5.102729495117528380e-01 -3.269395536155593751e-01 4.968202164847805857e-01 5.199099429195383482e-02 -3.831937861753823005e-01 5.023623990364193270e-01 5.145228612716316041e-01 5.258830261605710321e-01 5.496081632679488127e-01 5.318667354413383341e-01 9.106854074392979337e-01 -4.141436953464386894e-01 5.161319098149714790e-01 5.460437158586254336e-01 6.100089973211791916e-01 1.167772141129155505e+00 4.970374435531431656e-01 6.528809016959200573e-01 5.154722708438328471e-01 4.382857753884920882e-02 -3.588970591750077488e-01 5.370766297039054615e-01 5.404427799919997444e-01 6.807256926941988029e-01 5.111845298757459188e-01 3.492319825904749986e-01 5.180068510705909679e-01 5.170497565229055237e-01 3.725656021945664698e-01 5.225708647009696950e-01 8.394005818283269971e-01 2.559800167370670732e+00 -2.437653901880848795e-01 6.627712756918968662e-01 3.305642923674836364e-01 2.088759086110094643e-01 6.691388041951498167e-01 -5.725776497538100779e-02 -1.540917483494929963e+00 5.256256727858019673e-01 2.621451466170652278e+00 5.332892942958593618e-01 1.575865370095939910e-01 1.672242800798881546e-01 4.974254492352715995e-01 5.810462107868875625e-01 1.562589546420900977e+00 4.978341280162219551e-01 1.260802902606135978e-01 4.286360840587023491e-01 1.705132947274122568e+00 5.980728143535170016e-01 7.605001369310228077e-01 4.988200298749977391e-01 7.392541185871894793e-01 4.593659763022297504e-01 5.704325196361539341e-01 1.838092115030648052e-02 5.216648403009666035e-01 5.008935613472988990e-01 -5.745304995259647995e-01 -7.022970693980340462e-02 1.176218349913596750e+00 2.374667519690305262e-01 4.844882409910694077e-01 7.017209452206871756e-01 5.505331831132823650e-01 2.005881058162153341e+00 6.869993540979123514e-01 2.452118222865656491e-02 3.080716423563393813e-01 3.960718306127843924e-01 1.120945526374724999e+00 5.064585657198227286e-01 -2.735001194542579020e-02 5.029805454413913690e-01 -1.525057799264585047e-02 5.244254027668707741e-01 5.168784758755163855e-01 1.308599972577025776e-03 -4.844754599888834862e-02 6.671784528242064027e-01 5.827347281969417203e-01 5.742528435912129803e-01 2.447341899603739934e-01 4.456841132751501178e-01 5.028140600323995901e-01 5.275860574024402450e-01 5.467661666408690779e-01 4.793920460538775852e-01 6.103542666372195891e-01 1.017344847737588154e+00 3.133772288747474821e+00 9.348132707396826779e-01 5.205243405247357291e-01 6.260886871693711608e-01 2.147231057108639485e-01 5.152687359795924404e-01 8.487857595653648390e-01 4.982248836667173553e-01 1.316733547422262118e+00 4.490064487982391439e-01 -5.790877839138125482e-01 -1.764906662969869047e-02 4.084642583286495210e-01 6.134406870945819934e-01 5.241417877184827434e-01 5.108357454411106557e-01 4.308773943888178498e-02 5.087082936847757697e-01 4.179593548403784942e-01 -3.698643921816436642e+00 4.810338481593198212e-01 5.243836478424540593e-01 1.129183531764379467e+00 5.160915362260410921e-01 5.072075010380617810e-01 6.821770205176069801e-01 -8.878912401589391656e-01 -5.033080682254048588e-01 3.985399923442665970e-02 5.142148164234826568e-01 4.516179235337373643e-01 2.167083917459041442e-01 5.088705688744816769e-01 -3.389346081345102069e-01 6.038855075646198944e-01 5.064454501530383235e-01 6.951676508049950964e-01 5.447844434095225896e-01 4.715175289413247595e-01 1.549714304811124210e-01 -7.582532921736689913e-01 6.552539093146225735e-01 5.253669398179604544e-01 1.603827437665228950e-01 5.158438626611399069e-01 5.646066941528166128e-01 5.356252662225888805e-01 6.713642644948678573e-01 5.737460529621493110e-01 5.437834360999690420e-01 5.011827051625762364e-01 1.803586964831240591e+00 3.605435697340851342e-01 5.456937381363952122e-01 -1.220409454447166225e-01 5.507064391607665588e-01 6.292938463071701127e-01 5.307059899121817637e-01 4.926030284841307338e-01 3.547016307666561175e-01 9.377549875506011601e-01 1.205277220985628173e+00 5.564693928855385385e-01 5.805063459525062752e-01 5.964060862624919190e-01 4.721529677234920785e-01 4.984749302611152233e-01 5.162026995191663081e-01 9.859525833372736470e-01 7.134593808904020618e-01 -4.570287835854598413e-01 4.544103539398559599e-01 9.123459002216336433e-01 5.131752826459068384e-01 -1.994540880603440022e-02 5.247748918631390813e-01 1.349187167472111204e+00 -1.388645599030038924e-01 6.008923253418189114e-01 2.435448399891599613e-01 5.120170735991953492e-01 8.405959766019447388e-01 5.153169610340299078e-01 3.700301590877475011e-01 1.401029833830834459e+00 4.739617067606640144e-01 5.296931158967868036e-01 -6.629190150186443642e-01 4.500177290637716876e-01 1.041745287750987181e+00 6.055858243503838834e-01 8.108000154386393876e-02 9.709813527251581755e-01 -4.093728580209541473e-02 6.558298909243515107e-01 1.622275037102677953e+00 -8.589504683519064709e-01 5.731669256347708963e-01 5.162410498356659883e-01 -4.582764357998975746e-01 3.113389400061142287e-01 6.027907268092045356e-01 4.856336396010108580e-01 5.077448859437472262e-01 3.784572428479415218e-01 2.632771306142959733e-01 3.445936479603480262e-01 5.721157286042770629e-01 5.194745166517190649e-01 6.985692083216758080e-03 -1.109276039381104917e-01 5.156927946982007294e-01 1.063779980807228354e+00 4.663641341655139216e-01 -5.749591287377294746e-01 5.421503511914722573e-01 5.167678867249115848e-01 5.380242240526563746e-01 4.216633246410663588e-02 3.309666007247900055e-01 5.180063917765681536e-01 5.117447491676151428e-01 4.518769739407003105e-01 1.127344510309572292e-02 5.210144419407849448e-01 5.190343476448071591e-01 6.260934236918885842e-01 2.087355817077464426e+00 5.006364885281487133e-03 3.853982543322223009e-01 5.317484185286276421e-01 1.833526430132412122e+00 5.775554583250833707e-01 5.011799988167625619e-01 1.767133617168083898e-02 5.531098352015708652e-01 5.143644778974059140e-01 4.758264437826074666e-01 3.832221326412541540e-01 5.010573368332208455e-01 4.623996747433762877e-01 5.507242100670968199e-01 -5.343383574030617922e-01 5.148009869866859711e-01 5.439745290294698554e-01 5.458743271327195501e-01 1.113425525436694485e+00 5.265312665794498193e-01 -2.447058325575224846e-01 1.086912184974376805e+00 -1.270187827103950839e+00 -5.241495990890555623e-01 5.238122028693894539e-01 5.181110525482947038e-01 6.535474285854304677e-01 5.170572533552507677e-01 4.196081472531069112e-01 5.840726851542080711e-01 5.531098330989614453e-01 5.171872939910503453e-01 5.057321573623898558e-01 5.889613963497768445e-01 5.148908842690320675e-01 2.987458790298298528e-01 5.027943053179120270e-01 5.258466817488874900e-01 3.849932945196855583e-01 5.287016811420632845e-01 5.185285493232708598e-01 5.497987370051365952e-01 6.488332053843579583e-01 5.157180321167104120e-01 6.913584813451162381e-01 4.940421028935272907e-01 5.061543880276140328e-01 5.419752463838862777e-01 3.751036495366492640e-01 4.012075896337631842e-01 2.420790604784793576e+00 4.784514827175929130e-01 5.978074724712890697e-01 3.034332330009851808e-01 5.828328483399327631e-01 1.112970925536364897e+00 4.486249638446156984e-01 7.024752196624886036e-01 5.150511426869889275e-01
7.029584819085127334e-01 3.184993387579199697e-01 4.299522604041045581e-01 9.892886077333879792e-04 3.091346961424136230e-01 3.150802888338952168e-01 5.337254446605713687e-01 4.270842459366466226e-01 2.904007701758403726e-01 3.143153272462826386e-01 2.054130322902403716e+00 1.716762811443294012e+00 -1.445189736566855565e+00 6.160517716496703988e-01 3.162899599958181596e-01 4.341730239784226120e-01 1.309369051900447778e-01 4.353723633064237597e-01 4.341496987370608851e-01 3.128383396609221712e-01 4.548920116897292587e-01 2.117736903671130655e+00 3.829334064394825932e-01 3.672387975430287943e-01 7.314737972724888460e-01 -2.120985866752714000e-01 4.412808356008229849e-01 2.154030809101926958e-01 2.783884508437124428e-01 -8.840971310951198925e-01 3.674828811415465357e-01 -1.352593083508574490e-01 2.889723482678068223e-01 3.160530404170996954e-01 -4.216420549118916061e-01 4.784241660516890815e-01 3.195367893325834485e-01 -3.606370049894065399e-01 -3.239933104598411884e+00 2.910940687102155922e-01 1.155758374626383311e+00 1.425278264316919563e-01 -1.665163667865270647e-01 7.917979303350112241e-01 6.090026750797683519e-01 3.259007340309122425e-01 1.078821185524536045e-03 3.381256658969354900e-01 2.006041305039727718e-01 6.628297345182124767e-01 6.782048051958186052e-01 4.827318463064220189e-01 -2.162615536385561754e-01 2.160315018325001113e-01 6.018531226972748671e-01 6.530500326148109824e-01 3.516378306110378160e-01 2.477126692078676640e-01 3.464240991114840851e-01 3.588125785089893993e-01 4.270859032324074156e-01 4.175081105228888867e-01 3.082806004311164361e-01 3.829333874999838461e-01 -3.460144673601798782e-01 1.553624154690510795e-01 3.118004041025467798e-01 3.236267261415252117e-01 2.065881709912658903e-01 7.228591942107915891e-01 1.259157799416267265e-01 2.580065816975957715e-01 3.304820218842066115e-01 7.270564365908745996e-01 1.919683318012895823e+00 4.735772211930540654e-01 4.725851675621865478e-01 4.811278614760859385e-01 3.114094826803180394e-01 -1.338251519093450304e+00 3.166371079295217661e-01 5.932274087898157244e-01 2.328322354243617109e+00 9.195788584730052451e-02 2.666315557700426608e-01 -3.917893531046036104e-01 1.290703273273954288e-01 2.676820016781538136e-01 -5.773388942213044661e-01 -8.887091164075793248e-01 6.096627740096102199e-01 1.579843764369727843e+00 7.240859348708891807e-02 6.886925705109490092e-01 3.035772425824636578e-01 3.219611404435042123e-01 2.688308772985096295e-01 7.566087376443554335e-01 7.377423684170727469e-01 -2.170160255574544450e-01 -1.742331745719015168e-01 5.481636515934602827e-02 2.580736014636682008e-01 2.146437146708978227e-01 -2.428034490812818608e-02 3.107628148046267746e+00 -2.865932533517184799e-01 1.877713403023772432e-01 1.234095719114089995e-01 8.098609317589393619e-01 2.462825832050264119e-01 4.798725813146114683e-01 1.640894857869141799e-01 4.348518974874769349e-01 -4.835208524753557002e-01 2.164246210211946131e-01 1.800603379791778091e-01 4.333650164068302280e-01 1.075388857744939308e+00 3.073587423089653714e-01 -1.452665420868012314e+00 1.954255931932613044e-01 1.341616316118884322e-01 1.388782344608211927e+00 3.236710041935760285e-01 2.169661100420293476e+00 2.658433783108667403e-01 2.727862295875670418e-01 3.024675234293940362e-01 3.004377860053474292e-01 3.349818455662118000e-01 3.067016454830215899e-01 6.757234655943927804e-01 4.184469222254534326e-01 1.718276823476797555e-01 8.660335012032346347e-01 7.136684973357468875e-01 7.193926024871900582e-01 -3.345183429771705352e-01 2.043777354485594999e-01 3.471084641489481926e-01 3.217335128166433078e-01 3.068756592234473390e-01 2.597746823220314361e-01 3.118215555269430173e-01 6.953315676188336347e-01 -1.505850937293627123e-01 3.189534621241891799e-01 4.442485759742532125e-01 3.992690791837226194e-01 -2.431733543701909139e-01 2.384377280025045537e-02 3.259011336103454504e-01 2.660855185874305140e-01 3.198063155630416765e-01 3.024864565566167673e-01 -2.367563000347044255e+00 4.569266820985845023e-01 -5.965888085381405581e-01 -2.214733817813784866e-01 2.170135553432734066e-01 2.816770536777107314e-01 3.249247441513153922e-01 3.100554777028126097e-01 1.190224925648115245e-01 8.693932331095600985e-02 3.163449817268603748e-01 4.516221921262311145e-01 3.714637944330900221e-01 3.276966657786345438e-01 1.837530774903266273e-01 7.793498298094123002e-04 3.259224892924487693e-01 3.146505893818263289e-01 -2.500228346440720006e+00 6.900922153724418084e-01 6.061400850172729005e-01 9.597082821656010010e-01 -4.567167056943123860e-01 1.171827353835329655e+00 6.241915832694410610e-03 3.068581400661741787e-01 1.236800677510245361e+00 3.052674022365961526e-01 3.084238841664791453e-01 2.623792026919760101e-01 3.709651003294761051e-01 2.935728451732052546e-01 -4.787158499533016309e-01 2.912336845801115071e-01 2.647654883084237243e-01 8.135131084289396464e-01 3.072763233827885965e-01 3.034640990612563205e-01 2.353324652933047323e-01 3.085376852012218230e-01 -1.653219129897260720e+00 2.943699354100685617e-01 2.630823426951501842e-01 3.500923865519431355e-01 7.045172758774657928e-02 3.068818536179723777e-01 3.844291984961670794e-01 1.390398577896705956e-01 -7.816283437987342486e-01 2.630823647213070826e-01 4.712413976176041408e-01 -5.134659486767860770e-01 3.621606362272317137e-01 1.739224355904538666e-01 2.481828719831273844e-01 -3.246651423055491481e+00 4.498319184845787633e-01 9.270034838451901571e-01 3.182718121259567878e-01 3.147267121029080905e-01 3.109104260716492041e-01 3.319743918517532588e-01 3.101850906650284179e-01 3.085467832135002642e-01 3.479443433155782195e-01 1.238962627323921678e-01 6.647764285989927746e-01 1.110331528837893295e-01 4.991917143759529996e-01 4.859293284762367104e-01 3.947943967418883204e-01 -6.695048451378928789e-01 2.283972743574342434e+00 3.942085028862328810e-01 1.239694508130827932e+00 -1.389463426627443932e+00 3.109982384108340159e-01 2.260783870871978241e-01 3.534669646990371006e-01 1.169456324616518827e+00 5.077148043138252076e-01 8.122018632177626651e-01 2.831707967962544537e-01 6.693768709876737333e-01 2.802673257911840188e-01 3.062488978311139198e-01 -1.167577684485218814e+00 4.022805707270029063e-01 3.102705417927892895e-01 4.905615257694093678e-01 8.971490621363794604e-01 -3.604180707386907545e-01 3.147138122791899306e+00 4.929446687707857433e-01 1.259277782154172964e+00 -1.947006399076670891e-01 3.184224584787642698e-01 3.829312906139132333e-01 3.265178459456123949e-01 2.377196150392646978e-01 3.749037308932060553e-01 -1.251176944269740965e-01 1.225612595066922078e-01 5.617541050093977084e-01 2.640623765559368952e-01 9.459839969050100328e-02 2.485837959280315368e-01 4.105026330056076311e-01 4.270858712991444373e-01 2.607864905520896337e-01 3.228294090806299366e+00 3.695372131945306449e-01 6.536059829013607381e-01 5.373823825638833762e-01 2.259961542969962656e-01 4.274690612323916450e-01 3.069494736465613882e-01 2.899807086009413837e-01 3.116105716063414799e-01 -5.610664269379063152e-01 4.495759760040012321e-01 2.853607706468883065e-01 1.318448703809588229e-01 2.858181198914940824e-01 1.532485584941401413e+00 3.152341609325126082e-01 2.989111987833599771e-01 1.994228141492267348e+00 5.004860189344488841e-01 2.821151133589026583e-01 2.641237503683626642e-01 3.419969663242355407e-01 2.164239972856058791e-01 -2.058691450861457994e+00 2.598531789658027891e-01 1.530017188997678579e+00 -3.824016726834100072e-02 3.460037922197720661e-01 6.934667246013143105e-01 2.931324055516557614e-01 -7.213779315131794156e-01 4.104806023462030384e-01 3.035133848197782980e-01 4.442139024111634305e-01 -3.899521168366604229e-01 2.948622514529105065e-01 -2.231153337630452427e+00 1.170537131129504964e-03 3.042109039362244638e-01 6.024103943763525759e-01 3.103460672146989840e-01 3.111616912285069536e-01 4.783585518235450307e-01 1.936781426687151364e-01 -1.067312102725607031e-01 -7.632356038534060527e-01 1.241092585082829254e-03 6.865154941895149632e-01 3.205431930264073248e-01 4.996021820718557493e-01 2.932474627016554147e-01 1.301341500503275456e-03 3.054650179858260373e-01 2.437080464252970202e+00 6.911590097748603334e-01 2.468503532296992820e-01 -1.155740266901081892e+00 2.241463004906062706e-01 4.673980730831220676e+00 3.622121141390007293e-01 -1.488576125275924145e-01 5.701824577791592130e-01 -5.571380388762199765e+00 5.154993606335442902e-01 1.545193361638389717e+00 3.094591957302506580e-01 5.342253524407389875e-01 -4.430825927696250832e-01 4.200578161357126361e-01 3.169955531641431290e-01 2.829394962266503222e-01 2.350086396436399383e-01 2.923423090505805177e+00 -3.717670629920141190e-01 3.187462189865046258e-01 -1.912951105493490900e+00 3.042674063704684517e-01 -3.606370006453974431e-01 7.487778388655960127e-01 5.310814546100974809e-01 2.755686191535956509e-01 2.950731478329623458e-01 1.276524959326707620e+00 1.433765157706198001e-01 2.630825477087684883e-01 4.022756241292960722e-01 1.390398571572621644e-01 3.018473147622171004e-01 3.931594763948692006e-01 -6.102316334108340845e-01 3.123580830830477439e-01 5.508786006189188011e-01 3.860496300732176311e-01 1.672245758860195497e-01 3.104318612801146293e-01 4.827877642328615160e-01 5.310814380809376622e-01 4.342507791075276846e-01 3.105463782246859483e-01 1.867940756295521643e-01 4.210882774864417311e-01 3.407022598463974372e+00 3.030632783675966113e-01 1.381687847231957977e-01 4.270850365760822664e-01 8.467071830976433677e-01 4.668396127512686733e-01 -1.938607418255769710e-01 6.833796397978960657e-01 3.144710631259900468e-01 1.177660769000181129e-01 4.045889001524048401e-01 6.680373382047467556e-01 6.057636544974522863e-01 7.835422107369532929e-01 8.139743667440967334e-01 3.660483281712840209e-01 1.390398578836416210e-01 1.390399205978753994e-01 2.355527789874079236e-01 1.536649087212859088e-01 1.119990920712716331e+00 4.030496734130927239e-01 3.115709159923070737e-01 3.310007113666804668e-01 3.106569036943563900e-01 7.687172071009092944e-01 2.630825384232524100e-01 3.110777846026120397e-01 4.422868403425689321e-01 2.566815958509726658e-01 -6.346872313580446123e-01 3.025093839795170436e-01 3.041106944367525378e-01 3.797459482137600095e-01 6.917889840250822653e-01 7.150691274898408611e-01 1.390398578358632564e-01 8.193615835279664805e-02 3.172422250134945831e-01 4.806821322554838405e-01 -5.916885059244089140e-01 1.909713080724168288e-01 -3.504901801250863702e+00 1.959237771239552561e+00 6.345885256473858815e-01 -4.590513786501563276e-01 9.547955005575290560e-04 2.050585691976943181e+00 3.116190810609784090e-01 6.400642058750359853e-01 -3.450101967300189722e-03 3.397047849747225623e-01 4.330683099478872533e-01 3.161544718530888143e-01 -4.773333779036124658e-01 2.947496163990122597e-01 2.054796509601144017e+00 3.363669012324424501e-01 -4.255937395437660031e-01 3.267079339646957181e-01 3.198362870932034974e-01 -1.453567760389807173e+00 3.194474044912652966e-01 3.613874738049413504e-01 4.030984594987791492e-01 1.606130964936358652e-01 3.161900462162193781e-01 2.130670635773715682e-01 3.216933079492116376e-01 -1.609739138318094787e-01 3.205101043813643469e-01 1.110922697156835198e-01 3.205894094155782303e-01 3.136504387145827577e-01 1.557514532191804461e-02 4.141646326667660638e-01 5.751384797109849734e-01 -1.383457147391661923e+00 -5.701320279502689603e-01 -1.111648541423221059e-01 9.115872806737417011e-02 2.418479657288030715e-01 4.296586383788320029e-01 3.622184255760552696e-01 7.308234209351671673e-01 -1.233720706106171683e-01 3.056307494326569452e-01 3.277833133790368780e-01 9.336255647151810166e-02 -1.606784205264508159e-01 3.302344057874812555e-01 4.554780213147812673e-01 4.794493677190280745e-01 3.043746308085080732e-01 2.653650666289570914e-01 3.173736436643166958e-01 2.536622307116724873e-01 3.092320790256406493e-01 5.041565539195028700e-01 4.047586037232615563e-01 3.101773787656663117e-01 6.828657991103004310e-01 3.319266937193484091e-01 7.361564632477664016e-01 4.611286996988603337e-02 5.277130675001862059e-01 2.449115581220751292e-01 -1.448467530551867277e+00 3.158372890221776141e-01 6.445054942616839089e-01 3.718103267841393889e-01 3.108664474694126101e-01 2.519715471498127357e-01 2.099521496502095297e-01 6.863692395571380223e-01 3.163993761885065537e-01 3.939017285643506283e-01 3.124947002558063347e-01 2.821196580122924957e-01 2.017085621820009778e-01 5.077001249782508996e-01 2.932839242407123681e-01 2.247405546975572432e-01 1.197670525037625305e-01 6.329950633755661304e-02 1.634668857687612498e+00 2.365805160511826044e-01 3.653583204238201043e-01 3.809943417234244456e-01 -8.415335177925770127e-01 3.883378372435736248e-01 2.853400245956697057e-01 4.480831171619408249e-01 -3.877229997573743148e-02 3.077902352120543972e-01 1.586919284677128728e+00 8.904518198837046983e-01 4.316221259530912402e-01 3.146805316580635892e-01 3.567133426926835105e-01 3.374028313092112819e-01 9.198706241191340061e-01 3.031323240313381628e+00 3.126573993316452693e-01 3.574032839117081278e-02 5.912719253164887556e-01 -1.985845683491721525e-01 3.100978821559189913e-01 3.180305309679114512e-01 1.068661390441429493e+00 3.123907513622716237e-01 -3.239562366611928312e-01 3.790130276239127016e-01 1.248215726335605152e-01 6.446463812810763194e-01 1.761716553721314638e+00 2.876195359948652275e-01 2.557105174281815163e-01 1.657114630831182378e+00 4.033974466688132199e-01 3.196600698825144971e-01 1.994885424629868342e-01 2.690872572777226468e-01 1.442943472365653020e-03 4.914851060849643183e-01 2.394066360440706420e-01 7.298237378124037278e-01 2.670736507417858507e-01 2.661529814204111610e-01 3.064652222432729389e-01 4.417162879142553789e-01 3.390511755995661569e-01 2.574464246325601224e-01 9.047037490549459937e-01 5.086295189725981158e-01 4.562247416372910980e-01 2.641230397982230471e-01 2.751002727170607787e-01 3.081958535976926927e-01 5.875092984634580073e-01 7.717902660340629772e-01 3.561136735147543697e-01 2.972821135512020430e-01 5.031609280691876629e-01 3.081248390301571938e-01 7.265700624684254816e-01 2.417797679965971447e-01 4.576352014112020639e-01 -3.144859217307496846e-01 3.130137259842424302e-01 3.021894758774336665e-01 4.274807869222932433e-01 2.821596902755926228e-01 2.762307782737381534e-01 1.780503556550334654e+00 7.124923288059459292e-02 2.669496951845561350e-01 -1.804885369292567598e-01 1.637404247892601861e+00 1.148878278132105413e+00 4.746314095970902147e-02 -4.554573972041933705e-01 4.107285892626243440e-01 3.489923691920357451e-01 5.119062199386360534e-01 3.104615928189859986e-01 3.110924093778517086e-01 1.998610018463477522e-01 3.424163524639911582e-01 3.696108903178066951e-01 1.173468046776558315e-03 -2.026733157509323924e-01 3.650726956601593187e-01 2.963052114528946235e-01 2.175558403234179594e-01 8.678109792644577158e-01 4.270858861221759617e-01 2.470549291216140586e-01 8.409764960602833517e-01 4.759101159446419982e-01 6.096434812723338093e-01 4.601418101353684786e-01 6.915244569522479567e-01 1.469549184671109954e+00 3.425369599326570924e-01 2.076086413226414518e+00 -2.300160124796328531e-02 1.429711326993547138e-01 3.098690530562769885e-01 2.586394814168789247e-01 3.467996801080083236e-01 3.276779259372298858e-01 3.123851869253861935e-01 3.088191526956543531e-01 3.606874514352466643e-01 1.922408268411163468e-01 -3.132950074466713253e-01 2.460675790785326333e-01 -7.411823547026490100e-02 3.197908301589544311e-01 4.441474209426211628e-01 4.270858860758115494e-01 2.115996176661281425e-01 1.984181377838963867e-01 -1.235769810185983530e+00 1.951763656669653013e+00 3.111557698851265541e-01 -7.214564588195898631e-01 2.974672820129871664e-01 3.075116817873441710e-01 3.148582079836496628e-01 -4.752790583379392864e+00 3.518520074910573836e+00 6.256986341680267349e-01 6.666173131337702062e-02 3.170240001546714148e-01 3.160352808740081176e-01 2.886295983598538561e-01 2.607123087990740107e+00 6.216885551836500712e-01 3.196193136168333226e-01 2.164244354473817689e-01 2.702645924177415893e-01 2.638413547873538767e-01 8.665412613492514682e-01 -3.768763613378284250e-01 -1.178199261805077835e+00 -1.208228817910155017e+00 3.100158194517124155e-01 3.156784473856997231e-01 7.200443605924257140e-01 3.642836801798671753e-01 1.369899127723013477e+00 4.747466701675767120e-01 3.096736161361410278e-01 3.018121005099924092e-01 3.341773084124080029e-01 3.041961039204791328e-01 3.189410234821186685e-01 6.479331617318195846e-01 2.722898384714195763e-01 6.551841905506065045e-01 2.235399423239376737e-01 3.579870905753400334e-02 3.188548602164582579e-01 1.888024909911337479e-01 3.564339255181049326e-01 2.826128573564432034e-01 6.600817256773998665e-01 5.310814320432765134e-01 4.073484152446003037e-01 3.395746838713375459e-01 3.126516208436320721e-01 2.632292094871983013e-01 1.586896096343864970e+00 1.873862764061770658e+00 3.189580464871860643e-01 3.679936088151727347e-01 3.085622575878125273e-01 1.623891306360074060e-01 2.309410424665257200e-01 2.835443817923706811e-01 2.894253998403565342e-01 3.236452751602472144e-01 7.976769011543981547e-01 8.780857761577531839e-01 2.328414397721852436e-01 1.858906856144099562e+00 2.545921883413366782e-01 -2.064793152755504957e-01 -2.729958801122600587e-01 -3.153170565005902204e-01 3.091798834132243878e-01 2.592455324061452293e-01 7.088372190651093252e-01 3.119361902961199640e-01 4.590783751169958959e-01 2.879190772234289653e-01 3.682343585941985076e-01 3.811644274280822642e-01 -4.094390050496240704e-03 1.019060505727616972e+00 3.324425717397260227e-01 4.383216237205587174e-01 3.138432072911446213e-01 3.598420501280298889e-01 3.018258410467304365e-01 3.909400550409493635e-01 -1.026810622891477787e-01 2.228872169244503210e-01 3.286207956155817178e-01 9.346246394895080072e-04 4.270860243609004292e-01 1.110020307756729219e+00 9.550883134958165765e-01 -7.310456785036385519e-01 -3.606370050697113583e-01 6.528773023782348250e-01 -3.305999683915011644e+00 1.566121358667151853e+00 2.660796439329624619e-01 7.105759685954158612e-04 3.137341641866620012e-01 8.848909945378303776e-01 3.162378066516536856e-01 4.022803882670609732e-01 -4.365636062450335975e-01 8.251540236784797866e-01 2.863645676420536468e-01 8.795686882555110442e-01 2.081223131543866955e+00 -3.768157410132200180e-01 -1.452905930494863718e+00 2.412162045126586829e-01 3.244801894250484708e-01 7.662404881884895547e-01 3.449176809355631868e-01 7.044299674789016308e-01 4.691111696300922507e-01 2.041952045039509556e-01 3.176108120536899060e-01 3.104809346996246777e-01 2.312948380078117538e-01 3.154395186620487235e-01 1.401266948467303708e+00 1.620127734679231546e+00 3.078127995979397791e-01 2.750073428736385384e-01 1.061105764876426188e-01 -2.416156632703991558e-01 2.101552336651462682e-01 -1.858792734171909461e-02 3.138745833532964880e-01 7.062496810351066578e-01 -4.762329618827090827e-01 2.798024056909299562e-01 2.918945167127423024e-01 1.532759303553572761e-01 3.237191991674688851e-01 2.339397621714685016e-01 3.096269138121464648e-01 3.131402754472740191e-01 2.479671340158705155e-03 2.692149345350379752e-01 4.380624984947622536e-01 1.116164816981060515e+00 1.102847662294952125e+00 9.299476730389927281e-01 1.963057103251658886e-01 7.802247787190577100e-01 1.385571479187280297e-01 4.760782202225692927e-01 -2.109638682689474187e+00 3.107033191655498294e-01 6.556568480160103185e-01 2.784965752525642158e-01 9.546239811809363873e-01 1.365892648119141572e+00 2.164246218098983821e-01 2.692636884962554267e-01 3.737650518513384590e-01 3.105741487731210060e-01 5.523168763819193972e-01 8.734516931202281897e-01 -7.775953679994754841e-01 1.767047561061723671e-01 8.080420357233196460e-02 3.272104337143115771e-01 3.423026359924336570e-01 7.706164702530173827e-01 -2.064594471581169821e-01 3.975828961643029236e-01 3.050403535166220093e-01 3.423442338761165660e-01 8.900548500084284331e-01 4.271102043523443137e-01 -2.113501094852793250e-01 8.592684174781247686e-01 -4.571275030400142464e-02 5.715736195473428705e-01 2.590838903321713294e-01 1.283377330438325137e+00 5.725319478413405383e-01 7.309937071094774197e-01 4.387843044176819585e-01 4.862479531385717202e-01 -5.470238881201355818e-01 2.528546986213650594e-01 7.624494087915706375e-01 3.099062266327048398e-01 6.290554264963290620e-01 2.587683360299969371e-01 3.106882320908635475e-01 7.278084041762844514e-01 1.404903861324604264e-01 -2.041253927254919720e+00 2.261861878803145265e-01 2.682281235967131083e-01 8.243704179091104756e-01 3.891685346246526178e-01 4.037001933535625531e-01 3.414015662936716877e-01 2.930161364990028772e-01 3.821274947025234403e-01 5.814949167240918149e-02 -1.618701654457382899e+00 7.524069709514104032e-01 2.543802375230625468e-01 3.261822067883574094e-01 2.020806256044035409e-01 8.227810246174622755e-01 3.079458463625378561e-01 -1.416647083394213802e-01 3.289942133029415405e-01 1.119480102270553834e+00 2.681415937781220227e-01 4.153855878313479910e-01 1.055564224974490317e+00 3.707573954619965972e-01 2.768352639348032440e+00 3.413592814190645197e-01 3.245128699962712693e-01 6.946779123057735816e-01 3.077061618335318327e-01 3.151521685509103832e-01 -2.085819654687151470e+00 4.199333433807891369e-01 3.325069041223781552e-01 5.152537329648516629e-01 3.191023172238371952e-01 2.290011520809135392e-01 -2.138652765482243756e-01 2.045860363291163608e+00 -5.198680331485892037e-01 8.286287569270964770e-01 3.120910726001314139e-01 3.253690041330529192e-01 8.002211302611613730e-01 3.606724708308226557e-01 1.329058966572526534e+00 1.881611545475004865e-01 3.343100600725178451e-01 -8.825454465053889086e-01 -1.331077812884202682e-01 -4.148938211749070293e-01 -3.925073385338714971e+00 2.941118685480063721e+00 4.336614440423039452e-02 3.174559076824444159e-01 -1.619241378425489764e+00 3.081283384884300758e-01 3.133557650576315190e-01 2.796185482125235211e-01 1.562066299629937538e-01 6.400561157920596767e-01 5.975933563882409594e-01 1.034175615305877205e+00 -3.606370062820287714e-01 -2.241944779952839972e-01 2.180578221658488747e-01 -1.184168908575044199e+00 2.672742127351254715e-01 -6.426161085447196220e-01 2.985572782164441219e-01 4.648680387188934837e-01 6.929144556295720181e-02 4.424958261257623260e-01 2.684621734079276623e-01 -7.093262843377903804e-02 2.128681561153092372e-01 2.946335766773963694e-01 3.603012478561062326e-01 3.019113831143925286e-01 3.098635808224824428e-01 -7.311907079469818216e-01 5.337379245893586477e-01 1.535833909350371895e+00 6.419715823654124909e-02 2.391495484540581695e-01 3.661073285028736968e-01 1.209933854921406038e+00 3.233961435629287284e-01 1.293094501853745693e-01 8.928647483975675758e-01 2.862779731450197929e-01 1.855737167142945232e+00 2.869938371616229666e-01 1.264678663640680378e+00 3.223412790041442766e-01 7.364214891858971157e-01 1.348742745732744108e+00 3.381519420515803898e-01 3.887280322231620455e-01 9.255514284713914908e-01 -1.881717960107872345e-01 -5.696942550003323419e-02 1.964250996382090886e-01 3.000690076775286430e-01 3.535353544111453639e-01 1.429398928247228862e-01 1.762733330473045534e-01 -3.651645227835162988e-01 1.292557088782290142e+00 2.811740617485876670e-01 3.071606955959366170e-01 -3.164885685985765473e+00 5.241129596363499621e-01 3.131878572200914035e-01 4.222608999531988760e-01 4.147046043954192296e-01 4.805261775965514737e-01 -1.075855988724956580e+00 6.151181896072929201e-01 2.809594188341609233e-01 3.085582093125688319e-01 1.033312334328974735e+00 4.555781414520254646e-01 3.113220087756580767e-01 -1.398102305856763872e+00 4.140129382129946745e-01 8.899190130358517470e-01 2.936288929684050530e-01 3.166290868443880635e-01 3.588454430757394009e-01 7.100680309895445186e-01 -6.974478909460242460e-02 3.081865252155449042e-01 3.214931513988456002e-01 8.032888492979117778e-02 6.772028622289067989e-01 3.241671699074666901e-01 7.192156234876889709e-01 1.710826088947532686e-01 6.887012630851726547e-01 -2.264011504166560940e-01 -1.506055402113004149e+00 3.165201799778809555e-01 -1.758707114637162935e-02 3.366654103998898973e-01 3.781117687221830503e-01 5.458466391232864867e-02 5.310814492264637199e-01 3.098159115300280764e-01 8.415242375007309095e-02 4.510894394263292306e-01 2.498364644882396790e-01 3.234529571331234421e-01 2.721678427365232245e-01 -8.311652464293958209e-01 3.112113843449686446e-01 3.362116461562371650e-01 3.136614031950791248e-01 -2.005797449686124168e-01 3.077526175241953599e-01 8.136223672685566344e-01 -5.465405776886126388e-01 1.110277620307555502e+00 6.097776468229064717e-01 2.468761833928067306e-01 3.091010731864533567e-01 -2.038772712224078187e+00 3.332538228242323819e-01 1.949052375610999255e-01 2.568605276999488818e-01 5.310814651985954482e-01 3.120362705099310463e-01 2.833590706264544345e-01 8.499062422909685333e-02 3.109303796761173078e-01 4.359879733027998139e-01 3.868299767548084578e-01 3.058457997576747300e-01 2.937422983259735942e-01 3.077097222645267527e-01 3.122443167979188638e-01 2.666235211863308141e-01 5.988361691375362200e-02 3.170712307724714019e-01 6.104322622273188337e-01 1.950498936280729845e-01 3.213149478966003669e-01 -1.336762964119014574e-01 1.566049888899347653e-01 5.674017134003165319e-01 4.440863499596290787e+00 3.337663482837699980e-01 1.000827580447659071e-01 5.477469700300302557e-01 1.951418603563881971e-01 1.548237955988833292e+00 3.559040404510165345e-01 6.490609044714342746e-01 3.057975435931943320e-01
