# 
#                 ----------------------------------------------------
#                 Data from a 3D direct N-body simulation. 
# 
#                 rows are i-particle; 
#                 coumns are :mass, tag, x ,y, z, vx, vy, vz, ax, ay, az
# 
#                 NTHU, Computational Physics 
# 
#                 ----------------------------------------------------
#                 Time = 0.0
0.000000000000000000e+00 1.000000000000000000e+00 2.000000000000000000e+00 3.000000000000000000e+00 4.000000000000000000e+00 5.000000000000000000e+00 6.000000000000000000e+00 7.000000000000000000e+00 8.000000000000000000e+00 9.000000000000000000e+00 1.000000000000000000e+01 1.100000000000000000e+01 1.200000000000000000e+01 1.300000000000000000e+01 1.400000000000000000e+01 1.500000000000000000e+01 1.600000000000000000e+01 1.700000000000000000e+01 1.800000000000000000e+01 1.900000000000000000e+01 2.000000000000000000e+01 2.100000000000000000e+01 2.200000000000000000e+01 2.300000000000000000e+01 2.400000000000000000e+01 2.500000000000000000e+01 2.600000000000000000e+01 2.700000000000000000e+01 2.800000000000000000e+01 2.900000000000000000e+01 3.000000000000000000e+01 3.100000000000000000e+01 3.200000000000000000e+01 3.300000000000000000e+01 3.400000000000000000e+01 3.500000000000000000e+01 3.600000000000000000e+01 3.700000000000000000e+01 3.800000000000000000e+01 3.900000000000000000e+01 4.000000000000000000e+01 4.100000000000000000e+01 4.200000000000000000e+01 4.300000000000000000e+01 4.400000000000000000e+01 4.500000000000000000e+01 4.600000000000000000e+01 4.700000000000000000e+01 4.800000000000000000e+01 4.900000000000000000e+01 5.000000000000000000e+01 5.100000000000000000e+01 5.200000000000000000e+01 5.300000000000000000e+01 5.400000000000000000e+01 5.500000000000000000e+01 5.600000000000000000e+01 5.700000000000000000e+01 5.800000000000000000e+01 5.900000000000000000e+01 6.000000000000000000e+01 6.100000000000000000e+01 6.200000000000000000e+01 6.300000000000000000e+01 6.400000000000000000e+01 6.500000000000000000e+01 6.600000000000000000e+01 6.700000000000000000e+01 6.800000000000000000e+01 6.900000000000000000e+01 7.000000000000000000e+01 7.100000000000000000e+01 7.200000000000000000e+01 7.300000000000000000e+01 7.400000000000000000e+01 7.500000000000000000e+01 7.600000000000000000e+01 7.700000000000000000e+01 7.800000000000000000e+01 7.900000000000000000e+01 8.000000000000000000e+01 8.100000000000000000e+01 8.200000000000000000e+01 8.300000000000000000e+01 8.400000000000000000e+01 8.500000000000000000e+01 8.600000000000000000e+01 8.700000000000000000e+01 8.800000000000000000e+01 8.900000000000000000e+01 9.000000000000000000e+01 9.100000000000000000e+01 9.200000000000000000e+01 9.300000000000000000e+01 9.400000000000000000e+01 9.500000000000000000e+01 9.600000000000000000e+01 9.700000000000000000e+01 9.800000000000000000e+01 9.900000000000000000e+01 1.000000000000000000e+02 1.010000000000000000e+02 1.020000000000000000e+02 1.030000000000000000e+02 1.040000000000000000e+02 1.050000000000000000e+02 1.060000000000000000e+02 1.070000000000000000e+02 1.080000000000000000e+02 1.090000000000000000e+02 1.100000000000000000e+02 1.110000000000000000e+02 1.120000000000000000e+02 1.130000000000000000e+02 1.140000000000000000e+02 1.150000000000000000e+02 1.160000000000000000e+02 1.170000000000000000e+02 1.180000000000000000e+02 1.190000000000000000e+02 1.200000000000000000e+02 1.210000000000000000e+02 1.220000000000000000e+02 1.230000000000000000e+02 1.240000000000000000e+02 1.250000000000000000e+02 1.260000000000000000e+02 1.270000000000000000e+02 1.280000000000000000e+02 1.290000000000000000e+02 1.300000000000000000e+02 1.310000000000000000e+02 1.320000000000000000e+02 1.330000000000000000e+02 1.340000000000000000e+02 1.350000000000000000e+02 1.360000000000000000e+02 1.370000000000000000e+02 1.380000000000000000e+02 1.390000000000000000e+02 1.400000000000000000e+02 1.410000000000000000e+02 1.420000000000000000e+02 1.430000000000000000e+02 1.440000000000000000e+02 1.450000000000000000e+02 1.460000000000000000e+02 1.470000000000000000e+02 1.480000000000000000e+02 1.490000000000000000e+02 1.500000000000000000e+02 1.510000000000000000e+02 1.520000000000000000e+02 1.530000000000000000e+02 1.540000000000000000e+02 1.550000000000000000e+02 1.560000000000000000e+02 1.570000000000000000e+02 1.580000000000000000e+02 1.590000000000000000e+02 1.600000000000000000e+02 1.610000000000000000e+02 1.620000000000000000e+02 1.630000000000000000e+02 1.640000000000000000e+02 1.650000000000000000e+02 1.660000000000000000e+02 1.670000000000000000e+02 1.680000000000000000e+02 1.690000000000000000e+02 1.700000000000000000e+02 1.710000000000000000e+02 1.720000000000000000e+02 1.730000000000000000e+02 1.740000000000000000e+02 1.750000000000000000e+02 1.760000000000000000e+02 1.770000000000000000e+02 1.780000000000000000e+02 1.790000000000000000e+02 1.800000000000000000e+02 1.810000000000000000e+02 1.820000000000000000e+02 1.830000000000000000e+02 1.840000000000000000e+02 1.850000000000000000e+02 1.860000000000000000e+02 1.870000000000000000e+02 1.880000000000000000e+02 1.890000000000000000e+02 1.900000000000000000e+02 1.910000000000000000e+02 1.920000000000000000e+02 1.930000000000000000e+02 1.940000000000000000e+02 1.950000000000000000e+02 1.960000000000000000e+02 1.970000000000000000e+02 1.980000000000000000e+02 1.990000000000000000e+02 2.000000000000000000e+02 2.010000000000000000e+02 2.020000000000000000e+02 2.030000000000000000e+02 2.040000000000000000e+02 2.050000000000000000e+02 2.060000000000000000e+02 2.070000000000000000e+02 2.080000000000000000e+02 2.090000000000000000e+02 2.100000000000000000e+02 2.110000000000000000e+02 2.120000000000000000e+02 2.130000000000000000e+02 2.140000000000000000e+02 2.150000000000000000e+02 2.160000000000000000e+02 2.170000000000000000e+02 2.180000000000000000e+02 2.190000000000000000e+02 2.200000000000000000e+02 2.210000000000000000e+02 2.220000000000000000e+02 2.230000000000000000e+02 2.240000000000000000e+02 2.250000000000000000e+02 2.260000000000000000e+02 2.270000000000000000e+02 2.280000000000000000e+02 2.290000000000000000e+02 2.300000000000000000e+02 2.310000000000000000e+02 2.320000000000000000e+02 2.330000000000000000e+02 2.340000000000000000e+02 2.350000000000000000e+02 2.360000000000000000e+02 2.370000000000000000e+02 2.380000000000000000e+02 2.390000000000000000e+02 2.400000000000000000e+02 2.410000000000000000e+02 2.420000000000000000e+02 2.430000000000000000e+02 2.440000000000000000e+02 2.450000000000000000e+02 2.460000000000000000e+02 2.470000000000000000e+02 2.480000000000000000e+02 2.490000000000000000e+02 2.500000000000000000e+02 2.510000000000000000e+02 2.520000000000000000e+02 2.530000000000000000e+02 2.540000000000000000e+02 2.550000000000000000e+02 2.560000000000000000e+02 2.570000000000000000e+02 2.580000000000000000e+02 2.590000000000000000e+02 2.600000000000000000e+02 2.610000000000000000e+02 2.620000000000000000e+02 2.630000000000000000e+02 2.640000000000000000e+02 2.650000000000000000e+02 2.660000000000000000e+02 2.670000000000000000e+02 2.680000000000000000e+02 2.690000000000000000e+02 2.700000000000000000e+02 2.710000000000000000e+02 2.720000000000000000e+02 2.730000000000000000e+02 2.740000000000000000e+02 2.750000000000000000e+02 2.760000000000000000e+02 2.770000000000000000e+02 2.780000000000000000e+02 2.790000000000000000e+02 2.800000000000000000e+02 2.810000000000000000e+02 2.820000000000000000e+02 2.830000000000000000e+02 2.840000000000000000e+02 2.850000000000000000e+02 2.860000000000000000e+02 2.870000000000000000e+02 2.880000000000000000e+02 2.890000000000000000e+02 2.900000000000000000e+02 2.910000000000000000e+02 2.920000000000000000e+02 2.930000000000000000e+02 2.940000000000000000e+02 2.950000000000000000e+02 2.960000000000000000e+02 2.970000000000000000e+02 2.980000000000000000e+02 2.990000000000000000e+02 3.000000000000000000e+02 3.010000000000000000e+02 3.020000000000000000e+02 3.030000000000000000e+02 3.040000000000000000e+02 3.050000000000000000e+02 3.060000000000000000e+02 3.070000000000000000e+02 3.080000000000000000e+02 3.090000000000000000e+02 3.100000000000000000e+02 3.110000000000000000e+02 3.120000000000000000e+02 3.130000000000000000e+02 3.140000000000000000e+02 3.150000000000000000e+02 3.160000000000000000e+02 3.170000000000000000e+02 3.180000000000000000e+02 3.190000000000000000e+02 3.200000000000000000e+02 3.210000000000000000e+02 3.220000000000000000e+02 3.230000000000000000e+02 3.240000000000000000e+02 3.250000000000000000e+02 3.260000000000000000e+02 3.270000000000000000e+02 3.280000000000000000e+02 3.290000000000000000e+02 3.300000000000000000e+02 3.310000000000000000e+02 3.320000000000000000e+02 3.330000000000000000e+02 3.340000000000000000e+02 3.350000000000000000e+02 3.360000000000000000e+02 3.370000000000000000e+02 3.380000000000000000e+02 3.390000000000000000e+02 3.400000000000000000e+02 3.410000000000000000e+02 3.420000000000000000e+02 3.430000000000000000e+02 3.440000000000000000e+02 3.450000000000000000e+02 3.460000000000000000e+02 3.470000000000000000e+02 3.480000000000000000e+02 3.490000000000000000e+02 3.500000000000000000e+02 3.510000000000000000e+02 3.520000000000000000e+02 3.530000000000000000e+02 3.540000000000000000e+02 3.550000000000000000e+02 3.560000000000000000e+02 3.570000000000000000e+02 3.580000000000000000e+02 3.590000000000000000e+02 3.600000000000000000e+02 3.610000000000000000e+02 3.620000000000000000e+02 3.630000000000000000e+02 3.640000000000000000e+02 3.650000000000000000e+02 3.660000000000000000e+02 3.670000000000000000e+02 3.680000000000000000e+02 3.690000000000000000e+02 3.700000000000000000e+02 3.710000000000000000e+02 3.720000000000000000e+02 3.730000000000000000e+02 3.740000000000000000e+02 3.750000000000000000e+02 3.760000000000000000e+02 3.770000000000000000e+02 3.780000000000000000e+02 3.790000000000000000e+02 3.800000000000000000e+02 3.810000000000000000e+02 3.820000000000000000e+02 3.830000000000000000e+02 3.840000000000000000e+02 3.850000000000000000e+02 3.860000000000000000e+02 3.870000000000000000e+02 3.880000000000000000e+02 3.890000000000000000e+02 3.900000000000000000e+02 3.910000000000000000e+02 3.920000000000000000e+02 3.930000000000000000e+02 3.940000000000000000e+02 3.950000000000000000e+02 3.960000000000000000e+02 3.970000000000000000e+02 3.980000000000000000e+02 3.990000000000000000e+02 4.000000000000000000e+02 4.010000000000000000e+02 4.020000000000000000e+02 4.030000000000000000e+02 4.040000000000000000e+02 4.050000000000000000e+02 4.060000000000000000e+02 4.070000000000000000e+02 4.080000000000000000e+02 4.090000000000000000e+02 4.100000000000000000e+02 4.110000000000000000e+02 4.120000000000000000e+02 4.130000000000000000e+02 4.140000000000000000e+02 4.150000000000000000e+02 4.160000000000000000e+02 4.170000000000000000e+02 4.180000000000000000e+02 4.190000000000000000e+02 4.200000000000000000e+02 4.210000000000000000e+02 4.220000000000000000e+02 4.230000000000000000e+02 4.240000000000000000e+02 4.250000000000000000e+02 4.260000000000000000e+02 4.270000000000000000e+02 4.280000000000000000e+02 4.290000000000000000e+02 4.300000000000000000e+02 4.310000000000000000e+02 4.320000000000000000e+02 4.330000000000000000e+02 4.340000000000000000e+02 4.350000000000000000e+02 4.360000000000000000e+02 4.370000000000000000e+02 4.380000000000000000e+02 4.390000000000000000e+02 4.400000000000000000e+02 4.410000000000000000e+02 4.420000000000000000e+02 4.430000000000000000e+02 4.440000000000000000e+02 4.450000000000000000e+02 4.460000000000000000e+02 4.470000000000000000e+02 4.480000000000000000e+02 4.490000000000000000e+02 4.500000000000000000e+02 4.510000000000000000e+02 4.520000000000000000e+02 4.530000000000000000e+02 4.540000000000000000e+02 4.550000000000000000e+02 4.560000000000000000e+02 4.570000000000000000e+02 4.580000000000000000e+02 4.590000000000000000e+02 4.600000000000000000e+02 4.610000000000000000e+02 4.620000000000000000e+02 4.630000000000000000e+02 4.640000000000000000e+02 4.650000000000000000e+02 4.660000000000000000e+02 4.670000000000000000e+02 4.680000000000000000e+02 4.690000000000000000e+02 4.700000000000000000e+02 4.710000000000000000e+02 4.720000000000000000e+02 4.730000000000000000e+02 4.740000000000000000e+02 4.750000000000000000e+02 4.760000000000000000e+02 4.770000000000000000e+02 4.780000000000000000e+02 4.790000000000000000e+02 4.800000000000000000e+02 4.810000000000000000e+02 4.820000000000000000e+02 4.830000000000000000e+02 4.840000000000000000e+02 4.850000000000000000e+02 4.860000000000000000e+02 4.870000000000000000e+02 4.880000000000000000e+02 4.890000000000000000e+02 4.900000000000000000e+02 4.910000000000000000e+02 4.920000000000000000e+02 4.930000000000000000e+02 4.940000000000000000e+02 4.950000000000000000e+02 4.960000000000000000e+02 4.970000000000000000e+02 4.980000000000000000e+02 4.990000000000000000e+02 5.000000000000000000e+02 5.010000000000000000e+02 5.020000000000000000e+02 5.030000000000000000e+02 5.040000000000000000e+02 5.050000000000000000e+02 5.060000000000000000e+02 5.070000000000000000e+02 5.080000000000000000e+02 5.090000000000000000e+02 5.100000000000000000e+02 5.110000000000000000e+02 5.120000000000000000e+02 5.130000000000000000e+02 5.140000000000000000e+02 5.150000000000000000e+02 5.160000000000000000e+02 5.170000000000000000e+02 5.180000000000000000e+02 5.190000000000000000e+02 5.200000000000000000e+02 5.210000000000000000e+02 5.220000000000000000e+02 5.230000000000000000e+02 5.240000000000000000e+02 5.250000000000000000e+02 5.260000000000000000e+02 5.270000000000000000e+02 5.280000000000000000e+02 5.290000000000000000e+02 5.300000000000000000e+02 5.310000000000000000e+02 5.320000000000000000e+02 5.330000000000000000e+02 5.340000000000000000e+02 5.350000000000000000e+02 5.360000000000000000e+02 5.370000000000000000e+02 5.380000000000000000e+02 5.390000000000000000e+02 5.400000000000000000e+02 5.410000000000000000e+02 5.420000000000000000e+02 5.430000000000000000e+02 5.440000000000000000e+02 5.450000000000000000e+02 5.460000000000000000e+02 5.470000000000000000e+02 5.480000000000000000e+02 5.490000000000000000e+02 5.500000000000000000e+02 5.510000000000000000e+02 5.520000000000000000e+02 5.530000000000000000e+02 5.540000000000000000e+02 5.550000000000000000e+02 5.560000000000000000e+02 5.570000000000000000e+02 5.580000000000000000e+02 5.590000000000000000e+02 5.600000000000000000e+02 5.610000000000000000e+02 5.620000000000000000e+02 5.630000000000000000e+02 5.640000000000000000e+02 5.650000000000000000e+02 5.660000000000000000e+02 5.670000000000000000e+02 5.680000000000000000e+02 5.690000000000000000e+02 5.700000000000000000e+02 5.710000000000000000e+02 5.720000000000000000e+02 5.730000000000000000e+02 5.740000000000000000e+02 5.750000000000000000e+02 5.760000000000000000e+02 5.770000000000000000e+02 5.780000000000000000e+02 5.790000000000000000e+02 5.800000000000000000e+02 5.810000000000000000e+02 5.820000000000000000e+02 5.830000000000000000e+02 5.840000000000000000e+02 5.850000000000000000e+02 5.860000000000000000e+02 5.870000000000000000e+02 5.880000000000000000e+02 5.890000000000000000e+02 5.900000000000000000e+02 5.910000000000000000e+02 5.920000000000000000e+02 5.930000000000000000e+02 5.940000000000000000e+02 5.950000000000000000e+02 5.960000000000000000e+02 5.970000000000000000e+02 5.980000000000000000e+02 5.990000000000000000e+02 6.000000000000000000e+02 6.010000000000000000e+02 6.020000000000000000e+02 6.030000000000000000e+02 6.040000000000000000e+02 6.050000000000000000e+02 6.060000000000000000e+02 6.070000000000000000e+02 6.080000000000000000e+02 6.090000000000000000e+02 6.100000000000000000e+02 6.110000000000000000e+02 6.120000000000000000e+02 6.130000000000000000e+02 6.140000000000000000e+02 6.150000000000000000e+02 6.160000000000000000e+02 6.170000000000000000e+02 6.180000000000000000e+02 6.190000000000000000e+02 6.200000000000000000e+02 6.210000000000000000e+02 6.220000000000000000e+02 6.230000000000000000e+02 6.240000000000000000e+02 6.250000000000000000e+02 6.260000000000000000e+02 6.270000000000000000e+02 6.280000000000000000e+02 6.290000000000000000e+02 6.300000000000000000e+02 6.310000000000000000e+02 6.320000000000000000e+02 6.330000000000000000e+02 6.340000000000000000e+02 6.350000000000000000e+02 6.360000000000000000e+02 6.370000000000000000e+02 6.380000000000000000e+02 6.390000000000000000e+02 6.400000000000000000e+02 6.410000000000000000e+02 6.420000000000000000e+02 6.430000000000000000e+02 6.440000000000000000e+02 6.450000000000000000e+02 6.460000000000000000e+02 6.470000000000000000e+02 6.480000000000000000e+02 6.490000000000000000e+02 6.500000000000000000e+02 6.510000000000000000e+02 6.520000000000000000e+02 6.530000000000000000e+02 6.540000000000000000e+02 6.550000000000000000e+02 6.560000000000000000e+02 6.570000000000000000e+02 6.580000000000000000e+02 6.590000000000000000e+02 6.600000000000000000e+02 6.610000000000000000e+02 6.620000000000000000e+02 6.630000000000000000e+02 6.640000000000000000e+02 6.650000000000000000e+02 6.660000000000000000e+02 6.670000000000000000e+02 6.680000000000000000e+02 6.690000000000000000e+02 6.700000000000000000e+02 6.710000000000000000e+02 6.720000000000000000e+02 6.730000000000000000e+02 6.740000000000000000e+02 6.750000000000000000e+02 6.760000000000000000e+02 6.770000000000000000e+02 6.780000000000000000e+02 6.790000000000000000e+02 6.800000000000000000e+02 6.810000000000000000e+02 6.820000000000000000e+02 6.830000000000000000e+02 6.840000000000000000e+02 6.850000000000000000e+02 6.860000000000000000e+02 6.870000000000000000e+02 6.880000000000000000e+02 6.890000000000000000e+02 6.900000000000000000e+02 6.910000000000000000e+02 6.920000000000000000e+02 6.930000000000000000e+02 6.940000000000000000e+02 6.950000000000000000e+02 6.960000000000000000e+02 6.970000000000000000e+02 6.980000000000000000e+02 6.990000000000000000e+02 7.000000000000000000e+02 7.010000000000000000e+02 7.020000000000000000e+02 7.030000000000000000e+02 7.040000000000000000e+02 7.050000000000000000e+02 7.060000000000000000e+02 7.070000000000000000e+02 7.080000000000000000e+02 7.090000000000000000e+02 7.100000000000000000e+02 7.110000000000000000e+02 7.120000000000000000e+02 7.130000000000000000e+02 7.140000000000000000e+02 7.150000000000000000e+02 7.160000000000000000e+02 7.170000000000000000e+02 7.180000000000000000e+02 7.190000000000000000e+02 7.200000000000000000e+02 7.210000000000000000e+02 7.220000000000000000e+02 7.230000000000000000e+02 7.240000000000000000e+02 7.250000000000000000e+02 7.260000000000000000e+02 7.270000000000000000e+02 7.280000000000000000e+02 7.290000000000000000e+02 7.300000000000000000e+02 7.310000000000000000e+02 7.320000000000000000e+02 7.330000000000000000e+02 7.340000000000000000e+02 7.350000000000000000e+02 7.360000000000000000e+02 7.370000000000000000e+02 7.380000000000000000e+02 7.390000000000000000e+02 7.400000000000000000e+02 7.410000000000000000e+02 7.420000000000000000e+02 7.430000000000000000e+02 7.440000000000000000e+02 7.450000000000000000e+02 7.460000000000000000e+02 7.470000000000000000e+02 7.480000000000000000e+02 7.490000000000000000e+02 7.500000000000000000e+02 7.510000000000000000e+02 7.520000000000000000e+02 7.530000000000000000e+02 7.540000000000000000e+02 7.550000000000000000e+02 7.560000000000000000e+02 7.570000000000000000e+02 7.580000000000000000e+02 7.590000000000000000e+02 7.600000000000000000e+02 7.610000000000000000e+02 7.620000000000000000e+02 7.630000000000000000e+02 7.640000000000000000e+02 7.650000000000000000e+02 7.660000000000000000e+02 7.670000000000000000e+02 7.680000000000000000e+02 7.690000000000000000e+02 7.700000000000000000e+02 7.710000000000000000e+02 7.720000000000000000e+02 7.730000000000000000e+02 7.740000000000000000e+02 7.750000000000000000e+02 7.760000000000000000e+02 7.770000000000000000e+02 7.780000000000000000e+02 7.790000000000000000e+02 7.800000000000000000e+02 7.810000000000000000e+02 7.820000000000000000e+02 7.830000000000000000e+02 7.840000000000000000e+02 7.850000000000000000e+02 7.860000000000000000e+02 7.870000000000000000e+02 7.880000000000000000e+02 7.890000000000000000e+02 7.900000000000000000e+02 7.910000000000000000e+02 7.920000000000000000e+02 7.930000000000000000e+02 7.940000000000000000e+02 7.950000000000000000e+02 7.960000000000000000e+02 7.970000000000000000e+02 7.980000000000000000e+02 7.990000000000000000e+02 8.000000000000000000e+02 8.010000000000000000e+02 8.020000000000000000e+02 8.030000000000000000e+02 8.040000000000000000e+02 8.050000000000000000e+02 8.060000000000000000e+02 8.070000000000000000e+02 8.080000000000000000e+02 8.090000000000000000e+02 8.100000000000000000e+02 8.110000000000000000e+02 8.120000000000000000e+02 8.130000000000000000e+02 8.140000000000000000e+02 8.150000000000000000e+02 8.160000000000000000e+02 8.170000000000000000e+02 8.180000000000000000e+02 8.190000000000000000e+02 8.200000000000000000e+02 8.210000000000000000e+02 8.220000000000000000e+02 8.230000000000000000e+02 8.240000000000000000e+02 8.250000000000000000e+02 8.260000000000000000e+02 8.270000000000000000e+02 8.280000000000000000e+02 8.290000000000000000e+02 8.300000000000000000e+02 8.310000000000000000e+02 8.320000000000000000e+02 8.330000000000000000e+02 8.340000000000000000e+02 8.350000000000000000e+02 8.360000000000000000e+02 8.370000000000000000e+02 8.380000000000000000e+02 8.390000000000000000e+02 8.400000000000000000e+02 8.410000000000000000e+02 8.420000000000000000e+02 8.430000000000000000e+02 8.440000000000000000e+02 8.450000000000000000e+02 8.460000000000000000e+02 8.470000000000000000e+02 8.480000000000000000e+02 8.490000000000000000e+02 8.500000000000000000e+02 8.510000000000000000e+02 8.520000000000000000e+02 8.530000000000000000e+02 8.540000000000000000e+02 8.550000000000000000e+02 8.560000000000000000e+02 8.570000000000000000e+02 8.580000000000000000e+02 8.590000000000000000e+02 8.600000000000000000e+02 8.610000000000000000e+02 8.620000000000000000e+02 8.630000000000000000e+02 8.640000000000000000e+02 8.650000000000000000e+02 8.660000000000000000e+02 8.670000000000000000e+02 8.680000000000000000e+02 8.690000000000000000e+02 8.700000000000000000e+02 8.710000000000000000e+02 8.720000000000000000e+02 8.730000000000000000e+02 8.740000000000000000e+02 8.750000000000000000e+02 8.760000000000000000e+02 8.770000000000000000e+02 8.780000000000000000e+02 8.790000000000000000e+02 8.800000000000000000e+02 8.810000000000000000e+02 8.820000000000000000e+02 8.830000000000000000e+02 8.840000000000000000e+02 8.850000000000000000e+02 8.860000000000000000e+02 8.870000000000000000e+02 8.880000000000000000e+02 8.890000000000000000e+02 8.900000000000000000e+02 8.910000000000000000e+02 8.920000000000000000e+02 8.930000000000000000e+02 8.940000000000000000e+02 8.950000000000000000e+02 8.960000000000000000e+02 8.970000000000000000e+02 8.980000000000000000e+02 8.990000000000000000e+02 9.000000000000000000e+02 9.010000000000000000e+02 9.020000000000000000e+02 9.030000000000000000e+02 9.040000000000000000e+02 9.050000000000000000e+02 9.060000000000000000e+02 9.070000000000000000e+02 9.080000000000000000e+02 9.090000000000000000e+02 9.100000000000000000e+02 9.110000000000000000e+02 9.120000000000000000e+02 9.130000000000000000e+02 9.140000000000000000e+02 9.150000000000000000e+02 9.160000000000000000e+02 9.170000000000000000e+02 9.180000000000000000e+02 9.190000000000000000e+02 9.200000000000000000e+02 9.210000000000000000e+02 9.220000000000000000e+02 9.230000000000000000e+02 9.240000000000000000e+02 9.250000000000000000e+02 9.260000000000000000e+02 9.270000000000000000e+02 9.280000000000000000e+02 9.290000000000000000e+02 9.300000000000000000e+02 9.310000000000000000e+02 9.320000000000000000e+02 9.330000000000000000e+02 9.340000000000000000e+02 9.350000000000000000e+02 9.360000000000000000e+02 9.370000000000000000e+02 9.380000000000000000e+02 9.390000000000000000e+02 9.400000000000000000e+02 9.410000000000000000e+02 9.420000000000000000e+02 9.430000000000000000e+02 9.440000000000000000e+02 9.450000000000000000e+02 9.460000000000000000e+02 9.470000000000000000e+02 9.480000000000000000e+02 9.490000000000000000e+02 9.500000000000000000e+02 9.510000000000000000e+02 9.520000000000000000e+02 9.530000000000000000e+02 9.540000000000000000e+02 9.550000000000000000e+02 9.560000000000000000e+02 9.570000000000000000e+02 9.580000000000000000e+02 9.590000000000000000e+02 9.600000000000000000e+02 9.610000000000000000e+02 9.620000000000000000e+02 9.630000000000000000e+02 9.640000000000000000e+02 9.650000000000000000e+02 9.660000000000000000e+02 9.670000000000000000e+02 9.680000000000000000e+02 9.690000000000000000e+02 9.700000000000000000e+02 9.710000000000000000e+02 9.720000000000000000e+02 9.730000000000000000e+02 9.740000000000000000e+02 9.750000000000000000e+02 9.760000000000000000e+02 9.770000000000000000e+02 9.780000000000000000e+02 9.790000000000000000e+02 9.800000000000000000e+02 9.810000000000000000e+02 9.820000000000000000e+02 9.830000000000000000e+02 9.840000000000000000e+02 9.850000000000000000e+02 9.860000000000000000e+02 9.870000000000000000e+02 9.880000000000000000e+02 9.890000000000000000e+02 9.900000000000000000e+02 9.910000000000000000e+02 9.920000000000000000e+02 9.930000000000000000e+02 9.940000000000000000e+02 9.950000000000000000e+02 9.960000000000000000e+02 9.970000000000000000e+02 9.980000000000000000e+02 9.990000000000000000e+02
1.000000000000000000e+00 1.000000000000000000e+00 1.000000000000000000e+00 1.000000000000000000e+00 1.000000000000000000e+00 1.000000000000000000e+00 1.000000000000000000e+00 1.000000000000000000e+00 1.000000000000000000e+00 1.000000000000000000e+00 1.000000000000000000e+00 1.000000000000000000e+00 1.000000000000000000e+00 1.000000000000000000e+00 1.000000000000000000e+00 1.000000000000000000e+00 1.000000000000000000e+00 1.000000000000000000e+00 1.000000000000000000e+00 1.000000000000000000e+00 1.000000000000000000e+00 1.000000000000000000e+00 1.000000000000000000e+00 1.000000000000000000e+00 1.000000000000000000e+00 1.000000000000000000e+00 1.000000000000000000e+00 1.000000000000000000e+00 1.000000000000000000e+00 1.000000000000000000e+00 1.000000000000000000e+00 1.000000000000000000e+00 1.000000000000000000e+00 1.000000000000000000e+00 1.000000000000000000e+00 1.000000000000000000e+00 1.000000000000000000e+00 1.000000000000000000e+00 1.000000000000000000e+00 1.000000000000000000e+00 1.000000000000000000e+00 1.000000000000000000e+00 1.000000000000000000e+00 1.000000000000000000e+00 1.000000000000000000e+00 1.000000000000000000e+00 1.000000000000000000e+00 1.000000000000000000e+00 1.000000000000000000e+00 1.000000000000000000e+00 1.000000000000000000e+00 1.000000000000000000e+00 1.000000000000000000e+00 1.000000000000000000e+00 1.000000000000000000e+00 1.000000000000000000e+00 1.000000000000000000e+00 1.000000000000000000e+00 1.000000000000000000e+00 1.000000000000000000e+00 1.000000000000000000e+00 1.000000000000000000e+00 1.000000000000000000e+00 1.000000000000000000e+00 1.000000000000000000e+00 1.000000000000000000e+00 1.000000000000000000e+00 1.000000000000000000e+00 1.000000000000000000e+00 1.000000000000000000e+00 1.000000000000000000e+00 1.000000000000000000e+00 1.000000000000000000e+00 1.000000000000000000e+00 1.000000000000000000e+00 1.000000000000000000e+00 1.000000000000000000e+00 1.000000000000000000e+00 1.000000000000000000e+00 1.000000000000000000e+00 1.000000000000000000e+00 1.000000000000000000e+00 1.000000000000000000e+00 1.000000000000000000e+00 1.000000000000000000e+00 1.000000000000000000e+00 1.000000000000000000e+00 1.000000000000000000e+00 1.000000000000000000e+00 1.000000000000000000e+00 1.000000000000000000e+00 1.000000000000000000e+00 1.000000000000000000e+00 1.000000000000000000e+00 1.000000000000000000e+00 1.000000000000000000e+00 1.000000000000000000e+00 1.000000000000000000e+00 1.000000000000000000e+00 1.000000000000000000e+00 1.000000000000000000e+00 1.000000000000000000e+00 1.000000000000000000e+00 1.000000000000000000e+00 1.000000000000000000e+00 1.000000000000000000e+00 1.000000000000000000e+00 1.000000000000000000e+00 1.000000000000000000e+00 1.000000000000000000e+00 1.000000000000000000e+00 1.000000000000000000e+00 1.000000000000000000e+00 1.000000000000000000e+00 1.000000000000000000e+00 1.000000000000000000e+00 1.000000000000000000e+00 1.000000000000000000e+00 1.000000000000000000e+00 1.000000000000000000e+00 1.000000000000000000e+00 1.000000000000000000e+00 1.000000000000000000e+00 1.000000000000000000e+00 1.000000000000000000e+00 1.000000000000000000e+00 1.000000000000000000e+00 1.000000000000000000e+00 1.000000000000000000e+00 1.000000000000000000e+00 1.000000000000000000e+00 1.000000000000000000e+00 1.000000000000000000e+00 1.000000000000000000e+00 1.000000000000000000e+00 1.000000000000000000e+00 1.000000000000000000e+00 1.000000000000000000e+00 1.000000000000000000e+00 1.000000000000000000e+00 1.000000000000000000e+00 1.000000000000000000e+00 1.000000000000000000e+00 1.000000000000000000e+00 1.000000000000000000e+00 1.000000000000000000e+00 1.000000000000000000e+00 1.000000000000000000e+00 1.000000000000000000e+00 1.000000000000000000e+00 1.000000000000000000e+00 1.000000000000000000e+00 1.000000000000000000e+00 1.000000000000000000e+00 1.000000000000000000e+00 1.000000000000000000e+00 1.000000000000000000e+00 1.000000000000000000e+00 1.000000000000000000e+00 1.000000000000000000e+00 1.000000000000000000e+00 1.000000000000000000e+00 1.000000000000000000e+00 1.000000000000000000e+00 1.000000000000000000e+00 1.000000000000000000e+00 1.000000000000000000e+00 1.000000000000000000e+00 1.000000000000000000e+00 1.000000000000000000e+00 1.000000000000000000e+00 1.000000000000000000e+00 1.000000000000000000e+00 1.000000000000000000e+00 1.000000000000000000e+00 1.000000000000000000e+00 1.000000000000000000e+00 1.000000000000000000e+00 1.000000000000000000e+00 1.000000000000000000e+00 1.000000000000000000e+00 1.000000000000000000e+00 1.000000000000000000e+00 1.000000000000000000e+00 1.000000000000000000e+00 1.000000000000000000e+00 1.000000000000000000e+00 1.000000000000000000e+00 1.000000000000000000e+00 1.000000000000000000e+00 1.000000000000000000e+00 1.000000000000000000e+00 1.000000000000000000e+00 1.000000000000000000e+00 1.000000000000000000e+00 1.000000000000000000e+00 1.000000000000000000e+00 1.000000000000000000e+00 1.000000000000000000e+00 1.000000000000000000e+00 1.000000000000000000e+00 1.000000000000000000e+00 1.000000000000000000e+00 1.000000000000000000e+00 1.000000000000000000e+00 1.000000000000000000e+00 1.000000000000000000e+00 1.000000000000000000e+00 1.000000000000000000e+00 1.000000000000000000e+00 1.000000000000000000e+00 1.000000000000000000e+00 1.000000000000000000e+00 1.000000000000000000e+00 1.000000000000000000e+00 1.000000000000000000e+00 1.000000000000000000e+00 1.000000000000000000e+00 1.000000000000000000e+00 1.000000000000000000e+00 1.000000000000000000e+00 1.000000000000000000e+00 1.000000000000000000e+00 1.000000000000000000e+00 1.000000000000000000e+00 1.000000000000000000e+00 1.000000000000000000e+00 1.000000000000000000e+00 1.000000000000000000e+00 1.000000000000000000e+00 1.000000000000000000e+00 1.000000000000000000e+00 1.000000000000000000e+00 1.000000000000000000e+00 1.000000000000000000e+00 1.000000000000000000e+00 1.000000000000000000e+00 1.000000000000000000e+00 1.000000000000000000e+00 1.000000000000000000e+00 1.000000000000000000e+00 1.000000000000000000e+00 1.000000000000000000e+00 1.000000000000000000e+00 1.000000000000000000e+00 1.000000000000000000e+00 1.000000000000000000e+00 1.000000000000000000e+00 1.000000000000000000e+00 1.000000000000000000e+00 1.000000000000000000e+00 1.000000000000000000e+00 1.000000000000000000e+00 1.000000000000000000e+00 1.000000000000000000e+00 1.000000000000000000e+00 1.000000000000000000e+00 1.000000000000000000e+00 1.000000000000000000e+00 1.000000000000000000e+00 1.000000000000000000e+00 1.000000000000000000e+00 1.000000000000000000e+00 1.000000000000000000e+00 1.000000000000000000e+00 1.000000000000000000e+00 1.000000000000000000e+00 1.000000000000000000e+00 1.000000000000000000e+00 1.000000000000000000e+00 1.000000000000000000e+00 1.000000000000000000e+00 1.000000000000000000e+00 1.000000000000000000e+00 1.000000000000000000e+00 1.000000000000000000e+00 1.000000000000000000e+00 1.000000000000000000e+00 1.000000000000000000e+00 1.000000000000000000e+00 1.000000000000000000e+00 1.000000000000000000e+00 1.000000000000000000e+00 1.000000000000000000e+00 1.000000000000000000e+00 1.000000000000000000e+00 1.000000000000000000e+00 1.000000000000000000e+00 1.000000000000000000e+00 1.000000000000000000e+00 1.000000000000000000e+00 1.000000000000000000e+00 1.000000000000000000e+00 1.000000000000000000e+00 1.000000000000000000e+00 1.000000000000000000e+00 1.000000000000000000e+00 1.000000000000000000e+00 1.000000000000000000e+00 1.000000000000000000e+00 1.000000000000000000e+00 1.000000000000000000e+00 1.000000000000000000e+00 1.000000000000000000e+00 1.000000000000000000e+00 1.000000000000000000e+00 1.000000000000000000e+00 1.000000000000000000e+00 1.000000000000000000e+00 1.000000000000000000e+00 1.000000000000000000e+00 1.000000000000000000e+00 1.000000000000000000e+00 1.000000000000000000e+00 1.000000000000000000e+00 1.000000000000000000e+00 1.000000000000000000e+00 1.000000000000000000e+00 1.000000000000000000e+00 1.000000000000000000e+00 1.000000000000000000e+00 1.000000000000000000e+00 1.000000000000000000e+00 1.000000000000000000e+00 1.000000000000000000e+00 1.000000000000000000e+00 1.000000000000000000e+00 1.000000000000000000e+00 1.000000000000000000e+00 1.000000000000000000e+00 1.000000000000000000e+00 1.000000000000000000e+00 1.000000000000000000e+00 1.000000000000000000e+00 1.000000000000000000e+00 1.000000000000000000e+00 1.000000000000000000e+00 1.000000000000000000e+00 1.000000000000000000e+00 1.000000000000000000e+00 1.000000000000000000e+00 1.000000000000000000e+00 1.000000000000000000e+00 1.000000000000000000e+00 1.000000000000000000e+00 1.000000000000000000e+00 1.000000000000000000e+00 1.000000000000000000e+00 1.000000000000000000e+00 1.000000000000000000e+00 1.000000000000000000e+00 1.000000000000000000e+00 1.000000000000000000e+00 1.000000000000000000e+00 1.000000000000000000e+00 1.000000000000000000e+00 1.000000000000000000e+00 1.000000000000000000e+00 1.000000000000000000e+00 1.000000000000000000e+00 1.000000000000000000e+00 1.000000000000000000e+00 1.000000000000000000e+00 1.000000000000000000e+00 1.000000000000000000e+00 1.000000000000000000e+00 1.000000000000000000e+00 1.000000000000000000e+00 1.000000000000000000e+00 1.000000000000000000e+00 1.000000000000000000e+00 1.000000000000000000e+00 1.000000000000000000e+00 1.000000000000000000e+00 1.000000000000000000e+00 1.000000000000000000e+00 1.000000000000000000e+00 1.000000000000000000e+00 1.000000000000000000e+00 1.000000000000000000e+00 1.000000000000000000e+00 1.000000000000000000e+00 1.000000000000000000e+00 1.000000000000000000e+00 1.000000000000000000e+00 1.000000000000000000e+00 1.000000000000000000e+00 1.000000000000000000e+00 1.000000000000000000e+00 1.000000000000000000e+00 1.000000000000000000e+00 1.000000000000000000e+00 1.000000000000000000e+00 1.000000000000000000e+00 1.000000000000000000e+00 1.000000000000000000e+00 1.000000000000000000e+00 1.000000000000000000e+00 1.000000000000000000e+00 1.000000000000000000e+00 1.000000000000000000e+00 1.000000000000000000e+00 1.000000000000000000e+00 1.000000000000000000e+00 1.000000000000000000e+00 1.000000000000000000e+00 1.000000000000000000e+00 1.000000000000000000e+00 1.000000000000000000e+00 1.000000000000000000e+00 1.000000000000000000e+00 1.000000000000000000e+00 1.000000000000000000e+00 1.000000000000000000e+00 1.000000000000000000e+00 1.000000000000000000e+00 1.000000000000000000e+00 1.000000000000000000e+00 1.000000000000000000e+00 1.000000000000000000e+00 1.000000000000000000e+00 1.000000000000000000e+00 1.000000000000000000e+00 1.000000000000000000e+00 1.000000000000000000e+00 1.000000000000000000e+00 1.000000000000000000e+00 1.000000000000000000e+00 1.000000000000000000e+00 1.000000000000000000e+00 1.000000000000000000e+00 1.000000000000000000e+00 1.000000000000000000e+00 1.000000000000000000e+00 1.000000000000000000e+00 1.000000000000000000e+00 1.000000000000000000e+00 1.000000000000000000e+00 1.000000000000000000e+00 1.000000000000000000e+00 1.000000000000000000e+00 1.000000000000000000e+00 1.000000000000000000e+00 1.000000000000000000e+00 1.000000000000000000e+00 1.000000000000000000e+00 1.000000000000000000e+00 1.000000000000000000e+00 1.000000000000000000e+00 1.000000000000000000e+00 1.000000000000000000e+00 1.000000000000000000e+00 1.000000000000000000e+00 1.000000000000000000e+00 1.000000000000000000e+00 1.000000000000000000e+00 1.000000000000000000e+00 1.000000000000000000e+00 1.000000000000000000e+00 1.000000000000000000e+00 1.000000000000000000e+00 1.000000000000000000e+00 1.000000000000000000e+00 1.000000000000000000e+00 1.000000000000000000e+00 1.000000000000000000e+00 1.000000000000000000e+00 1.000000000000000000e+00 1.000000000000000000e+00 1.000000000000000000e+00 1.000000000000000000e+00 1.000000000000000000e+00 1.000000000000000000e+00 1.000000000000000000e+00 1.000000000000000000e+00 1.000000000000000000e+00 1.000000000000000000e+00 1.000000000000000000e+00 1.000000000000000000e+00 1.000000000000000000e+00 1.000000000000000000e+00 1.000000000000000000e+00 1.000000000000000000e+00 1.000000000000000000e+00 1.000000000000000000e+00 1.000000000000000000e+00 1.000000000000000000e+00 1.000000000000000000e+00 1.000000000000000000e+00 1.000000000000000000e+00 1.000000000000000000e+00 1.000000000000000000e+00 1.000000000000000000e+00 1.000000000000000000e+00 1.000000000000000000e+00 1.000000000000000000e+00 1.000000000000000000e+00 1.000000000000000000e+00 1.000000000000000000e+00 1.000000000000000000e+00 1.000000000000000000e+00 1.000000000000000000e+00 1.000000000000000000e+00 1.000000000000000000e+00 1.000000000000000000e+00 1.000000000000000000e+00 1.000000000000000000e+00 1.000000000000000000e+00 1.000000000000000000e+00 1.000000000000000000e+00 1.000000000000000000e+00 1.000000000000000000e+00 1.000000000000000000e+00 1.000000000000000000e+00 1.000000000000000000e+00 1.000000000000000000e+00 1.000000000000000000e+00 1.000000000000000000e+00 1.000000000000000000e+00 1.000000000000000000e+00 1.000000000000000000e+00 1.000000000000000000e+00 1.000000000000000000e+00 1.000000000000000000e+00 1.000000000000000000e+00 1.000000000000000000e+00 1.000000000000000000e+00 1.000000000000000000e+00 1.000000000000000000e+00 1.000000000000000000e+00 1.000000000000000000e+00 1.000000000000000000e+00 1.000000000000000000e+00 1.000000000000000000e+00 1.000000000000000000e+00 1.000000000000000000e+00 1.000000000000000000e+00 1.000000000000000000e+00 1.000000000000000000e+00 1.000000000000000000e+00 1.000000000000000000e+00 1.000000000000000000e+00 1.000000000000000000e+00 1.000000000000000000e+00 1.000000000000000000e+00 1.000000000000000000e+00 1.000000000000000000e+00 1.000000000000000000e+00 1.000000000000000000e+00 1.000000000000000000e+00 1.000000000000000000e+00 1.000000000000000000e+00 1.000000000000000000e+00 1.000000000000000000e+00 1.000000000000000000e+00 1.000000000000000000e+00 1.000000000000000000e+00 1.000000000000000000e+00 1.000000000000000000e+00 1.000000000000000000e+00 1.000000000000000000e+00 1.000000000000000000e+00 1.000000000000000000e+00 1.000000000000000000e+00 1.000000000000000000e+00 1.000000000000000000e+00 1.000000000000000000e+00 1.000000000000000000e+00 1.000000000000000000e+00 1.000000000000000000e+00 1.000000000000000000e+00 1.000000000000000000e+00 1.000000000000000000e+00 1.000000000000000000e+00 1.000000000000000000e+00 1.000000000000000000e+00 1.000000000000000000e+00 1.000000000000000000e+00 1.000000000000000000e+00 1.000000000000000000e+00 1.000000000000000000e+00 1.000000000000000000e+00 1.000000000000000000e+00 1.000000000000000000e+00 1.000000000000000000e+00 1.000000000000000000e+00 1.000000000000000000e+00 1.000000000000000000e+00 1.000000000000000000e+00 1.000000000000000000e+00 1.000000000000000000e+00 1.000000000000000000e+00 1.000000000000000000e+00 1.000000000000000000e+00 1.000000000000000000e+00 1.000000000000000000e+00 1.000000000000000000e+00 1.000000000000000000e+00 1.000000000000000000e+00 1.000000000000000000e+00 1.000000000000000000e+00 1.000000000000000000e+00 1.000000000000000000e+00 1.000000000000000000e+00 1.000000000000000000e+00 1.000000000000000000e+00 1.000000000000000000e+00 1.000000000000000000e+00 1.000000000000000000e+00 1.000000000000000000e+00 1.000000000000000000e+00 1.000000000000000000e+00 1.000000000000000000e+00 1.000000000000000000e+00 1.000000000000000000e+00 1.000000000000000000e+00 1.000000000000000000e+00 1.000000000000000000e+00 1.000000000000000000e+00 1.000000000000000000e+00 1.000000000000000000e+00 1.000000000000000000e+00 1.000000000000000000e+00 1.000000000000000000e+00 1.000000000000000000e+00 1.000000000000000000e+00 1.000000000000000000e+00 1.000000000000000000e+00 1.000000000000000000e+00 1.000000000000000000e+00 1.000000000000000000e+00 1.000000000000000000e+00 1.000000000000000000e+00 1.000000000000000000e+00 1.000000000000000000e+00 1.000000000000000000e+00 1.000000000000000000e+00 1.000000000000000000e+00 1.000000000000000000e+00 1.000000000000000000e+00 1.000000000000000000e+00 1.000000000000000000e+00 1.000000000000000000e+00 1.000000000000000000e+00 1.000000000000000000e+00 1.000000000000000000e+00 1.000000000000000000e+00 1.000000000000000000e+00 1.000000000000000000e+00 1.000000000000000000e+00 1.000000000000000000e+00 1.000000000000000000e+00 1.000000000000000000e+00 1.000000000000000000e+00 1.000000000000000000e+00 1.000000000000000000e+00 1.000000000000000000e+00 1.000000000000000000e+00 1.000000000000000000e+00 1.000000000000000000e+00 1.000000000000000000e+00 1.000000000000000000e+00 1.000000000000000000e+00 1.000000000000000000e+00 1.000000000000000000e+00 1.000000000000000000e+00 1.000000000000000000e+00 1.000000000000000000e+00 1.000000000000000000e+00 1.000000000000000000e+00 1.000000000000000000e+00 1.000000000000000000e+00 1.000000000000000000e+00 1.000000000000000000e+00 1.000000000000000000e+00 1.000000000000000000e+00 1.000000000000000000e+00 1.000000000000000000e+00 1.000000000000000000e+00 1.000000000000000000e+00 1.000000000000000000e+00 1.000000000000000000e+00 1.000000000000000000e+00 1.000000000000000000e+00 1.000000000000000000e+00 1.000000000000000000e+00 1.000000000000000000e+00 1.000000000000000000e+00 1.000000000000000000e+00 1.000000000000000000e+00 1.000000000000000000e+00 1.000000000000000000e+00 1.000000000000000000e+00 1.000000000000000000e+00 1.000000000000000000e+00 1.000000000000000000e+00 1.000000000000000000e+00 1.000000000000000000e+00 1.000000000000000000e+00 1.000000000000000000e+00 1.000000000000000000e+00 1.000000000000000000e+00 1.000000000000000000e+00 1.000000000000000000e+00 1.000000000000000000e+00 1.000000000000000000e+00 1.000000000000000000e+00 1.000000000000000000e+00 1.000000000000000000e+00 1.000000000000000000e+00 1.000000000000000000e+00 1.000000000000000000e+00 1.000000000000000000e+00 1.000000000000000000e+00 1.000000000000000000e+00 1.000000000000000000e+00 1.000000000000000000e+00 1.000000000000000000e+00 1.000000000000000000e+00 1.000000000000000000e+00 1.000000000000000000e+00 1.000000000000000000e+00 1.000000000000000000e+00 1.000000000000000000e+00 1.000000000000000000e+00 1.000000000000000000e+00 1.000000000000000000e+00 1.000000000000000000e+00 1.000000000000000000e+00 1.000000000000000000e+00 1.000000000000000000e+00 1.000000000000000000e+00 1.000000000000000000e+00 1.000000000000000000e+00 1.000000000000000000e+00 1.000000000000000000e+00 1.000000000000000000e+00 1.000000000000000000e+00 1.000000000000000000e+00 1.000000000000000000e+00 1.000000000000000000e+00 1.000000000000000000e+00 1.000000000000000000e+00 1.000000000000000000e+00 1.000000000000000000e+00 1.000000000000000000e+00 1.000000000000000000e+00 1.000000000000000000e+00 1.000000000000000000e+00 1.000000000000000000e+00 1.000000000000000000e+00 1.000000000000000000e+00 1.000000000000000000e+00 1.000000000000000000e+00 1.000000000000000000e+00 1.000000000000000000e+00 1.000000000000000000e+00 1.000000000000000000e+00 1.000000000000000000e+00 1.000000000000000000e+00 1.000000000000000000e+00 1.000000000000000000e+00 1.000000000000000000e+00 1.000000000000000000e+00 1.000000000000000000e+00 1.000000000000000000e+00 1.000000000000000000e+00 1.000000000000000000e+00 1.000000000000000000e+00 1.000000000000000000e+00 1.000000000000000000e+00 1.000000000000000000e+00 1.000000000000000000e+00 1.000000000000000000e+00 1.000000000000000000e+00 1.000000000000000000e+00 1.000000000000000000e+00 1.000000000000000000e+00 1.000000000000000000e+00 1.000000000000000000e+00 1.000000000000000000e+00 1.000000000000000000e+00 1.000000000000000000e+00 1.000000000000000000e+00 1.000000000000000000e+00 1.000000000000000000e+00 1.000000000000000000e+00 1.000000000000000000e+00 1.000000000000000000e+00 1.000000000000000000e+00 1.000000000000000000e+00 1.000000000000000000e+00 1.000000000000000000e+00 1.000000000000000000e+00 1.000000000000000000e+00 1.000000000000000000e+00 1.000000000000000000e+00 1.000000000000000000e+00 1.000000000000000000e+00 1.000000000000000000e+00 1.000000000000000000e+00 1.000000000000000000e+00 1.000000000000000000e+00 1.000000000000000000e+00 1.000000000000000000e+00 1.000000000000000000e+00 1.000000000000000000e+00 1.000000000000000000e+00 1.000000000000000000e+00 1.000000000000000000e+00 1.000000000000000000e+00 1.000000000000000000e+00 1.000000000000000000e+00 1.000000000000000000e+00 1.000000000000000000e+00 1.000000000000000000e+00 1.000000000000000000e+00 1.000000000000000000e+00 1.000000000000000000e+00 1.000000000000000000e+00 1.000000000000000000e+00 1.000000000000000000e+00 1.000000000000000000e+00 1.000000000000000000e+00 1.000000000000000000e+00 1.000000000000000000e+00 1.000000000000000000e+00 1.000000000000000000e+00 1.000000000000000000e+00 1.000000000000000000e+00 1.000000000000000000e+00 1.000000000000000000e+00 1.000000000000000000e+00 1.000000000000000000e+00 1.000000000000000000e+00 1.000000000000000000e+00 1.000000000000000000e+00 1.000000000000000000e+00 1.000000000000000000e+00 1.000000000000000000e+00 1.000000000000000000e+00 1.000000000000000000e+00 1.000000000000000000e+00 1.000000000000000000e+00 1.000000000000000000e+00 1.000000000000000000e+00 1.000000000000000000e+00 1.000000000000000000e+00 1.000000000000000000e+00 1.000000000000000000e+00 1.000000000000000000e+00 1.000000000000000000e+00 1.000000000000000000e+00 1.000000000000000000e+00 1.000000000000000000e+00 1.000000000000000000e+00 1.000000000000000000e+00 1.000000000000000000e+00 1.000000000000000000e+00 1.000000000000000000e+00 1.000000000000000000e+00 1.000000000000000000e+00 1.000000000000000000e+00 1.000000000000000000e+00 1.000000000000000000e+00 1.000000000000000000e+00 1.000000000000000000e+00 1.000000000000000000e+00 1.000000000000000000e+00 1.000000000000000000e+00 1.000000000000000000e+00 1.000000000000000000e+00 1.000000000000000000e+00 1.000000000000000000e+00 1.000000000000000000e+00 1.000000000000000000e+00 1.000000000000000000e+00 1.000000000000000000e+00 1.000000000000000000e+00 1.000000000000000000e+00 1.000000000000000000e+00 1.000000000000000000e+00 1.000000000000000000e+00 1.000000000000000000e+00 1.000000000000000000e+00 1.000000000000000000e+00 1.000000000000000000e+00 1.000000000000000000e+00 1.000000000000000000e+00 1.000000000000000000e+00 1.000000000000000000e+00 1.000000000000000000e+00 1.000000000000000000e+00 1.000000000000000000e+00 1.000000000000000000e+00 1.000000000000000000e+00 1.000000000000000000e+00 1.000000000000000000e+00 1.000000000000000000e+00 1.000000000000000000e+00 1.000000000000000000e+00 1.000000000000000000e+00 1.000000000000000000e+00 1.000000000000000000e+00 1.000000000000000000e+00 1.000000000000000000e+00 1.000000000000000000e+00 1.000000000000000000e+00 1.000000000000000000e+00 1.000000000000000000e+00 1.000000000000000000e+00 1.000000000000000000e+00 1.000000000000000000e+00 1.000000000000000000e+00 1.000000000000000000e+00 1.000000000000000000e+00 1.000000000000000000e+00 1.000000000000000000e+00 1.000000000000000000e+00 1.000000000000000000e+00 1.000000000000000000e+00 1.000000000000000000e+00 1.000000000000000000e+00 1.000000000000000000e+00 1.000000000000000000e+00 1.000000000000000000e+00 1.000000000000000000e+00 1.000000000000000000e+00 1.000000000000000000e+00 1.000000000000000000e+00 1.000000000000000000e+00 1.000000000000000000e+00 1.000000000000000000e+00 1.000000000000000000e+00 1.000000000000000000e+00 1.000000000000000000e+00 1.000000000000000000e+00 1.000000000000000000e+00 1.000000000000000000e+00 1.000000000000000000e+00 1.000000000000000000e+00 1.000000000000000000e+00 1.000000000000000000e+00 1.000000000000000000e+00 1.000000000000000000e+00 1.000000000000000000e+00 1.000000000000000000e+00 1.000000000000000000e+00 1.000000000000000000e+00 1.000000000000000000e+00 1.000000000000000000e+00 1.000000000000000000e+00 1.000000000000000000e+00 1.000000000000000000e+00 1.000000000000000000e+00 1.000000000000000000e+00 1.000000000000000000e+00 1.000000000000000000e+00 1.000000000000000000e+00 1.000000000000000000e+00 1.000000000000000000e+00 1.000000000000000000e+00 1.000000000000000000e+00 1.000000000000000000e+00 1.000000000000000000e+00 1.000000000000000000e+00 1.000000000000000000e+00 1.000000000000000000e+00 1.000000000000000000e+00 1.000000000000000000e+00 1.000000000000000000e+00 1.000000000000000000e+00 1.000000000000000000e+00 1.000000000000000000e+00 1.000000000000000000e+00 1.000000000000000000e+00 1.000000000000000000e+00 1.000000000000000000e+00 1.000000000000000000e+00 1.000000000000000000e+00 1.000000000000000000e+00 1.000000000000000000e+00 1.000000000000000000e+00 1.000000000000000000e+00 1.000000000000000000e+00 1.000000000000000000e+00 1.000000000000000000e+00 1.000000000000000000e+00 1.000000000000000000e+00 1.000000000000000000e+00 1.000000000000000000e+00 1.000000000000000000e+00 1.000000000000000000e+00 1.000000000000000000e+00 1.000000000000000000e+00 1.000000000000000000e+00 1.000000000000000000e+00 1.000000000000000000e+00 1.000000000000000000e+00 1.000000000000000000e+00
7.962375472603526894e-04 5.617551555840252231e-01 -2.043932061062277705e-01 7.278628298774374450e-01 5.066800381626911376e-01 5.694889187059746227e-01 6.368560755540396690e-01 2.634377961779134081e-01 5.195631838132027669e-01 5.155089481836379051e-01 1.076928970615031345e+00 -6.737504308028590128e-01 1.392484714702528548e+00 4.466913006154897281e-01 5.108348578211433511e-01 3.974621594395080226e-01 9.075718199582133439e-01 9.718188366745804663e-01 6.690540048254833838e-01 5.207270812316847630e-01 4.255056317176580949e-01 9.770790707283036891e-01 4.757173123521190594e-01 4.620271480350615079e-01 1.108179246796027334e-01 6.808767121262593314e-01 3.633259550788712211e-01 6.014044470833332934e-01 5.307724485014848614e-01 1.543536778225793160e+00 5.316196901486576198e-01 6.132064777202045347e-01 7.206506632089924036e-01 4.868529456740238182e-01 7.127761143615352069e-01 4.506705265360879120e-01 5.531525407457245080e-01 1.746037099370695067e+00 -6.318914303004131983e-02 5.013799959098772518e-01 -1.412095840078304854e-01 -5.592452480774995349e-01 7.507702275040375461e-01 2.237316511731861635e-01 2.622821935156501305e-01 5.226546817421654501e-01 7.276929164925807214e-01 5.235754837095497605e-01 5.809048540480082901e-01 2.562227300780996198e-02 2.630691734969947855e-03 8.408492148896566931e-01 6.702440895310920466e-01 4.700813688955356451e-01 4.524553472492168771e-01 1.802547585924920218e-02 4.775560655517948061e-01 5.428124852353424235e-01 1.862333308664843590e-01 4.650951195959453499e-01 9.097347565982635276e-01 5.496168299318789918e-01 4.888795869442412179e-01 4.757171509340987203e-01 6.826416531603712867e-01 5.328240445401483116e-01 5.110031176050096047e-01 2.896313927540109523e-01 5.395031524013529367e-01 -8.233439187605865253e-03 4.098174028357575160e-01 4.835452089451467428e-01 5.233657222601325598e-01 3.649833876208299216e-02 1.494407280998902632e+00 5.587586742580079591e-01 6.324139797965963039e-01 7.412801621838299715e-01 5.126690369076781773e-01 1.379593263904454581e+00 5.370383103416774828e-01 2.920720588115811034e-01 1.374091645742510304e+00 6.811220977246804642e-01 4.863357042537522212e-01 7.575180441175939361e-01 8.149694637332479674e-01 5.466304341380373577e-01 4.053021748756841514e-01 5.754940884405267409e-01 2.673851345076816433e-01 2.141366702783230824e+00 7.185934869496438671e-01 -4.897949343155385410e-02 5.600601887807223900e-01 5.665798047623888944e-01 5.343088313703402426e-01 4.726264670155749803e-01 1.894878830392766889e-01 6.846540674384449243e-01 1.580523792949187989e+00 6.875751775575742464e-01 5.428719238025562221e-01 7.639047595274606195e-01 8.591714079017327421e-01 -2.016687165392903047e+00 -1.196198187030760973e+00 5.470106921995593341e-01 5.624866173702847139e-01 9.727790582276202302e-01 5.298514262512301620e-01 4.625932323978975136e-01 1.659351597774903209e-01 4.749850460146401998e-01 5.180501757645707972e-01 5.112860939568344421e-01 5.256402345228097239e-01 5.532755769763603171e-01 8.774817007712230055e-01 5.116718373789478358e-01 1.293056245133709981e+00 5.612823645545276241e-01 5.477430026976348731e-01 -3.685798798060141990e-01 5.151965333378427658e-01 1.925799581472939837e+00 5.546387051856596084e-01 4.967377528771769746e-01 6.872930830444583528e-01 5.099284247403008674e-01 5.273790875576676029e-01 5.067258661537118458e-01 4.122744482901459784e-01 2.763237540848997864e-01 -2.272860999557297090e-01 -1.556535889935339034e-01 6.224518766304950601e-01 4.170483642432435550e-02 9.927277909871207173e-01 6.712864902008912615e-01 5.214829268458225364e-01 8.577565736040718702e-01 6.435258673653897477e-01 5.964462439391413628e-01 5.148136213055692911e-01 3.599131846731697809e-02 8.768645416661493552e-01 8.569420052011419986e-02 4.712530804305084531e-01 -8.647798126900003712e-01 7.777807672007037709e-01 -2.984680718855105552e-01 5.226557315268210990e-01 5.372428077497594101e-01 4.870756187895099454e-01 5.086840971636176212e-01 1.885242891144203403e+00 -6.559486333904013255e-02 8.088957713369924196e-01 6.989762895527201758e-01 5.159102604324323771e-01 4.207135102796056847e-01 5.158131053123975462e-01 5.113572806117743230e-01 1.088972839508924650e+00 1.547908189430639292e-01 8.454680538582296512e-01 4.242564566467786902e-01 5.848168491450325135e-01 6.216553108681173168e-01 4.446400590074701675e-01 7.281913827246734305e-01 5.226671887427323249e-01 5.139706511110884168e-01 4.060751805639867262e-01 2.523271364110131476e-02 1.795005768049502959e-01 7.880292751509912486e-02 7.398920278314561338e-01 1.140314999915479355e+00 7.142139820196404809e-01 5.042666148256821357e-01 -1.847328647658186551e-01 4.596890200407504068e-01 6.704686116335224488e-01 5.244557821137256770e-01 5.239975061044577220e-01 5.073855529090135486e-01 2.738750139135720296e+00 5.404612874911139953e-01 5.159306113420322193e-01 -8.666276010772809846e-01 5.281742803923479279e-01 5.735341090749283000e-01 1.799026224673770102e-01 5.134909536941900665e-01 9.272357039671462742e-01 5.269412682287732963e-01 6.714903401256989701e-01 4.191327080742370259e-01 6.181644109894725014e-01 5.527941402068284882e-01 9.572046209145067541e-01 5.997731160775847670e-01 5.432476353696666926e-01 6.714904090519512314e-01 2.798831526683419058e-01 1.279268346026031011e+00 5.059084105662642328e-01 3.624774409131290565e-01 4.431230125364888361e-01 -6.857264001600488212e-02 4.728420059875843018e-01 1.627814332983727741e-01 4.973916178487484685e-01 5.108624547367693891e-01 5.045435128785179524e-01 5.186449925039191555e-01 5.112560948625968216e-01 5.154262144426765557e-01 4.469011433412736212e-01 6.122251677063418329e-01 -6.960122401226566113e-01 5.715695702775830389e-01 3.274550008302646864e-01 3.962252226928688059e-01 1.465974139997228143e-01 1.279637218739057225e+00 9.500050866706660768e-01 5.013133662197057916e-01 -1.044454536837695485e-01 1.047250872066886052e+00 5.091107442317002185e-01 4.487250644690380375e-01 4.911396096117669474e-01 4.168297760676065722e-01 4.018714297982639017e-01 1.979321138107787148e-01 -1.463971675511262227e-01 -1.180993178448902503e-01 3.213781014830236482e-01 5.111826062522074610e-01 -9.922787719685642605e-02 4.637942315268290261e-01 5.042098501027908464e-01 4.570311019414006748e-01 -1.040081191053160159e-01 7.446402096594955111e-01 -2.211973248987846752e+00 5.933555289001890554e-01 -5.528591848701690514e-01 4.962592044382849732e-01 5.100096685860285861e-01 4.757168843738260322e-01 4.737816730510727714e-01 5.376513213807493363e-01 5.229465792092923282e-01 7.370146909491918086e-01 5.404342572742523165e-01 1.682737009292783581e+00 6.728761646457813717e-01 6.968414763186686622e-01 5.047209594721102643e-01 3.471145174275310774e-01 9.097347796269030784e-01 3.812959494437856423e-01 2.630350175444835958e+00 5.505520220971892309e-01 2.414309238174284222e-01 6.874121601702835038e-01 5.163787547823553981e-01 9.097208559817585583e-01 5.142202443294701109e-01 5.390002183429632998e-01 5.120774251364128560e-01 1.063021455422811679e+00 7.633295756484641537e-01 8.665758425471030701e-01 8.099591824958084496e-01 3.608914193210607246e-01 6.748240432330259164e-01 5.546215948136118401e-01 3.950130971996164142e-01 -7.012244506715444858e-01 3.821739867853051198e-01 6.824354384036716015e-01 5.514452345585438842e-01 5.447363858266734971e-01 5.112860930727530784e-01 6.063722507756889035e-01 5.453758022834505059e-01 -7.752187683518856343e-01 6.921320106294982510e-01 5.180952919031298620e-01 5.331111734448031741e-02 5.415645252160509182e-01 1.841697352348894201e+00 4.951960005018022359e-01 5.143469200155995624e-01 4.712657041893617005e-01 -3.345327995629963969e+00 5.190162403283823389e-01 2.714697628975868859e+00 7.282326625586443836e-01 4.975101969281927605e-01 -5.812884751058041699e-01 5.129712987529031487e-01 5.120696224949737863e-01 4.321305832377195788e-01 4.604708740162141156e-01 3.811589761125486753e-01 6.362625554115980409e-01 3.148391495711345689e-01 5.173235173520762675e-01 5.195395819932770998e-01 3.654154037420141443e-01 5.195548923617918646e-01 7.282533110627077422e-01 5.128871058762252133e-01 1.188548891733105961e+00 9.592258136472603391e-03 2.202368344510514664e+00 2.602757976547653396e+00 5.450144037146709142e-01 -1.970740745178102549e-01 4.587165798514410420e-01 4.048483824585851210e-01 7.224372586439601340e-01 1.361016721503917060e+00 5.384159179456250444e-01 1.118044003402016262e+00 5.138221779326038741e-01 1.286598587828339524e-01 1.244590797553989825e+00 3.940437058156058270e-01 5.070690050856911935e-01 5.320050918808050255e-01 8.741854221860846375e-01 -3.619480909152846593e+00 1.612170376871432387e+00 5.552519342106817524e-01 6.395558294638387098e-01 5.087482714917059834e-01 1.746037102218223724e+00 3.100948102791678540e-01 5.373714959588850038e-01 5.017669690833143070e-01 4.255699659713616523e-01 1.382388079150232763e+00 6.174858478102093207e-01 6.714904380666389949e-01 4.637893716423704960e-01 5.997731170121067823e-01 6.401315916607698275e-01 5.608625843112646780e-01 8.896861104947095811e-01 5.103573850464699913e-01 3.951236927647607811e-01 2.281230563722432825e-01 6.445824317790816993e-01 5.061808479452036824e-01 4.518770667668974839e-01 5.373714890977799863e-01 6.618725411273083115e-01 5.102123513816329003e-01 9.938701296394747420e-01 1.000641740326576379e+00 1.119700551305551128e+00 5.153680344278288583e-01 2.434686629064763963e-01 9.097348778188837359e-01 -1.086880135773790473e-01 9.330489081104720306e-01 6.271450424189752848e-01 1.092306643893783263e-02 5.636700816069758480e-01 9.958437644313872239e-01 3.920427105377153332e-01 5.291055233654272660e-01 2.699230937197357738e-01 -3.295120286080163718e-01 -2.417239970898908741e+00 4.697783411509494633e-01 5.997731161400561284e-01 5.997730900050060043e-01 5.245964628571710975e-01 4.555405024583727425e-01 -2.057780984275513481e-01 3.364033625924077731e-01 5.208946174751108993e-01 6.459049014542579403e-01 5.108906654523387436e-01 1.061206846762576816e+00 6.714902487224480021e-01 5.102378878099701476e-01 4.741739775823001768e-01 2.662433966031011456e-01 6.477926345935487440e-01 5.204511021687092676e-01 5.110076732363023622e-01 5.586047103850365625e-01 2.708711574421265311e-01 2.539395369406843850e-02 5.997731170438767023e-01 6.559116653122871732e-01 5.139875652353489421e-01 4.401886501652067518e-01 8.571162273278774002e-01 6.625114193038527111e-01 5.630006844708900227e-01 1.809201245652670265e+00 5.230078091990855160e-01 -2.974342944470363737e+00 7.274287936219455686e-01 1.501223405110722053e+00 5.011271528761879201e-01 -1.037302097514128496e+00 7.087678592795639831e-01 4.703437094958002329e-01 5.152830275997637433e-01 5.140032268883746314e-01 -2.719879502005758121e-01 5.085084393876100339e-01 1.063810768483284042e+00 6.234948071663057867e-01 -3.208928870837658986e-01 5.115886378882277263e-01 5.161825266062295414e-01 7.659347498501601903e-01 5.337880807860080346e-01 4.972440674098493330e-01 -5.032699354103975509e-01 5.626899633452588922e-01 5.127130045334654662e-01 7.075318270707933177e-01 4.826224043860004032e-01 7.640817231071557192e-01 5.103675296840842757e-01 5.715792867866331672e-01 7.171835764593509355e-01 5.514931320640191759e-01 3.371441824613158333e-01 2.667300720122612878e-01 3.119476179739457122e-01 9.534730848179090446e-01 5.452610927803027696e-01 3.151829394605600410e+00 6.606523751985777793e-01 6.021291865644766705e-01 5.598575206922695724e-01 6.314405434205243584e-01 2.775789048445505280e-02 4.830590775170749418e-01 5.915238484054462509e-01 5.247596147454269833e-01 1.165466164999165333e+00 7.644082918522736581e-01 5.262157378156131493e-01 4.518669601238967659e-01 1.114223155821641775e+00 5.236129794093004053e-01 5.352855349388454531e-01 5.048177326393699094e-01 7.188790257789858806e-01 5.062106344142804915e-01 9.183054592379981118e-01 4.829957702492367333e-01 5.117080442672620189e-01 8.798701763111173996e-03 5.320024645822822862e-01 3.118644223364928567e-02 3.623738521533528267e-01 4.184286214513490698e-01 5.525274687833170439e-01 7.706369835515229916e-01 5.152463168163781138e-01 4.006856488605755606e-01 4.748257322030059041e-02 5.567192763710117065e-01 5.434306226790103223e-01 5.205412374621994909e-01 4.752761430587375269e-02 5.075743140701554079e-01 2.467250687778384521e-01 5.139573718094474497e-01 4.305451449298540179e-01 1.249896913668357978e+00 7.908700144887059746e-01 5.181743097510210783e-01 2.768259238547437495e-01 6.317246742523415781e-01 4.188340363364962404e-01 9.859975196620983651e-01 5.837896083225154742e-01 5.343569181400263934e-01 6.840111778731795544e-01 1.964796624053440244e+00 4.535137341915890241e-01 4.168202054705286153e-01 5.139308955909410725e-01 6.920690909303160998e-01 4.380245998600813540e-01 8.224724244211216728e-01 -5.624398234179321943e-01 3.183997401993724496e-01 5.427238876448556848e-01 4.356433664402360462e-01 3.718499415964111043e-01 -5.977822362731104455e-01 3.904406723585451822e-01 5.074043043266699415e-01 7.390795413048175666e-01 6.639366304081479875e-01 1.418747661234352808e+00 5.089106244565438919e-01 5.027589991863010699e-01 -6.796723802005363302e-01 4.990644481351616535e-01 1.197149854250078249e+00 6.934055897748410136e-01 2.522811191685463417e-01 2.834302891662324742e-01 -1.565384802354845117e+00 4.861772142765318216e-01 1.919738015877153481e-01 1.091606843931052895e+00 8.118702939550336284e-01 5.154296749292028856e-01 5.055261540633603223e-01 6.213062924881510574e-01 7.274485028449387825e-01 4.694241291866766974e-01 5.651055037570696937e-01 2.454609874764832056e-02 5.072673422094376994e-01 6.266239430183119241e-01 6.478425485488272795e-01 4.981440916715738076e-01 5.888175516703133550e-01 1.184726561212133600e+00 -1.096653234654994119e-01 -2.264947231208937206e-01 4.501937681932837720e-01 5.421210639088240857e-01 5.611123029089366554e-01 5.273818367313121147e-01 -8.298396361547542011e-01 3.116848199160422439e+00 5.915112611865180892e-01 4.584337098046118442e-01 4.124324276343851459e-01 5.117531415846025000e-01 5.163311542956360300e-01 6.349398629989004839e-01 3.271968988132090694e-01 5.775391110201870681e-01 5.107314491148670088e-01 6.516440414355721966e-01 3.738743364088401577e-01 5.166553213812928869e-01 5.263472985239089352e-01 4.062750782687309936e-01 4.706969958007001797e-01 5.479319310463013348e-01 6.432337661771081461e-01 9.990145718485909931e-01 2.289474477050455370e+00 5.745785122641317022e-01 4.939379391276230713e-01 5.411123924217676739e-01 5.416554777965352230e-01 3.639884283100262574e-01 5.082854714132257756e-01 5.123453486120441713e-01 5.464041579126454051e-01 4.766477704955418004e-01 4.842322481776765164e-01 7.278539738572491480e-01 3.695453041634696456e-01 5.643338470111725069e-01 5.227089660269469418e-01 5.781221486011954847e-01 1.260149115086542371e-01 9.097347733077499887e-01 5.453959599180862039e-01 1.468078601652114679e-01 1.907070942224424082e+00 2.678366347856754870e-01 4.624867522954795862e-01 5.845965897003085887e-01 6.042788151686397796e-02 5.245311047984098085e-01 1.496681244017211920e+00 7.500265849290222997e-01 7.870340501587849147e-01 5.089085454103461359e-01 5.447126123268734021e-01 5.026742419198360068e-01 6.216407029296929787e-01 5.040944161707022753e-01 5.106596942209277179e-01 -1.585841212239493536e-01 5.856087286803923764e-01 -1.369716454447791554e+00 5.356685152340979750e-01 4.920646237026552461e-01 5.549246008469806979e-01 4.712778010023636055e-01 9.097347733596942154e-01 2.265980871187881218e-01 5.663893194581334223e-01 1.310123299756715154e+00 -5.323397489715073760e-01 5.160704666635886895e-01 1.116151978245563559e+00 1.475423976516877067e+00 3.935109255800726125e-01 5.170073916372229794e-01 -4.459777841609592619e-02 -1.638479011121135809e+00 2.835563899835010782e-01 7.332164863426409163e-01 5.264387323028170140e-01 5.152926681835773293e-01 4.773093190440310107e-01 4.883063299832777204e-01 -3.885098702392498771e-01 8.088093548560282287e-01 5.112860922735271707e-01 3.433324552970196675e-01 5.481742437854136840e-01 -2.307403400979878352e-02 -1.758547447952409915e-01 1.752074772529442104e+00 4.169638856149164297e-01 4.444720343154879849e-01 5.127709997794963614e-01 3.323246423224454626e-01 6.230963504107412954e-01 -1.713989554477277424e-02 -9.969558503276906292e-01 5.129934981437777042e-01 5.093868357155603155e-01 4.965152469406163838e-01 5.963667165520181168e-01 5.555324988686392018e-01 5.416738041223689848e-01 5.268384291835359612e-01 5.813746931426369002e-01 1.023954221317638913e+00 7.283782235454033804e-01 5.552511949997159801e-01 5.476327785090999711e-01 4.650708392034043070e-01 4.243917960714401749e-01 4.153377044370735148e-03 5.373714906531137370e-01 5.513531560822152455e-01 4.603276849506039436e-01 7.441706538216591449e-01 9.688636203842625472e-01 8.224816901859086649e-01 -4.663927724111974205e-01 5.555853609195576803e-01 5.178489948595000891e-01 5.175984765200615234e-01 5.740274267174036993e-01 8.964722294729294827e-01 5.510234327971249568e-01 4.983069737984760494e-01 -2.030731401765474564e-01 -8.381996931885563606e-01 2.248783973345219511e+00 5.221708800363555891e-01 8.871971736482461290e-01 4.810429089711866224e-01 5.676755367746766368e-01 3.612342120612001550e-01 1.488582359487546358e-01 5.100921331686034677e-01 5.440956194964875481e-01 3.059122077879365340e-03 5.103254235186891474e-01 4.242241242781308874e-01 4.999785510500507901e-01 7.428183317333550972e-01 5.050632567237419712e-01 5.871679024127245405e-01 3.875545968006680608e-01 5.298862615842637735e-01 3.533280765693020409e-01 5.088110208357699005e-01 4.459625547084226649e-01 5.257804542838222517e-01 -2.930615795761463693e-01 5.064574883801699068e-01 6.430383820105549653e-01 5.365310332540041971e-01 7.278749559934076796e-01 9.097348547541638242e-01 7.351591227729009637e-01 -5.795203624152091004e-01 9.933821162168200436e-01 1.746037099395562953e+00 4.762245882164350408e-01 4.638773336615739651e-01 1.068026627936470963e+00 5.355996995794156668e-01 7.278923629643350157e-01 5.104906853852492210e-01 1.781577810503873982e+00 5.167130575349888622e-01 4.637932076456938724e-01 1.233948631611579527e+00 -5.185401062427494323e-02 5.445192856745804111e-01 -1.685545888133350434e-01 -9.335934683041950954e-01 -1.761210891931025979e-01 7.804870365334991567e-01 5.364915050556228193e-01 5.715966820184549269e-01 -3.350342377920256798e-01 5.145331503247860816e-01 1.597739309963515375e-02 -3.472765438108198488e-01 4.619759977290226471e-01 5.101590557225031963e-01 5.155957838780248492e-01 5.687292538360887439e-01 5.640765927523436751e-01 9.011359668822529478e-01 -3.794093076241762952e-01 5.058313381133041631e-01 5.686352805951871980e-01 6.274801519342707579e-01 1.157638015166953638e+00 5.170885803835193473e-01 6.096406888980551164e-01 5.061089605647142164e-01 2.320854815629027831e-02 -2.714104513406330188e-01 5.183898009692187170e-01 5.058324210697198176e-01 6.608245090401428934e-01 5.120689498933777006e-01 3.350280983818418323e-01 5.111380784709878000e-01 5.131014761413343894e-01 3.355535196054567626e-01 5.096075387530334400e-01 8.370473857650279070e-01 2.515903871155328542e+00 -2.353664164200605369e-01 6.680248871099438990e-01 3.397418130613245046e-01 2.226307189112697593e-01 6.855025205163547408e-01 -5.661050167783518439e-02 -1.480711993210130695e+00 5.188483083885915281e-01 2.576576815633105255e+00 5.019574516305217449e-01 1.460779758334781742e-01 1.812078493513796518e-01 5.112860938016511314e-01 5.568540706558442466e-01 1.535023674255460602e+00 4.872282735093958483e-01 1.256318283155286319e-01 4.451601118944701341e-01 1.661527515300931457e+00 5.715291376038212912e-01 7.101795295924564488e-01 5.281316979648768006e-01 7.421870056334327614e-01 4.530448184913162812e-01 5.607328630661887470e-01 1.036347992275617712e-02 5.064369950487969119e-01 5.407784127643384675e-01 -5.622813715526358003e-01 -2.979597141305983729e-02 1.167832827400183904e+00 2.348324419477970937e-01 4.928595572086990617e-01 6.721207849014870783e-01 5.461179697889504414e-01 1.985139045382016354e+00 7.073996672024617238e-01 2.864178006818494590e-02 2.598628910225465605e-01 4.061590901678363008e-01 1.093671827823548881e+00 5.448240282801706247e-01 -2.085698660075173752e-02 4.984747845706403169e-01 -2.394322732131795931e-02 5.205711495083434892e-01 5.053886606676425419e-01 9.416817099418418879e-03 -7.130916205537327079e-02 6.653584279563996562e-01 6.224749363801620472e-01 5.272016666637909799e-01 3.068510114488812168e-01 5.247261466616832681e-01 4.822318629011688174e-01 5.682363192528946394e-01 5.511878294578747006e-01 4.818288100450092704e-01 6.405276437451088434e-01 1.012826108445648465e+00 3.079969607530126829e+00 8.917692947688462546e-01 5.220638836986875031e-01 6.533853971236427416e-01 2.107009745448724380e-01 5.104649388402171528e-01 8.345339114645625722e-01 4.827029094766647210e-01 1.315808189784157145e+00 5.014606615590221361e-01 -5.626549526923091404e-01 -1.134898085038218117e-02 4.165944671469499205e-01 6.107608931760810655e-01 5.365007418488936253e-01 5.071735003520565499e-01 -1.625396996998104389e-03 5.080795395249134705e-01 3.923583320703472044e-01 -3.542300037937890167e+00 4.900212560952276752e-01 5.249682874172009184e-01 1.116928127558898032e+00 5.162936323728460897e-01 5.927775777051967898e-01 6.796176109168630131e-01 -8.591394395057577738e-01 -5.068458409219089855e-01 5.562529800313745915e-02 5.113410399995625966e-01 4.074585342866093307e-01 2.257102236496007497e-01 4.869755603249413256e-01 -3.296487758599710438e-01 6.541941288387336240e-01 5.483010479436795093e-01 6.932677354001116621e-01 5.346513957315096599e-01 4.771987242163584497e-01 1.660539107673178472e-01 -7.281852939778545863e-01 6.490428969668987635e-01 5.171519643148978496e-01 1.667024413528817306e-01 5.102309108792735248e-01 5.871319954076236192e-01 4.951098613813774141e-01 6.690248245859015119e-01 5.661212426698368771e-01 5.364838132930767056e-01 4.976720516648587833e-01 1.746037099515209023e+00 3.721919081774889837e-01 5.520489512659108033e-01 -1.041317743857675809e-01 5.371773601263210018e-01 6.188428135344761216e-01 5.158965964223394263e-01 5.026909057713740969e-01 3.472096215516374262e-01 8.962686714396854715e-01 1.176297029317041165e+00 5.576932331663194686e-01 5.551622097541151213e-01 5.951439436975590747e-01 4.639001225224672065e-01 5.257707315722106589e-01 5.123596367547352814e-01 9.933928811469113773e-01 7.317198664573770772e-01 -4.474518407148694310e-01 4.429925518952324559e-01 9.202107818753060275e-01 4.869047957916683989e-01 -5.574038887020552405e-04 5.297856142777602750e-01 1.183525099440833950e+00 -1.381851466468272949e-01 5.373275147493088433e-01 2.530042405679259754e-01 5.452763771761878209e-01 8.075444894880416946e-01 5.097215848612378641e-01 3.664145778004596066e-01 1.388983566005392634e+00 5.158046127440135686e-01 5.213754829163647075e-01 -6.108472211490563186e-01 4.615143410175234218e-01 1.044152513945121319e+00 5.833105204208646200e-01 1.064175026875995023e-01 9.438254736303181014e-01 -6.413816102569075417e-02 5.481363459569436047e-01 1.583065454496032531e+00 -8.486933308229900330e-01 5.326725205507466532e-01 5.089560908192214406e-01 -4.337883245291115353e-01 3.376723631023017536e-01 5.627727040748508047e-01 4.649044857863998126e-01 5.314728202298261150e-01 3.485416049085637846e-01 2.641719599320697109e-01 3.472636629753054760e-01 5.330231524579829294e-01 5.107637678647466428e-01 3.868047189421494007e-03 -5.591387714660599889e-02 5.042794555676911594e-01 1.058085092455197440e+00 3.959993907059065621e-01 -5.619534438607540761e-01 5.574784013085706258e-01 5.111732046085587511e-01 4.771458692223718434e-01 2.564909321422373725e-02 3.425340507133127765e-01 5.093516575736627416e-01 4.996406082454323827e-01 4.555815717224502848e-01 4.683034992441698768e-02 4.428432968805366965e-01 5.039354543608851600e-01 6.606497280477114931e-01 2.062976110129832286e+00 2.623148425213565893e-02 3.812742413236008820e-01 4.696770334662273561e-01 1.807578211016337200e+00 5.379496767195808271e-01 4.903650026944413876e-01 1.407705570795677631e-02 5.373714937264612024e-01 5.206309673954446771e-01 4.700556760941507761e-01 3.814600435095749087e-01 5.228814017675923465e-01 5.776215910772606321e-01 5.426092257065722180e-01 -5.037809528015588789e-01 5.111530210792860629e-01 5.128521767819935739e-01 5.043633877730248072e-01 9.589150168704831945e-01 5.006935262767766570e-01 -2.388073841600524827e-01 1.041578400961660655e+00 -1.216595744372524157e+00 -5.017896181322559768e-01 5.110937158113776357e-01 5.144913397370286523e-01 6.477912138578435508e-01 5.248070395839897762e-01 3.612065100088909797e-01 6.262826221965867024e-01 5.373714935943272319e-01 5.127634950654297308e-01 6.016143342509843173e-01 5.726412399915569162e-01 5.112435219718409751e-01 2.821212376359140128e-01 4.916977561672427610e-01 4.495911938595984481e-01 3.613072539689892726e-01 5.005592697847665029e-01 5.080814127971536864e-01 5.459422873075532312e-01 6.339549032475482182e-01 5.177528139532457940e-01 6.523976440410830246e-01 4.743448516122095171e-01 5.012378442022845659e-01 5.467332027829792107e-01 3.312281187065586607e-01 4.520617059050988096e-01 2.358783322353777301e+00 5.727327100877770416e-01 5.619967959466843910e-01 3.248633159063312736e-01 5.787100728196027388e-01 1.104362910300722866e+00 5.661553355424356893e-01 7.148580570651161814e-01 5.105279314787676270e-01
6.809151139902764882e-01 2.495934411541808340e-01 4.074446786690352762e-01 4.638574899473624918e-02 3.213765180543772249e-01 2.933378982143295954e-01 5.264086734482623653e-01 4.544589851390846702e-01 2.149607177420019832e-01 3.358160631395505358e-01 2.022879493151198638e+00 1.694596589190322966e+00 -1.411507276812185463e+00 6.229291738890510022e-01 3.145392394347142351e-01 3.852470167253357336e-01 1.283386939748211442e-01 4.218610843914186170e-01 4.484290714034668834e-01 3.086249334491538154e-01 4.729907371244189140e-01 2.077454675788667604e+00 4.025894818683469212e-01 3.648166057697085352e-01 7.049098732933406497e-01 -2.623381840760877215e-01 4.682737817249104650e-01 2.583735599271506644e-01 2.847330173071883075e-01 -8.340555258229874758e-01 2.317234161037738105e-01 -9.855988736727994137e-02 2.894417734675481246e-01 2.527714901145476922e-01 -4.290426856423327773e-01 4.237789826227187362e-01 3.072101382663557367e-01 -3.243264640585380443e-01 -3.168015358200159337e+00 2.979328097967674505e-01 1.107180336704212120e+00 1.387015978541012440e-01 -1.630597058951661349e-01 7.914378946677177451e-01 6.550008405525593602e-01 2.773227808129012928e-01 4.650674815052558558e-02 3.007819317530011083e-01 2.729336138189127903e-01 7.147271311516808501e-01 6.934955194139361678e-01 4.511477481695378988e-01 -2.800219060367424850e-01 1.976156376985627461e-01 6.051145000931289486e-01 6.835304196596526660e-01 3.402449966554988436e-01 2.788254327307984060e-01 3.480436159302193189e-01 3.401191770359214828e-01 4.227054890971725376e-01 3.435543431819095828e-01 3.221841354959472103e-01 4.025894997889591931e-01 -3.458309911269975556e-01 2.203068044845474527e-01 3.284785802939654276e-01 3.407754919399407223e-01 2.511287635173902744e-01 7.308468588510363961e-01 1.176155804061351090e-01 3.265053111863281954e-01 2.938195421961557474e-01 7.123494977825604035e-01 1.889035931108740574e+00 5.159248746288371823e-01 4.663330813695492627e-01 4.785047134179454265e-01 3.125141997640624725e-01 -1.314651530791252521e+00 2.850891748157631245e-01 6.435503087964866697e-01 2.247327606266541267e+00 1.290569659206660946e-01 2.844744144792418217e-01 -4.304345650886566843e-01 1.192001527243273240e-01 2.845998756702188270e-01 -5.687416390590437354e-01 -8.620293529651323894e-01 6.545976964410429311e-01 1.542226240911564794e+00 1.062460351743089310e-01 7.068905634953942529e-01 2.956942057630189691e-01 2.990112907425215849e-01 2.761227438175756221e-01 7.228321526044191314e-01 7.389724170424674110e-01 -2.642601621749728347e-01 -1.648502741335160227e-01 5.654482241677993154e-02 2.854598672850209296e-01 2.170571205645808466e-01 1.696121348804166540e-02 3.035886373294497620e+00 -2.768657733111558605e-01 6.570564158685653078e-02 2.065472753103153036e-01 8.064865705062828072e-01 2.288879849280110734e-01 3.964974875251245923e-01 1.711344650766832842e-01 4.798581236629245184e-01 -4.942708166750630072e-01 2.050334150475383310e-01 3.408082152275246357e-01 3.835737951243926580e-01 9.581426768271489314e-01 3.239952512333326151e-01 -1.425962623286556319e+00 2.698179189776241382e-01 2.272810103692392836e-01 1.288667353542321869e+00 2.969360600780083792e-01 2.128794435125546780e+00 1.707499907679990991e-01 3.827510914616953919e-01 2.920712853470074921e-01 3.302104825274442268e-01 2.523891302002491677e-01 3.173272760375008827e-01 6.717026417362013113e-01 4.005081921906543663e-01 1.847776740779616400e-01 8.837108723458737547e-01 6.935112604046436147e-01 7.257246595264391642e-01 -3.275908343389765109e-01 1.970071207634050692e-01 3.286761236327204183e-01 3.213025227385438720e-01 2.291534807530392903e-01 3.275234172071087024e-01 3.102913065918273539e-01 6.959163154643611682e-01 -1.118212518709926218e-01 3.184356155939061517e-01 4.480166543818217550e-01 3.944879450199133553e-01 -2.880183011639817492e-01 2.007848660832773149e-02 2.773257622743989792e-01 2.823167052818255085e-01 3.706430560907914562e-01 3.119806184689989936e-01 -2.222478711832358567e+00 4.434592071909166378e-01 -5.824621082124191718e-01 -2.626990482161369878e-01 3.635436566828120775e-01 1.906494580028124108e-01 3.295099465856420329e-01 3.098147161975301489e-01 1.073625919536869561e-01 5.627625623148044265e-02 3.137919715364661521e-01 3.978223583165546584e-01 2.541047139993105053e-01 3.699988095106971908e-01 1.879859506916969070e-01 4.685432989314163021e-02 2.773481034784087695e-01 3.137828028043924133e-01 -2.456629786732906773e+00 7.192662440947715785e-01 6.375680092317362879e-01 9.832713647876617502e-01 -4.516650801576287955e-01 1.167697839071384580e+00 -2.288874425067474044e-02 3.389789491508800601e-01 1.224947594266521111e+00 2.543218486972168013e-01 3.033153756379292632e-01 2.582557735359624074e-01 2.640305304628507987e-01 2.961444939326596248e-01 -4.541835097413524647e-01 3.703853707726594280e-01 1.985790793683753497e-01 8.004933378056333648e-01 3.036437367859418091e-01 2.202860071561739963e-01 2.205266918404146514e-01 3.205080875086913639e-01 -1.605061766793113298e+00 3.011603017401149329e-01 1.823900823472813237e-01 3.489381325940006384e-01 1.252834931822645881e-01 2.952654831978950845e-01 3.751495968648178581e-01 1.264857664589376651e-01 -8.054084245095451955e-01 1.823900491348307562e-01 4.456204417763688919e-01 -5.013092211309229107e-01 3.347005642782218682e-01 1.527093120594220921e-01 2.673816830953912871e-01 -3.172668644005846250e+00 4.328151970947609617e-01 9.386111591575232449e-01 3.106793676376602420e-01 3.284773254214435889e-01 3.209274116881566385e-01 2.974674821508890288e-01 3.118146906350330871e-01 3.100879800198492187e-01 3.178522852156626111e-01 1.940342529395941706e-01 6.562382579535395166e-01 1.489836520816163745e-01 5.282330398887046252e-01 4.399499919010020355e-01 3.793303608394256732e-01 -6.288506216239398983e-01 2.227685894311990822e+00 3.766418539858947812e-01 1.225431895519103698e+00 -1.374917968690616110e+00 3.173650480103651361e-01 2.014175493819376772e-01 3.465668988915368565e-01 1.139776837425292122e+00 4.709662658524087497e-01 7.880617199832441466e-01 2.774177006948422286e-01 6.705139710990487556e-01 3.420352886133111725e-01 3.051877350208987982e-01 -1.141008004122392228e+00 3.400923620482159127e-01 3.215525553440539697e-01 4.622830323760587778e-01 9.192842614672480650e-01 -3.339986299964765593e-01 3.061608964533587329e+00 4.570583847312199022e-01 1.207363424365872850e+00 -8.331973909946363555e-02 3.306123143097248196e-01 4.025896804099576287e-01 3.030901153210120436e-01 2.974261108963971445e-01 3.452371422650310495e-01 -8.217536942566032454e-02 1.637789483176764760e-01 5.604714722550048212e-01 2.898311458363403981e-01 9.083338162950985173e-02 2.766907532381300827e-01 3.201410333678555986e-01 4.227054814493468871e-01 2.712788289320700597e-01 3.148578892345382574e+00 3.824202857954931978e-01 6.562070813185894025e-01 5.442662795662657205e-01 3.418532085247302232e-01 4.226823641399543030e-01 3.113716435964424822e-01 2.610862871441603228e-01 3.128102577208218826e-01 -4.958166701360466888e-01 4.783919586833094151e-01 2.855302719179172999e-01 1.137505402536850563e-01 2.362072688306322554e-01 1.508186709128139125e+00 2.261691593947881551e-01 2.762369516303720407e-01 1.974791073889099469e+00 4.893639279882296411e-01 3.520084199634846422e-01 2.762199502293270492e-01 2.939297300988719663e-01 2.050334131123774106e-01 -2.038893467362885126e+00 2.855632370334447723e-01 1.459191644355319672e+00 1.357139593914035922e-02 2.290843873976064204e-01 7.156445533453462682e-01 2.502447396940350455e-01 -7.095893773602390819e-01 4.437501994156363150e-01 3.166002179592259935e-01 4.480550251531852379e-01 -3.751449253684276397e-01 2.993384507218978530e-01 -2.098410091755484874e+00 4.689591654725832476e-02 3.288302843274558129e-01 6.074730434292143766e-01 3.097454135568816769e-01 3.143383701525724883e-01 4.431214558920438806e-01 2.246330399584181570e-01 -1.275295503827704457e-01 -7.493385869118415199e-01 6.577469122723915082e-03 6.794162030533594798e-01 3.004842444804464718e-01 4.796148497343447614e-01 3.111121861006980183e-01 4.684787529472735773e-02 3.077508664533323279e-01 2.391685046860100083e+00 6.943992613112245360e-01 2.464793908654509813e-01 -1.126421167690768721e+00 2.209204422471630624e-01 4.555334938695276392e+00 3.165953397907042000e-01 -1.020808176080102436e-01 5.679503857759986563e-01 -5.443693430099226127e+00 4.980768737952598890e-01 1.508437256023044348e+00 3.078107940548459043e-01 5.434224621328610505e-01 -4.301426632180668785e-01 3.530922634836121121e-01 3.122354224656783694e-01 3.422829286724257680e-01 2.563087819732059458e-01 2.850524261760695399e+00 -3.601548019711698911e-01 2.589839733064722704e-01 -1.886847088171956344e+00 2.866295755824858627e-01 -3.243264677012573927e-01 7.377322877765786213e-01 5.559779703836383868e-01 3.571984953844971056e-01 3.441085183261295422e-01 1.288094119578258478e+00 1.344167613589236088e-01 1.823900075600514425e-01 3.400980674698964035e-01 1.264857645853990631e-01 2.467572329137258103e-01 3.987446937312801865e-01 -5.951836495347732070e-01 3.148543127872198144e-01 5.304213783479209132e-01 3.658641420173421865e-01 1.725235906266259223e-01 3.223736797887361560e-01 4.400054971997073294e-01 5.559779922489401782e-01 3.490927268523995597e-01 3.152624493995738741e-01 2.080221162737651563e-01 4.585261338985339719e-01 3.293630236210721929e+00 3.121137449516118156e-01 1.725195701233883661e-01 4.227054995312964358e-01 8.557300973077364148e-01 4.625433049136831176e-01 -1.892410813217341725e-01 6.941960761768130039e-01 2.290372510593683686e-01 1.116049157622814314e-01 3.864318794328701068e-01 6.482954713292250482e-01 6.643770809729561133e-01 7.699888800629633989e-01 8.051168266995103462e-01 3.871836520381097824e-01 1.264857663838075685e-01 1.264858107069536386e-01 3.552486359276229022e-01 1.071692395956515831e-01 1.120048442104869757e+00 4.162377300703555827e-01 3.262130254183631117e-01 3.834721646571240261e-01 3.147309467222639823e-01 7.879349129605320856e-01 1.823902531395752147e-01 3.166335551613744803e-01 4.357520636855113927e-01 3.093152590388894008e-01 -6.285857908966026031e-01 2.989801569880816690e-01 3.118768192788231031e-01 3.552777606400224220e-01 7.047447227976897377e-01 7.468150809665820011e-01 1.264857647120463946e-01 3.591431495157405146e-02 3.143739308342039518e-01 4.150787849504328775e-01 -5.886839835678694399e-01 2.178701895526305721e-01 -3.427224878770202654e+00 1.890639096392324303e+00 6.203486454824768126e-01 -4.343692295260413450e-01 4.632174441871918236e-02 2.017327389089059952e+00 3.215629433744180421e-01 6.286187737532294983e-01 6.024120173641978743e-02 2.798224004268289877e-01 4.619626462291724356e-01 3.265137725763016530e-01 -4.014648080765160776e-01 2.611940486417711482e-01 2.016060201794335427e+00 3.487471284105902458e-01 -3.892604799514439717e-01 2.565109172464738463e-01 3.024259914489655365e-01 -1.437275465976321387e+00 2.802910737393187746e-01 2.986623675704325187e-01 4.026330622502103940e-01 2.287074305352633785e-01 3.118558175482064598e-01 2.402251836830121834e-01 3.208351883325416543e-01 -1.598745464794810445e-01 3.139652342618037273e-01 1.489403467690934846e-01 3.408813465589672909e-01 2.645763706557049955e-01 2.906384384576599436e-02 4.491308359200492095e-01 6.330754784968423143e-01 -1.343801283720983619e+00 -4.738728248882133065e-01 -1.031450284686335067e-01 4.169883553898732359e-02 3.194799438772014111e-01 4.234557869566189514e-01 3.624071815899144178e-01 7.172184235823554355e-01 -9.470684648057083044e-02 3.298202429681142966e-01 2.942790349614987644e-01 9.157580528493687588e-02 -1.601049744454157986e-01 3.323843952926595624e-01 4.303816214037865517e-01 4.784557709979199158e-01 2.997352620517612087e-01 2.862932990278342915e-01 3.224908750828747728e-01 2.618430211979212441e-01 3.252007916199875504e-01 5.159094675151150167e-01 4.298984054355792783e-01 3.112098946704030533e-01 6.946648790134936080e-01 2.973201133843387800e-01 7.112745002542000261e-01 1.136445524853719885e-01 4.763174371891665815e-01 2.137980461855747416e-01 -1.427142506194840621e+00 3.047292299074205180e-01 6.410373487768109557e-01 3.926896431446874058e-01 2.542427534027617009e-01 2.856948569851345265e-01 3.086840652731585033e-01 7.061154175660778742e-01 3.222671798291020240e-01 3.588339009322304429e-01 3.122027328192512052e-01 2.958285322504479731e-01 2.236300053411018895e-01 5.283842319326174097e-01 2.949773091200320052e-01 2.799492492706388558e-01 2.107364181306422002e-01 3.725357598485889293e-02 1.601195191957030861e+00 3.340402666289232769e-01 3.748688112437927322e-01 3.718018486509024889e-01 -8.165186133913137079e-01 4.384628264197309999e-01 3.496355640220280558e-01 5.331085453691709608e-01 1.414355241700733859e-02 3.350912274701963178e-01 1.482357114154644329e+00 8.847116016642124769e-01 3.830682335479903000e-01 2.585384714083452939e-01 3.942609684804977421e-01 3.201353859910234245e-01 9.055241311421653450e-01 2.970723272481132771e+00 3.209826908261999567e-01 6.433296677211752801e-02 5.962699914548592606e-01 -1.582072743690490779e-01 3.144898181114415547e-01 3.042158804749892642e-01 1.049376607099445691e+00 3.364775052553165002e-01 -3.030029109732903514e-01 3.674658974745572126e-01 1.125331665759116834e-01 6.645160260267221064e-01 1.666940188536629952e+00 3.812828126714513655e-01 2.338409762216691334e-01 1.640273536272107702e+00 4.162433565825869874e-01 2.862413875636366511e-01 2.840460658680187822e-01 3.678659492215876070e-01 4.686276015637328568e-02 4.237112617773482470e-01 2.339115834013855699e-01 7.183536645581836133e-01 3.102841994815028759e-01 3.437495159735245442e-01 2.978959988370569745e-01 4.603190126535210425e-01 2.655851188801280349e-01 2.514118689833489961e-01 9.258990414501016009e-01 4.998720740924956774e-01 3.773183512875560863e-01 2.893079744940658671e-01 3.171509131075415655e-01 3.258185909446121298e-01 5.821725139661407811e-01 7.632814365453866046e-01 3.085439931145486647e-01 2.733802787537881196e-01 3.947619985526067965e-01 3.084675981845141912e-01 7.461171681513324438e-01 2.061801733092462063e-01 4.343949816085712623e-01 -3.173324905285577202e-01 3.167698177374757562e-01 2.319953113061043182e-01 4.029800330991141211e-01 3.547020881135561909e-01 2.259747413263026583e-01 1.736471721759330400e+00 1.464103545802098449e-01 2.864223235158649961e-01 -1.404548624813793667e-01 1.589235384662668782e+00 1.134645838099325177e+00 8.054440337283025331e-02 -4.644962593248756488e-01 3.221417745270297450e-01 3.379237105648478234e-01 5.142416240300321517e-01 3.139548071804043605e-01 3.082134624594929373e-01 2.003099966689321776e-01 3.320113867181709311e-01 3.604701111746493880e-01 4.655097716828067445e-02 -1.654540216644513895e-01 3.864293645464267346e-01 3.717773936992015971e-01 1.897229881733130119e-01 8.536507303462728125e-01 4.227054834618042545e-01 2.180269366066712178e-01 8.191857355322970102e-01 4.763249267763324801e-01 6.547513378398589490e-01 4.265354511091346001e-01 6.839419086530537095e-01 1.455200406993801376e+00 3.071145887717459666e-01 2.025992151607468372e+00 -1.222847544231390332e-02 1.314863908478295096e-01 3.194204273997783283e-01 2.873973471771475441e-01 3.125654086387039121e-01 3.700093675025716289e-01 3.294261570613976620e-01 3.180830970783395939e-01 3.516177653506862288e-01 1.807504725735905871e-01 -2.731073119112590319e-01 2.991418893959479908e-01 -7.759029669169592580e-02 2.565266460147560545e-01 4.481258428360503920e-01 4.227054834039744580e-01 1.959578251416173034e-01 2.486584843897386710e-01 -1.176063069559091900e+00 1.917423551765281120e+00 3.115514407966120669e-01 -6.848485067403000670e-01 2.981100972108504665e-01 3.157175934489490632e-01 3.115324555527386186e-01 -4.648078747967866242e+00 3.452437066010377364e+00 6.169907727577795820e-01 1.165932298476523438e-01 3.382117504639804428e-01 3.107714478502791589e-01 3.310763024569338686e-01 2.556216165950790042e+00 6.125915746259801287e-01 3.207742861345420082e-01 2.050334010458758904e-01 2.381003568183257535e-01 2.878998906959404080e-01 8.763395272335409159e-01 -3.795613185265726552e-01 -1.128187408607232989e+00 -1.177521303969444766e+00 3.196374906422556617e-01 3.132740323226164691e-01 7.008193229135489810e-01 3.291178452689639267e-01 1.249292299350514668e+00 4.591245043989969910e-01 3.059325639320373269e-01 2.991191085415814688e-01 2.953343126064427171e-01 2.677481542861454011e-01 2.583975304918938454e-01 6.532276972009651850e-01 2.843667343072029952e-01 6.337321181921194979e-01 2.136308058512682573e-01 1.816173519760365049e-02 2.584717699223482712e-01 2.173144894712931152e-01 3.294616455022790213e-01 3.585268631776569737e-01 7.106965585517880379e-01 5.559779874432557722e-01 4.853095468428874071e-01 3.942551672079001035e-01 3.201742822340842842e-01 2.525048155196464861e-01 1.482376823624357520e+00 1.810918940123396936e+00 2.572865656506326815e-01 3.342984333772879846e-01 3.043993008288641278e-01 1.827731637297472789e-01 2.402261542493244473e-01 1.909124929383112235e-01 3.454319010765747322e-01 3.196509279428566552e-01 7.857407452702540596e-01 8.606696025025127872e-01 2.579335831711042637e-01 1.825876832299510033e+00 1.745093543883096954e-01 -1.372492193730788235e-01 -2.700662413869996392e-01 -3.255645041433369302e-01 3.166351648157335053e-01 2.847344065330665863e-01 7.037872271451427464e-01 3.195075429565640834e-01 4.484540927121940523e-01 3.006498461103567776e-01 3.795036989713959086e-01 4.069429346288765403e-01 5.707086371343090409e-02 1.023085389440943738e+00 3.055814068808980211e-01 4.965796688465147768e-01 3.137878165991436208e-01 3.635547233589782601e-01 2.996797617538571323e-01 3.856361148656525240e-01 -1.232908626179998052e-01 2.236759313672786742e-01 2.991751026200454855e-01 4.636962973670789162e-02 4.227053362745595844e-01 1.121992937497588771e+00 9.390097941890920286e-01 -7.400983629461116431e-01 -3.243264640697056667e-01 6.369951238587190367e-01 -3.235545161334870468e+00 1.549434799907242866e+00 2.847411202616443315e-01 4.601337682214100278e-02 3.178263365353268255e-01 8.647115144833685818e-01 3.119512384108166225e-01 3.400928790339531882e-01 -4.351721330871241578e-01 8.295987965491408156e-01 2.656061825655734454e-01 8.891601354709726124e-01 2.049564498725755524e+00 -3.796766908882503455e-01 -1.420660059251894536e+00 2.941118366958977437e-01 2.406747815116936084e-01 7.820219155868750605e-01 3.050494133371847161e-01 6.981434640430548288e-01 4.689569726515910308e-01 1.359412638986935429e-01 3.056754942404401598e-01 3.486823533756010507e-01 2.201440882688150136e-01 3.655404487571515260e-01 1.368126295038535778e+00 1.574221252769042012e+00 3.161649898491074029e-01 2.545876253530494071e-01 1.726302577217852380e-02 -2.326911788140124671e-01 1.965725563752553084e-01 2.417308681063288361e-02 3.169911935191797592e-01 7.029965359165917249e-01 -4.027206288314550409e-01 3.042110538598581382e-01 3.428161814896991122e-01 1.603843427401757948e-01 3.155733687975386670e-01 2.830048302270158356e-01 3.154524084878683743e-01 3.116398333536723464e-01 -3.415642596342126358e-02 2.432355024195473336e-01 4.426605236583668890e-01 1.097712235826383109e+00 1.094831948982530667e+00 9.409119553159721594e-01 1.963749722003235165e-01 7.632344845498005848e-01 1.189759419826336706e-01 4.499570004502386755e-01 -2.038701731230822656e+00 2.888205014627018286e-01 6.487034561839944979e-01 2.782928061260268593e-01 9.588239629675454623e-01 1.350090933939232185e+00 2.050334140230718194e-01 3.016800513363143144e-01 3.716014437249119395e-01 2.085739393322101065e-01 5.577057435461072465e-01 7.863186617364436026e-01 -7.375314913910834269e-01 1.425499283729601829e-01 1.392176609238022500e-01 3.047268201451422409e-01 3.440628351146813313e-01 7.680152726808918695e-01 -1.419642867996258606e-01 3.849183412064370313e-01 3.199169505124415669e-01 2.582675943007206043e-01 8.851225035808402142e-01 4.204348288784063303e-01 -2.016862680944179753e-01 8.592891170990816230e-01 -4.280734103365175375e-02 5.723371004439471443e-01 2.850446094371610339e-01 1.269352024339274854e+00 5.342262248575925243e-01 7.166203057092432882e-01 4.344817829255312458e-01 4.758282956601320168e-01 -5.042788222643170837e-01 2.954534908923381886e-01 7.629770247106648640e-01 2.962033121010790859e-01 6.488413025938741807e-01 3.443318667747892192e-01 3.197152906572665598e-01 7.328195731652793476e-01 1.187805526712611554e-01 -2.007682410042740617e+00 3.093773991113873967e-01 2.787292488163737869e-01 7.186920671061555188e-01 3.859350319751390090e-01 3.889267753723058552e-01 2.480191655094762804e-01 2.394364883997079085e-01 3.598971561168598510e-01 2.012084741236037921e-02 -1.602984126040847945e+00 7.405846589098826760e-01 2.677968265863392427e-01 3.003893403663944750e-01 1.855725782852578332e-01 8.240699624400150691e-01 3.086523017068627528e-01 -1.251417252535182711e-01 3.112044388718379073e-01 1.112497232015192683e+00 3.180167057645789663e-01 4.142970940530210644e-01 1.066945717667287852e+00 3.071480220131644345e-01 2.689640271759868639e+00 2.728421194497446800e-01 3.225895574521754905e-01 6.896291659615975123e-01 3.223463772953580331e-01 2.831186460879008271e-01 -1.997978141800335283e+00 3.654942395523832488e-01 2.939305862379802403e-01 5.110831965852804526e-01 2.951291356601614679e-01 3.389136236804469737e-01 -2.571670395072536697e-01 2.008840179811256732e+00 -5.205254882561638485e-01 8.269493617815967257e-01 3.119052982686335573e-01 3.943903217062461053e-01 7.461023909805054588e-01 3.476287609835077563e-01 1.310404701398763194e+00 1.545622707262339357e-01 2.951563118207679026e-01 -8.759018073431448226e-01 -1.263133164642072370e-01 -2.365277115736451052e-01 -3.784804837530946209e+00 2.878620829244173507e+00 8.357710772850887593e-02 2.953376291797810138e-01 -1.571638463683707077e+00 3.080150448723287804e-01 1.844602068252448324e-01 3.429120494145988518e-01 1.319710209829489667e-01 6.369161544924338836e-01 5.902604616378673841e-01 9.709372902592848797e-01 -3.243264641320508512e-01 -2.100269654101923067e-01 2.084966412799290070e-01 -1.168920917841018037e+00 2.816917578414769308e-01 -6.256418471254723279e-01 3.490288233725668543e-01 4.836830361873303286e-01 3.804713790239554888e-02 4.124985162611075062e-01 2.745504189625101454e-01 -1.133860388254423202e-01 2.049229022930668942e-01 3.058854409170082556e-01 3.459964255062518701e-01 3.128798139083973084e-01 3.112951454559422237e-01 -7.399008294914829476e-01 5.825337872527680538e-01 1.522862886744040800e+00 5.295278938501420812e-02 2.427792860459342672e-01 4.138285742282451496e-01 1.215431046588459907e+00 2.875653713269208933e-01 1.673363176696344434e-01 8.977637829507656431e-01 3.330921502675423529e-01 1.820997043243988367e+00 3.988390968878876008e-01 1.164433446990341237e+00 3.152906254830843413e-01 7.368776953447567779e-01 1.339013209664665638e+00 2.956526102534833833e-01 3.995302181023709376e-01 9.005613104630477705e-01 -1.836562720199981236e-01 -4.671388837065659771e-02 1.455042630630190292e-01 2.946340952455372975e-01 3.426407360768023436e-01 1.410500648722773920e-01 2.580843503100824776e-01 -3.432563833938928055e-01 1.292439102231161430e+00 2.651392576482495267e-01 3.151435460770193320e-01 -3.070147974016725456e+00 4.725613928761232541e-01 3.872472549003295184e-01 4.702978401384237395e-01 4.375315497227949546e-01 5.070494387519658419e-01 -1.026980722793837453e+00 5.867909450635701019e-01 2.667854626124973594e-01 3.097656503728407063e-01 1.047013814482042227e+00 4.415456516271770160e-01 3.275826480154220288e-01 -1.376231180960464373e+00 4.626293583011716337e-01 8.852308376561036640e-01 2.961059135666380682e-01 3.116230174196189529e-01 2.985694555354772017e-01 6.940593011584955674e-01 -8.770157489583642330e-02 3.192829001322673999e-01 3.376389110247249303e-01 6.622235294469980271e-02 7.153629329459806341e-01 3.604219727142460861e-01 7.429914161108760462e-01 1.786674346494172005e-01 6.835177538574944700e-01 -2.022252686607464711e-01 -1.498736718511287869e+00 3.481392280231306868e-01 -1.392856568304701864e-02 2.999523840286392184e-01 3.002287373808097959e-01 5.676748138025612678e-02 5.559779853327210253e-01 3.053058472884137564e-01 8.854643199553346999e-02 4.584594791953943704e-01 3.200917853399791735e-01 2.966174121028425370e-01 2.708060978555465459e-01 -7.971532578516360434e-01 3.218927381908883723e-01 3.384522912810822848e-01 3.351823691364779201e-01 -6.841257415103764450e-02 3.207397591947441229e-01 7.881818373514039022e-01 -4.751446964076443402e-01 1.082648957290770486e+00 5.991184916863758758e-01 3.316500482542036332e-01 3.094940062912191481e-01 -2.010868894174519195e+00 2.940601161190122825e-01 1.783021751220216500e-01 2.245032806629017885e-01 5.559779943855618356e-01 3.136099275605480075e-01 2.616585345524811146e-01 1.306220962383433937e-01 3.120870928061985627e-01 4.351723536558149141e-01 4.255338875804852150e-01 3.972798208868097980e-01 3.054191482928516055e-01 3.107819886909168883e-01 3.282932002400820726e-01 2.856524856516087785e-01 5.355404488049734547e-03 3.108814532609535664e-01 5.783720898801832933e-01 2.315223200262197800e-01 2.965471378524862089e-01 -1.165954056249491472e-01 1.203802112548612580e-01 4.743016927793211046e-01 4.306546084274229358e+00 2.596806378062057608e-01 1.464867014779477894e-01 5.088509126467916088e-01 2.250419009442641005e-01 1.524493713327854882e+00 3.090966240886259264e-01 6.639903930391308773e-01 3.125121675002463517e-01
