# 
#                 ----------------------------------------------------
#                 Data from a 3D direct N-body simulation. 
# 
#                 rows are i-particle; 
#                 coumns are :mass, tag, x ,y, z, vx, vy, vz, ax, ay, az
# 
#                 NTHU, Computational Physics 
# 
#                 ----------------------------------------------------
#                 Time = 0.0
0.000000000000000000e+00 1.000000000000000000e+00 2.000000000000000000e+00 3.000000000000000000e+00 4.000000000000000000e+00 5.000000000000000000e+00 6.000000000000000000e+00 7.000000000000000000e+00 8.000000000000000000e+00 9.000000000000000000e+00 1.000000000000000000e+01 1.100000000000000000e+01 1.200000000000000000e+01 1.300000000000000000e+01 1.400000000000000000e+01 1.500000000000000000e+01 1.600000000000000000e+01 1.700000000000000000e+01 1.800000000000000000e+01 1.900000000000000000e+01 2.000000000000000000e+01 2.100000000000000000e+01 2.200000000000000000e+01 2.300000000000000000e+01 2.400000000000000000e+01 2.500000000000000000e+01 2.600000000000000000e+01 2.700000000000000000e+01 2.800000000000000000e+01 2.900000000000000000e+01 3.000000000000000000e+01 3.100000000000000000e+01 3.200000000000000000e+01 3.300000000000000000e+01 3.400000000000000000e+01 3.500000000000000000e+01 3.600000000000000000e+01 3.700000000000000000e+01 3.800000000000000000e+01 3.900000000000000000e+01 4.000000000000000000e+01 4.100000000000000000e+01 4.200000000000000000e+01 4.300000000000000000e+01 4.400000000000000000e+01 4.500000000000000000e+01 4.600000000000000000e+01 4.700000000000000000e+01 4.800000000000000000e+01 4.900000000000000000e+01 5.000000000000000000e+01 5.100000000000000000e+01 5.200000000000000000e+01 5.300000000000000000e+01 5.400000000000000000e+01 5.500000000000000000e+01 5.600000000000000000e+01 5.700000000000000000e+01 5.800000000000000000e+01 5.900000000000000000e+01 6.000000000000000000e+01 6.100000000000000000e+01 6.200000000000000000e+01 6.300000000000000000e+01 6.400000000000000000e+01 6.500000000000000000e+01 6.600000000000000000e+01 6.700000000000000000e+01 6.800000000000000000e+01 6.900000000000000000e+01 7.000000000000000000e+01 7.100000000000000000e+01 7.200000000000000000e+01 7.300000000000000000e+01 7.400000000000000000e+01 7.500000000000000000e+01 7.600000000000000000e+01 7.700000000000000000e+01 7.800000000000000000e+01 7.900000000000000000e+01 8.000000000000000000e+01 8.100000000000000000e+01 8.200000000000000000e+01 8.300000000000000000e+01 8.400000000000000000e+01 8.500000000000000000e+01 8.600000000000000000e+01 8.700000000000000000e+01 8.800000000000000000e+01 8.900000000000000000e+01 9.000000000000000000e+01 9.100000000000000000e+01 9.200000000000000000e+01 9.300000000000000000e+01 9.400000000000000000e+01 9.500000000000000000e+01 9.600000000000000000e+01 9.700000000000000000e+01 9.800000000000000000e+01 9.900000000000000000e+01 1.000000000000000000e+02 1.010000000000000000e+02 1.020000000000000000e+02 1.030000000000000000e+02 1.040000000000000000e+02 1.050000000000000000e+02 1.060000000000000000e+02 1.070000000000000000e+02 1.080000000000000000e+02 1.090000000000000000e+02 1.100000000000000000e+02 1.110000000000000000e+02 1.120000000000000000e+02 1.130000000000000000e+02 1.140000000000000000e+02 1.150000000000000000e+02 1.160000000000000000e+02 1.170000000000000000e+02 1.180000000000000000e+02 1.190000000000000000e+02 1.200000000000000000e+02 1.210000000000000000e+02 1.220000000000000000e+02 1.230000000000000000e+02 1.240000000000000000e+02 1.250000000000000000e+02 1.260000000000000000e+02 1.270000000000000000e+02 1.280000000000000000e+02 1.290000000000000000e+02 1.300000000000000000e+02 1.310000000000000000e+02 1.320000000000000000e+02 1.330000000000000000e+02 1.340000000000000000e+02 1.350000000000000000e+02 1.360000000000000000e+02 1.370000000000000000e+02 1.380000000000000000e+02 1.390000000000000000e+02 1.400000000000000000e+02 1.410000000000000000e+02 1.420000000000000000e+02 1.430000000000000000e+02 1.440000000000000000e+02 1.450000000000000000e+02 1.460000000000000000e+02 1.470000000000000000e+02 1.480000000000000000e+02 1.490000000000000000e+02 1.500000000000000000e+02 1.510000000000000000e+02 1.520000000000000000e+02 1.530000000000000000e+02 1.540000000000000000e+02 1.550000000000000000e+02 1.560000000000000000e+02 1.570000000000000000e+02 1.580000000000000000e+02 1.590000000000000000e+02 1.600000000000000000e+02 1.610000000000000000e+02 1.620000000000000000e+02 1.630000000000000000e+02 1.640000000000000000e+02 1.650000000000000000e+02 1.660000000000000000e+02 1.670000000000000000e+02 1.680000000000000000e+02 1.690000000000000000e+02 1.700000000000000000e+02 1.710000000000000000e+02 1.720000000000000000e+02 1.730000000000000000e+02 1.740000000000000000e+02 1.750000000000000000e+02 1.760000000000000000e+02 1.770000000000000000e+02 1.780000000000000000e+02 1.790000000000000000e+02 1.800000000000000000e+02 1.810000000000000000e+02 1.820000000000000000e+02 1.830000000000000000e+02 1.840000000000000000e+02 1.850000000000000000e+02 1.860000000000000000e+02 1.870000000000000000e+02 1.880000000000000000e+02 1.890000000000000000e+02 1.900000000000000000e+02 1.910000000000000000e+02 1.920000000000000000e+02 1.930000000000000000e+02 1.940000000000000000e+02 1.950000000000000000e+02 1.960000000000000000e+02 1.970000000000000000e+02 1.980000000000000000e+02 1.990000000000000000e+02 2.000000000000000000e+02 2.010000000000000000e+02 2.020000000000000000e+02 2.030000000000000000e+02 2.040000000000000000e+02 2.050000000000000000e+02 2.060000000000000000e+02 2.070000000000000000e+02 2.080000000000000000e+02 2.090000000000000000e+02 2.100000000000000000e+02 2.110000000000000000e+02 2.120000000000000000e+02 2.130000000000000000e+02 2.140000000000000000e+02 2.150000000000000000e+02 2.160000000000000000e+02 2.170000000000000000e+02 2.180000000000000000e+02 2.190000000000000000e+02 2.200000000000000000e+02 2.210000000000000000e+02 2.220000000000000000e+02 2.230000000000000000e+02 2.240000000000000000e+02 2.250000000000000000e+02 2.260000000000000000e+02 2.270000000000000000e+02 2.280000000000000000e+02 2.290000000000000000e+02 2.300000000000000000e+02 2.310000000000000000e+02 2.320000000000000000e+02 2.330000000000000000e+02 2.340000000000000000e+02 2.350000000000000000e+02 2.360000000000000000e+02 2.370000000000000000e+02 2.380000000000000000e+02 2.390000000000000000e+02 2.400000000000000000e+02 2.410000000000000000e+02 2.420000000000000000e+02 2.430000000000000000e+02 2.440000000000000000e+02 2.450000000000000000e+02 2.460000000000000000e+02 2.470000000000000000e+02 2.480000000000000000e+02 2.490000000000000000e+02 2.500000000000000000e+02 2.510000000000000000e+02 2.520000000000000000e+02 2.530000000000000000e+02 2.540000000000000000e+02 2.550000000000000000e+02 2.560000000000000000e+02 2.570000000000000000e+02 2.580000000000000000e+02 2.590000000000000000e+02 2.600000000000000000e+02 2.610000000000000000e+02 2.620000000000000000e+02 2.630000000000000000e+02 2.640000000000000000e+02 2.650000000000000000e+02 2.660000000000000000e+02 2.670000000000000000e+02 2.680000000000000000e+02 2.690000000000000000e+02 2.700000000000000000e+02 2.710000000000000000e+02 2.720000000000000000e+02 2.730000000000000000e+02 2.740000000000000000e+02 2.750000000000000000e+02 2.760000000000000000e+02 2.770000000000000000e+02 2.780000000000000000e+02 2.790000000000000000e+02 2.800000000000000000e+02 2.810000000000000000e+02 2.820000000000000000e+02 2.830000000000000000e+02 2.840000000000000000e+02 2.850000000000000000e+02 2.860000000000000000e+02 2.870000000000000000e+02 2.880000000000000000e+02 2.890000000000000000e+02 2.900000000000000000e+02 2.910000000000000000e+02 2.920000000000000000e+02 2.930000000000000000e+02 2.940000000000000000e+02 2.950000000000000000e+02 2.960000000000000000e+02 2.970000000000000000e+02 2.980000000000000000e+02 2.990000000000000000e+02 3.000000000000000000e+02 3.010000000000000000e+02 3.020000000000000000e+02 3.030000000000000000e+02 3.040000000000000000e+02 3.050000000000000000e+02 3.060000000000000000e+02 3.070000000000000000e+02 3.080000000000000000e+02 3.090000000000000000e+02 3.100000000000000000e+02 3.110000000000000000e+02 3.120000000000000000e+02 3.130000000000000000e+02 3.140000000000000000e+02 3.150000000000000000e+02 3.160000000000000000e+02 3.170000000000000000e+02 3.180000000000000000e+02 3.190000000000000000e+02 3.200000000000000000e+02 3.210000000000000000e+02 3.220000000000000000e+02 3.230000000000000000e+02 3.240000000000000000e+02 3.250000000000000000e+02 3.260000000000000000e+02 3.270000000000000000e+02 3.280000000000000000e+02 3.290000000000000000e+02 3.300000000000000000e+02 3.310000000000000000e+02 3.320000000000000000e+02 3.330000000000000000e+02 3.340000000000000000e+02 3.350000000000000000e+02 3.360000000000000000e+02 3.370000000000000000e+02 3.380000000000000000e+02 3.390000000000000000e+02 3.400000000000000000e+02 3.410000000000000000e+02 3.420000000000000000e+02 3.430000000000000000e+02 3.440000000000000000e+02 3.450000000000000000e+02 3.460000000000000000e+02 3.470000000000000000e+02 3.480000000000000000e+02 3.490000000000000000e+02 3.500000000000000000e+02 3.510000000000000000e+02 3.520000000000000000e+02 3.530000000000000000e+02 3.540000000000000000e+02 3.550000000000000000e+02 3.560000000000000000e+02 3.570000000000000000e+02 3.580000000000000000e+02 3.590000000000000000e+02 3.600000000000000000e+02 3.610000000000000000e+02 3.620000000000000000e+02 3.630000000000000000e+02 3.640000000000000000e+02 3.650000000000000000e+02 3.660000000000000000e+02 3.670000000000000000e+02 3.680000000000000000e+02 3.690000000000000000e+02 3.700000000000000000e+02 3.710000000000000000e+02 3.720000000000000000e+02 3.730000000000000000e+02 3.740000000000000000e+02 3.750000000000000000e+02 3.760000000000000000e+02 3.770000000000000000e+02 3.780000000000000000e+02 3.790000000000000000e+02 3.800000000000000000e+02 3.810000000000000000e+02 3.820000000000000000e+02 3.830000000000000000e+02 3.840000000000000000e+02 3.850000000000000000e+02 3.860000000000000000e+02 3.870000000000000000e+02 3.880000000000000000e+02 3.890000000000000000e+02 3.900000000000000000e+02 3.910000000000000000e+02 3.920000000000000000e+02 3.930000000000000000e+02 3.940000000000000000e+02 3.950000000000000000e+02 3.960000000000000000e+02 3.970000000000000000e+02 3.980000000000000000e+02 3.990000000000000000e+02 4.000000000000000000e+02 4.010000000000000000e+02 4.020000000000000000e+02 4.030000000000000000e+02 4.040000000000000000e+02 4.050000000000000000e+02 4.060000000000000000e+02 4.070000000000000000e+02 4.080000000000000000e+02 4.090000000000000000e+02 4.100000000000000000e+02 4.110000000000000000e+02 4.120000000000000000e+02 4.130000000000000000e+02 4.140000000000000000e+02 4.150000000000000000e+02 4.160000000000000000e+02 4.170000000000000000e+02 4.180000000000000000e+02 4.190000000000000000e+02 4.200000000000000000e+02 4.210000000000000000e+02 4.220000000000000000e+02 4.230000000000000000e+02 4.240000000000000000e+02 4.250000000000000000e+02 4.260000000000000000e+02 4.270000000000000000e+02 4.280000000000000000e+02 4.290000000000000000e+02 4.300000000000000000e+02 4.310000000000000000e+02 4.320000000000000000e+02 4.330000000000000000e+02 4.340000000000000000e+02 4.350000000000000000e+02 4.360000000000000000e+02 4.370000000000000000e+02 4.380000000000000000e+02 4.390000000000000000e+02 4.400000000000000000e+02 4.410000000000000000e+02 4.420000000000000000e+02 4.430000000000000000e+02 4.440000000000000000e+02 4.450000000000000000e+02 4.460000000000000000e+02 4.470000000000000000e+02 4.480000000000000000e+02 4.490000000000000000e+02 4.500000000000000000e+02 4.510000000000000000e+02 4.520000000000000000e+02 4.530000000000000000e+02 4.540000000000000000e+02 4.550000000000000000e+02 4.560000000000000000e+02 4.570000000000000000e+02 4.580000000000000000e+02 4.590000000000000000e+02 4.600000000000000000e+02 4.610000000000000000e+02 4.620000000000000000e+02 4.630000000000000000e+02 4.640000000000000000e+02 4.650000000000000000e+02 4.660000000000000000e+02 4.670000000000000000e+02 4.680000000000000000e+02 4.690000000000000000e+02 4.700000000000000000e+02 4.710000000000000000e+02 4.720000000000000000e+02 4.730000000000000000e+02 4.740000000000000000e+02 4.750000000000000000e+02 4.760000000000000000e+02 4.770000000000000000e+02 4.780000000000000000e+02 4.790000000000000000e+02 4.800000000000000000e+02 4.810000000000000000e+02 4.820000000000000000e+02 4.830000000000000000e+02 4.840000000000000000e+02 4.850000000000000000e+02 4.860000000000000000e+02 4.870000000000000000e+02 4.880000000000000000e+02 4.890000000000000000e+02 4.900000000000000000e+02 4.910000000000000000e+02 4.920000000000000000e+02 4.930000000000000000e+02 4.940000000000000000e+02 4.950000000000000000e+02 4.960000000000000000e+02 4.970000000000000000e+02 4.980000000000000000e+02 4.990000000000000000e+02 5.000000000000000000e+02 5.010000000000000000e+02 5.020000000000000000e+02 5.030000000000000000e+02 5.040000000000000000e+02 5.050000000000000000e+02 5.060000000000000000e+02 5.070000000000000000e+02 5.080000000000000000e+02 5.090000000000000000e+02 5.100000000000000000e+02 5.110000000000000000e+02 5.120000000000000000e+02 5.130000000000000000e+02 5.140000000000000000e+02 5.150000000000000000e+02 5.160000000000000000e+02 5.170000000000000000e+02 5.180000000000000000e+02 5.190000000000000000e+02 5.200000000000000000e+02 5.210000000000000000e+02 5.220000000000000000e+02 5.230000000000000000e+02 5.240000000000000000e+02 5.250000000000000000e+02 5.260000000000000000e+02 5.270000000000000000e+02 5.280000000000000000e+02 5.290000000000000000e+02 5.300000000000000000e+02 5.310000000000000000e+02 5.320000000000000000e+02 5.330000000000000000e+02 5.340000000000000000e+02 5.350000000000000000e+02 5.360000000000000000e+02 5.370000000000000000e+02 5.380000000000000000e+02 5.390000000000000000e+02 5.400000000000000000e+02 5.410000000000000000e+02 5.420000000000000000e+02 5.430000000000000000e+02 5.440000000000000000e+02 5.450000000000000000e+02 5.460000000000000000e+02 5.470000000000000000e+02 5.480000000000000000e+02 5.490000000000000000e+02 5.500000000000000000e+02 5.510000000000000000e+02 5.520000000000000000e+02 5.530000000000000000e+02 5.540000000000000000e+02 5.550000000000000000e+02 5.560000000000000000e+02 5.570000000000000000e+02 5.580000000000000000e+02 5.590000000000000000e+02 5.600000000000000000e+02 5.610000000000000000e+02 5.620000000000000000e+02 5.630000000000000000e+02 5.640000000000000000e+02 5.650000000000000000e+02 5.660000000000000000e+02 5.670000000000000000e+02 5.680000000000000000e+02 5.690000000000000000e+02 5.700000000000000000e+02 5.710000000000000000e+02 5.720000000000000000e+02 5.730000000000000000e+02 5.740000000000000000e+02 5.750000000000000000e+02 5.760000000000000000e+02 5.770000000000000000e+02 5.780000000000000000e+02 5.790000000000000000e+02 5.800000000000000000e+02 5.810000000000000000e+02 5.820000000000000000e+02 5.830000000000000000e+02 5.840000000000000000e+02 5.850000000000000000e+02 5.860000000000000000e+02 5.870000000000000000e+02 5.880000000000000000e+02 5.890000000000000000e+02 5.900000000000000000e+02 5.910000000000000000e+02 5.920000000000000000e+02 5.930000000000000000e+02 5.940000000000000000e+02 5.950000000000000000e+02 5.960000000000000000e+02 5.970000000000000000e+02 5.980000000000000000e+02 5.990000000000000000e+02 6.000000000000000000e+02 6.010000000000000000e+02 6.020000000000000000e+02 6.030000000000000000e+02 6.040000000000000000e+02 6.050000000000000000e+02 6.060000000000000000e+02 6.070000000000000000e+02 6.080000000000000000e+02 6.090000000000000000e+02 6.100000000000000000e+02 6.110000000000000000e+02 6.120000000000000000e+02 6.130000000000000000e+02 6.140000000000000000e+02 6.150000000000000000e+02 6.160000000000000000e+02 6.170000000000000000e+02 6.180000000000000000e+02 6.190000000000000000e+02 6.200000000000000000e+02 6.210000000000000000e+02 6.220000000000000000e+02 6.230000000000000000e+02 6.240000000000000000e+02 6.250000000000000000e+02 6.260000000000000000e+02 6.270000000000000000e+02 6.280000000000000000e+02 6.290000000000000000e+02 6.300000000000000000e+02 6.310000000000000000e+02 6.320000000000000000e+02 6.330000000000000000e+02 6.340000000000000000e+02 6.350000000000000000e+02 6.360000000000000000e+02 6.370000000000000000e+02 6.380000000000000000e+02 6.390000000000000000e+02 6.400000000000000000e+02 6.410000000000000000e+02 6.420000000000000000e+02 6.430000000000000000e+02 6.440000000000000000e+02 6.450000000000000000e+02 6.460000000000000000e+02 6.470000000000000000e+02 6.480000000000000000e+02 6.490000000000000000e+02 6.500000000000000000e+02 6.510000000000000000e+02 6.520000000000000000e+02 6.530000000000000000e+02 6.540000000000000000e+02 6.550000000000000000e+02 6.560000000000000000e+02 6.570000000000000000e+02 6.580000000000000000e+02 6.590000000000000000e+02 6.600000000000000000e+02 6.610000000000000000e+02 6.620000000000000000e+02 6.630000000000000000e+02 6.640000000000000000e+02 6.650000000000000000e+02 6.660000000000000000e+02 6.670000000000000000e+02 6.680000000000000000e+02 6.690000000000000000e+02 6.700000000000000000e+02 6.710000000000000000e+02 6.720000000000000000e+02 6.730000000000000000e+02 6.740000000000000000e+02 6.750000000000000000e+02 6.760000000000000000e+02 6.770000000000000000e+02 6.780000000000000000e+02 6.790000000000000000e+02 6.800000000000000000e+02 6.810000000000000000e+02 6.820000000000000000e+02 6.830000000000000000e+02 6.840000000000000000e+02 6.850000000000000000e+02 6.860000000000000000e+02 6.870000000000000000e+02 6.880000000000000000e+02 6.890000000000000000e+02 6.900000000000000000e+02 6.910000000000000000e+02 6.920000000000000000e+02 6.930000000000000000e+02 6.940000000000000000e+02 6.950000000000000000e+02 6.960000000000000000e+02 6.970000000000000000e+02 6.980000000000000000e+02 6.990000000000000000e+02 7.000000000000000000e+02 7.010000000000000000e+02 7.020000000000000000e+02 7.030000000000000000e+02 7.040000000000000000e+02 7.050000000000000000e+02 7.060000000000000000e+02 7.070000000000000000e+02 7.080000000000000000e+02 7.090000000000000000e+02 7.100000000000000000e+02 7.110000000000000000e+02 7.120000000000000000e+02 7.130000000000000000e+02 7.140000000000000000e+02 7.150000000000000000e+02 7.160000000000000000e+02 7.170000000000000000e+02 7.180000000000000000e+02 7.190000000000000000e+02 7.200000000000000000e+02 7.210000000000000000e+02 7.220000000000000000e+02 7.230000000000000000e+02 7.240000000000000000e+02 7.250000000000000000e+02 7.260000000000000000e+02 7.270000000000000000e+02 7.280000000000000000e+02 7.290000000000000000e+02 7.300000000000000000e+02 7.310000000000000000e+02 7.320000000000000000e+02 7.330000000000000000e+02 7.340000000000000000e+02 7.350000000000000000e+02 7.360000000000000000e+02 7.370000000000000000e+02 7.380000000000000000e+02 7.390000000000000000e+02 7.400000000000000000e+02 7.410000000000000000e+02 7.420000000000000000e+02 7.430000000000000000e+02 7.440000000000000000e+02 7.450000000000000000e+02 7.460000000000000000e+02 7.470000000000000000e+02 7.480000000000000000e+02 7.490000000000000000e+02 7.500000000000000000e+02 7.510000000000000000e+02 7.520000000000000000e+02 7.530000000000000000e+02 7.540000000000000000e+02 7.550000000000000000e+02 7.560000000000000000e+02 7.570000000000000000e+02 7.580000000000000000e+02 7.590000000000000000e+02 7.600000000000000000e+02 7.610000000000000000e+02 7.620000000000000000e+02 7.630000000000000000e+02 7.640000000000000000e+02 7.650000000000000000e+02 7.660000000000000000e+02 7.670000000000000000e+02 7.680000000000000000e+02 7.690000000000000000e+02 7.700000000000000000e+02 7.710000000000000000e+02 7.720000000000000000e+02 7.730000000000000000e+02 7.740000000000000000e+02 7.750000000000000000e+02 7.760000000000000000e+02 7.770000000000000000e+02 7.780000000000000000e+02 7.790000000000000000e+02 7.800000000000000000e+02 7.810000000000000000e+02 7.820000000000000000e+02 7.830000000000000000e+02 7.840000000000000000e+02 7.850000000000000000e+02 7.860000000000000000e+02 7.870000000000000000e+02 7.880000000000000000e+02 7.890000000000000000e+02 7.900000000000000000e+02 7.910000000000000000e+02 7.920000000000000000e+02 7.930000000000000000e+02 7.940000000000000000e+02 7.950000000000000000e+02 7.960000000000000000e+02 7.970000000000000000e+02 7.980000000000000000e+02 7.990000000000000000e+02 8.000000000000000000e+02 8.010000000000000000e+02 8.020000000000000000e+02 8.030000000000000000e+02 8.040000000000000000e+02 8.050000000000000000e+02 8.060000000000000000e+02 8.070000000000000000e+02 8.080000000000000000e+02 8.090000000000000000e+02 8.100000000000000000e+02 8.110000000000000000e+02 8.120000000000000000e+02 8.130000000000000000e+02 8.140000000000000000e+02 8.150000000000000000e+02 8.160000000000000000e+02 8.170000000000000000e+02 8.180000000000000000e+02 8.190000000000000000e+02 8.200000000000000000e+02 8.210000000000000000e+02 8.220000000000000000e+02 8.230000000000000000e+02 8.240000000000000000e+02 8.250000000000000000e+02 8.260000000000000000e+02 8.270000000000000000e+02 8.280000000000000000e+02 8.290000000000000000e+02 8.300000000000000000e+02 8.310000000000000000e+02 8.320000000000000000e+02 8.330000000000000000e+02 8.340000000000000000e+02 8.350000000000000000e+02 8.360000000000000000e+02 8.370000000000000000e+02 8.380000000000000000e+02 8.390000000000000000e+02 8.400000000000000000e+02 8.410000000000000000e+02 8.420000000000000000e+02 8.430000000000000000e+02 8.440000000000000000e+02 8.450000000000000000e+02 8.460000000000000000e+02 8.470000000000000000e+02 8.480000000000000000e+02 8.490000000000000000e+02 8.500000000000000000e+02 8.510000000000000000e+02 8.520000000000000000e+02 8.530000000000000000e+02 8.540000000000000000e+02 8.550000000000000000e+02 8.560000000000000000e+02 8.570000000000000000e+02 8.580000000000000000e+02 8.590000000000000000e+02 8.600000000000000000e+02 8.610000000000000000e+02 8.620000000000000000e+02 8.630000000000000000e+02 8.640000000000000000e+02 8.650000000000000000e+02 8.660000000000000000e+02 8.670000000000000000e+02 8.680000000000000000e+02 8.690000000000000000e+02 8.700000000000000000e+02 8.710000000000000000e+02 8.720000000000000000e+02 8.730000000000000000e+02 8.740000000000000000e+02 8.750000000000000000e+02 8.760000000000000000e+02 8.770000000000000000e+02 8.780000000000000000e+02 8.790000000000000000e+02 8.800000000000000000e+02 8.810000000000000000e+02 8.820000000000000000e+02 8.830000000000000000e+02 8.840000000000000000e+02 8.850000000000000000e+02 8.860000000000000000e+02 8.870000000000000000e+02 8.880000000000000000e+02 8.890000000000000000e+02 8.900000000000000000e+02 8.910000000000000000e+02 8.920000000000000000e+02 8.930000000000000000e+02 8.940000000000000000e+02 8.950000000000000000e+02 8.960000000000000000e+02 8.970000000000000000e+02 8.980000000000000000e+02 8.990000000000000000e+02 9.000000000000000000e+02 9.010000000000000000e+02 9.020000000000000000e+02 9.030000000000000000e+02 9.040000000000000000e+02 9.050000000000000000e+02 9.060000000000000000e+02 9.070000000000000000e+02 9.080000000000000000e+02 9.090000000000000000e+02 9.100000000000000000e+02 9.110000000000000000e+02 9.120000000000000000e+02 9.130000000000000000e+02 9.140000000000000000e+02 9.150000000000000000e+02 9.160000000000000000e+02 9.170000000000000000e+02 9.180000000000000000e+02 9.190000000000000000e+02 9.200000000000000000e+02 9.210000000000000000e+02 9.220000000000000000e+02 9.230000000000000000e+02 9.240000000000000000e+02 9.250000000000000000e+02 9.260000000000000000e+02 9.270000000000000000e+02 9.280000000000000000e+02 9.290000000000000000e+02 9.300000000000000000e+02 9.310000000000000000e+02 9.320000000000000000e+02 9.330000000000000000e+02 9.340000000000000000e+02 9.350000000000000000e+02 9.360000000000000000e+02 9.370000000000000000e+02 9.380000000000000000e+02 9.390000000000000000e+02 9.400000000000000000e+02 9.410000000000000000e+02 9.420000000000000000e+02 9.430000000000000000e+02 9.440000000000000000e+02 9.450000000000000000e+02 9.460000000000000000e+02 9.470000000000000000e+02 9.480000000000000000e+02 9.490000000000000000e+02 9.500000000000000000e+02 9.510000000000000000e+02 9.520000000000000000e+02 9.530000000000000000e+02 9.540000000000000000e+02 9.550000000000000000e+02 9.560000000000000000e+02 9.570000000000000000e+02 9.580000000000000000e+02 9.590000000000000000e+02 9.600000000000000000e+02 9.610000000000000000e+02 9.620000000000000000e+02 9.630000000000000000e+02 9.640000000000000000e+02 9.650000000000000000e+02 9.660000000000000000e+02 9.670000000000000000e+02 9.680000000000000000e+02 9.690000000000000000e+02 9.700000000000000000e+02 9.710000000000000000e+02 9.720000000000000000e+02 9.730000000000000000e+02 9.740000000000000000e+02 9.750000000000000000e+02 9.760000000000000000e+02 9.770000000000000000e+02 9.780000000000000000e+02 9.790000000000000000e+02 9.800000000000000000e+02 9.810000000000000000e+02 9.820000000000000000e+02 9.830000000000000000e+02 9.840000000000000000e+02 9.850000000000000000e+02 9.860000000000000000e+02 9.870000000000000000e+02 9.880000000000000000e+02 9.890000000000000000e+02 9.900000000000000000e+02 9.910000000000000000e+02 9.920000000000000000e+02 9.930000000000000000e+02 9.940000000000000000e+02 9.950000000000000000e+02 9.960000000000000000e+02 9.970000000000000000e+02 9.980000000000000000e+02 9.990000000000000000e+02
1.000000000000000000e+00 1.000000000000000000e+00 1.000000000000000000e+00 1.000000000000000000e+00 1.000000000000000000e+00 1.000000000000000000e+00 1.000000000000000000e+00 1.000000000000000000e+00 1.000000000000000000e+00 1.000000000000000000e+00 1.000000000000000000e+00 1.000000000000000000e+00 1.000000000000000000e+00 1.000000000000000000e+00 1.000000000000000000e+00 1.000000000000000000e+00 1.000000000000000000e+00 1.000000000000000000e+00 1.000000000000000000e+00 1.000000000000000000e+00 1.000000000000000000e+00 1.000000000000000000e+00 1.000000000000000000e+00 1.000000000000000000e+00 1.000000000000000000e+00 1.000000000000000000e+00 1.000000000000000000e+00 1.000000000000000000e+00 1.000000000000000000e+00 1.000000000000000000e+00 1.000000000000000000e+00 1.000000000000000000e+00 1.000000000000000000e+00 1.000000000000000000e+00 1.000000000000000000e+00 1.000000000000000000e+00 1.000000000000000000e+00 1.000000000000000000e+00 1.000000000000000000e+00 1.000000000000000000e+00 1.000000000000000000e+00 1.000000000000000000e+00 1.000000000000000000e+00 1.000000000000000000e+00 1.000000000000000000e+00 1.000000000000000000e+00 1.000000000000000000e+00 1.000000000000000000e+00 1.000000000000000000e+00 1.000000000000000000e+00 1.000000000000000000e+00 1.000000000000000000e+00 1.000000000000000000e+00 1.000000000000000000e+00 1.000000000000000000e+00 1.000000000000000000e+00 1.000000000000000000e+00 1.000000000000000000e+00 1.000000000000000000e+00 1.000000000000000000e+00 1.000000000000000000e+00 1.000000000000000000e+00 1.000000000000000000e+00 1.000000000000000000e+00 1.000000000000000000e+00 1.000000000000000000e+00 1.000000000000000000e+00 1.000000000000000000e+00 1.000000000000000000e+00 1.000000000000000000e+00 1.000000000000000000e+00 1.000000000000000000e+00 1.000000000000000000e+00 1.000000000000000000e+00 1.000000000000000000e+00 1.000000000000000000e+00 1.000000000000000000e+00 1.000000000000000000e+00 1.000000000000000000e+00 1.000000000000000000e+00 1.000000000000000000e+00 1.000000000000000000e+00 1.000000000000000000e+00 1.000000000000000000e+00 1.000000000000000000e+00 1.000000000000000000e+00 1.000000000000000000e+00 1.000000000000000000e+00 1.000000000000000000e+00 1.000000000000000000e+00 1.000000000000000000e+00 1.000000000000000000e+00 1.000000000000000000e+00 1.000000000000000000e+00 1.000000000000000000e+00 1.000000000000000000e+00 1.000000000000000000e+00 1.000000000000000000e+00 1.000000000000000000e+00 1.000000000000000000e+00 1.000000000000000000e+00 1.000000000000000000e+00 1.000000000000000000e+00 1.000000000000000000e+00 1.000000000000000000e+00 1.000000000000000000e+00 1.000000000000000000e+00 1.000000000000000000e+00 1.000000000000000000e+00 1.000000000000000000e+00 1.000000000000000000e+00 1.000000000000000000e+00 1.000000000000000000e+00 1.000000000000000000e+00 1.000000000000000000e+00 1.000000000000000000e+00 1.000000000000000000e+00 1.000000000000000000e+00 1.000000000000000000e+00 1.000000000000000000e+00 1.000000000000000000e+00 1.000000000000000000e+00 1.000000000000000000e+00 1.000000000000000000e+00 1.000000000000000000e+00 1.000000000000000000e+00 1.000000000000000000e+00 1.000000000000000000e+00 1.000000000000000000e+00 1.000000000000000000e+00 1.000000000000000000e+00 1.000000000000000000e+00 1.000000000000000000e+00 1.000000000000000000e+00 1.000000000000000000e+00 1.000000000000000000e+00 1.000000000000000000e+00 1.000000000000000000e+00 1.000000000000000000e+00 1.000000000000000000e+00 1.000000000000000000e+00 1.000000000000000000e+00 1.000000000000000000e+00 1.000000000000000000e+00 1.000000000000000000e+00 1.000000000000000000e+00 1.000000000000000000e+00 1.000000000000000000e+00 1.000000000000000000e+00 1.000000000000000000e+00 1.000000000000000000e+00 1.000000000000000000e+00 1.000000000000000000e+00 1.000000000000000000e+00 1.000000000000000000e+00 1.000000000000000000e+00 1.000000000000000000e+00 1.000000000000000000e+00 1.000000000000000000e+00 1.000000000000000000e+00 1.000000000000000000e+00 1.000000000000000000e+00 1.000000000000000000e+00 1.000000000000000000e+00 1.000000000000000000e+00 1.000000000000000000e+00 1.000000000000000000e+00 1.000000000000000000e+00 1.000000000000000000e+00 1.000000000000000000e+00 1.000000000000000000e+00 1.000000000000000000e+00 1.000000000000000000e+00 1.000000000000000000e+00 1.000000000000000000e+00 1.000000000000000000e+00 1.000000000000000000e+00 1.000000000000000000e+00 1.000000000000000000e+00 1.000000000000000000e+00 1.000000000000000000e+00 1.000000000000000000e+00 1.000000000000000000e+00 1.000000000000000000e+00 1.000000000000000000e+00 1.000000000000000000e+00 1.000000000000000000e+00 1.000000000000000000e+00 1.000000000000000000e+00 1.000000000000000000e+00 1.000000000000000000e+00 1.000000000000000000e+00 1.000000000000000000e+00 1.000000000000000000e+00 1.000000000000000000e+00 1.000000000000000000e+00 1.000000000000000000e+00 1.000000000000000000e+00 1.000000000000000000e+00 1.000000000000000000e+00 1.000000000000000000e+00 1.000000000000000000e+00 1.000000000000000000e+00 1.000000000000000000e+00 1.000000000000000000e+00 1.000000000000000000e+00 1.000000000000000000e+00 1.000000000000000000e+00 1.000000000000000000e+00 1.000000000000000000e+00 1.000000000000000000e+00 1.000000000000000000e+00 1.000000000000000000e+00 1.000000000000000000e+00 1.000000000000000000e+00 1.000000000000000000e+00 1.000000000000000000e+00 1.000000000000000000e+00 1.000000000000000000e+00 1.000000000000000000e+00 1.000000000000000000e+00 1.000000000000000000e+00 1.000000000000000000e+00 1.000000000000000000e+00 1.000000000000000000e+00 1.000000000000000000e+00 1.000000000000000000e+00 1.000000000000000000e+00 1.000000000000000000e+00 1.000000000000000000e+00 1.000000000000000000e+00 1.000000000000000000e+00 1.000000000000000000e+00 1.000000000000000000e+00 1.000000000000000000e+00 1.000000000000000000e+00 1.000000000000000000e+00 1.000000000000000000e+00 1.000000000000000000e+00 1.000000000000000000e+00 1.000000000000000000e+00 1.000000000000000000e+00 1.000000000000000000e+00 1.000000000000000000e+00 1.000000000000000000e+00 1.000000000000000000e+00 1.000000000000000000e+00 1.000000000000000000e+00 1.000000000000000000e+00 1.000000000000000000e+00 1.000000000000000000e+00 1.000000000000000000e+00 1.000000000000000000e+00 1.000000000000000000e+00 1.000000000000000000e+00 1.000000000000000000e+00 1.000000000000000000e+00 1.000000000000000000e+00 1.000000000000000000e+00 1.000000000000000000e+00 1.000000000000000000e+00 1.000000000000000000e+00 1.000000000000000000e+00 1.000000000000000000e+00 1.000000000000000000e+00 1.000000000000000000e+00 1.000000000000000000e+00 1.000000000000000000e+00 1.000000000000000000e+00 1.000000000000000000e+00 1.000000000000000000e+00 1.000000000000000000e+00 1.000000000000000000e+00 1.000000000000000000e+00 1.000000000000000000e+00 1.000000000000000000e+00 1.000000000000000000e+00 1.000000000000000000e+00 1.000000000000000000e+00 1.000000000000000000e+00 1.000000000000000000e+00 1.000000000000000000e+00 1.000000000000000000e+00 1.000000000000000000e+00 1.000000000000000000e+00 1.000000000000000000e+00 1.000000000000000000e+00 1.000000000000000000e+00 1.000000000000000000e+00 1.000000000000000000e+00 1.000000000000000000e+00 1.000000000000000000e+00 1.000000000000000000e+00 1.000000000000000000e+00 1.000000000000000000e+00 1.000000000000000000e+00 1.000000000000000000e+00 1.000000000000000000e+00 1.000000000000000000e+00 1.000000000000000000e+00 1.000000000000000000e+00 1.000000000000000000e+00 1.000000000000000000e+00 1.000000000000000000e+00 1.000000000000000000e+00 1.000000000000000000e+00 1.000000000000000000e+00 1.000000000000000000e+00 1.000000000000000000e+00 1.000000000000000000e+00 1.000000000000000000e+00 1.000000000000000000e+00 1.000000000000000000e+00 1.000000000000000000e+00 1.000000000000000000e+00 1.000000000000000000e+00 1.000000000000000000e+00 1.000000000000000000e+00 1.000000000000000000e+00 1.000000000000000000e+00 1.000000000000000000e+00 1.000000000000000000e+00 1.000000000000000000e+00 1.000000000000000000e+00 1.000000000000000000e+00 1.000000000000000000e+00 1.000000000000000000e+00 1.000000000000000000e+00 1.000000000000000000e+00 1.000000000000000000e+00 1.000000000000000000e+00 1.000000000000000000e+00 1.000000000000000000e+00 1.000000000000000000e+00 1.000000000000000000e+00 1.000000000000000000e+00 1.000000000000000000e+00 1.000000000000000000e+00 1.000000000000000000e+00 1.000000000000000000e+00 1.000000000000000000e+00 1.000000000000000000e+00 1.000000000000000000e+00 1.000000000000000000e+00 1.000000000000000000e+00 1.000000000000000000e+00 1.000000000000000000e+00 1.000000000000000000e+00 1.000000000000000000e+00 1.000000000000000000e+00 1.000000000000000000e+00 1.000000000000000000e+00 1.000000000000000000e+00 1.000000000000000000e+00 1.000000000000000000e+00 1.000000000000000000e+00 1.000000000000000000e+00 1.000000000000000000e+00 1.000000000000000000e+00 1.000000000000000000e+00 1.000000000000000000e+00 1.000000000000000000e+00 1.000000000000000000e+00 1.000000000000000000e+00 1.000000000000000000e+00 1.000000000000000000e+00 1.000000000000000000e+00 1.000000000000000000e+00 1.000000000000000000e+00 1.000000000000000000e+00 1.000000000000000000e+00 1.000000000000000000e+00 1.000000000000000000e+00 1.000000000000000000e+00 1.000000000000000000e+00 1.000000000000000000e+00 1.000000000000000000e+00 1.000000000000000000e+00 1.000000000000000000e+00 1.000000000000000000e+00 1.000000000000000000e+00 1.000000000000000000e+00 1.000000000000000000e+00 1.000000000000000000e+00 1.000000000000000000e+00 1.000000000000000000e+00 1.000000000000000000e+00 1.000000000000000000e+00 1.000000000000000000e+00 1.000000000000000000e+00 1.000000000000000000e+00 1.000000000000000000e+00 1.000000000000000000e+00 1.000000000000000000e+00 1.000000000000000000e+00 1.000000000000000000e+00 1.000000000000000000e+00 1.000000000000000000e+00 1.000000000000000000e+00 1.000000000000000000e+00 1.000000000000000000e+00 1.000000000000000000e+00 1.000000000000000000e+00 1.000000000000000000e+00 1.000000000000000000e+00 1.000000000000000000e+00 1.000000000000000000e+00 1.000000000000000000e+00 1.000000000000000000e+00 1.000000000000000000e+00 1.000000000000000000e+00 1.000000000000000000e+00 1.000000000000000000e+00 1.000000000000000000e+00 1.000000000000000000e+00 1.000000000000000000e+00 1.000000000000000000e+00 1.000000000000000000e+00 1.000000000000000000e+00 1.000000000000000000e+00 1.000000000000000000e+00 1.000000000000000000e+00 1.000000000000000000e+00 1.000000000000000000e+00 1.000000000000000000e+00 1.000000000000000000e+00 1.000000000000000000e+00 1.000000000000000000e+00 1.000000000000000000e+00 1.000000000000000000e+00 1.000000000000000000e+00 1.000000000000000000e+00 1.000000000000000000e+00 1.000000000000000000e+00 1.000000000000000000e+00 1.000000000000000000e+00 1.000000000000000000e+00 1.000000000000000000e+00 1.000000000000000000e+00 1.000000000000000000e+00 1.000000000000000000e+00 1.000000000000000000e+00 1.000000000000000000e+00 1.000000000000000000e+00 1.000000000000000000e+00 1.000000000000000000e+00 1.000000000000000000e+00 1.000000000000000000e+00 1.000000000000000000e+00 1.000000000000000000e+00 1.000000000000000000e+00 1.000000000000000000e+00 1.000000000000000000e+00 1.000000000000000000e+00 1.000000000000000000e+00 1.000000000000000000e+00 1.000000000000000000e+00 1.000000000000000000e+00 1.000000000000000000e+00 1.000000000000000000e+00 1.000000000000000000e+00 1.000000000000000000e+00 1.000000000000000000e+00 1.000000000000000000e+00 1.000000000000000000e+00 1.000000000000000000e+00 1.000000000000000000e+00 1.000000000000000000e+00 1.000000000000000000e+00 1.000000000000000000e+00 1.000000000000000000e+00 1.000000000000000000e+00 1.000000000000000000e+00 1.000000000000000000e+00 1.000000000000000000e+00 1.000000000000000000e+00 1.000000000000000000e+00 1.000000000000000000e+00 1.000000000000000000e+00 1.000000000000000000e+00 1.000000000000000000e+00 1.000000000000000000e+00 1.000000000000000000e+00 1.000000000000000000e+00 1.000000000000000000e+00 1.000000000000000000e+00 1.000000000000000000e+00 1.000000000000000000e+00 1.000000000000000000e+00 1.000000000000000000e+00 1.000000000000000000e+00 1.000000000000000000e+00 1.000000000000000000e+00 1.000000000000000000e+00 1.000000000000000000e+00 1.000000000000000000e+00 1.000000000000000000e+00 1.000000000000000000e+00 1.000000000000000000e+00 1.000000000000000000e+00 1.000000000000000000e+00 1.000000000000000000e+00 1.000000000000000000e+00 1.000000000000000000e+00 1.000000000000000000e+00 1.000000000000000000e+00 1.000000000000000000e+00 1.000000000000000000e+00 1.000000000000000000e+00 1.000000000000000000e+00 1.000000000000000000e+00 1.000000000000000000e+00 1.000000000000000000e+00 1.000000000000000000e+00 1.000000000000000000e+00 1.000000000000000000e+00 1.000000000000000000e+00 1.000000000000000000e+00 1.000000000000000000e+00 1.000000000000000000e+00 1.000000000000000000e+00 1.000000000000000000e+00 1.000000000000000000e+00 1.000000000000000000e+00 1.000000000000000000e+00 1.000000000000000000e+00 1.000000000000000000e+00 1.000000000000000000e+00 1.000000000000000000e+00 1.000000000000000000e+00 1.000000000000000000e+00 1.000000000000000000e+00 1.000000000000000000e+00 1.000000000000000000e+00 1.000000000000000000e+00 1.000000000000000000e+00 1.000000000000000000e+00 1.000000000000000000e+00 1.000000000000000000e+00 1.000000000000000000e+00 1.000000000000000000e+00 1.000000000000000000e+00 1.000000000000000000e+00 1.000000000000000000e+00 1.000000000000000000e+00 1.000000000000000000e+00 1.000000000000000000e+00 1.000000000000000000e+00 1.000000000000000000e+00 1.000000000000000000e+00 1.000000000000000000e+00 1.000000000000000000e+00 1.000000000000000000e+00 1.000000000000000000e+00 1.000000000000000000e+00 1.000000000000000000e+00 1.000000000000000000e+00 1.000000000000000000e+00 1.000000000000000000e+00 1.000000000000000000e+00 1.000000000000000000e+00 1.000000000000000000e+00 1.000000000000000000e+00 1.000000000000000000e+00 1.000000000000000000e+00 1.000000000000000000e+00 1.000000000000000000e+00 1.000000000000000000e+00 1.000000000000000000e+00 1.000000000000000000e+00 1.000000000000000000e+00 1.000000000000000000e+00 1.000000000000000000e+00 1.000000000000000000e+00 1.000000000000000000e+00 1.000000000000000000e+00 1.000000000000000000e+00 1.000000000000000000e+00 1.000000000000000000e+00 1.000000000000000000e+00 1.000000000000000000e+00 1.000000000000000000e+00 1.000000000000000000e+00 1.000000000000000000e+00 1.000000000000000000e+00 1.000000000000000000e+00 1.000000000000000000e+00 1.000000000000000000e+00 1.000000000000000000e+00 1.000000000000000000e+00 1.000000000000000000e+00 1.000000000000000000e+00 1.000000000000000000e+00 1.000000000000000000e+00 1.000000000000000000e+00 1.000000000000000000e+00 1.000000000000000000e+00 1.000000000000000000e+00 1.000000000000000000e+00 1.000000000000000000e+00 1.000000000000000000e+00 1.000000000000000000e+00 1.000000000000000000e+00 1.000000000000000000e+00 1.000000000000000000e+00 1.000000000000000000e+00 1.000000000000000000e+00 1.000000000000000000e+00 1.000000000000000000e+00 1.000000000000000000e+00 1.000000000000000000e+00 1.000000000000000000e+00 1.000000000000000000e+00 1.000000000000000000e+00 1.000000000000000000e+00 1.000000000000000000e+00 1.000000000000000000e+00 1.000000000000000000e+00 1.000000000000000000e+00 1.000000000000000000e+00 1.000000000000000000e+00 1.000000000000000000e+00 1.000000000000000000e+00 1.000000000000000000e+00 1.000000000000000000e+00 1.000000000000000000e+00 1.000000000000000000e+00 1.000000000000000000e+00 1.000000000000000000e+00 1.000000000000000000e+00 1.000000000000000000e+00 1.000000000000000000e+00 1.000000000000000000e+00 1.000000000000000000e+00 1.000000000000000000e+00 1.000000000000000000e+00 1.000000000000000000e+00 1.000000000000000000e+00 1.000000000000000000e+00 1.000000000000000000e+00 1.000000000000000000e+00 1.000000000000000000e+00 1.000000000000000000e+00 1.000000000000000000e+00 1.000000000000000000e+00 1.000000000000000000e+00 1.000000000000000000e+00 1.000000000000000000e+00 1.000000000000000000e+00 1.000000000000000000e+00 1.000000000000000000e+00 1.000000000000000000e+00 1.000000000000000000e+00 1.000000000000000000e+00 1.000000000000000000e+00 1.000000000000000000e+00 1.000000000000000000e+00 1.000000000000000000e+00 1.000000000000000000e+00 1.000000000000000000e+00 1.000000000000000000e+00 1.000000000000000000e+00 1.000000000000000000e+00 1.000000000000000000e+00 1.000000000000000000e+00 1.000000000000000000e+00 1.000000000000000000e+00 1.000000000000000000e+00 1.000000000000000000e+00 1.000000000000000000e+00 1.000000000000000000e+00 1.000000000000000000e+00 1.000000000000000000e+00 1.000000000000000000e+00 1.000000000000000000e+00 1.000000000000000000e+00 1.000000000000000000e+00 1.000000000000000000e+00 1.000000000000000000e+00 1.000000000000000000e+00 1.000000000000000000e+00 1.000000000000000000e+00 1.000000000000000000e+00 1.000000000000000000e+00 1.000000000000000000e+00 1.000000000000000000e+00 1.000000000000000000e+00 1.000000000000000000e+00 1.000000000000000000e+00 1.000000000000000000e+00 1.000000000000000000e+00 1.000000000000000000e+00 1.000000000000000000e+00 1.000000000000000000e+00 1.000000000000000000e+00 1.000000000000000000e+00 1.000000000000000000e+00 1.000000000000000000e+00 1.000000000000000000e+00 1.000000000000000000e+00 1.000000000000000000e+00 1.000000000000000000e+00 1.000000000000000000e+00 1.000000000000000000e+00 1.000000000000000000e+00 1.000000000000000000e+00 1.000000000000000000e+00 1.000000000000000000e+00 1.000000000000000000e+00 1.000000000000000000e+00 1.000000000000000000e+00 1.000000000000000000e+00 1.000000000000000000e+00 1.000000000000000000e+00 1.000000000000000000e+00 1.000000000000000000e+00 1.000000000000000000e+00 1.000000000000000000e+00 1.000000000000000000e+00 1.000000000000000000e+00 1.000000000000000000e+00 1.000000000000000000e+00 1.000000000000000000e+00 1.000000000000000000e+00 1.000000000000000000e+00 1.000000000000000000e+00 1.000000000000000000e+00 1.000000000000000000e+00 1.000000000000000000e+00 1.000000000000000000e+00 1.000000000000000000e+00 1.000000000000000000e+00 1.000000000000000000e+00 1.000000000000000000e+00 1.000000000000000000e+00 1.000000000000000000e+00 1.000000000000000000e+00 1.000000000000000000e+00 1.000000000000000000e+00 1.000000000000000000e+00 1.000000000000000000e+00 1.000000000000000000e+00 1.000000000000000000e+00 1.000000000000000000e+00 1.000000000000000000e+00 1.000000000000000000e+00 1.000000000000000000e+00 1.000000000000000000e+00 1.000000000000000000e+00 1.000000000000000000e+00 1.000000000000000000e+00 1.000000000000000000e+00 1.000000000000000000e+00 1.000000000000000000e+00 1.000000000000000000e+00 1.000000000000000000e+00 1.000000000000000000e+00 1.000000000000000000e+00 1.000000000000000000e+00 1.000000000000000000e+00 1.000000000000000000e+00 1.000000000000000000e+00 1.000000000000000000e+00 1.000000000000000000e+00 1.000000000000000000e+00 1.000000000000000000e+00 1.000000000000000000e+00 1.000000000000000000e+00 1.000000000000000000e+00 1.000000000000000000e+00 1.000000000000000000e+00 1.000000000000000000e+00 1.000000000000000000e+00 1.000000000000000000e+00 1.000000000000000000e+00 1.000000000000000000e+00 1.000000000000000000e+00 1.000000000000000000e+00 1.000000000000000000e+00 1.000000000000000000e+00 1.000000000000000000e+00 1.000000000000000000e+00 1.000000000000000000e+00 1.000000000000000000e+00 1.000000000000000000e+00 1.000000000000000000e+00 1.000000000000000000e+00 1.000000000000000000e+00 1.000000000000000000e+00 1.000000000000000000e+00 1.000000000000000000e+00 1.000000000000000000e+00 1.000000000000000000e+00 1.000000000000000000e+00 1.000000000000000000e+00 1.000000000000000000e+00 1.000000000000000000e+00 1.000000000000000000e+00 1.000000000000000000e+00 1.000000000000000000e+00 1.000000000000000000e+00 1.000000000000000000e+00 1.000000000000000000e+00 1.000000000000000000e+00 1.000000000000000000e+00 1.000000000000000000e+00 1.000000000000000000e+00 1.000000000000000000e+00 1.000000000000000000e+00 1.000000000000000000e+00 1.000000000000000000e+00 1.000000000000000000e+00 1.000000000000000000e+00 1.000000000000000000e+00 1.000000000000000000e+00 1.000000000000000000e+00 1.000000000000000000e+00 1.000000000000000000e+00 1.000000000000000000e+00 1.000000000000000000e+00 1.000000000000000000e+00 1.000000000000000000e+00 1.000000000000000000e+00 1.000000000000000000e+00 1.000000000000000000e+00 1.000000000000000000e+00 1.000000000000000000e+00 1.000000000000000000e+00 1.000000000000000000e+00 1.000000000000000000e+00 1.000000000000000000e+00 1.000000000000000000e+00 1.000000000000000000e+00 1.000000000000000000e+00 1.000000000000000000e+00 1.000000000000000000e+00 1.000000000000000000e+00 1.000000000000000000e+00 1.000000000000000000e+00 1.000000000000000000e+00 1.000000000000000000e+00 1.000000000000000000e+00 1.000000000000000000e+00 1.000000000000000000e+00 1.000000000000000000e+00 1.000000000000000000e+00 1.000000000000000000e+00 1.000000000000000000e+00 1.000000000000000000e+00 1.000000000000000000e+00 1.000000000000000000e+00 1.000000000000000000e+00 1.000000000000000000e+00 1.000000000000000000e+00 1.000000000000000000e+00 1.000000000000000000e+00 1.000000000000000000e+00 1.000000000000000000e+00 1.000000000000000000e+00 1.000000000000000000e+00 1.000000000000000000e+00 1.000000000000000000e+00 1.000000000000000000e+00 1.000000000000000000e+00 1.000000000000000000e+00 1.000000000000000000e+00 1.000000000000000000e+00 1.000000000000000000e+00 1.000000000000000000e+00 1.000000000000000000e+00 1.000000000000000000e+00 1.000000000000000000e+00 1.000000000000000000e+00 1.000000000000000000e+00 1.000000000000000000e+00 1.000000000000000000e+00 1.000000000000000000e+00 1.000000000000000000e+00 1.000000000000000000e+00 1.000000000000000000e+00 1.000000000000000000e+00 1.000000000000000000e+00 1.000000000000000000e+00 1.000000000000000000e+00 1.000000000000000000e+00 1.000000000000000000e+00 1.000000000000000000e+00 1.000000000000000000e+00 1.000000000000000000e+00 1.000000000000000000e+00 1.000000000000000000e+00 1.000000000000000000e+00 1.000000000000000000e+00 1.000000000000000000e+00 1.000000000000000000e+00 1.000000000000000000e+00 1.000000000000000000e+00 1.000000000000000000e+00 1.000000000000000000e+00 1.000000000000000000e+00 1.000000000000000000e+00 1.000000000000000000e+00 1.000000000000000000e+00 1.000000000000000000e+00 1.000000000000000000e+00 1.000000000000000000e+00 1.000000000000000000e+00 1.000000000000000000e+00 1.000000000000000000e+00 1.000000000000000000e+00 1.000000000000000000e+00 1.000000000000000000e+00 1.000000000000000000e+00 1.000000000000000000e+00 1.000000000000000000e+00 1.000000000000000000e+00 1.000000000000000000e+00 1.000000000000000000e+00 1.000000000000000000e+00 1.000000000000000000e+00 1.000000000000000000e+00 1.000000000000000000e+00 1.000000000000000000e+00 1.000000000000000000e+00 1.000000000000000000e+00 1.000000000000000000e+00 1.000000000000000000e+00 1.000000000000000000e+00 1.000000000000000000e+00 1.000000000000000000e+00 1.000000000000000000e+00 1.000000000000000000e+00 1.000000000000000000e+00 1.000000000000000000e+00 1.000000000000000000e+00 1.000000000000000000e+00 1.000000000000000000e+00 1.000000000000000000e+00 1.000000000000000000e+00 1.000000000000000000e+00 1.000000000000000000e+00 1.000000000000000000e+00 1.000000000000000000e+00 1.000000000000000000e+00 1.000000000000000000e+00 1.000000000000000000e+00 1.000000000000000000e+00 1.000000000000000000e+00 1.000000000000000000e+00 1.000000000000000000e+00 1.000000000000000000e+00 1.000000000000000000e+00 1.000000000000000000e+00 1.000000000000000000e+00 1.000000000000000000e+00 1.000000000000000000e+00 1.000000000000000000e+00 1.000000000000000000e+00 1.000000000000000000e+00 1.000000000000000000e+00 1.000000000000000000e+00 1.000000000000000000e+00 1.000000000000000000e+00 1.000000000000000000e+00 1.000000000000000000e+00 1.000000000000000000e+00 1.000000000000000000e+00 1.000000000000000000e+00 1.000000000000000000e+00 1.000000000000000000e+00 1.000000000000000000e+00 1.000000000000000000e+00 1.000000000000000000e+00 1.000000000000000000e+00 1.000000000000000000e+00 1.000000000000000000e+00 1.000000000000000000e+00 1.000000000000000000e+00 1.000000000000000000e+00 1.000000000000000000e+00 1.000000000000000000e+00 1.000000000000000000e+00 1.000000000000000000e+00 1.000000000000000000e+00 1.000000000000000000e+00 1.000000000000000000e+00 1.000000000000000000e+00 1.000000000000000000e+00 1.000000000000000000e+00 1.000000000000000000e+00 1.000000000000000000e+00 1.000000000000000000e+00 1.000000000000000000e+00 1.000000000000000000e+00 1.000000000000000000e+00 1.000000000000000000e+00 1.000000000000000000e+00 1.000000000000000000e+00 1.000000000000000000e+00 1.000000000000000000e+00
-3.061190059033372032e-03 5.580993255232263861e-01 -1.951845647784915261e-01 7.213353607378404364e-01 5.104252808444261769e-01 5.804449581953746717e-01 6.429568594859769171e-01 2.556163054356079822e-01 5.190978308301057442e-01 5.032274470089439511e-01 1.075959644444846486e+00 -6.679088244936082219e-01 1.389299301478111648e+00 4.451434490984328418e-01 5.122857859427455418e-01 4.017066101272464551e-01 9.133123821384382390e-01 9.699430875774214256e-01 6.562866243006596489e-01 5.211423930146421579e-01 4.364116510074097510e-01 9.753333366800784887e-01 4.933138078107334734e-01 4.613744082204691566e-01 1.161693436719006406e-01 6.838218723605410387e-01 3.604201894785572513e-01 5.782654333508407962e-01 5.282627714671813690e-01 1.534498029341998970e+00 5.344998229131673328e-01 6.135348990011988413e-01 7.210653838078072697e-01 4.870977306713229482e-01 7.147596794522481645e-01 4.523104444110542799e-01 5.611582436039350696e-01 1.734464257631792350e+00 -6.185258764687222299e-02 4.918829909900578334e-01 -1.329094425303328220e-01 -5.585932773914743521e-01 7.511727266865780850e-01 2.229947641526834889e-01 2.597601047980557798e-01 5.206044371333223841e-01 7.216178911197034251e-01 5.276030288921592648e-01 5.638694324478877862e-01 2.673553288543084605e-02 6.791435975116819936e-03 8.459746853969725144e-01 6.685762290717758294e-01 4.790668090228291098e-01 4.511631772746781954e-01 1.643125902213962361e-02 4.843795693879979769e-01 5.457835474042947999e-01 1.849484963644009439e-01 4.734055240318382207e-01 9.082542166483226209e-01 5.541670842860501045e-01 4.730991191605480872e-01 4.933137089262380481e-01 6.831005057216050780e-01 5.194269204721233546e-01 5.099197401431988519e-01 2.844152505422822275e-01 5.325222729428273905e-01 -1.041807543195774621e-02 4.079622025192068957e-01 4.708547819261921230e-01 5.234511138946397191e-01 4.038836189716970421e-02 1.491073732375209460e+00 5.595880629093020753e-01 6.317853442644982831e-01 7.434877163849761272e-01 5.072130239237373495e-01 1.378559347736452612e+00 5.417903681578214448e-01 2.852607820162210150e-01 1.366463022854289555e+00 6.693500918201182870e-01 4.862000466396357856e-01 7.578915397090337791e-01 8.165882796721000147e-01 5.434688244628173015e-01 4.033078227764942958e-01 5.753686392187173926e-01 2.637958560318124923e-01 2.131709575952377200e+00 7.093123553588408514e-01 -5.550088701597422763e-02 5.566949623956306548e-01 5.851454890852910706e-01 5.236482077252695433e-01 4.714521073848529920e-01 1.895249314790217465e-01 6.898263625570271174e-01 1.573582568286331140e+00 6.868669693667328602e-01 5.405085635948010392e-01 7.780008879201697480e-01 8.583394361095437741e-01 -2.003484842253412168e+00 -1.190599357627620147e+00 5.484958478934991444e-01 5.529652999364079724e-01 9.730788002927042157e-01 5.226121630440520027e-01 4.723137854381350142e-01 1.665338823808832636e-01 4.709342909143841571e-01 5.170220318510057034e-01 5.150295463254092043e-01 5.267937660684284262e-01 5.527307292165953845e-01 8.646137888937865945e-01 5.132365333849583378e-01 1.290424101265260415e+00 5.635216788854670034e-01 5.355515109463306889e-01 -3.502526951425622426e-01 5.122784461130195366e-01 1.920415904737146295e+00 5.523637527968567884e-01 4.812341387196239495e-01 6.869886913195076827e-01 5.046487636525883724e-01 5.431720526655932080e-01 5.090830357502182935e-01 4.101046688726972533e-01 2.609469475565655561e-01 -2.107436494595298915e-01 -1.532471541969970263e-01 6.167724917632653181e-01 3.852714986997085589e-02 9.908666548899246473e-01 6.793612000926317895e-01 5.034683212637097727e-01 8.559081742174640128e-01 6.500633890728388931e-01 5.944890067721206872e-01 5.064872483442733886e-01 2.755426896106196594e-02 8.656012898035551073e-01 1.126269141722497646e-01 4.780780450239159873e-01 -8.584711210092361711e-01 7.795657214338396201e-01 -2.992286915985393203e-01 5.206052406919576825e-01 5.310272068811422441e-01 4.988965607025565574e-01 5.151980222912417862e-01 1.869318605821407742e+00 -5.514205914221401855e-02 8.075567329498508640e-01 6.997444152147088703e-01 5.125449331367434302e-01 4.258887753432189505e-01 5.114934527962320399e-01 5.101762001242652333e-01 1.091102542716432477e+00 1.460144947692009754e-01 8.441149205180408233e-01 4.407739830114616453e-01 5.984215659493553607e-01 6.075838181790802484e-01 4.313604449903442051e-01 7.196139563944803363e-01 5.206071944360201043e-01 5.129690827514777896e-01 4.064174039612127309e-01 1.977272936330565570e-02 1.762533807255304008e-01 7.609884804419995985e-02 7.380401622021088848e-01 1.139773714125440707e+00 7.174915725987880410e-01 5.027519408557888925e-01 -1.864966337651555173e-01 4.660446573902001788e-01 6.760354084978401623e-01 5.229203634633325937e-01 5.258529176821312712e-01 4.992056816899670402e-01 2.725143850482327323e+00 5.323673490817499854e-01 5.101220326133865113e-01 -8.603132528526103995e-01 5.313411264329362949e-01 5.733841691883704295e-01 1.778241481150062142e-01 5.093338324097069769e-01 9.252587611198914708e-01 5.270082667698010592e-01 6.839812834776531902e-01 4.213060198295061620e-01 6.145792388353381597e-01 5.533279636291268400e-01 9.658516914184255286e-01 5.994520130141883785e-01 5.432528109108932801e-01 6.839813370180750640e-01 2.895122056754793616e-01 1.276928117972937482e+00 5.009616294678927995e-01 3.558563596777261084e-01 4.463424816348200430e-01 -6.412609953339529212e-02 4.706877934655556150e-01 1.640452979466404948e-01 5.212227646509810519e-01 5.072320673164452121e-01 5.131476328342924331e-01 5.215572384334764555e-01 5.055591983519313048e-01 5.102018048085921187e-01 4.513757451618441996e-01 6.141105135887026112e-01 -6.930520702650595499e-01 5.639120856653596636e-01 3.157999576153592280e-01 4.016311213578468431e-01 1.609736269007067955e-01 1.273084611742578032e+00 9.476605031225205922e-01 5.022844754793982514e-01 -1.046830615656458435e-01 1.045114218131290906e+00 5.092417818668147911e-01 4.525142189261884829e-01 4.688396533596378424e-01 4.179141000312305843e-01 4.214315087798175541e-01 2.013846493413496697e-01 -1.443907962558924618e-01 -1.227721347185540129e-01 3.087534299285806805e-01 5.143074101018960675e-01 -9.724652495559367449e-02 4.759450099695072267e-01 5.070274901976300486e-01 4.515289250163257440e-01 -1.049885827378486819e-01 7.424611208234417337e-01 -2.194960814704044250e+00 5.874243718751880339e-01 -5.406003161001555757e-01 4.961254221794269004e-01 5.101125787600074846e-01 4.933135708419654208e-01 4.747760493547587557e-01 5.306511654396136590e-01 5.174182230827509832e-01 7.307318588137842186e-01 5.367860462710813962e-01 1.680522541730951058e+00 6.712272963125188729e-01 6.975922917846982818e-01 5.116234700243593725e-01 3.490823315662027193e-01 9.082542585071822216e-01 3.749447905912583479e-01 2.618530346042630352e+00 5.603377869344121631e-01 2.436337658296587050e-01 6.764112426153762181e-01 5.086571671649638970e-01 9.077083103945330356e-01 5.074929058481630895e-01 5.337496020366550020e-01 5.084986021249370269e-01 1.053695131185115930e+00 7.606369114344369020e-01 8.675139370926051585e-01 8.109832468651773096e-01 3.410579500734686742e-01 6.737479337943013125e-01 5.609266633537545177e-01 3.975029776691179073e-01 -6.962797862994634102e-01 3.813063532476278494e-01 6.973309934725412385e-01 5.473694889377515027e-01 5.398362970318166809e-01 5.150295453948364743e-01 6.061584265641968283e-01 5.394594136743254831e-01 -7.595716043497006131e-01 6.841554106729310636e-01 5.151821960918635535e-01 5.736468518662547061e-02 5.356809566722643412e-01 1.839588828595149606e+00 4.931713089828490548e-01 5.056516376188984196e-01 4.780885118987321381e-01 -3.328505702485991868e+00 5.225843452657190635e-01 2.690609223290829188e+00 7.201712978295757850e-01 4.924480193282861906e-01 -5.822195164461758665e-01 5.084747999377313699e-01 5.065981751353987317e-01 4.316111250672014510e-01 4.636873244564416185e-01 3.862866242605216827e-01 6.347353165528470953e-01 3.149664600065885667e-01 5.166227880035325626e-01 5.230855854269810257e-01 3.707455630801722024e-01 5.087287566868468058e-01 7.206105831739485490e-01 5.136234712312912620e-01 1.185904164466435651e+00 1.285103650035780698e-02 2.198273911944092163e+00 2.594099742989658619e+00 5.543874934874967186e-01 -1.930054704043446534e-01 4.746956803099400823e-01 4.057757211939613251e-01 7.201821439209339371e-01 1.357178013574795727e+00 5.391291289901130046e-01 1.116080087559623291e+00 5.084310358436068267e-01 1.300367746110013822e-01 1.242260201559857169e+00 3.852539175473551070e-01 5.008801444687748239e-01 5.400801897283501463e-01 8.676252570652654983e-01 -3.595811148739239904e+00 1.607152384073099238e+00 5.526647502099865106e-01 6.400087352308286848e-01 5.059754942282707058e-01 1.734464254146648177e+00 3.116351484985401266e-01 5.339276189410586682e-01 4.887547832012060778e-01 4.257037054336118564e-01 1.383410899360802748e+00 6.265413739316550989e-01 6.839812827937435946e-01 4.759403815812388028e-01 5.994520140515792184e-01 6.559381450273072955e-01 5.591657838459428431e-01 8.878103329390553133e-01 5.105594236483782522e-01 3.979987680710210252e-01 2.399452230519547313e-01 6.390087199865180922e-01 5.108996049301637310e-01 4.734730594240612045e-01 5.339276147405951356e-01 6.601856582459314504e-01 5.136480177551211446e-01 9.868252804506240095e-01 1.006266174406872160e+00 1.115498159580379900e+00 5.195213754222921532e-01 2.479559990587814067e-01 9.082548931580006757e-01 -1.085933048274592555e-01 9.328870140960004997e-01 6.265631744841325679e-01 1.351455379058240196e-02 5.523008081421942883e-01 1.004538167687241801e+00 3.931413512932625531e-01 5.338920369202417859e-01 2.656988123735149476e-01 -3.282517804883007817e-01 -2.405757994784155418e+00 4.665582330585699156e-01 5.994520130187591667e-01 5.994519598477959788e-01 5.240647716481477980e-01 4.680799926563797286e-01 -2.023283444843470280e-01 3.437492041701669665e-01 5.060084314099867475e-01 6.325580016075718071e-01 5.125284523006268245e-01 1.064731388942096846e+00 6.839811153155394008e-01 5.091320043976294007e-01 4.706663447033075376e-01 2.658906694892394507e-01 6.456785084113311202e-01 5.312161650795708123e-01 5.131939944101241435e-01 5.614796483359753010e-01 2.671679853664496451e-01 2.709117838403972064e-02 5.994520141096989496e-01 6.548674031333276968e-01 5.115540238145368512e-01 4.510124485573470676e-01 8.566955491524002042e-01 6.451468025771488479e-01 5.628280018666724782e-01 1.797597177586076400e+00 5.262958606096883596e-01 -2.951080784210474928e+00 7.212662549834272241e-01 1.496166013955357865e+00 5.138956439589205116e-01 -1.029242950889834196e+00 6.924062479078882948e-01 4.766350343938595691e-01 5.131897027846843429e-01 5.342400809219814972e-01 -2.542691815971692137e-01 5.110192552227743601e-01 1.062311062622451896e+00 6.330553040148311217e-01 -3.118260217525064548e-01 5.168011755980542743e-01 5.075925753150196673e-01 7.628538353542689832e-01 5.263827944217073229e-01 4.965797817089744326e-01 -4.982507547971404827e-01 5.624142039755780642e-01 5.053104299997952520e-01 7.165025853663948840e-01 4.891291108538212140e-01 7.634299427870346877e-01 5.154945867803354398e-01 5.639663855465345543e-01 7.352353182575135371e-01 5.524739473047406424e-01 3.494764970308131269e-01 2.604820630496833544e-01 3.068135235655019000e-01 9.513928564708098445e-01 5.438856682315498237e-01 3.140593536943714348e+00 6.607203085069199844e-01 5.931675732024808134e-01 5.613199707413428774e-01 6.386672332848555289e-01 2.765289132710015835e-02 4.822838454767663929e-01 5.992875670969149970e-01 5.214921009574507993e-01 1.166008137075547513e+00 7.637155578435216308e-01 5.285408841908644240e-01 4.541489348602188447e-01 1.113334316224223741e+00 5.325453946723351928e-01 5.292448873011339483e-01 5.240956988827056851e-01 7.011784813555973495e-01 5.133528991165727806e-01 9.151329781248848105e-01 4.768344604270497444e-01 5.095997207885225588e-01 1.172098496500625746e-02 5.380641419416483107e-01 3.832828415958989404e-02 3.710121272138531823e-01 4.214473366319805292e-01 5.457257075271904068e-01 7.690799671013993644e-01 5.109689100788559202e-01 4.035386433089160341e-01 4.155861804678114696e-02 5.680060131116621003e-01 5.382028975786583569e-01 5.312113894758764276e-01 4.470814976377382455e-02 5.095517034028308467e-01 2.480877888859561731e-01 5.064068479504811870e-01 4.357275337507149904e-01 1.247742381056692773e+00 7.928606399282077666e-01 5.088656271011025023e-01 2.813860672519646888e-01 6.096359656993409759e-01 4.170001352123439697e-01 9.841799202560748139e-01 5.760200525922464232e-01 5.198042931064775773e-01 6.816081975980653462e-01 1.957981852270448631e+00 4.532543004128335440e-01 4.074640114553731984e-01 5.138840815579474031e-01 6.839298877056319004e-01 4.356497534302203323e-01 8.174417627414979348e-01 -5.599017853669658873e-01 3.133877126364449373e-01 5.510812546370186249e-01 4.411182054687202703e-01 3.757097826606426993e-01 -5.931692680764759640e-01 3.910027873507488372e-01 5.100726049448129906e-01 7.390460992708294263e-01 6.631933538562623243e-01 1.404082562371305132e+00 5.119043175525577194e-01 5.102048066962042716e-01 -6.738199553667207908e-01 4.913702390993210933e-01 1.192045317376606794e+00 6.895598036987323765e-01 2.483913704745256412e-01 2.894606480704861040e-01 -1.536070088336089157e+00 4.876328355072149789e-01 1.951408014590715889e-01 1.089643526735712520e+00 8.108362767675978411e-01 5.163985567092431728e-01 5.051884154520114301e-01 6.137743299942638453e-01 7.209951962502861855e-01 4.767914910077777901e-01 5.663800110497306806e-01 2.500463439733901713e-02 5.245057486110642486e-01 6.230311475992255099e-01 6.608552715452260529e-01 4.957021552953654320e-01 5.949706555666889329e-01 1.178146876518803898e+00 -1.110126998053776459e-01 -2.244048573666921065e-01 4.606763550247868766e-01 5.418292917184859281e-01 5.635924993095265956e-01 5.290886163276491416e-01 -8.237532651303768327e-01 3.105511573182544449e+00 5.936263575992961616e-01 4.616883890407050828e-01 4.134523081657914823e-01 5.069947508318117801e-01 5.173370372354757496e-01 6.437734286811463980e-01 3.280193236382156208e-01 5.737449432002780236e-01 5.072026438079457744e-01 6.597192774336232413e-01 3.800115983283801069e-01 5.479421178384340507e-01 5.235358834771567382e-01 4.063987070703613536e-01 4.634205785860028848e-01 5.450453555413550255e-01 6.390885578658513921e-01 9.961045356760817038e-01 2.283213673088282825e+00 5.829413190818890644e-01 4.932859768103561304e-01 5.567475903564694795e-01 5.460360705806907022e-01 3.644484085130843543e-01 5.126449519084653739e-01 5.056248609297573360e-01 5.539140816505931930e-01 4.825333950437556974e-01 4.900607949400438423e-01 7.208764688139757126e-01 3.707502859264469319e-01 5.848200732736169583e-01 5.378671106582461059e-01 5.873543846361980458e-01 1.281852822537249137e-01 9.082542401234687812e-01 5.412372434039915969e-01 1.538100519600734406e-01 1.906005672448072952e+00 2.639070691138755698e-01 4.738510429973287197e-01 5.832774247339884699e-01 5.985395535436836140e-02 5.371781882564574673e-01 1.492987934165375563e+00 7.424264243653655448e-01 7.953546641001376649e-01 5.101504454263743327e-01 5.390461677193254530e-01 5.111332518943847436e-01 6.075744860795457836e-01 5.136040627346454279e-01 5.096058625533432807e-01 -1.456981874346599537e-01 5.957124052190115870e-01 -1.344700534634183153e+00 5.413582140028538880e-01 4.894031497165047817e-01 5.513883763699871654e-01 4.781027815072286802e-01 9.082542401371912488e-01 2.290179675426338435e-01 5.677802283062356459e-01 1.303371388519075413e+00 -5.269357495434203731e-01 5.102137986639170286e-01 1.111569351586528365e+00 1.466087997322626402e+00 3.815512352503538929e-01 5.125299196330028728e-01 -4.231255053519095144e-02 -1.629477111016411905e+00 2.851969506210522698e-01 7.173684918118723441e-01 5.269329609723841790e-01 5.051210250594163620e-01 4.664620895464991479e-01 4.891576787090077261e-01 -3.843524648589897730e-01 8.066144087570573662e-01 5.150295497727653826e-01 3.467300616124578405e-01 5.403315234177759052e-01 -2.566927121753034488e-02 -1.768702991655348999e-01 1.743286759771427885e+00 4.176501224783218391e-01 4.337338767241060156e-01 5.112979523456995246e-01 3.336229687303254865e-01 6.269550931463079291e-01 -3.894471987652946016e-03 -9.611416769983687214e-01 5.074833529963489465e-01 5.155216357731667864e-01 4.770880515321469506e-01 5.830661463888496820e-01 5.526452174736300460e-01 5.406762839846349644e-01 5.190115202275845663e-01 5.828062693785720505e-01 1.022108892461123464e+00 7.288114788974133784e-01 5.525359282661461702e-01 5.372874816901255235e-01 4.770160668743141930e-01 4.292050841247787574e-01 -4.981395867157333793e-04 5.339276161812565036e-01 5.656756385579186919e-01 4.609382030077374126e-01 7.391226925996536856e-01 9.800381539136708842e-01 8.174390597758816046e-01 -4.579223093950665624e-01 5.524712434045646603e-01 5.350041724093860251e-01 5.066578832610122429e-01 5.691583402022784011e-01 8.936669142498608887e-01 5.458869993920917318e-01 4.961735295975366888e-01 -1.911807703892386967e-01 -8.314380964457392942e-01 2.238314849803476836e+00 5.252053942458583258e-01 8.852466941780533505e-01 4.934887490166171009e-01 5.654402763401891185e-01 3.573986591144966418e-01 1.485591738043337273e-01 5.103397607434434491e-01 5.398971989031237095e-01 5.466196240656726740e-03 5.122077801504619776e-01 4.248817379035198516e-01 5.050720232871843685e-01 7.613447787284750579e-01 5.008510598884433618e-01 5.818699943108451844e-01 3.833786710954320553e-01 5.534695857876024139e-01 3.401114798366289271e-01 5.076467662698590511e-01 4.583199562068328015e-01 5.283826813655609911e-01 -2.974534816195721909e-01 5.053024037734658025e-01 6.430696520203440514e-01 5.368874532129035426e-01 7.216088335777240959e-01 9.082540294042823481e-01 7.360781648872968264e-01 -5.755141559627142689e-01 9.947526372273512996e-01 1.734464257659997122e+00 4.728098098804854321e-01 4.638909188497110647e-01 1.065814530605340815e+00 5.300525172785979233e-01 7.217729080988225521e-01 5.111844395624457471e-01 1.770549128726824240e+00 5.111145251623419039e-01 4.759444604365475340e-01 1.234109451926294954e+00 -4.946388123034636125e-02 5.355967395244067841e-01 -1.690791337335414424e-01 -9.276765032336489192e-01 -1.771387464592716621e-01 7.807745541479456097e-01 5.320448249952777209e-01 5.798912897172620040e-01 -3.364779628695800939e-01 5.019590833845677391e-01 5.746193940548855947e-03 -3.398828060040262611e-01 4.551763312999988487e-01 5.083425714550571239e-01 5.146685012596783348e-01 5.694349681084232007e-01 5.645171995454909553e-01 8.992197016853417102e-01 -3.724323438977137357e-01 5.112408810997217667e-01 5.638767198500197475e-01 6.303196664289075768e-01 1.155659559773639877e+00 5.214760198607367725e-01 6.010326150210644203e-01 5.138282392864126358e-01 1.826644348661705594e-02 -2.540229312423368802e-01 5.101182618008069936e-01 5.137429264585423594e-01 6.552146591957841437e-01 4.905220429099122481e-01 3.336726961954430970e-01 5.125190628806154391e-01 5.119572036176295304e-01 3.289177826154213724e-01 5.076677671220449772e-01 8.365391466169420642e-01 2.507094472961111098e+00 -2.336603479729172927e-01 6.688906072308137274e-01 3.447950599862141252e-01 2.258990891975624915e-01 6.885010310636289210e-01 -5.610798254165956511e-02 -1.468647865027074895e+00 5.230523822723940341e-01 2.567593749998099639e+00 5.084944790689437388e-01 1.440363829593278300e-01 1.840272556400053550e-01 5.150295462450598105e-01 5.497676073961947907e-01 1.529449022580832374e+00 4.872628610115369852e-01 1.254783119754146470e-01 4.485662125264922584e-01 1.652697065250432695e+00 5.648384706673506006e-01 6.979865486187892820e-01 4.982596496779853612e-01 7.429691164586610386e-01 4.518677049091410769e-01 5.599278442702576575e-01 8.864963558097209081e-03 5.079204759448716633e-01 5.629394151668121182e-01 -5.595827827724217940e-01 -2.135131532930596016e-02 1.166030728093950142e+00 2.343690249665797698e-01 4.947842680572184793e-01 6.653218008998730282e-01 5.418192347257902997e-01 1.980959971372179496e+00 7.102697384116748447e-01 2.735945654760382068e-02 2.523545821466614547e-01 4.095065781805272698e-01 1.088036257544884089e+00 5.543155186155293013e-01 -1.873035508365893456e-02 4.896361034583322502e-01 -2.562028099009069221e-02 5.231238157129616262e-01 5.101758310547451769e-01 1.170509988598459304e-02 -7.540754914761428618e-02 6.641567318264024467e-01 6.210678517725518599e-01 5.228703281635787015e-01 3.195552523277533918e-01 5.411055193686058473e-01 4.800114085156949040e-01 5.663382342192224694e-01 5.468371240673162159e-01 4.827362029070021987e-01 6.462028631668468304e-01 1.011909959124201119e+00 3.069318962129769179e+00 8.818560538688573480e-01 5.224893899978799716e-01 6.564312898801097917e-01 2.099162098137541399e-01 5.141267537263816134e-01 8.314344399189125268e-01 4.800468099211718798e-01 1.315572215463316041e+00 5.362835120712164949e-01 -5.593519984894801400e-01 -9.637961645829360921e-03 4.218550174448538193e-01 6.102247304466621447e-01 5.536056385509523503e-01 5.026255272403165053e-01 -8.443813023014883068e-03 4.799267272425497555e-01 3.932378078357735562e-01 -3.511014402777011600e+00 4.928109916511143052e-01 5.307850181328059858e-01 1.114465219252783301e+00 5.171167046433066128e-01 5.993471387432622866e-01 6.792865697656911284e-01 -8.533827119783211623e-01 -5.073955494330033567e-01 5.862420621787221148e-02 5.118504549885525279e-01 4.040718397937556605e-01 2.278432956298134249e-01 4.856341179365137317e-01 -3.277052945995617694e-01 6.636568288396655912e-01 5.615234110804594447e-01 6.928655033253070528e-01 5.328169902494463983e-01 4.784746200056866350e-01 1.682722348264935330e-01 -7.221576863610580377e-01 6.467618159621657536e-01 5.332098689719705353e-01 1.679935024606028782e-01 5.111250804149397586e-01 5.866635764949280629e-01 4.935525308530063215e-01 6.676986067046150053e-01 5.646159624881571526e-01 5.349938172168050565e-01 4.969548595801975832e-01 1.734464257333595771e+00 3.745689960755266834e-01 5.526184470860106002e-01 -1.005000611160707796e-01 5.306673507439505499e-01 6.171590099309715027e-01 5.200855406986666374e-01 5.046911985958951741e-01 3.468080116852058081e-01 8.876915706484755919e-01 1.169838315057365241e+00 5.577844372405037499e-01 5.486856216552430388e-01 5.948257947459194561e-01 4.684801848708464167e-01 5.246353465122636228e-01 5.099502473844526040e-01 9.947916203029768534e-01 7.340770697745639950e-01 -4.454741792858573080e-01 4.407532203267164883e-01 9.214329253413928722e-01 4.830605348111204345e-01 3.342161898583406645e-03 5.355761186704912635e-01 1.150081653930962400e+00 -1.380428400656493193e-01 5.240169003188597241e-01 2.549111453631960345e-01 5.419742064647452562e-01 8.008019339268179770e-01 5.053152402951529565e-01 3.657733151510379477e-01 1.386550191775679730e+00 5.321992716602861329e-01 5.184843770569492749e-01 -6.002942315034150988e-01 4.640642306667403516e-01 1.044612133615355765e+00 5.787694137082765033e-01 1.126361081883775761e-01 9.379218469797578894e-01 -6.861171448435585130e-02 5.237354575560810854e-01 1.575139113737240359e+00 -8.465603702600554836e-01 5.293019199238024886e-01 5.102238927649823674e-01 -4.288803153944157343e-01 3.454164707847079407e-01 5.502013304916697489e-01 4.617179554646950734e-01 5.343175947664537961e-01 3.442610515861421749e-01 2.643873790707971239e-01 3.486615860217322505e-01 5.280775784930047401e-01 5.135527981322813851e-01 3.038134199035011623e-03 -4.419420947479633238e-02 5.189277464237335158e-01 1.056929944727431403e+00 3.839238518707228098e-01 -5.595703168593336718e-01 5.498723792066204652e-01 5.149010168426516598e-01 4.680628282231545367e-01 2.151688562943801161e-02 3.453686875060191230e-01 5.100979782363967985e-01 4.956432445149822064e-01 4.567064499984501147e-01 4.977435127927413300e-02 4.420647181701465311e-01 5.008846177026547997e-01 6.651173343168602647e-01 2.058067600386169538e+00 3.075109861147728649e-02 3.804589224498108879e-01 4.734238575805006510e-01 1.802350065042658933e+00 5.060596947444822025e-01 5.105508894811163767e-01 1.411658761510827323e-02 5.339276161376984575e-01 5.056046211919436040e-01 4.687158739318262324e-01 3.828103298451471792e-01 5.197189618751048013e-01 5.818979007755206156e-01 5.302820821202948176e-01 -4.975829931970386366e-01 5.043668154664193715e-01 5.031514883669512272e-01 5.186326448522748933e-01 9.277332837513296848e-01 5.117648470582845110e-01 -2.375056586021757343e-01 1.032410260439124539e+00 -1.205858903619797973e+00 -4.973126281334077081e-01 5.030673761505629615e-01 5.091897456332455940e-01 6.472798969127724344e-01 5.248385388731030554e-01 3.517576054761303306e-01 6.325118353387012560e-01 5.339276182620040778e-01 5.104481537705464200e-01 6.119237511756748793e-01 5.690036806549586546e-01 5.113754966315412487e-01 2.797256904940556566e-01 4.892900281182294142e-01 4.423124637361964817e-01 3.566745760436751955e-01 5.108052065241805995e-01 5.095507912374105386e-01 5.432382554967403188e-01 6.303074892767968063e-01 5.107532254943401018e-01 6.437498245825319376e-01 4.706071556205096984e-01 4.928860699963035219e-01 5.476681190716562453e-01 3.228957655570691698e-01 4.634064334191180246e-01 2.346376526435923093e+00 5.865724664764697671e-01 5.546878383869339180e-01 3.314056657660256477e-01 5.749684671532887537e-01 1.102672315363276034e+00 5.834773083903557200e-01 7.172376097495066771e-01 5.089639368234754047e-01
6.810828540708920853e-01 2.442305901186034300e-01 4.028177903109057545e-01 5.749537055444956662e-02 3.124273523249638806e-01 2.862900734460994134e-01 5.247216361009936492e-01 4.591697671970411121e-01 2.118102018917530638e-01 3.154160860250329601e-01 2.016613250676014157e+00 1.690150104834148070e+00 -1.404689594038180056e+00 6.216511687621596449e-01 3.111061222538940574e-01 3.724594074471599403e-01 1.281107393416834050e-01 4.191750006570236220e-01 4.492045161288932276e-01 2.932634827152346135e-01 4.729662118034526630e-01 2.069390942552593149e+00 4.048141648827335848e-01 3.563257368085728793e-01 6.991447506244946597e-01 -2.720368213472404983e-01 4.726085382505704757e-01 2.698366814654443169e-01 2.867269279081214872e-01 -8.240138842050993562e-01 2.219234094611018393e-01 -8.995873884679080057e-02 2.896401211826408195e-01 2.558951252247592678e-01 -4.300012205910843655e-01 4.088283908014815338e-01 3.094222369111801485e-01 -3.170367867419623953e-01 -3.154319181025176277e+00 2.855657972033592285e-01 1.097386724385524648e+00 1.379766914448588289e-01 -1.623064565987137053e-01 7.912780368194317626e-01 6.640065746444804295e-01 2.758921003864512334e-01 5.710029988111872679e-02 3.006244688773804241e-01 2.876075397018461044e-01 7.254703806581300762e-01 7.001892575905351856e-01 4.440612793220571342e-01 -2.919883913497929306e-01 1.960162102662000583e-01 6.046732250158064481e-01 6.963009247718616734e-01 3.245583808272644033e-01 2.865076358089423403e-01 3.483814861968909105e-01 3.317344301902665493e-01 4.217770870451991727e-01 3.251288975991167285e-01 3.297610157774261697e-01 4.048141769711819937e-01 -3.452240150587093659e-01 2.364293756634862076e-01 3.008080511170085347e-01 3.441300306293545441e-01 2.732632855082288148e-01 7.303452836757158284e-01 1.192220247030493369e-01 3.382037254837854112e-01 2.890748658678574112e-01 7.073116278835163140e-01 1.882893667001628968e+00 5.222915427338408190e-01 4.650818052839465477e-01 4.778755887838898042e-01 3.145540256188415484e-01 -1.309839482263078336e+00 2.746650207846251801e-01 6.530850674176186255e-01 2.231080825378627175e+00 1.385842326104537725e-01 2.878234275002778952e-01 -4.377029546215261968e-01 1.165154928423352415e-01 2.918535230186172225e-01 -5.669433834819622708e-01 -8.566115898052658606e-01 6.634133441778826690e-01 1.534682365821153471e+00 1.151851893734866100e-01 7.106168980000575619e-01 3.064620183598699699e-01 2.921685511542461700e-01 2.813478552661614063e-01 7.157377162059048725e-01 7.392140950158740953e-01 -2.716471709814868296e-01 -1.628878934288690017e-01 5.722988158766772332e-02 2.856444894555364988e-01 2.177923492569378006e-01 2.568959313682192894e-02 3.021527181440880838e+00 -2.749143956920497289e-01 4.454161394791159023e-02 2.288799937873480517e-01 8.057033053022117919e-01 2.266759384895505047e-01 3.728246555756921099e-01 1.731331276177884848e-01 4.862739702445167955e-01 -4.963362836224532448e-01 2.091918215121938984e-01 3.701953847380373697e-01 3.634475768764266479e-01 9.343177033858390823e-01 3.208276623142689576e-01 -1.420592215609066233e+00 2.845317238587294906e-01 2.544839481061621500e-01 1.268531818728503291e+00 3.009442327147213159e-01 2.120616882567094130e+00 1.601532484370687404e-01 3.880835418663058367e-01 2.901778111395034165e-01 3.304762909966700302e-01 2.419895837918092651e-01 3.101240077169848952e-01 6.699967836058531301e-01 3.957769394900189086e-01 1.874433051740412304e-01 8.878088347923520640e-01 6.889104788986081251e-01 7.263877848344234556e-01 -3.261813408560143013e-01 1.957920949568977553e-01 2.955135364481594196e-01 3.212157614076162626e-01 2.144235976246871567e-01 3.373909379817202625e-01 3.236090738693152558e-01 6.986902087089982283e-01 -1.033570531206729065e-01 3.182969493837672914e-01 4.446799170096786269e-01 3.935325395508412205e-01 -2.965231413577527619e-01 1.947931830765015429e-02 2.758938859343020300e-01 2.931660150060113601e-01 3.790425071594175077e-01 3.036485123111898332e-01 -2.193419663442511158e+00 4.407713900912826333e-01 -5.796478698914083738e-01 -2.699504062234881485e-01 3.861371180155352967e-01 1.761063500983867380e-01 3.066775669283467454e-01 3.164234259564248086e-01 1.050748507000439647e-01 5.054495106387363323e-02 3.134762514164954883e-01 3.847650234442597794e-01 2.419295497918105553e-01 3.747271036344407280e-01 1.949346999686835391e-01 5.534883298503333326e-02 2.759217521692682862e-01 3.110590137104553565e-01 -2.447854046978799492e+00 7.212608591587685858e-01 6.434507536372366943e-01 9.875555378150516761e-01 -4.505779645990020121e-01 1.166767184501925181e+00 -2.731954970324312199e-02 3.486587397481449857e-01 1.222465621813003445e+00 2.463292680000895851e-01 3.025523085413275859e-01 2.584638488301653769e-01 2.591445725775108899e-01 2.974756834650802984e-01 -4.492578477649267765e-01 3.827581086925583298e-01 1.868278199993537447e-01 7.978386871130780378e-01 3.116971376307194341e-01 2.117375754504107199e-01 2.176274190708799849e-01 3.221340799603571448e-01 -1.595335661439008179e+00 2.936884246806854004e-01 1.696006959564339833e-01 3.460194861946050970e-01 1.390946010489760853e-01 3.074803819823873630e-01 3.730105224344049120e-01 1.240838978341714388e-01 -8.099091468812503747e-01 1.696006690174266252e-01 4.401451559312975492e-01 -4.988638687284313034e-01 3.087505331919813134e-01 1.511618467419006129e-01 2.712329503638532535e-01 -3.157167854076687430e+00 4.261220352486435603e-01 9.405211228057265282e-01 3.102293078130058390e-01 3.252287515335057222e-01 3.120776224274454114e-01 2.961455691321904782e-01 3.237819979249709768e-01 3.136798968638852547e-01 3.122439083894373857e-01 2.130559127677984776e-01 6.544958522403947487e-01 1.608925598347063224e-01 5.319256469458671921e-01 4.303608372780253766e-01 3.762692716183538288e-01 -6.205552327636665311e-01 2.216404650214609973e+00 3.727044877286326829e-01 1.222565560002403018e+00 -1.371960772524154937e+00 3.107798907196227534e-01 1.995127438107094087e-01 3.447392756521688861e-01 1.133468321360461939e+00 4.606526276304098166e-01 7.832256158219055298e-01 2.762747324744037059e-01 6.705184757381085214e-01 3.542969584108791037e-01 3.319229517640293059e-01 -1.135800656646563933e+00 3.235622866854821478e-01 3.196861192253335204e-01 4.538423805170601621e-01 9.236255244707127776e-01 -3.283014254440332902e-01 3.044482862166561166e+00 4.463610474776435466e-01 1.196882869734407162e+00 -5.990543566548398036e-02 3.077858760020797946e-01 4.048143187698110546e-01 2.992371576706594483e-01 3.068882920356826860e-01 3.373762273839291392e-01 -7.233002533863169825e-02 1.735387003473312095e-01 5.601880578065376870e-01 2.948244588548953882e-01 9.059839301870205308e-02 2.842090710552518940e-01 3.017334234278584715e-01 4.217770524350592520e-01 2.736567490458866048e-01 3.132615425549518218e+00 3.828229617167482890e-01 6.567023909993092712e-01 5.443257020070718655e-01 3.622419568557052050e-01 4.222062080532361650e-01 3.201866910398291632e-01 2.689315436086687772e-01 3.148598154476550115e-01 -4.826552590407294785e-01 4.831850613582535092e-01 2.855564994206720719e-01 1.109115390208691709e-01 2.283846048970719356e-01 1.503313065913154833e+00 2.194636351978713762e-01 2.717128939547295841e-01 1.970862417971596114e+00 4.871375013651000896e-01 3.653780124335621604e-01 2.805253862721679425e-01 3.116778908830035166e-01 2.091918211787699711e-01 -2.034742913492626926e+00 2.876066020937831369e-01 1.444949826236846313e+00 2.476338920858503836e-02 2.047825224566780233e-01 7.180071868539981139e-01 2.468599704737127754e-01 -7.071537856599382499e-01 4.490450677410828817e-01 3.253711393792799167e-01 4.447118871646252303e-01 -3.721785052140233474e-01 2.941922091548885287e-01 -2.071837222272845835e+00 5.593715331501637050e-02 3.389496362228751614e-01 6.084678726343328847e-01 3.091117538947918963e-01 3.212831581601611752e-01 4.333954883943938463e-01 2.317841606038121005e-01 -1.309543036217853951e-01 -7.465274049716085214e-01 7.659283417653713066e-03 6.773231458125883453e-01 2.971554504062616786e-01 4.729712399721573979e-01 3.119044574797250058e-01 5.659446312401785611e-02 3.061215587118173986e-01 2.382594423299341457e+00 6.923910017286720731e-01 2.464042046286240850e-01 -1.120524596941552486e+00 2.240849652106065015e-01 4.531584209393130891e+00 3.088128845106159481e-01 -9.216109666840462122e-02 5.674611202344023164e-01 -5.418150512592567303e+00 4.945648433388217247e-01 1.501112267861426153e+00 3.157555907488437952e-01 5.451667163887075063e-01 -4.275904883399340162e-01 3.359733253959736876e-01 2.898926174429097280e-01 3.573278817363917947e-01 2.606365064984667024e-01 2.835934768294832597e+00 -3.578290428243652843e-01 2.505385633654183541e-01 -1.881618445613419510e+00 2.789017363462336641e-01 -3.170367874192432378e-01 7.354464767934751901e-01 5.599860153885370950e-01 3.693527405951712028e-01 3.535902166944924763e-01 1.290275835039168761e+00 1.331294811671665246e-01 1.696006970465456509e-01 3.235681816522713028e-01 1.240838957848908047e-01 2.382059075879502941e-01 3.997346657315589691e-01 -5.921004736428407966e-01 3.132023911942880545e-01 5.249611558327419436e-01 3.615423947899789603e-01 1.764548576096127419e-01 3.132312313806326354e-01 4.277352442383061115e-01 5.599860247627727050e-01 3.306454358985757014e-01 3.117299475015762322e-01 2.123379450959459736e-01 4.657678258657727555e-01 3.270910642044030148e+00 2.938596145701037332e-01 1.797680379256481886e-01 4.217761293528110578e-01 8.575339794278636907e-01 4.615537730426238494e-01 -1.877370479517121160e-01 6.979959501500323515e-01 2.196617986085121488e-01 1.106805715982916438e-01 3.827579778637859031e-01 6.434702273508752235e-01 6.719782219278431779e-01 7.672638961580845463e-01 8.033421024718095937e-01 3.888425413488076354e-01 1.240838978506954293e-01 1.240839844756693733e-01 3.712872767282536790e-01 1.001100923496143491e-01 1.120028610640098510e+00 4.186179346974574500e-01 3.114263796778387050e-01 3.928879850880281355e-01 3.109972217630607716e-01 7.915680684537026446e-01 1.696011113882400223e-01 3.122996732825084609e-01 4.312110879607197744e-01 3.198466143381373250e-01 -6.273485864218872887e-01 2.912008562564786796e-01 3.001136350261631169e-01 3.488424314085761258e-01 7.064680883364057307e-01 7.498064914507626133e-01 1.240838958623760591e-01 2.724193910172560337e-02 3.109337275571418258e-01 3.964005555420582749e-01 -5.881076997076725155e-01 2.252396974328793600e-01 -3.411679814749810191e+00 1.876899909624416551e+00 6.153040531363822563e-01 -4.294272371630942775e-01 5.758479478817805225e-02 2.011135652233202897e+00 3.232371735955941183e-01 6.263259900708155747e-01 7.473852510404646599e-02 2.673555862584981457e-01 4.672579078778090200e-01 3.275333581702836727e-01 -3.865455642797206992e-01 2.784461262468712617e-01 2.008308834028601275e+00 3.443375668599822914e-01 -3.819263754304904057e-01 2.394459719862518654e-01 3.182091926441565910e-01 -1.432315400026715979e+00 2.684994318005919367e-01 2.674794112614116703e-01 4.025350773436970897e-01 2.438263534183496284e-01 3.150996835810609964e-01 2.469601064336452434e-01 3.279724109807311550e-01 -1.596355099918602138e-01 3.103489423724834495e-01 1.608343297930328319e-01 3.439607997591328514e-01 2.575459205723938383e-01 3.315401928989627350e-02 4.559250118641065552e-01 6.440563572417150606e-01 -1.335859621899162075e+00 -4.543257006212403359e-01 -1.015384963062370971e-01 3.195826986635387501e-02 3.344339543414704963e-01 4.221674638624839382e-01 3.622406794107744243e-01 7.117037830148679189e-01 -8.755331793775218696e-02 3.295494731672331534e-01 2.944015217283283414e-01 9.128878975703644261e-02 -1.599622946048957217e-01 3.398863961210477069e-01 4.234893545087569655e-01 4.782055944134850356e-01 3.075990953325109523e-01 2.970739025604299810e-01 3.176911284375109612e-01 2.633433994627211727e-01 3.084859031328933132e-01 5.177415794257466120e-01 4.264201129332043649e-01 3.155443232356192618e-01 6.990183215438838804e-01 2.847005712315454629e-01 7.043734528664163941e-01 1.279666845986564272e-01 4.651648446416497551e-01 2.118223682444637379e-01 -1.423208177385318018e+00 3.224425619079433480e-01 6.385837872303152807e-01 3.967738905187558895e-01 2.518985734395743359e-01 2.799154158722133579e-01 3.404071368443504775e-01 7.127459232105660680e-01 3.172428965888641761e-01 3.515462513098372987e-01 3.137869671426599671e-01 2.994023885439979771e-01 2.280335313419801502e-01 5.315817865884939764e-01 3.006678415759189704e-01 2.910724102399944169e-01 2.312838937351292534e-01 3.326647274121868891e-02 1.594471106297190577e+00 3.519197613099122046e-01 3.755541178133599001e-01 3.699752601790786688e-01 -8.115136688989983416e-01 4.451916696595819567e-01 3.615419886014958895e-01 5.458911741386901495e-01 2.523146779878237406e-02 3.383341357869870114e-01 1.461242293520295110e+00 8.837673462310317030e-01 3.725255271660093404e-01 2.578755734072361583e-01 4.007083755974953920e-01 3.163731246369316241e-01 9.025803259475864149e-01 2.958599609550367493e+00 3.161217726331803646e-01 7.069683726558836923e-02 5.971494751812513879e-01 -1.500082976557632064e-01 3.182945613852960487e-01 3.168199998828035158e-01 1.045427573466146676e+00 3.470484992353953246e-01 -2.987974623618239733e-01 3.651259013800708941e-01 1.101777001038408699e-01 6.678174405089637444e-01 1.647951951673531701e+00 3.854316610411036570e-01 2.299207439502351513e-01 1.636842005458634786e+00 4.188096836097068287e-01 2.798122322183705379e-01 3.026725952720213386e-01 3.854451468335613473e-01 5.738308755770094721e-02 4.040299180815264957e-01 2.328249802894050702e-01 7.121044592984340227e-01 3.435833176814556689e-01 3.571684889791081341e-01 2.969417216673478910e-01 4.586159891957081181e-01 2.613367590613318026e-01 2.502186365354281405e-01 9.298267105486465178e-01 4.981145817861784009e-01 3.583036861242652193e-01 2.903188880879293832e-01 3.225510873611482920e-01 3.344415214700629524e-01 5.811122222155744588e-01 7.615081578596859524e-01 2.947767714759879643e-01 2.693804149379389612e-01 3.709323423438156686e-01 3.146608964293376998e-01 7.490782955236197083e-01 2.036370554250338805e-01 4.295425511731126300e-01 -3.172357467764028160e-01 3.140188195219796308e-01 2.189008914677864626e-01 3.979500932208728248e-01 3.508226057981909674e-01 2.288782788814842650e-01 1.727647363288688398e+00 1.627857790829378981e-01 2.914779791682174936e-01 -1.320988724707538864e-01 1.579459183731179772e+00 1.131773351429622210e+00 9.001673639305859953e-02 -4.657588199181630917e-01 2.852963257737520797e-01 3.174365854137902176e-01 5.122946011845265213e-01 3.131889090073979864e-01 3.191827191678180409e-01 2.071964652496317560e-01 3.207539064742474522e-01 3.495128220162897481e-01 5.783447543304041233e-02 -1.570602207329112043e-01 3.858250519145039470e-01 3.862281179108386642e-01 1.844603043007277121e-01 8.508077403303474506e-01 4.217770688054925388e-01 2.154133606220554054e-01 8.142577777883194257e-01 4.763832688044679631e-01 6.638254751092864669e-01 4.147192322718697977e-01 6.824255631563322932e-01 1.452292301037946709e+00 3.066674759808403206e-01 2.015508124104851362e+00 -8.656202647445553761e-03 1.293620666841708566e-01 3.137745515320984890e-01 2.861467697044506320e-01 3.058094242218208914e-01 3.747498293114956969e-01 3.243738429367948872e-01 3.144536414073607622e-01 3.497919214080595363e-01 1.809425382238065705e-01 -2.650612409241824285e-01 3.200540584691021762e-01 -7.685723317727599646e-02 2.501474587068284183e-01 4.447667969791514464e-01 4.217770687608112246e-01 1.932678378917758177e-01 2.682232109554092969e-01 -1.164006529155937830e+00 1.910544085480862853e+00 3.165039710079575741e-01 -6.773391087047185843e-01 2.982451439027836715e-01 3.175248123908389064e-01 3.109734221229852325e-01 -4.627123376425227086e+00 3.439197120767726989e+00 6.152439695935377761e-01 1.277792732027092093e-01 3.466793783251937988e-01 3.173590057835199985e-01 3.416536445401741617e-01 2.546032132239344214e+00 6.107695629981229057e-01 3.210706618151964453e-01 2.091918083155028252e-01 2.320748255377366731e-01 2.948253818558597694e-01 8.782485242630828637e-01 -3.800576566974505077e-01 -1.118127605995983043e+00 -1.171233718600138474e+00 3.226466214710052016e-01 3.175450378711084376e-01 6.969524895640851758e-01 3.205527533073139201e-01 1.224936233242679418e+00 4.559912738721937364e-01 3.161871471827125135e-01 3.138768790220208271e-01 2.892404530398184903e-01 2.641779967164991083e-01 2.501211468481366884e-01 6.539665479729409592e-01 2.888995121372986974e-01 6.274939888386424913e-01 2.116659452127598040e-01 1.563671453444725676e-02 2.502327943020256629e-01 2.287171485562287943e-01 3.198457706815323598e-01 3.718817961599902855e-01 7.204295787090688741e-01 5.599860195823984643e-01 4.958907049837862346e-01 3.955730698580097182e-01 3.216254296260066536e-01 2.504869823824811270e-01 1.461266682618677537e+00 1.798311978140479495e+00 2.493533026234989736e-01 3.210841774405869264e-01 3.166706998060049849e-01 1.924274634492345593e-01 2.421905917843724665e-01 1.819687105217110690e-01 3.459029680501760073e-01 3.189208650074644713e-01 7.833449341741980376e-01 8.571606574736777562e-01 2.668453431721533042e-01 1.819265197473989071e+00 1.615625461135983265e-01 -1.234283787839217106e-01 -2.689230906829469525e-01 -3.275341959178822981e-01 3.151500020213998665e-01 2.863117824411480772e-01 7.028969476926506532e-01 3.081455586410780101e-01 4.437577444237337243e-01 2.997814946052074214e-01 3.801652107719301621e-01 4.050923917953319631e-01 6.988602979039031105e-02 1.023299295569032541e+00 3.069339355146195047e-01 5.059360698313077886e-01 3.203034170299051686e-01 3.619009978098824409e-01 3.076085925142008071e-01 3.846184773617313812e-01 -1.273196895903357106e-01 2.238506748844477090e-01 3.019038460066944540e-01 5.688571423131132815e-02 4.217772495294084822e-01 1.124218118452247728e+00 9.357882943812811938e-01 -7.416225413728957383e-01 -3.170367867300152298e-01 6.327966262260233954e-01 -3.221440088992145956e+00 1.546098893806755470e+00 2.955871951311105916e-01 5.767857929675671708e-02 3.161579648234265627e-01 8.606494378337600226e-01 3.125132160810785154e-01 3.235629096047473729e-01 -4.348066559993942204e-01 8.298932728215588916e-01 2.725238170221371270e-01 8.902406317541669001e-01 2.043215274253778801e+00 -3.800705068583603574e-01 -1.415475116771422126e+00 3.001210672301193871e-01 2.288294453228158776e-01 7.851374384420493069e-01 3.124776922604638463e-01 6.969557902683113371e-01 4.689038890968554862e-01 1.260245833214783673e-01 3.229143078285888202e-01 3.473515622401878722e-01 2.235228518314859580e-01 3.726579332043314374e-01 1.361485670478954413e+00 1.564993578940590879e+00 3.123992007073597699e-01 2.604787018824972211e-01 2.043666443819320677e-03 -2.306244052381689336e-01 1.942759818326405818e-01 3.373257924616960418e-02 3.091937281573464702e-01 7.009050085601885582e-01 -3.874878226231023848e-01 3.168493196763741415e-01 3.328359990410893476e-01 1.632931128343136917e-01 3.276661681485886213e-01 2.930472810390631899e-01 3.080539384854161233e-01 3.155824530880033674e-01 -4.029900547908397274e-02 2.384959619570394262e-01 4.435565166447779650e-01 1.094010221814716077e+00 1.093199388340190703e+00 9.424879013626870083e-01 1.982923828585717863e-01 7.590048014631384232e-01 1.150471389247579163e-01 4.446711840715352748e-01 -2.024487587153253276e+00 2.992423631417380214e-01 6.473122229516939941e-01 2.907404887113142489e-01 9.591824422265768924e-01 1.346827536732336794e+00 2.091918208882672381e-01 3.090206050658647619e-01 3.711589398923295091e-01 1.896911938179927926e-01 5.589251769802850989e-01 7.678093003205243017e-01 -7.294258887534875724e-01 1.407325190200110765e-01 1.519528937380913436e-01 3.185312216332679691e-01 3.444216409281945501e-01 7.662879647503316738e-01 -1.277900192700822390e-01 3.823859994920337235e-01 3.178396771357884787e-01 2.508868037644816362e-01 8.840715478186931264e-01 4.190476860816476634e-01 -2.000052235246160270e-01 8.591625581449336968e-01 -4.092344131960126696e-02 5.712255535641090898e-01 2.865855672217861860e-01 1.266529787748940317e+00 5.253221358370018246e-01 7.115033092223600475e-01 4.326141516713568058e-01 4.723503779116631218e-01 -4.954850325694862279e-01 2.985651811034718550e-01 7.621390176677296235e-01 2.895134186398186094e-01 6.527948519208657263e-01 3.534653588009393221e-01 3.156204647701891797e-01 7.329357546932635525e-01 1.146012358390756797e-01 -2.000965194569820138e+00 3.279668234384162662e-01 2.829080542147126009e-01 6.965652611676869110e-01 3.719577436234761114e-01 3.806947692729232280e-01 2.372517841346267475e-01 2.378607944654102246e-01 3.555167198176480969e-01 1.338889655438184334e-02 -1.599779799616344755e+00 7.382876299754010940e-01 2.706011191029948360e-01 2.965424730978229451e-01 1.830687532953589602e-01 8.240874226945243963e-01 3.141248766102889833e-01 -1.215925441233242643e-01 3.083370648573063311e-01 1.111050298550997795e+00 3.269033965130258568e-01 4.140807098599427194e-01 1.068649134031298242e+00 2.940362241609968397e-01 2.673879323017717358e+00 2.672634350081214971e-01 3.299195812602379041e-01 6.917553399498456157e-01 3.206799606210399278e-01 2.782444827781133112e-01 -1.980400118837178702e+00 3.511764114490211197e-01 2.858886382598226361e-01 5.102430981107254349e-01 2.991706473455543747e-01 3.628946435832667294e-01 -2.672624315671336959e-01 2.001428302494230316e+00 -5.205294315218080836e-01 8.258821476694554464e-01 3.143291953160275432e-01 4.053986183618715211e-01 7.347810262136408310e-01 3.391241121412020831e-01 1.306558327570024769e+00 1.480301250991091777e-01 2.885019254319022286e-01 -8.743533867386936720e-01 -1.236526124832503376e-01 -2.001083301928642255e-01 -3.756731909584980933e+00 2.866090979124920057e+00 9.407243493594712180e-02 2.769112288975845715e-01 -1.562016076747787086e+00 3.138441587747516914e-01 1.635726519704783499e-01 3.416737282082104588e-01 1.276343113704506704e-01 6.362566238984155298e-01 5.886823027446107526e-01 9.580856108470409138e-01 -3.170367866554018033e-01 -2.070501828095173413e-01 2.090726994290508234e-01 -1.165713817494070437e+00 2.820754271526494383e-01 -6.222331785655951242e-01 3.505589744710082001e-01 4.871396972761004029e-01 3.310730308599402899e-02 4.066049240587568114e-01 2.757704139226629936e-01 -1.206835112359151141e-01 2.080665190794103170e-01 3.081049980609816275e-01 3.407546135755682992e-01 3.092796209671665464e-01 3.163872358835099763e-01 -7.415298887014535323e-01 5.907770984914666457e-01 1.520179563935035061e+00 5.083771360004370882e-02 2.434942687034475084e-01 4.118922101420017245e-01 1.216436495758286052e+00 2.782478384945615280e-01 1.749980274722193196e-01 8.982882792772592939e-01 3.407722781525172606e-01 1.813918353140132611e+00 4.072415927022548510e-01 1.144045618707832501e+00 3.230069990596928786e-01 7.367542738979563355e-01 1.337042402579632361e+00 3.118104684542166161e-01 3.937740409392924690e-01 8.954945504877220852e-01 -1.816808359409759488e-01 -4.467254997256267512e-02 1.354314210380585526e-01 2.936475980690491094e-01 3.403952689200033244e-01 1.407612624536308532e-01 2.763634705541285208e-01 -3.388252229734544096e-01 1.292358340443211295e+00 2.751749460992387042e-01 3.161218737019670377e-01 -3.051166772568856267e+00 4.607862762385591116e-01 3.962749455091331141e-01 4.756159341339247226e-01 4.368848172390580875e-01 5.099483970372540309e-01 -1.017052545653179152e+00 5.798890751520124898e-01 2.760408584972285917e-01 3.085456851987048443e-01 1.049963482642972235e+00 4.385741733437332757e-01 3.043823212438258041e-01 -1.371817437757994584e+00 4.707388287171840879e-01 8.840874758430365965e-01 2.915239629378683639e-01 3.103942389916649058e-01 2.802253561917540936e-01 6.932978677501083764e-01 -9.062195677460484211e-02 3.128863086278083627e-01 3.409038881113934383e-01 6.424160154830117764e-02 7.231414599884979921e-01 3.584673690219921105e-01 7.469949489880187699e-01 1.821019601924946663e-01 6.824724567463908986e-01 -1.971083845296709713e-01 -1.497159114480183462e+00 3.430444027045571609e-01 -1.318625970893706929e-02 2.947193948036026523e-01 2.787504309944148218e-01 5.760087250944085496e-02 5.599860202093842609e-01 3.190494118027915604e-01 8.973536218770060413e-02 4.579363781639692599e-01 3.476123506545134578e-01 2.832489003582883136e-01 2.740012753840477822e-01 -7.902562719840205974e-01 3.269472499175636315e-01 3.053069014151330585e-01 3.520757712791570126e-01 -4.174154867198092561e-02 3.135719072868330959e-01 7.830236624942311652e-01 -4.607142788196612604e-01 1.077116545861153130e+00 5.969858413660497076e-01 3.549703640281846040e-01 3.150516813134782157e-01 -2.005200323928054473e+00 2.911293182664421719e-01 1.770054585577438833e-01 2.195956735953395189e-01 5.599860190434666762e-01 3.105755968069100481e-01 2.623505975524824119e-01 1.422441704679279495e-01 3.171253801670209094e-01 4.344820812796664766e-01 4.276687546606693369e-01 4.029267427433478876e-01 3.078042342865431880e-01 3.158822412899970900e-01 3.150712512893757422e-01 2.915526389522286599e-01 -3.673188353504618347e-03 3.129437273461015412e-01 5.701729457493065478e-01 2.388548526270879435e-01 2.805901665581178039e-01 -1.130258398109018625e-01 1.135664636840480468e-01 4.517293754199982470e-01 4.279671440088486101e+00 2.490540940652622159e-01 1.568732455128092063e-01 4.990410518986247435e-01 2.326155510318606845e-01 1.519713795814449320e+00 2.912474738625238646e-01 6.668002926400209418e-01 3.114166268647222680e-01
