# 
#                 ----------------------------------------------------
#                 Data from a 3D direct N-body simulation. 
# 
#                 rows are i-particle; 
#                 coumns are :mass, tag, x ,y, z, vx, vy, vz, ax, ay, az
# 
#                 NTHU, Computational Physics 
# 
#                 ----------------------------------------------------
#                 Time = 0.0
0.000000000000000000e+00 1.000000000000000000e+00 2.000000000000000000e+00 3.000000000000000000e+00 4.000000000000000000e+00 5.000000000000000000e+00 6.000000000000000000e+00 7.000000000000000000e+00 8.000000000000000000e+00 9.000000000000000000e+00 1.000000000000000000e+01 1.100000000000000000e+01 1.200000000000000000e+01 1.300000000000000000e+01 1.400000000000000000e+01 1.500000000000000000e+01 1.600000000000000000e+01 1.700000000000000000e+01 1.800000000000000000e+01 1.900000000000000000e+01 2.000000000000000000e+01 2.100000000000000000e+01 2.200000000000000000e+01 2.300000000000000000e+01 2.400000000000000000e+01 2.500000000000000000e+01 2.600000000000000000e+01 2.700000000000000000e+01 2.800000000000000000e+01 2.900000000000000000e+01 3.000000000000000000e+01 3.100000000000000000e+01 3.200000000000000000e+01 3.300000000000000000e+01 3.400000000000000000e+01 3.500000000000000000e+01 3.600000000000000000e+01 3.700000000000000000e+01 3.800000000000000000e+01 3.900000000000000000e+01 4.000000000000000000e+01 4.100000000000000000e+01 4.200000000000000000e+01 4.300000000000000000e+01 4.400000000000000000e+01 4.500000000000000000e+01 4.600000000000000000e+01 4.700000000000000000e+01 4.800000000000000000e+01 4.900000000000000000e+01 5.000000000000000000e+01 5.100000000000000000e+01 5.200000000000000000e+01 5.300000000000000000e+01 5.400000000000000000e+01 5.500000000000000000e+01 5.600000000000000000e+01 5.700000000000000000e+01 5.800000000000000000e+01 5.900000000000000000e+01 6.000000000000000000e+01 6.100000000000000000e+01 6.200000000000000000e+01 6.300000000000000000e+01 6.400000000000000000e+01 6.500000000000000000e+01 6.600000000000000000e+01 6.700000000000000000e+01 6.800000000000000000e+01 6.900000000000000000e+01 7.000000000000000000e+01 7.100000000000000000e+01 7.200000000000000000e+01 7.300000000000000000e+01 7.400000000000000000e+01 7.500000000000000000e+01 7.600000000000000000e+01 7.700000000000000000e+01 7.800000000000000000e+01 7.900000000000000000e+01 8.000000000000000000e+01 8.100000000000000000e+01 8.200000000000000000e+01 8.300000000000000000e+01 8.400000000000000000e+01 8.500000000000000000e+01 8.600000000000000000e+01 8.700000000000000000e+01 8.800000000000000000e+01 8.900000000000000000e+01 9.000000000000000000e+01 9.100000000000000000e+01 9.200000000000000000e+01 9.300000000000000000e+01 9.400000000000000000e+01 9.500000000000000000e+01 9.600000000000000000e+01 9.700000000000000000e+01 9.800000000000000000e+01 9.900000000000000000e+01 1.000000000000000000e+02 1.010000000000000000e+02 1.020000000000000000e+02 1.030000000000000000e+02 1.040000000000000000e+02 1.050000000000000000e+02 1.060000000000000000e+02 1.070000000000000000e+02 1.080000000000000000e+02 1.090000000000000000e+02 1.100000000000000000e+02 1.110000000000000000e+02 1.120000000000000000e+02 1.130000000000000000e+02 1.140000000000000000e+02 1.150000000000000000e+02 1.160000000000000000e+02 1.170000000000000000e+02 1.180000000000000000e+02 1.190000000000000000e+02 1.200000000000000000e+02 1.210000000000000000e+02 1.220000000000000000e+02 1.230000000000000000e+02 1.240000000000000000e+02 1.250000000000000000e+02 1.260000000000000000e+02 1.270000000000000000e+02 1.280000000000000000e+02 1.290000000000000000e+02 1.300000000000000000e+02 1.310000000000000000e+02 1.320000000000000000e+02 1.330000000000000000e+02 1.340000000000000000e+02 1.350000000000000000e+02 1.360000000000000000e+02 1.370000000000000000e+02 1.380000000000000000e+02 1.390000000000000000e+02 1.400000000000000000e+02 1.410000000000000000e+02 1.420000000000000000e+02 1.430000000000000000e+02 1.440000000000000000e+02 1.450000000000000000e+02 1.460000000000000000e+02 1.470000000000000000e+02 1.480000000000000000e+02 1.490000000000000000e+02 1.500000000000000000e+02 1.510000000000000000e+02 1.520000000000000000e+02 1.530000000000000000e+02 1.540000000000000000e+02 1.550000000000000000e+02 1.560000000000000000e+02 1.570000000000000000e+02 1.580000000000000000e+02 1.590000000000000000e+02 1.600000000000000000e+02 1.610000000000000000e+02 1.620000000000000000e+02 1.630000000000000000e+02 1.640000000000000000e+02 1.650000000000000000e+02 1.660000000000000000e+02 1.670000000000000000e+02 1.680000000000000000e+02 1.690000000000000000e+02 1.700000000000000000e+02 1.710000000000000000e+02 1.720000000000000000e+02 1.730000000000000000e+02 1.740000000000000000e+02 1.750000000000000000e+02 1.760000000000000000e+02 1.770000000000000000e+02 1.780000000000000000e+02 1.790000000000000000e+02 1.800000000000000000e+02 1.810000000000000000e+02 1.820000000000000000e+02 1.830000000000000000e+02 1.840000000000000000e+02 1.850000000000000000e+02 1.860000000000000000e+02 1.870000000000000000e+02 1.880000000000000000e+02 1.890000000000000000e+02 1.900000000000000000e+02 1.910000000000000000e+02 1.920000000000000000e+02 1.930000000000000000e+02 1.940000000000000000e+02 1.950000000000000000e+02 1.960000000000000000e+02 1.970000000000000000e+02 1.980000000000000000e+02 1.990000000000000000e+02 2.000000000000000000e+02 2.010000000000000000e+02 2.020000000000000000e+02 2.030000000000000000e+02 2.040000000000000000e+02 2.050000000000000000e+02 2.060000000000000000e+02 2.070000000000000000e+02 2.080000000000000000e+02 2.090000000000000000e+02 2.100000000000000000e+02 2.110000000000000000e+02 2.120000000000000000e+02 2.130000000000000000e+02 2.140000000000000000e+02 2.150000000000000000e+02 2.160000000000000000e+02 2.170000000000000000e+02 2.180000000000000000e+02 2.190000000000000000e+02 2.200000000000000000e+02 2.210000000000000000e+02 2.220000000000000000e+02 2.230000000000000000e+02 2.240000000000000000e+02 2.250000000000000000e+02 2.260000000000000000e+02 2.270000000000000000e+02 2.280000000000000000e+02 2.290000000000000000e+02 2.300000000000000000e+02 2.310000000000000000e+02 2.320000000000000000e+02 2.330000000000000000e+02 2.340000000000000000e+02 2.350000000000000000e+02 2.360000000000000000e+02 2.370000000000000000e+02 2.380000000000000000e+02 2.390000000000000000e+02 2.400000000000000000e+02 2.410000000000000000e+02 2.420000000000000000e+02 2.430000000000000000e+02 2.440000000000000000e+02 2.450000000000000000e+02 2.460000000000000000e+02 2.470000000000000000e+02 2.480000000000000000e+02 2.490000000000000000e+02 2.500000000000000000e+02 2.510000000000000000e+02 2.520000000000000000e+02 2.530000000000000000e+02 2.540000000000000000e+02 2.550000000000000000e+02 2.560000000000000000e+02 2.570000000000000000e+02 2.580000000000000000e+02 2.590000000000000000e+02 2.600000000000000000e+02 2.610000000000000000e+02 2.620000000000000000e+02 2.630000000000000000e+02 2.640000000000000000e+02 2.650000000000000000e+02 2.660000000000000000e+02 2.670000000000000000e+02 2.680000000000000000e+02 2.690000000000000000e+02 2.700000000000000000e+02 2.710000000000000000e+02 2.720000000000000000e+02 2.730000000000000000e+02 2.740000000000000000e+02 2.750000000000000000e+02 2.760000000000000000e+02 2.770000000000000000e+02 2.780000000000000000e+02 2.790000000000000000e+02 2.800000000000000000e+02 2.810000000000000000e+02 2.820000000000000000e+02 2.830000000000000000e+02 2.840000000000000000e+02 2.850000000000000000e+02 2.860000000000000000e+02 2.870000000000000000e+02 2.880000000000000000e+02 2.890000000000000000e+02 2.900000000000000000e+02 2.910000000000000000e+02 2.920000000000000000e+02 2.930000000000000000e+02 2.940000000000000000e+02 2.950000000000000000e+02 2.960000000000000000e+02 2.970000000000000000e+02 2.980000000000000000e+02 2.990000000000000000e+02 3.000000000000000000e+02 3.010000000000000000e+02 3.020000000000000000e+02 3.030000000000000000e+02 3.040000000000000000e+02 3.050000000000000000e+02 3.060000000000000000e+02 3.070000000000000000e+02 3.080000000000000000e+02 3.090000000000000000e+02 3.100000000000000000e+02 3.110000000000000000e+02 3.120000000000000000e+02 3.130000000000000000e+02 3.140000000000000000e+02 3.150000000000000000e+02 3.160000000000000000e+02 3.170000000000000000e+02 3.180000000000000000e+02 3.190000000000000000e+02 3.200000000000000000e+02 3.210000000000000000e+02 3.220000000000000000e+02 3.230000000000000000e+02 3.240000000000000000e+02 3.250000000000000000e+02 3.260000000000000000e+02 3.270000000000000000e+02 3.280000000000000000e+02 3.290000000000000000e+02 3.300000000000000000e+02 3.310000000000000000e+02 3.320000000000000000e+02 3.330000000000000000e+02 3.340000000000000000e+02 3.350000000000000000e+02 3.360000000000000000e+02 3.370000000000000000e+02 3.380000000000000000e+02 3.390000000000000000e+02 3.400000000000000000e+02 3.410000000000000000e+02 3.420000000000000000e+02 3.430000000000000000e+02 3.440000000000000000e+02 3.450000000000000000e+02 3.460000000000000000e+02 3.470000000000000000e+02 3.480000000000000000e+02 3.490000000000000000e+02 3.500000000000000000e+02 3.510000000000000000e+02 3.520000000000000000e+02 3.530000000000000000e+02 3.540000000000000000e+02 3.550000000000000000e+02 3.560000000000000000e+02 3.570000000000000000e+02 3.580000000000000000e+02 3.590000000000000000e+02 3.600000000000000000e+02 3.610000000000000000e+02 3.620000000000000000e+02 3.630000000000000000e+02 3.640000000000000000e+02 3.650000000000000000e+02 3.660000000000000000e+02 3.670000000000000000e+02 3.680000000000000000e+02 3.690000000000000000e+02 3.700000000000000000e+02 3.710000000000000000e+02 3.720000000000000000e+02 3.730000000000000000e+02 3.740000000000000000e+02 3.750000000000000000e+02 3.760000000000000000e+02 3.770000000000000000e+02 3.780000000000000000e+02 3.790000000000000000e+02 3.800000000000000000e+02 3.810000000000000000e+02 3.820000000000000000e+02 3.830000000000000000e+02 3.840000000000000000e+02 3.850000000000000000e+02 3.860000000000000000e+02 3.870000000000000000e+02 3.880000000000000000e+02 3.890000000000000000e+02 3.900000000000000000e+02 3.910000000000000000e+02 3.920000000000000000e+02 3.930000000000000000e+02 3.940000000000000000e+02 3.950000000000000000e+02 3.960000000000000000e+02 3.970000000000000000e+02 3.980000000000000000e+02 3.990000000000000000e+02 4.000000000000000000e+02 4.010000000000000000e+02 4.020000000000000000e+02 4.030000000000000000e+02 4.040000000000000000e+02 4.050000000000000000e+02 4.060000000000000000e+02 4.070000000000000000e+02 4.080000000000000000e+02 4.090000000000000000e+02 4.100000000000000000e+02 4.110000000000000000e+02 4.120000000000000000e+02 4.130000000000000000e+02 4.140000000000000000e+02 4.150000000000000000e+02 4.160000000000000000e+02 4.170000000000000000e+02 4.180000000000000000e+02 4.190000000000000000e+02 4.200000000000000000e+02 4.210000000000000000e+02 4.220000000000000000e+02 4.230000000000000000e+02 4.240000000000000000e+02 4.250000000000000000e+02 4.260000000000000000e+02 4.270000000000000000e+02 4.280000000000000000e+02 4.290000000000000000e+02 4.300000000000000000e+02 4.310000000000000000e+02 4.320000000000000000e+02 4.330000000000000000e+02 4.340000000000000000e+02 4.350000000000000000e+02 4.360000000000000000e+02 4.370000000000000000e+02 4.380000000000000000e+02 4.390000000000000000e+02 4.400000000000000000e+02 4.410000000000000000e+02 4.420000000000000000e+02 4.430000000000000000e+02 4.440000000000000000e+02 4.450000000000000000e+02 4.460000000000000000e+02 4.470000000000000000e+02 4.480000000000000000e+02 4.490000000000000000e+02 4.500000000000000000e+02 4.510000000000000000e+02 4.520000000000000000e+02 4.530000000000000000e+02 4.540000000000000000e+02 4.550000000000000000e+02 4.560000000000000000e+02 4.570000000000000000e+02 4.580000000000000000e+02 4.590000000000000000e+02 4.600000000000000000e+02 4.610000000000000000e+02 4.620000000000000000e+02 4.630000000000000000e+02 4.640000000000000000e+02 4.650000000000000000e+02 4.660000000000000000e+02 4.670000000000000000e+02 4.680000000000000000e+02 4.690000000000000000e+02 4.700000000000000000e+02 4.710000000000000000e+02 4.720000000000000000e+02 4.730000000000000000e+02 4.740000000000000000e+02 4.750000000000000000e+02 4.760000000000000000e+02 4.770000000000000000e+02 4.780000000000000000e+02 4.790000000000000000e+02 4.800000000000000000e+02 4.810000000000000000e+02 4.820000000000000000e+02 4.830000000000000000e+02 4.840000000000000000e+02 4.850000000000000000e+02 4.860000000000000000e+02 4.870000000000000000e+02 4.880000000000000000e+02 4.890000000000000000e+02 4.900000000000000000e+02 4.910000000000000000e+02 4.920000000000000000e+02 4.930000000000000000e+02 4.940000000000000000e+02 4.950000000000000000e+02 4.960000000000000000e+02 4.970000000000000000e+02 4.980000000000000000e+02 4.990000000000000000e+02 5.000000000000000000e+02 5.010000000000000000e+02 5.020000000000000000e+02 5.030000000000000000e+02 5.040000000000000000e+02 5.050000000000000000e+02 5.060000000000000000e+02 5.070000000000000000e+02 5.080000000000000000e+02 5.090000000000000000e+02 5.100000000000000000e+02 5.110000000000000000e+02 5.120000000000000000e+02 5.130000000000000000e+02 5.140000000000000000e+02 5.150000000000000000e+02 5.160000000000000000e+02 5.170000000000000000e+02 5.180000000000000000e+02 5.190000000000000000e+02 5.200000000000000000e+02 5.210000000000000000e+02 5.220000000000000000e+02 5.230000000000000000e+02 5.240000000000000000e+02 5.250000000000000000e+02 5.260000000000000000e+02 5.270000000000000000e+02 5.280000000000000000e+02 5.290000000000000000e+02 5.300000000000000000e+02 5.310000000000000000e+02 5.320000000000000000e+02 5.330000000000000000e+02 5.340000000000000000e+02 5.350000000000000000e+02 5.360000000000000000e+02 5.370000000000000000e+02 5.380000000000000000e+02 5.390000000000000000e+02 5.400000000000000000e+02 5.410000000000000000e+02 5.420000000000000000e+02 5.430000000000000000e+02 5.440000000000000000e+02 5.450000000000000000e+02 5.460000000000000000e+02 5.470000000000000000e+02 5.480000000000000000e+02 5.490000000000000000e+02 5.500000000000000000e+02 5.510000000000000000e+02 5.520000000000000000e+02 5.530000000000000000e+02 5.540000000000000000e+02 5.550000000000000000e+02 5.560000000000000000e+02 5.570000000000000000e+02 5.580000000000000000e+02 5.590000000000000000e+02 5.600000000000000000e+02 5.610000000000000000e+02 5.620000000000000000e+02 5.630000000000000000e+02 5.640000000000000000e+02 5.650000000000000000e+02 5.660000000000000000e+02 5.670000000000000000e+02 5.680000000000000000e+02 5.690000000000000000e+02 5.700000000000000000e+02 5.710000000000000000e+02 5.720000000000000000e+02 5.730000000000000000e+02 5.740000000000000000e+02 5.750000000000000000e+02 5.760000000000000000e+02 5.770000000000000000e+02 5.780000000000000000e+02 5.790000000000000000e+02 5.800000000000000000e+02 5.810000000000000000e+02 5.820000000000000000e+02 5.830000000000000000e+02 5.840000000000000000e+02 5.850000000000000000e+02 5.860000000000000000e+02 5.870000000000000000e+02 5.880000000000000000e+02 5.890000000000000000e+02 5.900000000000000000e+02 5.910000000000000000e+02 5.920000000000000000e+02 5.930000000000000000e+02 5.940000000000000000e+02 5.950000000000000000e+02 5.960000000000000000e+02 5.970000000000000000e+02 5.980000000000000000e+02 5.990000000000000000e+02 6.000000000000000000e+02 6.010000000000000000e+02 6.020000000000000000e+02 6.030000000000000000e+02 6.040000000000000000e+02 6.050000000000000000e+02 6.060000000000000000e+02 6.070000000000000000e+02 6.080000000000000000e+02 6.090000000000000000e+02 6.100000000000000000e+02 6.110000000000000000e+02 6.120000000000000000e+02 6.130000000000000000e+02 6.140000000000000000e+02 6.150000000000000000e+02 6.160000000000000000e+02 6.170000000000000000e+02 6.180000000000000000e+02 6.190000000000000000e+02 6.200000000000000000e+02 6.210000000000000000e+02 6.220000000000000000e+02 6.230000000000000000e+02 6.240000000000000000e+02 6.250000000000000000e+02 6.260000000000000000e+02 6.270000000000000000e+02 6.280000000000000000e+02 6.290000000000000000e+02 6.300000000000000000e+02 6.310000000000000000e+02 6.320000000000000000e+02 6.330000000000000000e+02 6.340000000000000000e+02 6.350000000000000000e+02 6.360000000000000000e+02 6.370000000000000000e+02 6.380000000000000000e+02 6.390000000000000000e+02 6.400000000000000000e+02 6.410000000000000000e+02 6.420000000000000000e+02 6.430000000000000000e+02 6.440000000000000000e+02 6.450000000000000000e+02 6.460000000000000000e+02 6.470000000000000000e+02 6.480000000000000000e+02 6.490000000000000000e+02 6.500000000000000000e+02 6.510000000000000000e+02 6.520000000000000000e+02 6.530000000000000000e+02 6.540000000000000000e+02 6.550000000000000000e+02 6.560000000000000000e+02 6.570000000000000000e+02 6.580000000000000000e+02 6.590000000000000000e+02 6.600000000000000000e+02 6.610000000000000000e+02 6.620000000000000000e+02 6.630000000000000000e+02 6.640000000000000000e+02 6.650000000000000000e+02 6.660000000000000000e+02 6.670000000000000000e+02 6.680000000000000000e+02 6.690000000000000000e+02 6.700000000000000000e+02 6.710000000000000000e+02 6.720000000000000000e+02 6.730000000000000000e+02 6.740000000000000000e+02 6.750000000000000000e+02 6.760000000000000000e+02 6.770000000000000000e+02 6.780000000000000000e+02 6.790000000000000000e+02 6.800000000000000000e+02 6.810000000000000000e+02 6.820000000000000000e+02 6.830000000000000000e+02 6.840000000000000000e+02 6.850000000000000000e+02 6.860000000000000000e+02 6.870000000000000000e+02 6.880000000000000000e+02 6.890000000000000000e+02 6.900000000000000000e+02 6.910000000000000000e+02 6.920000000000000000e+02 6.930000000000000000e+02 6.940000000000000000e+02 6.950000000000000000e+02 6.960000000000000000e+02 6.970000000000000000e+02 6.980000000000000000e+02 6.990000000000000000e+02 7.000000000000000000e+02 7.010000000000000000e+02 7.020000000000000000e+02 7.030000000000000000e+02 7.040000000000000000e+02 7.050000000000000000e+02 7.060000000000000000e+02 7.070000000000000000e+02 7.080000000000000000e+02 7.090000000000000000e+02 7.100000000000000000e+02 7.110000000000000000e+02 7.120000000000000000e+02 7.130000000000000000e+02 7.140000000000000000e+02 7.150000000000000000e+02 7.160000000000000000e+02 7.170000000000000000e+02 7.180000000000000000e+02 7.190000000000000000e+02 7.200000000000000000e+02 7.210000000000000000e+02 7.220000000000000000e+02 7.230000000000000000e+02 7.240000000000000000e+02 7.250000000000000000e+02 7.260000000000000000e+02 7.270000000000000000e+02 7.280000000000000000e+02 7.290000000000000000e+02 7.300000000000000000e+02 7.310000000000000000e+02 7.320000000000000000e+02 7.330000000000000000e+02 7.340000000000000000e+02 7.350000000000000000e+02 7.360000000000000000e+02 7.370000000000000000e+02 7.380000000000000000e+02 7.390000000000000000e+02 7.400000000000000000e+02 7.410000000000000000e+02 7.420000000000000000e+02 7.430000000000000000e+02 7.440000000000000000e+02 7.450000000000000000e+02 7.460000000000000000e+02 7.470000000000000000e+02 7.480000000000000000e+02 7.490000000000000000e+02 7.500000000000000000e+02 7.510000000000000000e+02 7.520000000000000000e+02 7.530000000000000000e+02 7.540000000000000000e+02 7.550000000000000000e+02 7.560000000000000000e+02 7.570000000000000000e+02 7.580000000000000000e+02 7.590000000000000000e+02 7.600000000000000000e+02 7.610000000000000000e+02 7.620000000000000000e+02 7.630000000000000000e+02 7.640000000000000000e+02 7.650000000000000000e+02 7.660000000000000000e+02 7.670000000000000000e+02 7.680000000000000000e+02 7.690000000000000000e+02 7.700000000000000000e+02 7.710000000000000000e+02 7.720000000000000000e+02 7.730000000000000000e+02 7.740000000000000000e+02 7.750000000000000000e+02 7.760000000000000000e+02 7.770000000000000000e+02 7.780000000000000000e+02 7.790000000000000000e+02 7.800000000000000000e+02 7.810000000000000000e+02 7.820000000000000000e+02 7.830000000000000000e+02 7.840000000000000000e+02 7.850000000000000000e+02 7.860000000000000000e+02 7.870000000000000000e+02 7.880000000000000000e+02 7.890000000000000000e+02 7.900000000000000000e+02 7.910000000000000000e+02 7.920000000000000000e+02 7.930000000000000000e+02 7.940000000000000000e+02 7.950000000000000000e+02 7.960000000000000000e+02 7.970000000000000000e+02 7.980000000000000000e+02 7.990000000000000000e+02 8.000000000000000000e+02 8.010000000000000000e+02 8.020000000000000000e+02 8.030000000000000000e+02 8.040000000000000000e+02 8.050000000000000000e+02 8.060000000000000000e+02 8.070000000000000000e+02 8.080000000000000000e+02 8.090000000000000000e+02 8.100000000000000000e+02 8.110000000000000000e+02 8.120000000000000000e+02 8.130000000000000000e+02 8.140000000000000000e+02 8.150000000000000000e+02 8.160000000000000000e+02 8.170000000000000000e+02 8.180000000000000000e+02 8.190000000000000000e+02 8.200000000000000000e+02 8.210000000000000000e+02 8.220000000000000000e+02 8.230000000000000000e+02 8.240000000000000000e+02 8.250000000000000000e+02 8.260000000000000000e+02 8.270000000000000000e+02 8.280000000000000000e+02 8.290000000000000000e+02 8.300000000000000000e+02 8.310000000000000000e+02 8.320000000000000000e+02 8.330000000000000000e+02 8.340000000000000000e+02 8.350000000000000000e+02 8.360000000000000000e+02 8.370000000000000000e+02 8.380000000000000000e+02 8.390000000000000000e+02 8.400000000000000000e+02 8.410000000000000000e+02 8.420000000000000000e+02 8.430000000000000000e+02 8.440000000000000000e+02 8.450000000000000000e+02 8.460000000000000000e+02 8.470000000000000000e+02 8.480000000000000000e+02 8.490000000000000000e+02 8.500000000000000000e+02 8.510000000000000000e+02 8.520000000000000000e+02 8.530000000000000000e+02 8.540000000000000000e+02 8.550000000000000000e+02 8.560000000000000000e+02 8.570000000000000000e+02 8.580000000000000000e+02 8.590000000000000000e+02 8.600000000000000000e+02 8.610000000000000000e+02 8.620000000000000000e+02 8.630000000000000000e+02 8.640000000000000000e+02 8.650000000000000000e+02 8.660000000000000000e+02 8.670000000000000000e+02 8.680000000000000000e+02 8.690000000000000000e+02 8.700000000000000000e+02 8.710000000000000000e+02 8.720000000000000000e+02 8.730000000000000000e+02 8.740000000000000000e+02 8.750000000000000000e+02 8.760000000000000000e+02 8.770000000000000000e+02 8.780000000000000000e+02 8.790000000000000000e+02 8.800000000000000000e+02 8.810000000000000000e+02 8.820000000000000000e+02 8.830000000000000000e+02 8.840000000000000000e+02 8.850000000000000000e+02 8.860000000000000000e+02 8.870000000000000000e+02 8.880000000000000000e+02 8.890000000000000000e+02 8.900000000000000000e+02 8.910000000000000000e+02 8.920000000000000000e+02 8.930000000000000000e+02 8.940000000000000000e+02 8.950000000000000000e+02 8.960000000000000000e+02 8.970000000000000000e+02 8.980000000000000000e+02 8.990000000000000000e+02 9.000000000000000000e+02 9.010000000000000000e+02 9.020000000000000000e+02 9.030000000000000000e+02 9.040000000000000000e+02 9.050000000000000000e+02 9.060000000000000000e+02 9.070000000000000000e+02 9.080000000000000000e+02 9.090000000000000000e+02 9.100000000000000000e+02 9.110000000000000000e+02 9.120000000000000000e+02 9.130000000000000000e+02 9.140000000000000000e+02 9.150000000000000000e+02 9.160000000000000000e+02 9.170000000000000000e+02 9.180000000000000000e+02 9.190000000000000000e+02 9.200000000000000000e+02 9.210000000000000000e+02 9.220000000000000000e+02 9.230000000000000000e+02 9.240000000000000000e+02 9.250000000000000000e+02 9.260000000000000000e+02 9.270000000000000000e+02 9.280000000000000000e+02 9.290000000000000000e+02 9.300000000000000000e+02 9.310000000000000000e+02 9.320000000000000000e+02 9.330000000000000000e+02 9.340000000000000000e+02 9.350000000000000000e+02 9.360000000000000000e+02 9.370000000000000000e+02 9.380000000000000000e+02 9.390000000000000000e+02 9.400000000000000000e+02 9.410000000000000000e+02 9.420000000000000000e+02 9.430000000000000000e+02 9.440000000000000000e+02 9.450000000000000000e+02 9.460000000000000000e+02 9.470000000000000000e+02 9.480000000000000000e+02 9.490000000000000000e+02 9.500000000000000000e+02 9.510000000000000000e+02 9.520000000000000000e+02 9.530000000000000000e+02 9.540000000000000000e+02 9.550000000000000000e+02 9.560000000000000000e+02 9.570000000000000000e+02 9.580000000000000000e+02 9.590000000000000000e+02 9.600000000000000000e+02 9.610000000000000000e+02 9.620000000000000000e+02 9.630000000000000000e+02 9.640000000000000000e+02 9.650000000000000000e+02 9.660000000000000000e+02 9.670000000000000000e+02 9.680000000000000000e+02 9.690000000000000000e+02 9.700000000000000000e+02 9.710000000000000000e+02 9.720000000000000000e+02 9.730000000000000000e+02 9.740000000000000000e+02 9.750000000000000000e+02 9.760000000000000000e+02 9.770000000000000000e+02 9.780000000000000000e+02 9.790000000000000000e+02 9.800000000000000000e+02 9.810000000000000000e+02 9.820000000000000000e+02 9.830000000000000000e+02 9.840000000000000000e+02 9.850000000000000000e+02 9.860000000000000000e+02 9.870000000000000000e+02 9.880000000000000000e+02 9.890000000000000000e+02 9.900000000000000000e+02 9.910000000000000000e+02 9.920000000000000000e+02 9.930000000000000000e+02 9.940000000000000000e+02 9.950000000000000000e+02 9.960000000000000000e+02 9.970000000000000000e+02 9.980000000000000000e+02 9.990000000000000000e+02
1.000000000000000000e+00 1.000000000000000000e+00 1.000000000000000000e+00 1.000000000000000000e+00 1.000000000000000000e+00 1.000000000000000000e+00 1.000000000000000000e+00 1.000000000000000000e+00 1.000000000000000000e+00 1.000000000000000000e+00 1.000000000000000000e+00 1.000000000000000000e+00 1.000000000000000000e+00 1.000000000000000000e+00 1.000000000000000000e+00 1.000000000000000000e+00 1.000000000000000000e+00 1.000000000000000000e+00 1.000000000000000000e+00 1.000000000000000000e+00 1.000000000000000000e+00 1.000000000000000000e+00 1.000000000000000000e+00 1.000000000000000000e+00 1.000000000000000000e+00 1.000000000000000000e+00 1.000000000000000000e+00 1.000000000000000000e+00 1.000000000000000000e+00 1.000000000000000000e+00 1.000000000000000000e+00 1.000000000000000000e+00 1.000000000000000000e+00 1.000000000000000000e+00 1.000000000000000000e+00 1.000000000000000000e+00 1.000000000000000000e+00 1.000000000000000000e+00 1.000000000000000000e+00 1.000000000000000000e+00 1.000000000000000000e+00 1.000000000000000000e+00 1.000000000000000000e+00 1.000000000000000000e+00 1.000000000000000000e+00 1.000000000000000000e+00 1.000000000000000000e+00 1.000000000000000000e+00 1.000000000000000000e+00 1.000000000000000000e+00 1.000000000000000000e+00 1.000000000000000000e+00 1.000000000000000000e+00 1.000000000000000000e+00 1.000000000000000000e+00 1.000000000000000000e+00 1.000000000000000000e+00 1.000000000000000000e+00 1.000000000000000000e+00 1.000000000000000000e+00 1.000000000000000000e+00 1.000000000000000000e+00 1.000000000000000000e+00 1.000000000000000000e+00 1.000000000000000000e+00 1.000000000000000000e+00 1.000000000000000000e+00 1.000000000000000000e+00 1.000000000000000000e+00 1.000000000000000000e+00 1.000000000000000000e+00 1.000000000000000000e+00 1.000000000000000000e+00 1.000000000000000000e+00 1.000000000000000000e+00 1.000000000000000000e+00 1.000000000000000000e+00 1.000000000000000000e+00 1.000000000000000000e+00 1.000000000000000000e+00 1.000000000000000000e+00 1.000000000000000000e+00 1.000000000000000000e+00 1.000000000000000000e+00 1.000000000000000000e+00 1.000000000000000000e+00 1.000000000000000000e+00 1.000000000000000000e+00 1.000000000000000000e+00 1.000000000000000000e+00 1.000000000000000000e+00 1.000000000000000000e+00 1.000000000000000000e+00 1.000000000000000000e+00 1.000000000000000000e+00 1.000000000000000000e+00 1.000000000000000000e+00 1.000000000000000000e+00 1.000000000000000000e+00 1.000000000000000000e+00 1.000000000000000000e+00 1.000000000000000000e+00 1.000000000000000000e+00 1.000000000000000000e+00 1.000000000000000000e+00 1.000000000000000000e+00 1.000000000000000000e+00 1.000000000000000000e+00 1.000000000000000000e+00 1.000000000000000000e+00 1.000000000000000000e+00 1.000000000000000000e+00 1.000000000000000000e+00 1.000000000000000000e+00 1.000000000000000000e+00 1.000000000000000000e+00 1.000000000000000000e+00 1.000000000000000000e+00 1.000000000000000000e+00 1.000000000000000000e+00 1.000000000000000000e+00 1.000000000000000000e+00 1.000000000000000000e+00 1.000000000000000000e+00 1.000000000000000000e+00 1.000000000000000000e+00 1.000000000000000000e+00 1.000000000000000000e+00 1.000000000000000000e+00 1.000000000000000000e+00 1.000000000000000000e+00 1.000000000000000000e+00 1.000000000000000000e+00 1.000000000000000000e+00 1.000000000000000000e+00 1.000000000000000000e+00 1.000000000000000000e+00 1.000000000000000000e+00 1.000000000000000000e+00 1.000000000000000000e+00 1.000000000000000000e+00 1.000000000000000000e+00 1.000000000000000000e+00 1.000000000000000000e+00 1.000000000000000000e+00 1.000000000000000000e+00 1.000000000000000000e+00 1.000000000000000000e+00 1.000000000000000000e+00 1.000000000000000000e+00 1.000000000000000000e+00 1.000000000000000000e+00 1.000000000000000000e+00 1.000000000000000000e+00 1.000000000000000000e+00 1.000000000000000000e+00 1.000000000000000000e+00 1.000000000000000000e+00 1.000000000000000000e+00 1.000000000000000000e+00 1.000000000000000000e+00 1.000000000000000000e+00 1.000000000000000000e+00 1.000000000000000000e+00 1.000000000000000000e+00 1.000000000000000000e+00 1.000000000000000000e+00 1.000000000000000000e+00 1.000000000000000000e+00 1.000000000000000000e+00 1.000000000000000000e+00 1.000000000000000000e+00 1.000000000000000000e+00 1.000000000000000000e+00 1.000000000000000000e+00 1.000000000000000000e+00 1.000000000000000000e+00 1.000000000000000000e+00 1.000000000000000000e+00 1.000000000000000000e+00 1.000000000000000000e+00 1.000000000000000000e+00 1.000000000000000000e+00 1.000000000000000000e+00 1.000000000000000000e+00 1.000000000000000000e+00 1.000000000000000000e+00 1.000000000000000000e+00 1.000000000000000000e+00 1.000000000000000000e+00 1.000000000000000000e+00 1.000000000000000000e+00 1.000000000000000000e+00 1.000000000000000000e+00 1.000000000000000000e+00 1.000000000000000000e+00 1.000000000000000000e+00 1.000000000000000000e+00 1.000000000000000000e+00 1.000000000000000000e+00 1.000000000000000000e+00 1.000000000000000000e+00 1.000000000000000000e+00 1.000000000000000000e+00 1.000000000000000000e+00 1.000000000000000000e+00 1.000000000000000000e+00 1.000000000000000000e+00 1.000000000000000000e+00 1.000000000000000000e+00 1.000000000000000000e+00 1.000000000000000000e+00 1.000000000000000000e+00 1.000000000000000000e+00 1.000000000000000000e+00 1.000000000000000000e+00 1.000000000000000000e+00 1.000000000000000000e+00 1.000000000000000000e+00 1.000000000000000000e+00 1.000000000000000000e+00 1.000000000000000000e+00 1.000000000000000000e+00 1.000000000000000000e+00 1.000000000000000000e+00 1.000000000000000000e+00 1.000000000000000000e+00 1.000000000000000000e+00 1.000000000000000000e+00 1.000000000000000000e+00 1.000000000000000000e+00 1.000000000000000000e+00 1.000000000000000000e+00 1.000000000000000000e+00 1.000000000000000000e+00 1.000000000000000000e+00 1.000000000000000000e+00 1.000000000000000000e+00 1.000000000000000000e+00 1.000000000000000000e+00 1.000000000000000000e+00 1.000000000000000000e+00 1.000000000000000000e+00 1.000000000000000000e+00 1.000000000000000000e+00 1.000000000000000000e+00 1.000000000000000000e+00 1.000000000000000000e+00 1.000000000000000000e+00 1.000000000000000000e+00 1.000000000000000000e+00 1.000000000000000000e+00 1.000000000000000000e+00 1.000000000000000000e+00 1.000000000000000000e+00 1.000000000000000000e+00 1.000000000000000000e+00 1.000000000000000000e+00 1.000000000000000000e+00 1.000000000000000000e+00 1.000000000000000000e+00 1.000000000000000000e+00 1.000000000000000000e+00 1.000000000000000000e+00 1.000000000000000000e+00 1.000000000000000000e+00 1.000000000000000000e+00 1.000000000000000000e+00 1.000000000000000000e+00 1.000000000000000000e+00 1.000000000000000000e+00 1.000000000000000000e+00 1.000000000000000000e+00 1.000000000000000000e+00 1.000000000000000000e+00 1.000000000000000000e+00 1.000000000000000000e+00 1.000000000000000000e+00 1.000000000000000000e+00 1.000000000000000000e+00 1.000000000000000000e+00 1.000000000000000000e+00 1.000000000000000000e+00 1.000000000000000000e+00 1.000000000000000000e+00 1.000000000000000000e+00 1.000000000000000000e+00 1.000000000000000000e+00 1.000000000000000000e+00 1.000000000000000000e+00 1.000000000000000000e+00 1.000000000000000000e+00 1.000000000000000000e+00 1.000000000000000000e+00 1.000000000000000000e+00 1.000000000000000000e+00 1.000000000000000000e+00 1.000000000000000000e+00 1.000000000000000000e+00 1.000000000000000000e+00 1.000000000000000000e+00 1.000000000000000000e+00 1.000000000000000000e+00 1.000000000000000000e+00 1.000000000000000000e+00 1.000000000000000000e+00 1.000000000000000000e+00 1.000000000000000000e+00 1.000000000000000000e+00 1.000000000000000000e+00 1.000000000000000000e+00 1.000000000000000000e+00 1.000000000000000000e+00 1.000000000000000000e+00 1.000000000000000000e+00 1.000000000000000000e+00 1.000000000000000000e+00 1.000000000000000000e+00 1.000000000000000000e+00 1.000000000000000000e+00 1.000000000000000000e+00 1.000000000000000000e+00 1.000000000000000000e+00 1.000000000000000000e+00 1.000000000000000000e+00 1.000000000000000000e+00 1.000000000000000000e+00 1.000000000000000000e+00 1.000000000000000000e+00 1.000000000000000000e+00 1.000000000000000000e+00 1.000000000000000000e+00 1.000000000000000000e+00 1.000000000000000000e+00 1.000000000000000000e+00 1.000000000000000000e+00 1.000000000000000000e+00 1.000000000000000000e+00 1.000000000000000000e+00 1.000000000000000000e+00 1.000000000000000000e+00 1.000000000000000000e+00 1.000000000000000000e+00 1.000000000000000000e+00 1.000000000000000000e+00 1.000000000000000000e+00 1.000000000000000000e+00 1.000000000000000000e+00 1.000000000000000000e+00 1.000000000000000000e+00 1.000000000000000000e+00 1.000000000000000000e+00 1.000000000000000000e+00 1.000000000000000000e+00 1.000000000000000000e+00 1.000000000000000000e+00 1.000000000000000000e+00 1.000000000000000000e+00 1.000000000000000000e+00 1.000000000000000000e+00 1.000000000000000000e+00 1.000000000000000000e+00 1.000000000000000000e+00 1.000000000000000000e+00 1.000000000000000000e+00 1.000000000000000000e+00 1.000000000000000000e+00 1.000000000000000000e+00 1.000000000000000000e+00 1.000000000000000000e+00 1.000000000000000000e+00 1.000000000000000000e+00 1.000000000000000000e+00 1.000000000000000000e+00 1.000000000000000000e+00 1.000000000000000000e+00 1.000000000000000000e+00 1.000000000000000000e+00 1.000000000000000000e+00 1.000000000000000000e+00 1.000000000000000000e+00 1.000000000000000000e+00 1.000000000000000000e+00 1.000000000000000000e+00 1.000000000000000000e+00 1.000000000000000000e+00 1.000000000000000000e+00 1.000000000000000000e+00 1.000000000000000000e+00 1.000000000000000000e+00 1.000000000000000000e+00 1.000000000000000000e+00 1.000000000000000000e+00 1.000000000000000000e+00 1.000000000000000000e+00 1.000000000000000000e+00 1.000000000000000000e+00 1.000000000000000000e+00 1.000000000000000000e+00 1.000000000000000000e+00 1.000000000000000000e+00 1.000000000000000000e+00 1.000000000000000000e+00 1.000000000000000000e+00 1.000000000000000000e+00 1.000000000000000000e+00 1.000000000000000000e+00 1.000000000000000000e+00 1.000000000000000000e+00 1.000000000000000000e+00 1.000000000000000000e+00 1.000000000000000000e+00 1.000000000000000000e+00 1.000000000000000000e+00 1.000000000000000000e+00 1.000000000000000000e+00 1.000000000000000000e+00 1.000000000000000000e+00 1.000000000000000000e+00 1.000000000000000000e+00 1.000000000000000000e+00 1.000000000000000000e+00 1.000000000000000000e+00 1.000000000000000000e+00 1.000000000000000000e+00 1.000000000000000000e+00 1.000000000000000000e+00 1.000000000000000000e+00 1.000000000000000000e+00 1.000000000000000000e+00 1.000000000000000000e+00 1.000000000000000000e+00 1.000000000000000000e+00 1.000000000000000000e+00 1.000000000000000000e+00 1.000000000000000000e+00 1.000000000000000000e+00 1.000000000000000000e+00 1.000000000000000000e+00 1.000000000000000000e+00 1.000000000000000000e+00 1.000000000000000000e+00 1.000000000000000000e+00 1.000000000000000000e+00 1.000000000000000000e+00 1.000000000000000000e+00 1.000000000000000000e+00 1.000000000000000000e+00 1.000000000000000000e+00 1.000000000000000000e+00 1.000000000000000000e+00 1.000000000000000000e+00 1.000000000000000000e+00 1.000000000000000000e+00 1.000000000000000000e+00 1.000000000000000000e+00 1.000000000000000000e+00 1.000000000000000000e+00 1.000000000000000000e+00 1.000000000000000000e+00 1.000000000000000000e+00 1.000000000000000000e+00 1.000000000000000000e+00 1.000000000000000000e+00 1.000000000000000000e+00 1.000000000000000000e+00 1.000000000000000000e+00 1.000000000000000000e+00 1.000000000000000000e+00 1.000000000000000000e+00 1.000000000000000000e+00 1.000000000000000000e+00 1.000000000000000000e+00 1.000000000000000000e+00 1.000000000000000000e+00 1.000000000000000000e+00 1.000000000000000000e+00 1.000000000000000000e+00 1.000000000000000000e+00 1.000000000000000000e+00 1.000000000000000000e+00 1.000000000000000000e+00 1.000000000000000000e+00 1.000000000000000000e+00 1.000000000000000000e+00 1.000000000000000000e+00 1.000000000000000000e+00 1.000000000000000000e+00 1.000000000000000000e+00 1.000000000000000000e+00 1.000000000000000000e+00 1.000000000000000000e+00 1.000000000000000000e+00 1.000000000000000000e+00 1.000000000000000000e+00 1.000000000000000000e+00 1.000000000000000000e+00 1.000000000000000000e+00 1.000000000000000000e+00 1.000000000000000000e+00 1.000000000000000000e+00 1.000000000000000000e+00 1.000000000000000000e+00 1.000000000000000000e+00 1.000000000000000000e+00 1.000000000000000000e+00 1.000000000000000000e+00 1.000000000000000000e+00 1.000000000000000000e+00 1.000000000000000000e+00 1.000000000000000000e+00 1.000000000000000000e+00 1.000000000000000000e+00 1.000000000000000000e+00 1.000000000000000000e+00 1.000000000000000000e+00 1.000000000000000000e+00 1.000000000000000000e+00 1.000000000000000000e+00 1.000000000000000000e+00 1.000000000000000000e+00 1.000000000000000000e+00 1.000000000000000000e+00 1.000000000000000000e+00 1.000000000000000000e+00 1.000000000000000000e+00 1.000000000000000000e+00 1.000000000000000000e+00 1.000000000000000000e+00 1.000000000000000000e+00 1.000000000000000000e+00 1.000000000000000000e+00 1.000000000000000000e+00 1.000000000000000000e+00 1.000000000000000000e+00 1.000000000000000000e+00 1.000000000000000000e+00 1.000000000000000000e+00 1.000000000000000000e+00 1.000000000000000000e+00 1.000000000000000000e+00 1.000000000000000000e+00 1.000000000000000000e+00 1.000000000000000000e+00 1.000000000000000000e+00 1.000000000000000000e+00 1.000000000000000000e+00 1.000000000000000000e+00 1.000000000000000000e+00 1.000000000000000000e+00 1.000000000000000000e+00 1.000000000000000000e+00 1.000000000000000000e+00 1.000000000000000000e+00 1.000000000000000000e+00 1.000000000000000000e+00 1.000000000000000000e+00 1.000000000000000000e+00 1.000000000000000000e+00 1.000000000000000000e+00 1.000000000000000000e+00 1.000000000000000000e+00 1.000000000000000000e+00 1.000000000000000000e+00 1.000000000000000000e+00 1.000000000000000000e+00 1.000000000000000000e+00 1.000000000000000000e+00 1.000000000000000000e+00 1.000000000000000000e+00 1.000000000000000000e+00 1.000000000000000000e+00 1.000000000000000000e+00 1.000000000000000000e+00 1.000000000000000000e+00 1.000000000000000000e+00 1.000000000000000000e+00 1.000000000000000000e+00 1.000000000000000000e+00 1.000000000000000000e+00 1.000000000000000000e+00 1.000000000000000000e+00 1.000000000000000000e+00 1.000000000000000000e+00 1.000000000000000000e+00 1.000000000000000000e+00 1.000000000000000000e+00 1.000000000000000000e+00 1.000000000000000000e+00 1.000000000000000000e+00 1.000000000000000000e+00 1.000000000000000000e+00 1.000000000000000000e+00 1.000000000000000000e+00 1.000000000000000000e+00 1.000000000000000000e+00 1.000000000000000000e+00 1.000000000000000000e+00 1.000000000000000000e+00 1.000000000000000000e+00 1.000000000000000000e+00 1.000000000000000000e+00 1.000000000000000000e+00 1.000000000000000000e+00 1.000000000000000000e+00 1.000000000000000000e+00 1.000000000000000000e+00 1.000000000000000000e+00 1.000000000000000000e+00 1.000000000000000000e+00 1.000000000000000000e+00 1.000000000000000000e+00 1.000000000000000000e+00 1.000000000000000000e+00 1.000000000000000000e+00 1.000000000000000000e+00 1.000000000000000000e+00 1.000000000000000000e+00 1.000000000000000000e+00 1.000000000000000000e+00 1.000000000000000000e+00 1.000000000000000000e+00 1.000000000000000000e+00 1.000000000000000000e+00 1.000000000000000000e+00 1.000000000000000000e+00 1.000000000000000000e+00 1.000000000000000000e+00 1.000000000000000000e+00 1.000000000000000000e+00 1.000000000000000000e+00 1.000000000000000000e+00 1.000000000000000000e+00 1.000000000000000000e+00 1.000000000000000000e+00 1.000000000000000000e+00 1.000000000000000000e+00 1.000000000000000000e+00 1.000000000000000000e+00 1.000000000000000000e+00 1.000000000000000000e+00 1.000000000000000000e+00 1.000000000000000000e+00 1.000000000000000000e+00 1.000000000000000000e+00 1.000000000000000000e+00 1.000000000000000000e+00 1.000000000000000000e+00 1.000000000000000000e+00 1.000000000000000000e+00 1.000000000000000000e+00 1.000000000000000000e+00 1.000000000000000000e+00 1.000000000000000000e+00 1.000000000000000000e+00 1.000000000000000000e+00 1.000000000000000000e+00 1.000000000000000000e+00 1.000000000000000000e+00 1.000000000000000000e+00 1.000000000000000000e+00 1.000000000000000000e+00 1.000000000000000000e+00 1.000000000000000000e+00 1.000000000000000000e+00 1.000000000000000000e+00 1.000000000000000000e+00 1.000000000000000000e+00 1.000000000000000000e+00 1.000000000000000000e+00 1.000000000000000000e+00 1.000000000000000000e+00 1.000000000000000000e+00 1.000000000000000000e+00 1.000000000000000000e+00 1.000000000000000000e+00 1.000000000000000000e+00 1.000000000000000000e+00 1.000000000000000000e+00 1.000000000000000000e+00 1.000000000000000000e+00 1.000000000000000000e+00 1.000000000000000000e+00 1.000000000000000000e+00 1.000000000000000000e+00 1.000000000000000000e+00 1.000000000000000000e+00 1.000000000000000000e+00 1.000000000000000000e+00 1.000000000000000000e+00 1.000000000000000000e+00 1.000000000000000000e+00 1.000000000000000000e+00 1.000000000000000000e+00 1.000000000000000000e+00 1.000000000000000000e+00 1.000000000000000000e+00 1.000000000000000000e+00 1.000000000000000000e+00 1.000000000000000000e+00 1.000000000000000000e+00 1.000000000000000000e+00 1.000000000000000000e+00 1.000000000000000000e+00 1.000000000000000000e+00 1.000000000000000000e+00 1.000000000000000000e+00 1.000000000000000000e+00 1.000000000000000000e+00 1.000000000000000000e+00 1.000000000000000000e+00 1.000000000000000000e+00 1.000000000000000000e+00 1.000000000000000000e+00 1.000000000000000000e+00 1.000000000000000000e+00 1.000000000000000000e+00 1.000000000000000000e+00 1.000000000000000000e+00 1.000000000000000000e+00 1.000000000000000000e+00 1.000000000000000000e+00 1.000000000000000000e+00 1.000000000000000000e+00 1.000000000000000000e+00 1.000000000000000000e+00 1.000000000000000000e+00 1.000000000000000000e+00 1.000000000000000000e+00 1.000000000000000000e+00 1.000000000000000000e+00 1.000000000000000000e+00 1.000000000000000000e+00 1.000000000000000000e+00 1.000000000000000000e+00 1.000000000000000000e+00 1.000000000000000000e+00 1.000000000000000000e+00 1.000000000000000000e+00 1.000000000000000000e+00 1.000000000000000000e+00 1.000000000000000000e+00 1.000000000000000000e+00 1.000000000000000000e+00 1.000000000000000000e+00 1.000000000000000000e+00 1.000000000000000000e+00 1.000000000000000000e+00 1.000000000000000000e+00 1.000000000000000000e+00 1.000000000000000000e+00 1.000000000000000000e+00 1.000000000000000000e+00 1.000000000000000000e+00 1.000000000000000000e+00 1.000000000000000000e+00 1.000000000000000000e+00 1.000000000000000000e+00 1.000000000000000000e+00 1.000000000000000000e+00 1.000000000000000000e+00 1.000000000000000000e+00 1.000000000000000000e+00 1.000000000000000000e+00 1.000000000000000000e+00 1.000000000000000000e+00 1.000000000000000000e+00 1.000000000000000000e+00 1.000000000000000000e+00 1.000000000000000000e+00 1.000000000000000000e+00 1.000000000000000000e+00 1.000000000000000000e+00 1.000000000000000000e+00 1.000000000000000000e+00 1.000000000000000000e+00 1.000000000000000000e+00 1.000000000000000000e+00 1.000000000000000000e+00 1.000000000000000000e+00 1.000000000000000000e+00 1.000000000000000000e+00 1.000000000000000000e+00 1.000000000000000000e+00 1.000000000000000000e+00 1.000000000000000000e+00 1.000000000000000000e+00 1.000000000000000000e+00 1.000000000000000000e+00 1.000000000000000000e+00 1.000000000000000000e+00 1.000000000000000000e+00 1.000000000000000000e+00 1.000000000000000000e+00 1.000000000000000000e+00 1.000000000000000000e+00 1.000000000000000000e+00 1.000000000000000000e+00 1.000000000000000000e+00 1.000000000000000000e+00 1.000000000000000000e+00 1.000000000000000000e+00 1.000000000000000000e+00 1.000000000000000000e+00 1.000000000000000000e+00 1.000000000000000000e+00 1.000000000000000000e+00 1.000000000000000000e+00 1.000000000000000000e+00 1.000000000000000000e+00 1.000000000000000000e+00 1.000000000000000000e+00 1.000000000000000000e+00 1.000000000000000000e+00 1.000000000000000000e+00 1.000000000000000000e+00 1.000000000000000000e+00 1.000000000000000000e+00 1.000000000000000000e+00 1.000000000000000000e+00 1.000000000000000000e+00 1.000000000000000000e+00 1.000000000000000000e+00 1.000000000000000000e+00 1.000000000000000000e+00 1.000000000000000000e+00 1.000000000000000000e+00 1.000000000000000000e+00 1.000000000000000000e+00 1.000000000000000000e+00 1.000000000000000000e+00 1.000000000000000000e+00 1.000000000000000000e+00 1.000000000000000000e+00 1.000000000000000000e+00 1.000000000000000000e+00 1.000000000000000000e+00 1.000000000000000000e+00 1.000000000000000000e+00 1.000000000000000000e+00 1.000000000000000000e+00 1.000000000000000000e+00 1.000000000000000000e+00 1.000000000000000000e+00 1.000000000000000000e+00 1.000000000000000000e+00 1.000000000000000000e+00 1.000000000000000000e+00 1.000000000000000000e+00 1.000000000000000000e+00 1.000000000000000000e+00 1.000000000000000000e+00 1.000000000000000000e+00 1.000000000000000000e+00 1.000000000000000000e+00 1.000000000000000000e+00 1.000000000000000000e+00 1.000000000000000000e+00 1.000000000000000000e+00 1.000000000000000000e+00 1.000000000000000000e+00 1.000000000000000000e+00 1.000000000000000000e+00 1.000000000000000000e+00 1.000000000000000000e+00 1.000000000000000000e+00 1.000000000000000000e+00 1.000000000000000000e+00 1.000000000000000000e+00 1.000000000000000000e+00 1.000000000000000000e+00 1.000000000000000000e+00 1.000000000000000000e+00 1.000000000000000000e+00 1.000000000000000000e+00 1.000000000000000000e+00 1.000000000000000000e+00 1.000000000000000000e+00 1.000000000000000000e+00 1.000000000000000000e+00 1.000000000000000000e+00 1.000000000000000000e+00 1.000000000000000000e+00 1.000000000000000000e+00 1.000000000000000000e+00 1.000000000000000000e+00 1.000000000000000000e+00 1.000000000000000000e+00 1.000000000000000000e+00 1.000000000000000000e+00 1.000000000000000000e+00 1.000000000000000000e+00 1.000000000000000000e+00 1.000000000000000000e+00 1.000000000000000000e+00 1.000000000000000000e+00 1.000000000000000000e+00 1.000000000000000000e+00 1.000000000000000000e+00 1.000000000000000000e+00 1.000000000000000000e+00 1.000000000000000000e+00 1.000000000000000000e+00 1.000000000000000000e+00 1.000000000000000000e+00 1.000000000000000000e+00 1.000000000000000000e+00 1.000000000000000000e+00 1.000000000000000000e+00 1.000000000000000000e+00 1.000000000000000000e+00 1.000000000000000000e+00 1.000000000000000000e+00 1.000000000000000000e+00 1.000000000000000000e+00 1.000000000000000000e+00 1.000000000000000000e+00 1.000000000000000000e+00 1.000000000000000000e+00 1.000000000000000000e+00 1.000000000000000000e+00 1.000000000000000000e+00 1.000000000000000000e+00 1.000000000000000000e+00 1.000000000000000000e+00 1.000000000000000000e+00 1.000000000000000000e+00 1.000000000000000000e+00 1.000000000000000000e+00 1.000000000000000000e+00 1.000000000000000000e+00 1.000000000000000000e+00 1.000000000000000000e+00 1.000000000000000000e+00 1.000000000000000000e+00 1.000000000000000000e+00 1.000000000000000000e+00 1.000000000000000000e+00 1.000000000000000000e+00 1.000000000000000000e+00 1.000000000000000000e+00 1.000000000000000000e+00 1.000000000000000000e+00 1.000000000000000000e+00 1.000000000000000000e+00 1.000000000000000000e+00 1.000000000000000000e+00 1.000000000000000000e+00 1.000000000000000000e+00 1.000000000000000000e+00 1.000000000000000000e+00 1.000000000000000000e+00 1.000000000000000000e+00 1.000000000000000000e+00 1.000000000000000000e+00 1.000000000000000000e+00 1.000000000000000000e+00 1.000000000000000000e+00 1.000000000000000000e+00 1.000000000000000000e+00 1.000000000000000000e+00 1.000000000000000000e+00 1.000000000000000000e+00 1.000000000000000000e+00 1.000000000000000000e+00 1.000000000000000000e+00 1.000000000000000000e+00 1.000000000000000000e+00 1.000000000000000000e+00 1.000000000000000000e+00 1.000000000000000000e+00 1.000000000000000000e+00 1.000000000000000000e+00 1.000000000000000000e+00 1.000000000000000000e+00 1.000000000000000000e+00 1.000000000000000000e+00 1.000000000000000000e+00 1.000000000000000000e+00 1.000000000000000000e+00 1.000000000000000000e+00 1.000000000000000000e+00 1.000000000000000000e+00 1.000000000000000000e+00 1.000000000000000000e+00 1.000000000000000000e+00 1.000000000000000000e+00 1.000000000000000000e+00 1.000000000000000000e+00 1.000000000000000000e+00 1.000000000000000000e+00 1.000000000000000000e+00 1.000000000000000000e+00 1.000000000000000000e+00 1.000000000000000000e+00 1.000000000000000000e+00 1.000000000000000000e+00 1.000000000000000000e+00 1.000000000000000000e+00 1.000000000000000000e+00
1.962899353265066659e-03 5.622205800771706841e-01 -2.066650903647418158e-01 7.294065143325416667e-01 5.082590557621881056e-01 5.663647971482085319e-01 6.353204914700752992e-01 2.654843707993902457e-01 5.197818767169726240e-01 5.182105210817602448e-01 1.077171139970245495e+00 -6.752102481877383378e-01 1.393278788123345935e+00 4.471054522303435919e-01 5.109489579800636783e-01 3.966978880197495338e-01 9.061063465895563551e-01 9.722519735616383940e-01 6.721150038305355734e-01 5.200851702452885528e-01 4.229012681544677132e-01 9.775154885574842689e-01 4.713549300278259691e-01 4.628406080193518402e-01 1.095117846677032686e-01 6.801969181625940886e-01 3.640926253016089076e-01 6.065907153414108466e-01 5.318826467032585770e-01 1.545794685300938331e+00 5.308497570719400427e-01 6.131025874149630406e-01 7.205527257592641011e-01 4.871694734990976161e-01 7.122734574203102298e-01 4.504334395644499778e-01 5.509952480497061211e-01 1.748926940915631834e+00 -6.355340830259563478e-02 5.058140498630295800e-01 -1.432812592889798897e-01 -5.593983096054613302e-01 7.506676980285796885e-01 2.239157789004345145e-01 2.631624356665586140e-01 5.231279088182453352e-01 7.291361111192833366e-01 5.217002130603722865e-01 5.845323576489437345e-01 2.528007368551606071e-02 1.995946090532684826e-03 8.394843567275643847e-01 6.706509721937538027e-01 4.679996148983724402e-01 4.527787712512910678e-01 1.820255056553744810e-02 4.764815468925016062e-01 5.420135412043061152e-01 1.865581516451548516e-01 4.638508545590637744e-01 9.100767437267269777e-01 5.482360682427085408e-01 4.939135041242037616e-01 4.713547645751597348e-01 6.825193923128325402e-01 5.361838526287527884e-01 5.113620311124394968e-01 2.911098247101358005e-01 5.413100475149309476e-01 -7.569302381904615545e-03 4.103809806672443772e-01 4.869203964576261923e-01 5.233569512297771009e-01 3.536947465970290833e-02 1.495240107423981613e+00 5.585114384433631507e-01 6.325711775011343407e-01 7.407201986941054361e-01 5.147272824018915838e-01 1.379849001946582110e+00 5.352766885205878511e-01 2.937625810020809136e-01 1.375997614006363889e+00 6.839485283183512898e-01 4.865869765725397422e-01 7.574181544431995983e-01 8.145015043132086685e-01 5.470163010962378891e-01 4.058019220346590905e-01 5.755252956029371925e-01 2.682822071464849301e-01 2.143779692732855402e+00 7.208302582821984883e-01 -4.724634996663908820e-02 5.603679078814405301e-01 5.611466178482524825e-01 5.370378356094203109e-01 4.729211534053305854e-01 1.894819918380379054e-01 6.833107755193410515e-01 1.582247331650447952e+00 6.877330180304521701e-01 5.435733928167364448e-01 7.602918693188316368e-01 8.593371504515951997e-01 -2.019987200058282806e+00 -1.197597076944695305e+00 5.466334638918379785e-01 5.646572942319135757e-01 9.726984753325286226e-01 5.317109839144373851e-01 4.605033052557941931e-01 1.658601378004709859e-01 4.760070995747291978e-01 5.183073206085182516e-01 5.103853167910881172e-01 5.242093183439852089e-01 5.530047019753344673e-01 8.806851643583847311e-01 5.115039575394336735e-01 1.293713340487934849e+00 5.607090600845746620e-01 5.506951006453387754e-01 -3.731565934130490758e-01 5.163419135371910551e-01 1.927145260983335495e+00 5.551508342828406217e-01 5.007717014816578383e-01 6.873068649775013750e-01 5.112730000318274071e-01 5.238052473658592056e-01 5.101088110945012355e-01 4.128338059960222073e-01 2.803179363877442154e-01 -2.313978154915891094e-01 -1.562636508237425503e-01 6.238603112683297480e-01 4.244097548906684142e-02 9.931931871065587947e-01 6.691228963288615716e-01 5.233826937401435675e-01 8.582161861934118896e-01 6.416479527359868484e-01 5.966033475257277452e-01 5.150974817368737524e-01 3.789907850461553263e-02 8.796425317109956010e-01 7.901913589897210932e-02 4.696192394432077699e-01 -8.663567849082712824e-01 7.773111369942464766e-01 -2.982580285669187981e-01 5.231289317318519316e-01 5.387010704084401747e-01 4.841604802735340329e-01 5.083592323383795408e-01 1.889222676624720876e+00 -6.820558357976118369e-02 8.092426979801553566e-01 6.986719538812243835e-01 5.167230810544688469e-01 4.196063180731789410e-01 5.146204401100402670e-01 5.121255067421465190e-01 1.088434932028380597e+00 1.570149896600374628e-01 8.457915205843022921e-01 4.202770638063197950e-01 5.809036936066913626e-01 6.248324895652144217e-01 4.481404044563702116e-01 7.303086875203788075e-01 5.231420093445523500e-01 5.117742277857562083e-01 4.059898062308003874e-01 2.674938261077366639e-02 1.803373998882266127e-01 7.949295913958077942e-02 7.403533168186521296e-01 1.140445934033635478e+00 7.133496666993117685e-01 5.048971385833291858e-01 -1.842885284854224870e-01 4.582068344724107289e-01 6.687854750078249255e-01 5.248639267872130532e-01 5.233108395412852110e-01 5.100244817980611467e-01 2.742148449991118841e+00 5.423417131027223892e-01 5.173975909409970209e-01 -8.681976554261110479e-01 5.240758873242638005e-01 5.732718283016534633e-01 1.804264827778563618e-01 5.127392756183010158e-01 9.277289185239778746e-01 5.260964702681493188e-01 6.681868106112198724e-01 4.190243681027782663e-01 6.189808721235251499e-01 5.517216849186246108e-01 9.549807891497620327e-01 5.998523159797456428e-01 5.432463492820053252e-01 6.681868767214760307e-01 2.775066196534225482e-01 1.279852078837826923e+00 5.093614310886269703e-01 3.642697580990814643e-01 4.423472110665963020e-01 -6.965387099534493809e-02 4.734264965309658013e-01 1.624767707586274867e-01 4.948401825972458257e-01 5.116906222012616023e-01 5.053815808340380578e-01 5.180122132304665339e-01 5.141637135172811846e-01 5.136467811267909633e-01 4.458964656015229067e-01 6.115351848451764383e-01 -6.967439628046796507e-01 5.734418597715105204e-01 3.304587821115593793e-01 3.949043036885734881e-01 1.430128719040308916e-01 1.281267319765692525e+00 9.505909050742452626e-01 5.010708114926308854e-01 -1.043856064615357321e-01 1.047784151770724703e+00 5.115318857904063155e-01 4.479559621605063713e-01 4.967715625947571878e-01 4.165599951673458201e-01 3.971110766971300277e-01 1.970693388023301296e-01 -1.468982545184376043e-01 -1.169083749425956359e-01 3.247262184082850833e-01 5.095639703368327611e-01 -9.972373888017102561e-02 4.611049970499786488e-01 5.065864423708413833e-01 4.584873422722593461e-01 -1.037585058731651244e-01 7.451746096682744236e-01 -2.216225280814107190e+00 5.947296124574392717e-01 -5.559178162548104041e-01 4.963007436688520180e-01 5.102265639154117682e-01 4.713544842442637939e-01 4.736020099681480522e-01 5.394655363068326936e-01 5.242995433407043882e-01 7.385493863745935528e-01 5.413264277834410887e-01 1.683284462920215718e+00 6.732737814776819096e-01 6.966184172298089949e-01 5.030060155177222825e-01 3.468797820496648532e-01 9.100767567130825242e-01 3.829505560762407335e-01 2.633304294414219537e+00 5.479896986120127433e-01 2.408804315095198767e-01 6.900871656075071581e-01 5.179935493926901557e-01 9.102246908836555406e-01 5.142796816579177088e-01 5.400324856429572495e-01 5.134565697721928945e-01 1.065348929467095251e+00 7.639252156374987113e-01 8.663381950017985389e-01 8.097589077778315492e-01 3.660256557057640081e-01 6.750930236879929547e-01 5.528231658154563188e-01 3.943960362089098393e-01 -7.024590729157303981e-01 3.823922725040370674e-01 6.785031677220596524e-01 5.523719418061020514e-01 5.439556181534731527e-01 5.103853160135899403e-01 6.064350256500784520e-01 5.466285584965271394e-01 -7.791259567392383456e-01 6.940974783814286564e-01 5.190025879903638062e-01 5.198155190646690932e-02 5.431838177723211647e-01 1.842218591539092731e+00 4.956975378891829709e-01 5.150656894424697763e-01 4.696314434397134696e-01 -3.349532131280110736e+00 5.165810425692974883e-01 2.720718485865252223e+00 7.301727533285816696e-01 5.005423745522068479e-01 -5.810493453297939093e-01 5.141441438858098678e-01 5.134727861080131683e-01 4.323458516100154303e-01 4.597779656806296189e-01 3.798957518306267933e-01 6.366450985363641957e-01 3.148079897125516391e-01 5.175011686817864165e-01 5.182459505209423556e-01 3.642237848204673001e-01 5.186181011420150089e-01 7.300520493936338839e-01 5.128161775502896313e-01 1.189209841413358504e+00 8.820884093694154188e-03 2.203389118012512249e+00 2.604919827698002788e+00 5.427147306983276520e-01 -1.980910478233197380e-01 4.551159186060718120e-01 4.046274341288875198e-01 7.229957141472198590e-01 1.361976355177170861e+00 5.382367580344288305e-01 1.118533422098682673e+00 5.145587745072413011e-01 1.283264801685226331e-01 1.245156080703456514e+00 3.966232422647786304e-01 5.091966760218405996e-01 5.296236091874205743e-01 8.757339694876994374e-01 -3.625397484953217564e+00 1.613424644824287268e+00 5.554855615794094259e-01 6.394425666103888961e-01 5.096927343392100296e-01 1.748926945221049190e+00 3.097112955010919988e-01 5.382189990107166810e-01 5.050942884781940423e-01 4.258970708058538723e-01 1.382125826169453786e+00 6.152161460608071009e-01 6.681869702879830175e-01 4.611004342766159558e-01 5.998523167630109842e-01 6.359159928896076508e-01 5.612772184688828991e-01 8.901414219078502832e-01 5.108861781151560200e-01 3.944520219499556002e-01 2.252735891147677749e-01 6.458941433464925330e-01 5.073753571654050498e-01 4.465916348251623980e-01 5.382189922966125195e-01 6.621150456410728191e-01 5.085243675059349933e-01 9.955849908066195519e-01 9.992035682056913393e-01 1.120750663311714357e+00 5.145213953659356632e-01 2.423856833031242664e-01 9.100766754269876690e-01 -1.087144892933217394e-01 9.330852368200764912e-01 6.272838613038671518e-01 1.020603109678797082e-02 5.662661955550131188e-01 9.936208383422623358e-01 3.917770290852775061e-01 5.279027451467971366e-01 2.709809849783876845e-01 -3.298251589994493083e-01 -2.420109294917170750e+00 4.706286776451074627e-01 5.998523160504966034e-01 5.998523010266736399e-01 5.241432192558452829e-01 4.524685188270888281e-01 -2.066393329360262099e-01 3.346280291583805799e-01 5.217695893528008222e-01 6.491035338410290345e-01 5.099695145748667224e-01 1.060313484254391980e+00 6.681867493349658016e-01 5.118600666745275474e-01 4.750429943296670676e-01 2.663990408841712121e-01 6.483001204081262348e-01 5.163417303623430987e-01 5.112066254521511199e-01 5.577512008966103441e-01 2.718235513210885967e-01 2.495256564197410182e-02 5.998523167825877689e-01 6.561751331242695606e-01 5.134881669813194938e-01 4.377741023883920390e-01 8.572210110580646969e-01 6.665769324568592280e-01 5.630437510666586043e-01 1.812101314707020849e+00 5.221807475747544114e-01 -2.980157177447257055e+00 7.289729076592128543e-01 1.502474807370257404e+00 4.986275471069279708e-01 -1.039315094546205964e+00 7.127819153032438626e-01 4.688654513661230094e-01 5.158019558273854166e-01 5.070367938506403771e-01 -2.763969200230838585e-01 5.081617626754048045e-01 1.064185610119589231e+00 6.206941941294540355e-01 -3.231553970229100181e-01 5.107802042500300121e-01 5.178313161709520163e-01 7.667632268051683964e-01 5.357835221389425362e-01 4.985541065567581365e-01 -5.045126037960282472e-01 5.626993850481858406e-01 5.161492799465428050e-01 7.050585808454765679e-01 4.831298394259612161e-01 7.642524481791279634e-01 5.076214643257223047e-01 5.734393881434415308e-01 7.124591100094075369e-01 5.507837330650096064e-01 3.341214731202031274e-01 2.683092952146186594e-01 3.132100531715407143e-01 9.539929939810022352e-01 5.456047537036505801e-01 3.154637818744559841e+00 6.606165718197758441e-01 6.043140771064017258e-01 5.594891540030904054e-01 6.295932510647962443e-01 2.774873627274368135e-02 4.832660156512969540e-01 5.890707566335484646e-01 5.251479996604622169e-01 1.165318829362207653e+00 7.645732389518479222e-01 5.245663838218819208e-01 4.513306632453361056e-01 1.114436042820623474e+00 5.191184259529689760e-01 5.366364332771873524e-01 4.995402415259057594e-01 7.231702864470196390e-01 5.054909375742777655e-01 9.190952979863957761e-01 4.846087626776801049e-01 5.126422801329607593e-01 8.166207222259202342e-03 5.295155267458573345e-01 2.925061007234758259e-02 3.602508229860228450e-01 4.177116571873111250e-01 5.542034899476263599e-01 7.710353775814160482e-01 5.146371538022973535e-01 4.000027901376358996e-01 4.901011616536253557e-02 5.536436527942615315e-01 5.448252388864930351e-01 5.151807711152199820e-01 4.794566857795085069e-02 5.078589238241217885e-01 2.464740371973411504e-01 5.159270221508136522e-01 4.293840220963878185e-01 1.250414252230655165e+00 7.903181568557144931e-01 5.211502577527371560e-01 2.757290258207235611e-01 6.370558920503877065e-01 4.193245718965785129e-01 9.864512872037439761e-01 5.856063255480433716e-01 5.379597592181649679e-01 6.846145339998889190e-01 1.966500192263461511e+00 4.537079885135158475e-01 4.192973932429776562e-01 5.139303242297607044e-01 6.940804387299150946e-01 4.391005345023986095e-01 8.237269923758482326e-01 -5.630550402233768237e-01 3.197642765692003675e-01 5.401775436273671405e-01 4.344892622805784921e-01 3.711727205613237213e-01 -5.989271489210713506e-01 3.903001756140438983e-01 5.086089878184681945e-01 7.390368609583227721e-01 6.641192193870023575e-01 1.422399167839505152e+00 5.085222161702565025e-01 5.042434927005067236e-01 -6.811276294721880786e-01 5.019399716347472395e-01 1.198425191379375310e+00 6.943516902515721734e-01 2.532585038486175888e-01 2.819442621652978320e-01 -1.572710680992501775e+00 4.861412604496882506e-01 1.912804484283648354e-01 1.092096518824920981e+00 8.121495670985258153e-01 5.151484447148541035e-01 5.057949339721372617e-01 6.228270922104961471e-01 7.290813029222081854e-01 4.676990315679894761e-01 5.647880519269797839e-01 2.462767222877313561e-02 5.031269075861077855e-01 6.270884754500766212e-01 6.443348770378248824e-01 4.987122117359678586e-01 5.866512116236685115e-01 1.186336668087943247e+00 -1.093274621765047416e-01 -2.270166420612113600e-01 4.478287300914986502e-01 5.421916588784224666e-01 5.603522016552314744e-01 5.251455352651099862e-01 -8.313611152459614573e-01 3.119675338992712987e+00 5.902919823186331127e-01 4.576671768607103452e-01 4.124308936806994064e-01 5.147256421424705186e-01 5.160756026073134439e-01 6.324672645060224196e-01 3.270202616965214304e-01 5.784877892980455627e-01 5.134363072507251990e-01 6.493407673835277505e-01 3.723475838363350388e-01 5.082464596641321775e-01 5.272300811127117459e-01 4.062442919419417264e-01 4.725566416322427576e-01 5.480311326352129697e-01 6.442664361095707948e-01 9.997388638210520373e-01 2.291036692450516110e+00 5.724719060478985488e-01 4.941030913010335257e-01 5.356825887505592965e-01 5.401413127096164057e-01 3.639377123845072282e-01 5.089259070364585691e-01 5.160400444617062599e-01 5.445267674322166185e-01 4.771081250912468930e-01 4.830775834259481982e-01 7.295462101062455407e-01 3.692660444044868484e-01 5.590145265723197587e-01 5.188886727290143996e-01 5.758026765930577273e-01 1.254727244599491143e-01 9.100767552338396849e-01 5.464565229112248179e-01 1.450805170809784661e-01 1.907328651671346131e+00 2.687950772228582808e-01 4.598034033166170098e-01 5.849263962733018962e-01 6.057191425175897925e-02 5.215791700868509517e-01 1.497617335593199428e+00 7.518685260094608580e-01 7.849109236926545830e-01 5.095752119987043693e-01 5.460400649520168459e-01 5.005456675001807021e-01 6.248175268529406745e-01 5.020474350833378230e-01 5.106552588720388863e-01 -1.617743195341485307e-01 5.830095520363814954e-01 -1.375969028124956584e+00 5.330819537192077462e-01 4.927454681764048550e-01 5.555380444787926253e-01 4.696420068651411261e-01 9.100767552810445915e-01 2.260506835660111291e-01 5.656998649269316948e-01 1.311807838304573037e+00 -5.336903886762938143e-01 5.135616097080298870e-01 1.117292061753806243e+00 1.477754449228946942e+00 3.967188589380227226e-01 5.145075287441359668e-01 -4.516899986053547755e-02 -1.640728683941489630e+00 2.831464531361845283e-01 7.370113047580314491e-01 5.262647514980608454e-01 5.173468944849939355e-01 4.806268098316092696e-01 4.880934931560399481e-01 -3.895486184507355731e-01 8.093724488402986861e-01 5.103853138555322078e-01 3.425319813255621182e-01 5.497854765434150304e-01 -2.242448265351942166e-02 -1.756020225347807717e-01 1.754268958622341223e+00 4.167930883652255503e-01 4.473686225102778136e-01 5.112532393761314298e-01 3.320003489754814741e-01 6.218203538057710533e-01 -2.044433856063071139e-02 -1.005901273381290206e+00 5.149679651784601075e-01 5.080763454564113379e-01 5.026316109434153523e-01 5.991230101306920242e-01 5.558336223902525797e-01 5.419112504269466557e-01 5.295814384784315321e-01 5.809829032778012214e-01 1.024412469514114354e+00 7.282283511145243304e-01 5.555383944046170530e-01 5.503184846697906085e-01 4.628818690724025298e-01 4.235856238194292689e-01 5.489190491585502901e-03 5.382189936796706320e-01 5.477016392943107048e-01 4.604296551394652104e-01 7.453155358219828441e-01 9.660078851961566571e-01 8.237389340069418697e-01 -4.685096970932960958e-01 5.559769075956004780e-01 5.134361851529175569e-01 5.196054982087583429e-01 5.751392822066311306e-01 8.971479574395154755e-01 5.522896712398952523e-01 4.993911678651676844e-01 -2.060155304855265102e-01 -8.398899511922696126e-01 2.251397219132427185e+00 5.214040528568817390e-01 8.876847235815941151e-01 4.780184469832828853e-01 5.681607447696811475e-01 3.622027589199424691e-01 1.489356345378609059e-01 5.100917605472422567e-01 5.451309301655795636e-01 2.494757421194726023e-03 5.090072400567218214e-01 4.241994356918336040e-01 5.002796297116627322e-01 7.380306993241551039e-01 5.060629456270296922e-01 5.884968403936319259e-01 3.886024272120546241e-01 5.224564339873200014e-01 3.567354758077069254e-01 5.118424346446031059e-01 4.433415498285808720e-01 5.224877496934503540e-01 -2.919555966820849835e-01 5.067464979625015964e-01 6.430264132860806781e-01 5.341588434823761888e-01 7.293304368262631954e-01 9.100769088899288706e-01 7.349261082998341799e-01 -5.805214254537832685e-01 9.930347730757254077e-01 1.748926940936991192e+00 4.770848116371111391e-01 4.638739468423830337e-01 1.068579323312816021e+00 5.368511780560090152e-01 7.292956560943766320e-01 5.095963471471492978e-01 1.784331926187903594e+00 5.149574142039546887e-01 4.611039236142374098e-01 1.233922539297454435e+00 -5.243094804252818042e-02 5.468344833588723031e-01 -1.683571245593721288e-01 -9.350719707461375707e-01 -1.758542641977445808e-01 7.803478298331838481e-01 5.374696359996596895e-01 5.692046417322407237e-01 -3.346641282020991204e-01 5.182875733481411284e-01 1.845989143158438539e-02 -3.491136693248399481e-01 4.637405885746629375e-01 5.119131116334585396e-01 5.155515685963558692e-01 5.683766348798681145e-01 5.637945347658814832e-01 9.016146932258022328e-01 -3.811519483696781396e-01 5.071098813289930396e-01 5.693534460653780771e-01 6.267439775227457988e-01 1.158136867381656554e+00 5.160074512089531940e-01 6.118020839303709435e-01 5.069713048325381610e-01 2.447340511126675291e-02 -2.757610749737547384e-01 5.193119234428562603e-01 5.040144494166274303e-01 6.621445064917658163e-01 5.192483100432868648e-01 3.354408860465930009e-01 5.100454658125214147e-01 5.110932417117464155e-01 3.372520869976231017e-01 5.101375606968540088e-01 8.371724737867743960e-01 2.518104625468402524e+00 -2.357915512749994003e-01 6.677989820929641773e-01 3.386493403756717369e-01 2.218396006411667010e-01 6.847383768915636937e-01 -5.671664030204768420e-02 -1.483726803308411002e+00 5.179140961290573664e-01 2.578822152938891499e+00 5.010307018861857031e-01 1.466019614814884908e-01 1.805041564311869184e-01 5.103853166315520662e-01 5.584905719381278999e-01 1.536414078775834025e+00 4.873032828509105130e-01 1.256670000462035697e-01 4.443143963199281399e-01 1.663729309843257953e+00 5.731586444236745903e-01 7.130918368655644324e-01 5.335619898332133459e-01 7.420021445743342214e-01 4.533441258472005742e-01 5.610089600875457494e-01 1.074358300752322089e-02 5.085601193713837898e-01 5.352291642031233865e-01 -5.629519804129633487e-01 -3.188762238866649223e-02 1.168275096114329781e+00 2.349516248666114193e-01 4.923914041591886392e-01 6.737753748661650111e-01 5.466927657897268089e-01 1.986182194077741325e+00 7.066120207652412111e-01 2.888357193567855918e-02 2.618477816458387730e-01 4.053869908322497717e-01 1.095071003896353146e+00 5.416048368223373988e-01 -2.135239588271218777e-02 5.024981792078718756e-01 -2.352075372112254203e-02 5.192251502891478410e-01 5.076974593117988821e-01 8.870982112539190986e-03 -7.026018255279818658e-02 6.656216092587418087e-01 6.223191963118573922e-01 5.283074111330701150e-01 3.036820797175521780e-01 5.204441281694198729e-01 4.828869400547689539e-01 5.683293912059355080e-01 5.522335791320368559e-01 4.816154601496053234e-01 6.390860273582623652e-01 1.013054490912502992e+00 3.082638328425162833e+00 8.941757658695127509e-01 5.213872996951131045e-01 6.525767103339540354e-01 2.108979725979099606e-01 5.091653940225574493e-01 8.352954770258536055e-01 4.834269145261615441e-01 1.315864523733556224e+00 4.933022536931319091e-01 -5.634798266567609959e-01 -1.175087397629818488e-02 4.154733259180746208e-01 6.108949223542816664e-01 5.317678463207791140e-01 5.101114691916855959e-01 4.984766697427392163e-04 5.179816984677922953e-01 3.923814457375381370e-01 -3.550120548026694856e+00 4.894228677596668131e-01 5.233891802909789170e-01 1.117543231368718359e+00 5.160354029762925787e-01 5.906329633042252114e-01 6.797889651067517969e-01 -8.605782852403227601e-01 -5.067001751211570593e-01 5.486509568864910563e-02 5.105937802646269841e-01 4.085165802747627306e-01 2.251982591585177662e-01 4.875200671643308281e-01 -3.301300758657658707e-01 6.518004289168818355e-01 5.443722187343095209e-01 6.933671312910935081e-01 5.351301543513893311e-01 4.768870856551147286e-01 1.654994273302903829e-01 -7.296914546172620364e-01 6.495547195179883770e-01 5.136491376570477829e-01 1.663811244640268916e-01 5.108906509977226840e-01 5.870393307957602058e-01 4.962328549219877649e-01 6.693065025362228138e-01 5.664986024613130056e-01 5.368548106086324934e-01 4.978505523144167166e-01 1.748926941167733951e+00 3.716001579021194767e-01 5.518674291311088664e-01 -1.050380551333547907e-01 5.388316782880819833e-01 6.192858523937975201e-01 5.145006189091883009e-01 5.021895947656601633e-01 3.473643953379626503e-01 8.985785694538398483e-01 1.177876090675770149e+00 5.576530832831814166e-01 5.566984271534046735e-01 5.952199977052391455e-01 4.633337900640436824e-01 5.221616352098249481e-01 5.124246796468241438e-01 9.930375673974196626e-01 7.310682576266757104e-01 -4.479429743886204629e-01 4.435547027102846873e-01 9.198871488684274844e-01 4.879424230682814501e-01 -1.531203949884824521e-03 5.282162079640000396e-01 1.191867452947550587e+00 -1.382260134584860911e-01 5.406486439599690330e-01 2.525283038306821992e-01 5.458529351238046168e-01 8.092227467353285686e-01 5.130954416395913098e-01 3.665792505732101136e-01 1.389590639744934464e+00 5.113041894989694969e-01 5.220668251494747780e-01 -6.134780825694106099e-01 4.608899934560952150e-01 1.044036430335641752e+00 5.844440308355807190e-01 1.049237023192836904e-01 9.452756245889503139e-01 -6.301107611867128033e-02 5.542580063736761709e-01 1.585042551926677312e+00 -8.492223229637618775e-01 5.336406357342380335e-01 5.098469600964529169e-01 -4.350147754430199742e-01 3.358691903612605056e-01 5.657443998351626702e-01 4.657073628067893156e-01 5.306596643674029723e-01 3.496796559674344995e-01 2.641200643916583046e-01 3.469621403248853153e-01 5.343474480034585694e-01 5.106869281893511303e-01 4.062139152234392828e-03 -5.880434607619532822e-02 5.011073631312162879e-01 1.058373024919449623e+00 3.991357208342555252e-01 -5.625641018665373805e-01 5.592323032378692105e-01 5.088287743405709440e-01 4.795889063024650345e-01 2.670563417787478674e-02 3.418517695704188508e-01 5.097843768314349600e-01 5.019625654518761193e-01 4.553141019139617662e-01 4.589271072629678982e-02 4.437072208722559474e-01 5.046972342858800920e-01 6.593484091328832841e-01 2.064201526750385707e+00 2.511634680656543023e-02 3.814785579793606995e-01 4.697124126038704772e-01 1.808883229005834758e+00 5.444995335123956615e-01 4.864639754070669286e-01 1.410690555101886193e-02 5.382189972351909546e-01 5.214505340156444513e-01 4.703878991902940010e-01 3.812080147869413849e-01 5.229147125984228150e-01 5.756967513194830577e-01 5.459327222619695386e-01 -5.053258660549631021e-01 5.131155476794284631e-01 5.160212873614882234e-01 5.011282020316333297e-01 9.666930479381369290e-01 5.025833421159024983e-01 -2.391263176307371618e-01 1.043864876450442347e+00 -1.219278975606823856e+00 -5.029086020369143428e-01 5.131904819269946794e-01 5.138216689797033832e-01 6.479463302285557447e-01 5.246498962224405149e-01 3.636688391254406794e-01 6.246302130968811595e-01 5.382189976314932789e-01 5.122600933582035498e-01 5.986060005289215447e-01 5.735245767242816983e-01 5.105256248896766769e-01 2.827771335083194559e-01 4.922879264149654377e-01 4.517525580942929886e-01 3.624709605223889741e-01 5.027040540321299211e-01 5.081564024714178007e-01 5.463090967641952567e-01 6.348363873609077501e-01 5.166967854520664316e-01 6.545151618589079012e-01 4.752892782228130275e-01 5.046382925886164772e-01 5.464985532857994377e-01 3.333351342009936435e-01 4.493114843234652933e-01 2.361884737394202016e+00 5.687474299460618665e-01 5.638209904539053241e-01 3.233655769804913427e-01 5.794499022664154619e-01 1.104786891377832037e+00 5.611910546930963806e-01 7.142579161716422487e-01 5.123835427327866343e-01
6.812180897312567485e-01 2.513699873787203498e-01 4.085945618585716255e-01 4.367878184495076199e-02 3.212387724263229827e-01 2.949438424264797520e-01 5.268185798835262057e-01 4.532459339534338216e-01 2.163543154087836651e-01 3.377247181070336390e-01 2.024445206196603397e+00 1.695707511520815114e+00 -1.413207423543594299e+00 6.231154190583653163e-01 3.149686718864602164e-01 3.882663705028148726e-01 1.284101330171310285e-01 4.225342708930657776e-01 4.481213349079685715e-01 3.122838063515859797e-01 4.728027025696810437e-01 2.079470224685779911e+00 4.019423186371396395e-01 3.664032601626983632e-01 7.063273109666695637e-01 -2.598783428707962528e-01 4.671378742345966839e-01 2.557078215213661743e-01 2.842895304788961575e-01 -8.365641565755594922e-01 2.348349807732459382e-01 -1.006423460200537023e-01 2.893977278574324519e-01 2.527056032169804345e-01 -4.287762823919012978e-01 4.273162782259747328e-01 3.066709870423108275e-01 -3.261474121157218464e-01 -3.171466551212428708e+00 3.039251962259239548e-01 1.109624509008264814e+00 1.388849338906261444e-01 -1.632447316123271930e-01 7.914730491573793714e-01 6.527241165056829608e-01 2.779076154341707516e-01 4.393434627202746912e-02 3.009782482434221196e-01 2.692491244269500372e-01 7.118479781317261779e-01 6.918566736968047026e-01 4.528812580781199082e-01 -2.769915874520246790e-01 1.981498932015775538e-01 6.051652905967630502e-01 6.807223893286513672e-01 3.437204946107887960e-01 2.769573311060333776e-01 3.479598535000136272e-01 3.419599930975324997e-01 4.229236347519578776e-01 3.480690919930676808e-01 3.199051334403740787e-01 4.019423370401328799e-01 -3.459530996851507556e-01 2.163860464205543954e-01 3.329844660809451740e-01 3.399285166564608995e-01 2.464307729615977938e-01 7.308588964989279901e-01 1.173789043493026901e-01 3.234320448368878664e-01 2.953674775466590963e-01 7.135635769058981115e-01 1.890570823762666608e+00 5.142318009264535972e-01 4.666458555680604303e-01 4.786565077624989617e-01 3.133468048989501153e-01 -1.315849712044514952e+00 2.878972621350816552e-01 6.411468799205723990e-01 2.251386743271861057e+00 1.268099461405414741e-01 2.836444818578701121e-01 -4.285961265741477511e-01 1.198099030431349354e-01 2.826732560370445180e-01 -5.691870410974214645e-01 -8.633794695682809328e-01 6.523867560047967862e-01 1.544111129648240821e+00 1.041431459129337905e-01 7.059578477889977277e-01 2.932132454584099324e-01 3.005460226238057531e-01 2.755525830819273159e-01 7.245879754022618302e-01 7.389119676037020357e-01 -2.623163397854125223e-01 -1.653362966515828925e-01 5.639025967833610070e-02 2.854162765416949354e-01 2.168812254133591633e-01 1.480506036326680215e-02 3.039475597362396808e+00 -2.773533072232948204e-01 7.112722114376134053e-02 2.013133274456372357e-01 8.066767165842009257e-01 2.295254807682225451e-01 4.018939948195739409e-01 1.706662108237393394e-01 4.781276478792791940e-01 -4.937500214209752936e-01 2.043505476423332079e-01 3.316556853709738406e-01 3.880178699008974275e-01 9.640772895311420232e-01 3.243407882944489007e-01 -1.427303655726604559e+00 2.661269209588005280e-01 2.211659751827059206e-01 1.293694915171512250e+00 2.971568952244562078e-01 2.130838600481859579e+00 1.737438493171234999e-01 3.805681054688995757e-01 2.925557241470957970e-01 3.297616020886315336e-01 2.554843835926304818e-01 3.195258894869265620e-01 6.720849922786841235e-01 4.016469635061979404e-01 1.841153572153755025e-01 8.826982179204441170e-01 6.946302450010790608e-01 7.255316555839557147e-01 -3.279419644690203528e-01 1.973097355546289677e-01 3.356492553212842012e-01 3.213241955657675231e-01 2.329384507056414533e-01 3.248415861063375099e-01 3.065066862254383628e-01 6.953182549528789114e-01 -1.138975558315898085e-01 3.184657704527478761e-01 4.485848199982863660e-01 3.947268401045073150e-01 -2.858696260384518406e-01 2.023623296176031011e-02 2.779106992327601278e-01 2.796605185393992721e-01 3.684785701071818242e-01 3.144087073421890088e-01 -2.229741200890764663e+00 4.441315784577768433e-01 -5.831669204485668834e-01 -2.608626749804797140e-01 3.571130465127639875e-01 1.944942085541136456e-01 3.320776854947921630e-01 3.105065626662833478e-01 1.079369770273149315e-01 5.772868430143647533e-02 3.138812320215728091e-01 4.009290250302373626e-01 2.575143659408392072e-01 3.685887557520142743e-01 1.865096644562835027e-01 4.486564905397750352e-02 2.779297442177743882e-01 3.145081502944716001e-01 -2.458820774535208198e+00 7.184689231951113531e-01 6.360773756902128317e-01 9.821786011609826561e-01 -4.519328019335959179e-01 1.167925014688694141e+00 -2.171296862582846807e-02 3.356332971797221787e-01 1.225562232334754809e+00 2.564555010503390409e-01 3.035117937113145925e-01 2.581809894153246909e-01 2.665273167957297740e-01 2.974638329817145821e-01 -4.554139074062858450e-01 3.670498283324229449e-01 2.016026551963154556e-01 8.011543248025017050e-01 3.029657045141145311e-01 2.228416240023456396e-01 2.212546552913998987e-01 3.172448109502510882e-01 -1.607488286968981939e+00 3.038263728111167961e-01 1.857135629312282321e-01 3.495716549826182740e-01 1.220051567205641257e-01 2.920252579864452414e-01 3.756712118654397248e-01 1.270916166456828589e-01 -8.042700675096705609e-01 1.857135313164342272e-01 4.469690177263655473e-01 -5.019198204769285132e-01 3.390242209515650362e-01 1.532203587257935096e-01 2.664188029642016731e-01 -3.176515802856781256e+00 4.343768533377433405e-01 9.381126636900379845e-01 3.130914710266771150e-01 3.271644167352942834e-01 3.208366532920594039e-01 2.983669187241742571e-01 3.085643226156551955e-01 3.120107415837137244e-01 3.193079424740675742e-01 1.895469809968570729e-01 6.566720420673192171e-01 1.462066144164807513e-01 5.272161013790760409e-01 4.423273126304518299e-01 3.800959830546323803e-01 -6.309156673149323158e-01 2.230504937591998083e+00 3.776045860961922407e-01 1.226147752758695697e+00 -1.375654737630791491e+00 3.187546923194023996e-01 2.020561056774171915e-01 3.469905604691703727e-01 1.141334075395120218e+00 4.733445199298670358e-01 7.892703144670585313e-01 2.777038467433203262e-01 6.705014110823105389e-01 3.389470597088906079e-01 2.992181900153242369e-01 -1.142315335312655833e+00 3.440599285518492478e-01 3.197825898370701969e-01 4.642286482104935330e-01 9.181942518681626142e-01 -3.353960909107421839e-01 3.065889414339177055e+00 4.595381696129596238e-01 1.209978316857087677e+00 -8.909904251204119052e-02 3.320436532883698777e-01 4.019425149613693460e-01 3.040904598512296220e-01 2.942787243150463694e-01 3.471816253138675368e-01 -8.456681212401989667e-02 1.614395306303380295e-01 5.605409164740823291e-01 2.885747341414871547e-01 9.091635863576220944e-02 2.749056108045901947e-01 3.247606800947596684e-01 4.229236366344330533e-01 2.706977115999854577e-01 3.152568676471289244e+00 3.822078436484983022e-01 6.560819412771208281e-01 5.441719908722101318e-01 3.343786729921829348e-01 4.227688415903536057e-01 3.093381662944204580e-01 2.600823978762732969e-01 3.130871009631558399e-01 -4.991009369936499906e-01 4.771359011641606584e-01 2.855233094517852788e-01 1.145253356217494634e-01 2.382461373416980277e-01 1.509404389062861229e+00 2.284129503870510058e-01 2.773684305125658778e-01 1.975771071660309630e+00 4.899204341717783295e-01 3.486054995568808601e-01 2.752295439447980385e-01 2.902862957959687074e-01 2.043505454556422407e-01 -2.039920636154063160e+00 2.849489344937731761e-01 1.462747956822423978e+00 1.082854179540926158e-02 2.353588914501617280e-01 7.149311941248002178e-01 2.512561733618924875e-01 -7.101941950450946228e-01 4.423492491679283378e-01 3.108404027075626908e-01 4.486220221908973627e-01 -3.758862675210276616e-01 3.037038454973110535e-01 -2.105052006015067700e+00 4.472048903063840369e-02 3.245503173825891041e-01 6.072234255807236192e-01 3.137525328801903379e-01 3.111604786216106144e-01 4.454078466089704258e-01 2.229054623640925881e-01 -1.266326544780242702e-01 -7.500397138422869592e-01 6.307780771230778703e-03 6.799060169498085671e-01 3.019835398092327039e-01 4.811324514494855764e-01 3.124872094463503336e-01 4.445703900175159567e-02 3.091957802361777752e-01 2.393957094164476551e+00 6.950296349818240182e-01 2.464981409475439089e-01 -1.127893582468662448e+00 2.204035586160916771e-01 4.561271477977792976e+00 3.186561318676285892e-01 -1.045338813080949059e-01 5.680704775497320558e-01 -5.450078867518890036e+00 4.989534195658921201e-01 1.510270136712593025e+00 3.094860533656342838e-01 5.429813863502450655e-01 -4.307882728771545988e-01 3.573106557477516154e-01 3.187071382933231445e-01 3.377872718055750512e-01 2.552289773359090463e-01 2.854171119466172524e+00 -3.607360669429852673e-01 2.614648102350470849e-01 -1.888153885200258397e+00 2.904130694396805379e-01 -3.261474162011332445e-01 7.382996818415938911e-01 5.549251578232021753e-01 3.538586144527036681e-01 3.416568075093968093e-01 1.287541825438437426e+00 1.347651139770427720e-01 1.857134409661201635e-01 3.440651218613919871e-01 1.270916150673223333e-01 2.490160232451903433e-01 3.984908496414012458e-01 -5.959514199198652218e-01 3.156014186043789027e-01 5.317090161620916522e-01 3.669293860614754044e-01 1.716636302249068546e-01 3.213859689560557009e-01 4.427871610720192641e-01 5.549251803779809977e-01 3.536718460639541872e-01 3.162231045620187975e-01 2.069464748555204514e-01 4.567028880517658429e-01 3.299307943941448773e+00 3.161047434656378829e-01 1.707262028088763484e-01 4.229239341291917142e-01 8.552803484569735382e-01 4.627843119613622713e-01 -1.895865561013083123e-01 6.932941699137064040e-01 2.318561097045926112e-01 1.118516301883640818e-01 3.873484278735236930e-01 6.494559625281945969e-01 6.623193137547034315e-01 7.706693928537720062e-01 8.055603381066918089e-01 3.866675336704615273e-01 1.270916165543325704e-01 1.270916430373751349e-01 3.495963045066987629e-01 1.090666433720177686e-01 1.120051750971507776e+00 4.156263086590024081e-01 3.265090568146021832e-01 3.810443365940729410e-01 3.161710702507359860e-01 7.870159254786767145e-01 1.857136485381414848e-01 3.174827654044289904e-01 4.366524215246141427e-01 3.066797434612604234e-01 -6.288916509908729635e-01 3.032424663068554738e-01 3.156481791645547874e-01 3.568551881869010955e-01 7.042710815670506497e-01 7.459168588137727873e-01 1.270916151919670445e-01 3.810998514433713152e-02 3.144606774860696508e-01 4.193624854873850838e-01 -5.888278141072423866e-01 2.161770204190222588e-01 -3.431110633477371330e+00 1.894072849744578901e+00 6.214915545980018718e-01 -4.356044319445402935e-01 4.358260221278122820e-02 2.018898260986611071e+00 3.204463496585701066e-01 6.291917772026692779e-01 5.673038097180816558e-02 2.829259059524162345e-01 4.606149715287931046e-01 3.238940358028512545e-01 -4.052161099766702357e-01 2.582224857910096483e-01 2.017997826974169406e+00 3.496380239768893672e-01 -3.910903617525997578e-01 2.613570355722899530e-01 3.014477093856297030e-01 -1.438418456599925621e+00 2.838904059174159888e-01 3.071963398044578186e-01 4.026572757309774264e-01 2.249662268984750912e-01 3.116209972721877830e-01 2.385751078976823536e-01 3.187262540555311219e-01 -1.599395203018110223e-01 3.168078687640314972e-01 1.461692213213545144e-01 3.400678191257058280e-01 2.667489034041360396e-01 2.812068439726262900e-02 4.474213205759992040e-01 6.303104838985510439e-01 -1.345786144209802471e+00 -4.787431163334111561e-01 -1.035465259723451215e-01 4.414196247098824827e-02 3.157006004922935372e-01 4.237755163789522217e-01 3.624399208596541522e-01 7.184888462309597656e-01 -9.641830598592722457e-02 3.296233051869371100e-01 2.949831024789520972e-01 9.165113874958749629e-02 -1.601329419853226299e-01 3.289724334059069832e-01 4.319803024849422912e-01 4.785155940224692928e-01 2.993490090437078144e-01 2.832618197474763844e-01 3.218823746734723601e-01 2.614588284113107397e-01 3.265488127756530634e-01 5.154268425416047572e-01 4.303670758868046731e-01 3.117305536884245054e-01 6.935588409518748110e-01 3.006966276731880550e-01 7.130974195799719695e-01 1.101109275019223621e-01 4.790571636453904714e-01 2.147030405552788623e-01 -1.428166088819407875e+00 3.011210629789154436e-01 6.415576998852465795e-01 3.916633736369858343e-01 2.549133193474411585e-01 2.873272930962207372e-01 2.998042404357669222e-01 7.045471630628509230e-01 3.221209233669146133e-01 3.606443803580706708e-01 3.132632126878296952e-01 2.949874530840076448e-01 2.225299972305874452e-01 5.275374574243579806e-01 2.936303018857623348e-01 2.771707489589511630e-01 2.057668980121590552e-01 3.830671476717368434e-02 1.602874661599476003e+00 3.294475733595881861e-01 3.746301634648566137e-01 3.722591480181640655e-01 -8.177697457405121995e-01 4.366016050886321609e-01 3.465969170130542287e-01 5.297271015866131805e-01 1.139916249379062906e-02 3.342573306895040841e-01 1.487625171740955876e+00 8.849682361302352307e-01 3.856653541765773241e-01 2.595396669420655389e-01 3.925211082898938386e-01 3.210628161529470725e-01 9.062561778458991801e-01 2.973753994391068023e+00 3.186308021075687780e-01 6.277327969703550004e-02 5.960440666616623195e-01 -1.602502866405758619e-01 3.128105683883023458e-01 3.042932010415866917e-01 1.050359000684724320e+00 3.327395372432818133e-01 -3.040534836879751901e-01 3.680494795165044630e-01 1.131273405540818844e-01 6.636530581513846450e-01 1.671685456953919235e+00 3.794746913313252201e-01 2.348467105451698400e-01 1.641128133337236727e+00 4.156000891642122053e-01 2.884004786556749189e-01 2.793488400116363457e-01 3.632577889049677378e-01 4.421720074955005908e-02 4.282657035514687016e-01 2.341838915806013499e-01 7.197497401626663516e-01 3.025214480285710605e-01 3.402306289289369623e-01 2.981744302271844838e-01 4.604295223797068015e-01 2.667996719769868408e-01 2.517111743047946160e-01 9.249003889385267740e-01 5.003111338408509079e-01 3.819318441164146205e-01 2.889678566694359185e-01 3.156060075037134816e-01 3.227854388871883584e-01 5.824379594584432329e-01 7.637205813931327025e-01 3.119140751910711162e-01 2.744297875791467112e-01 4.006391951995447731e-01 3.107577728536516370e-01 7.453284698109295947e-01 2.069901872126974629e-01 4.355975832508550138e-01 -3.173218177650006244e-01 3.159681286679330015e-01 2.353077564092305729e-01 4.042303922156056384e-01 3.541395510650903189e-01 2.258996881742230955e-01 1.738676855867248738e+00 1.423827314758455420e-01 2.848450673162740143e-01 -1.425245907002282986e-01 1.591671838078955403e+00 1.135362588986873700e+00 7.832805435401191119e-02 -4.641523631688752594e-01 3.309844630502816187e-01 3.424419669819984691e-01 5.146084124726465481e-01 3.152072570192111511e-01 3.074294752708781608e-01 1.990541828028991878e-01 3.341758967157147375e-01 3.626650659425093015e-01 4.374251866554184492e-02 -1.675007271363568306e-01 3.863732355181662137e-01 3.681188274577083530e-01 1.910482274272541914e-01 8.543608912479653261e-01 4.229236339646805232e-01 2.188233296722891796e-01 8.203868149620163752e-01 4.763090586851155273e-01 6.524613575486912787e-01 4.291800321260874629e-01 6.843210036560184450e-01 1.455925420311336316e+00 3.066137966797159997e-01 2.028589943619881542e+00 -1.304598790069006614e-02 1.320263060861330551e-01 3.188172889287396172e-01 2.873955966698424902e-01 3.142670283533546272e-01 3.685953018573242534e-01 3.298752177599175717e-01 3.176250599418222742e-01 3.520735874997897863e-01 1.808342786526520862e-01 -2.751183661616886100e-01 2.936917132771885153e-01 -7.769786315206540783e-02 2.587017987512770789e-01 4.486917400501646558e-01 4.229236339111914766e-01 1.966531610329381730e-01 2.441546118488747419e-01 -1.179071059814673861e+00 1.919142814857808244e+00 3.110404293419498090e-01 -6.867158612372298299e-01 2.980766336348204537e-01 3.152647462569915238e-01 3.128555926744334692e-01 -4.653316904759194905e+00 3.455745820387265965e+00 6.174272049533211515e-01 1.138582860683224757e-01 3.360352916026637105e-01 3.097042429960055743e-01 3.283139655302717563e-01 2.558762034429389765e+00 6.130469398174168694e-01 3.207036164164608905e-01 2.043505348023338941e-01 2.396311693572106827e-01 2.855735567553578380e-01 8.758596392560663579e-01 -3.794338104739422013e-01 -1.130699304099892943e+00 -1.179085480895526672e+00 3.188808907664629766e-01 3.108907182743961273e-01 7.017848849864645189e-01 3.312138444883571120e-01 1.255368225615614231e+00 4.599073235759165712e-01 3.080420121061901995e-01 2.985618562374521279e-01 2.974743630780788406e-01 2.689080408287763957e-01 2.608792052210220369e-01 6.530245787439188376e-01 2.833774260291931912e-01 6.351859698631957540e-01 2.141229289944208969e-01 1.884731341980772773e-02 2.609449671842394292e-01 2.148774128960709573e-01 3.317109563035538500e-01 3.549347237744713279e-01 7.080674782134234180e-01 5.549251763077213129e-01 4.824638573262040042e-01 3.935848193717202959e-01 3.198079969228169728e-01 2.530160064902622907e-01 1.487642647242356730e+00 1.814069707534244902e+00 2.597874298512704017e-01 3.375015185702828213e-01 3.036488306665124370e-01 1.807415102150738417e-01 2.397406692161327679e-01 1.936082594159755643e-01 3.443290398502460437e-01 3.198374273875994600e-01 7.863392452909724328e-01 8.615454758892969744e-01 2.558545673354102323e-01 1.827529443490055083e+00 1.779498960663986884e-01 -1.407216488803340326e-01 -2.703228197520291531e-01 -3.250679323002984011e-01 3.156891064770840361e-01 2.844231951626152721e-01 7.040197839596684659e-01 3.220640362989952710e-01 4.495224344768142255e-01 3.030795611897660335e-01 3.792781017965029533e-01 4.071161430807355708e-01 5.389994402523378553e-02 1.023001494033911829e+00 3.051599912725913022e-01 4.941430064119637922e-01 3.105935664612046732e-01 3.636953404451606642e-01 2.995731668035279682e-01 3.858927636983376930e-01 -1.222787990090083571e-01 2.236331249764617890e-01 2.996914359617848800e-01 4.386005105698981277e-02 4.229234160913761253e-01 1.121427910610183876e+00 9.398148633963875342e-01 -7.397026399728199308e-01 -3.261474121321303876e-01 6.379890252529832884e-01 -3.239070681385919581e+00 1.550268808315327984e+00 2.818511249467514634e-01 4.322824679396956166e-02 3.154319813953215812e-01 8.657256373827562079e-01 3.122992646371078873e-01 3.440603763855121788e-01 -4.352532507983516985e-01 8.294931784058910962e-01 2.640989868937184681e-01 8.888661839210709736e-01 2.051150882417134280e+00 -3.795702733884229185e-01 -1.422007701328296125e+00 2.918830306168189170e-01 2.437999055846921670e-01 7.812409079827623559e-01 3.030957422616780139e-01 6.984033865504386540e-01 4.689690025229520942e-01 1.385946669909241813e-01 3.047298069989018421e-01 3.480244142492626702e-01 2.196000555972709711e-01 3.636200191322705999e-01 1.369785783815762992e+00 1.576525697685295269e+00 3.181200343432764033e-01 2.535559593851488547e-01 2.118723158576929846e-02 -2.331883685802466633e-01 1.971674852725312510e-01 2.183083602628079628e-02 3.195356546994478353e-01 7.035733721388163220e-01 -4.064919945155873182e-01 3.016655051900651308e-01 3.442754160233959526e-01 1.597621552999329009e-01 3.113122782187275894e-01 2.804985968898385251e-01 3.186256617333748098e-01 3.111316279517761241e-01 -3.256251297413902818e-02 2.444517628152580724e-01 4.424352728952402058e-01 1.098637130556461505e+00 1.095238531321795827e+00 9.404861944783224903e-01 1.959989379058968417e-01 7.642373168236031855e-01 1.199588884707577380e-01 4.512754843974756680e-01 -2.042253847895266983e+00 2.871926746173082967e-01 6.490512352506060401e-01 2.763631265403561632e-01 9.587094252705194997e-01 1.350901410532884928e+00 2.043505466115909108e-01 2.999339005081228526e-01 3.717116003312843087e-01 2.134206400609175991e-01 5.574080630750460896e-01 7.908841761486067323e-01 -7.395529561342046865e-01 1.432786105666409016e-01 1.361189750894491735e-01 3.025203779375978397e-01 3.439734297916727801e-01 7.683838483842018174e-01 -1.454207466145005789e-01 3.855515066873616559e-01 3.175118198843122630e-01 2.607360952458200321e-01 8.853764304250795192e-01 4.207785451700125634e-01 -2.021243928618167429e-01 8.593138794073722497e-01 -4.321659233886861878e-02 5.725439695161623765e-01 2.846876009370344351e-01 1.270056679555022550e+00 5.363960665780114212e-01 7.178296468948396347e-01 4.348985094603493584e-01 4.766325180144777018e-01 -5.064641544491819136e-01 2.943817058542139709e-01 7.631424418944927623e-01 2.994876208153265384e-01 6.478527340763601261e-01 3.406512095901915727e-01 3.178237714109119483e-01 7.327546067475934066e-01 1.198339232446736513e-01 -2.009365095328472517e+00 3.046948820503360689e-01 2.786596243220641478e-01 7.241563644928549204e-01 3.886731947371721563e-01 3.907208782540265157e-01 2.512836652214629485e-01 2.401378426947733957e-01 3.609915104408235043e-01 2.185795478548363882e-02 -1.603782013492585756e+00 7.411628758149897411e-01 2.671021123566439948e-01 3.018345729122750010e-01 1.862013997354197425e-01 8.240532508468429995e-01 3.109148128500466846e-01 -1.260159526768237781e-01 3.119617814918925203e-01 1.112856333703608591e+00 3.134696137598069199e-01 4.143512583444068365e-01 1.066484014353998866e+00 3.104366191016220133e-01 2.693579527121956474e+00 2.749517604993274023e-01 3.177942995163370865e-01 6.892263909160712965e-01 3.203645951401000724e-01 2.844259113127703409e-01 -2.002372129250096222e+00 3.687694148930523719e-01 2.960425184590573799e-01 5.112929073262632018e-01 2.958332602254005739e-01 3.327208033313643343e-01 -2.547038915092188494e-01 2.010692735493037286e+00 -5.205178542523722918e-01 8.271752575099380334e-01 3.124909347111524127e-01 3.914745737975038886e-01 7.489147854294868623e-01 3.495785962230099631e-01 1.311360199307971097e+00 1.561829015055790082e-01 2.961109858255436822e-01 -8.762774323765110118e-01 -1.269071929679034261e-01 -2.455875221990710400e-01 -3.791822046433332538e+00 2.881751688801529099e+00 8.109487683033304861e-02 3.001029185148705869e-01 -1.574038682056134730e+00 3.108858695000147887e-01 1.900167666475947870e-01 3.420480920397815927e-01 1.330958183792599336e-01 6.370793852332776730e-01 5.906490770700979498e-01 9.741389206047043059e-01 -3.261474122259264141e-01 -2.107634330696119551e-01 2.084821634924892142e-01 -1.169714520150932469e+00 2.819273288889783124e-01 -6.264958321039181266e-01 3.464864118562612783e-01 4.828020234628536689e-01 3.934774857978098894e-02 4.140999452697630701e-01 2.742454545008613520e-01 -1.115008971699035512e-01 2.044068749106320027e-01 3.053285380765066170e-01 3.470351358952937781e-01 3.139398984551735050e-01 3.107342436437548483e-01 -7.394875837678942521e-01 5.803978210811046035e-01 1.523529064463432059e+00 5.348845835962912076e-02 2.425999899136459248e-01 4.138407704243915464e-01 1.215174730583764351e+00 2.901346440108709124e-01 1.654242895602638930e-01 8.976064649117618810e-01 3.310395977175873417e-01 1.822759814729089323e+00 3.961312330281864802e-01 1.169511564683121563e+00 3.111893780400416532e-01 7.368972396043306228e-01 1.339504605989980890e+00 2.928085457079639964e-01 4.006684258659129472e-01 9.018243384317037314e-01 -1.840927415656640198e-01 -4.722473944132229290e-02 1.480309289079577983e-01 2.948891149804874212e-01 3.431983494787249622e-01 1.411267934635919152e-01 2.535301819444229499e-01 -3.443615305372744184e-01 1.292456303126650496e+00 2.636440231907049569e-01 3.147898833023173859e-01 -3.074891490827099005e+00 4.754309410030498340e-01 3.846739234985615541e-01 4.687264342262217331e-01 4.373515864045465218e-01 5.062035022222421965e-01 -1.029454619052520004e+00 5.884494100105042147e-01 2.654359828284048595e-01 3.108797590616029227e-01 1.046293490641176271e+00 4.422794544377135484e-01 3.304306463607106226e-01 -1.377332536370003302e+00 4.605104121737151335e-01 8.855014396172612434e-01 2.970786327722855780e-01 3.147299888959514957e-01 3.032823445816333896e-01 6.944986495261697979e-01 -8.693580162257717736e-02 3.194801946393899805e-01 3.345344965283280625e-01 6.676152041028718398e-02 7.133309800255007715e-01 3.605878143537502578e-01 7.419518610391313551e-01 1.779188783441144894e-01 6.837786287050319212e-01 -2.034893844767816651e-01 -1.499125164771034413e+00 3.487425121128016059e-01 -1.411358652072155877e-02 3.022926403692582920e-01 3.060607902703161853e-01 5.657985000671685721e-02 5.549251736947582447e-01 3.044770701391743550e-01 8.826549018089856202e-02 4.584934246930050805e-01 3.118671115410007189e-01 3.001168437496272157e-01 2.702916362550805696e-01 -7.988725143577092291e-01 3.165115413200886296e-01 3.434272482364026935e-01 3.292324634755099400e-01 -7.506535769937550118e-02 3.205762561282872181e-01 7.894677280463424651e-01 -4.787440576492369981e-01 1.084031705732155793e+00 5.996516113158154582e-01 3.225767722051734454e-01 3.110887062933127001e-01 -2.012278286113240444e+00 2.949898006604975143e-01 1.787092323387958759e-01 2.257977822676338897e-01 5.549251850509180350e-01 3.158333369423064196e-01 2.615471637014389339e-01 1.278721491753342931e-01 3.107886941180550977e-01 4.353132360066873097e-01 4.247316607063048033e-01 3.954729700957789196e-01 3.048251337257400495e-01 3.104775623404931184e-01 3.297062720637212174e-01 2.839255621712828970e-01 7.702757586612740334e-03 3.109346460927502886e-01 5.803236168080210255e-01 2.296907515263440502e-01 3.016710104498104839e-01 -1.174795477070397914e-01 1.221067126975521472e-01 4.796732580447496952e-01 4.313264151834294680e+00 2.626928979507736073e-01 1.439371246051587006e-01 5.111999662394518529e-01 2.232535601897915334e-01 1.525686804229907878e+00 3.136095570438702795e-01 6.632789852001452768e-01 3.157005309250838221e-01
