# 
#                 ----------------------------------------------------
#                 Data from a 3D direct N-body simulation. 
# 
#                 rows are i-particle; 
#                 coumns are :mass, tag, x ,y, z, vx, vy, vz, ax, ay, az
# 
#                 NTHU, Computational Physics 
# 
#                 ----------------------------------------------------
#                 Time = 0.0
0.000000000000000000e+00 1.000000000000000000e+00 2.000000000000000000e+00 3.000000000000000000e+00 4.000000000000000000e+00 5.000000000000000000e+00 6.000000000000000000e+00 7.000000000000000000e+00 8.000000000000000000e+00 9.000000000000000000e+00 1.000000000000000000e+01 1.100000000000000000e+01 1.200000000000000000e+01 1.300000000000000000e+01 1.400000000000000000e+01 1.500000000000000000e+01 1.600000000000000000e+01 1.700000000000000000e+01 1.800000000000000000e+01 1.900000000000000000e+01 2.000000000000000000e+01 2.100000000000000000e+01 2.200000000000000000e+01 2.300000000000000000e+01 2.400000000000000000e+01 2.500000000000000000e+01 2.600000000000000000e+01 2.700000000000000000e+01 2.800000000000000000e+01 2.900000000000000000e+01 3.000000000000000000e+01 3.100000000000000000e+01 3.200000000000000000e+01 3.300000000000000000e+01 3.400000000000000000e+01 3.500000000000000000e+01 3.600000000000000000e+01 3.700000000000000000e+01 3.800000000000000000e+01 3.900000000000000000e+01 4.000000000000000000e+01 4.100000000000000000e+01 4.200000000000000000e+01 4.300000000000000000e+01 4.400000000000000000e+01 4.500000000000000000e+01 4.600000000000000000e+01 4.700000000000000000e+01 4.800000000000000000e+01 4.900000000000000000e+01 5.000000000000000000e+01 5.100000000000000000e+01 5.200000000000000000e+01 5.300000000000000000e+01 5.400000000000000000e+01 5.500000000000000000e+01 5.600000000000000000e+01 5.700000000000000000e+01 5.800000000000000000e+01 5.900000000000000000e+01 6.000000000000000000e+01 6.100000000000000000e+01 6.200000000000000000e+01 6.300000000000000000e+01 6.400000000000000000e+01 6.500000000000000000e+01 6.600000000000000000e+01 6.700000000000000000e+01 6.800000000000000000e+01 6.900000000000000000e+01 7.000000000000000000e+01 7.100000000000000000e+01 7.200000000000000000e+01 7.300000000000000000e+01 7.400000000000000000e+01 7.500000000000000000e+01 7.600000000000000000e+01 7.700000000000000000e+01 7.800000000000000000e+01 7.900000000000000000e+01 8.000000000000000000e+01 8.100000000000000000e+01 8.200000000000000000e+01 8.300000000000000000e+01 8.400000000000000000e+01 8.500000000000000000e+01 8.600000000000000000e+01 8.700000000000000000e+01 8.800000000000000000e+01 8.900000000000000000e+01 9.000000000000000000e+01 9.100000000000000000e+01 9.200000000000000000e+01 9.300000000000000000e+01 9.400000000000000000e+01 9.500000000000000000e+01 9.600000000000000000e+01 9.700000000000000000e+01 9.800000000000000000e+01 9.900000000000000000e+01 1.000000000000000000e+02 1.010000000000000000e+02 1.020000000000000000e+02 1.030000000000000000e+02 1.040000000000000000e+02 1.050000000000000000e+02 1.060000000000000000e+02 1.070000000000000000e+02 1.080000000000000000e+02 1.090000000000000000e+02 1.100000000000000000e+02 1.110000000000000000e+02 1.120000000000000000e+02 1.130000000000000000e+02 1.140000000000000000e+02 1.150000000000000000e+02 1.160000000000000000e+02 1.170000000000000000e+02 1.180000000000000000e+02 1.190000000000000000e+02 1.200000000000000000e+02 1.210000000000000000e+02 1.220000000000000000e+02 1.230000000000000000e+02 1.240000000000000000e+02 1.250000000000000000e+02 1.260000000000000000e+02 1.270000000000000000e+02 1.280000000000000000e+02 1.290000000000000000e+02 1.300000000000000000e+02 1.310000000000000000e+02 1.320000000000000000e+02 1.330000000000000000e+02 1.340000000000000000e+02 1.350000000000000000e+02 1.360000000000000000e+02 1.370000000000000000e+02 1.380000000000000000e+02 1.390000000000000000e+02 1.400000000000000000e+02 1.410000000000000000e+02 1.420000000000000000e+02 1.430000000000000000e+02 1.440000000000000000e+02 1.450000000000000000e+02 1.460000000000000000e+02 1.470000000000000000e+02 1.480000000000000000e+02 1.490000000000000000e+02 1.500000000000000000e+02 1.510000000000000000e+02 1.520000000000000000e+02 1.530000000000000000e+02 1.540000000000000000e+02 1.550000000000000000e+02 1.560000000000000000e+02 1.570000000000000000e+02 1.580000000000000000e+02 1.590000000000000000e+02 1.600000000000000000e+02 1.610000000000000000e+02 1.620000000000000000e+02 1.630000000000000000e+02 1.640000000000000000e+02 1.650000000000000000e+02 1.660000000000000000e+02 1.670000000000000000e+02 1.680000000000000000e+02 1.690000000000000000e+02 1.700000000000000000e+02 1.710000000000000000e+02 1.720000000000000000e+02 1.730000000000000000e+02 1.740000000000000000e+02 1.750000000000000000e+02 1.760000000000000000e+02 1.770000000000000000e+02 1.780000000000000000e+02 1.790000000000000000e+02 1.800000000000000000e+02 1.810000000000000000e+02 1.820000000000000000e+02 1.830000000000000000e+02 1.840000000000000000e+02 1.850000000000000000e+02 1.860000000000000000e+02 1.870000000000000000e+02 1.880000000000000000e+02 1.890000000000000000e+02 1.900000000000000000e+02 1.910000000000000000e+02 1.920000000000000000e+02 1.930000000000000000e+02 1.940000000000000000e+02 1.950000000000000000e+02 1.960000000000000000e+02 1.970000000000000000e+02 1.980000000000000000e+02 1.990000000000000000e+02 2.000000000000000000e+02 2.010000000000000000e+02 2.020000000000000000e+02 2.030000000000000000e+02 2.040000000000000000e+02 2.050000000000000000e+02 2.060000000000000000e+02 2.070000000000000000e+02 2.080000000000000000e+02 2.090000000000000000e+02 2.100000000000000000e+02 2.110000000000000000e+02 2.120000000000000000e+02 2.130000000000000000e+02 2.140000000000000000e+02 2.150000000000000000e+02 2.160000000000000000e+02 2.170000000000000000e+02 2.180000000000000000e+02 2.190000000000000000e+02 2.200000000000000000e+02 2.210000000000000000e+02 2.220000000000000000e+02 2.230000000000000000e+02 2.240000000000000000e+02 2.250000000000000000e+02 2.260000000000000000e+02 2.270000000000000000e+02 2.280000000000000000e+02 2.290000000000000000e+02 2.300000000000000000e+02 2.310000000000000000e+02 2.320000000000000000e+02 2.330000000000000000e+02 2.340000000000000000e+02 2.350000000000000000e+02 2.360000000000000000e+02 2.370000000000000000e+02 2.380000000000000000e+02 2.390000000000000000e+02 2.400000000000000000e+02 2.410000000000000000e+02 2.420000000000000000e+02 2.430000000000000000e+02 2.440000000000000000e+02 2.450000000000000000e+02 2.460000000000000000e+02 2.470000000000000000e+02 2.480000000000000000e+02 2.490000000000000000e+02 2.500000000000000000e+02 2.510000000000000000e+02 2.520000000000000000e+02 2.530000000000000000e+02 2.540000000000000000e+02 2.550000000000000000e+02 2.560000000000000000e+02 2.570000000000000000e+02 2.580000000000000000e+02 2.590000000000000000e+02 2.600000000000000000e+02 2.610000000000000000e+02 2.620000000000000000e+02 2.630000000000000000e+02 2.640000000000000000e+02 2.650000000000000000e+02 2.660000000000000000e+02 2.670000000000000000e+02 2.680000000000000000e+02 2.690000000000000000e+02 2.700000000000000000e+02 2.710000000000000000e+02 2.720000000000000000e+02 2.730000000000000000e+02 2.740000000000000000e+02 2.750000000000000000e+02 2.760000000000000000e+02 2.770000000000000000e+02 2.780000000000000000e+02 2.790000000000000000e+02 2.800000000000000000e+02 2.810000000000000000e+02 2.820000000000000000e+02 2.830000000000000000e+02 2.840000000000000000e+02 2.850000000000000000e+02 2.860000000000000000e+02 2.870000000000000000e+02 2.880000000000000000e+02 2.890000000000000000e+02 2.900000000000000000e+02 2.910000000000000000e+02 2.920000000000000000e+02 2.930000000000000000e+02 2.940000000000000000e+02 2.950000000000000000e+02 2.960000000000000000e+02 2.970000000000000000e+02 2.980000000000000000e+02 2.990000000000000000e+02 3.000000000000000000e+02 3.010000000000000000e+02 3.020000000000000000e+02 3.030000000000000000e+02 3.040000000000000000e+02 3.050000000000000000e+02 3.060000000000000000e+02 3.070000000000000000e+02 3.080000000000000000e+02 3.090000000000000000e+02 3.100000000000000000e+02 3.110000000000000000e+02 3.120000000000000000e+02 3.130000000000000000e+02 3.140000000000000000e+02 3.150000000000000000e+02 3.160000000000000000e+02 3.170000000000000000e+02 3.180000000000000000e+02 3.190000000000000000e+02 3.200000000000000000e+02 3.210000000000000000e+02 3.220000000000000000e+02 3.230000000000000000e+02 3.240000000000000000e+02 3.250000000000000000e+02 3.260000000000000000e+02 3.270000000000000000e+02 3.280000000000000000e+02 3.290000000000000000e+02 3.300000000000000000e+02 3.310000000000000000e+02 3.320000000000000000e+02 3.330000000000000000e+02 3.340000000000000000e+02 3.350000000000000000e+02 3.360000000000000000e+02 3.370000000000000000e+02 3.380000000000000000e+02 3.390000000000000000e+02 3.400000000000000000e+02 3.410000000000000000e+02 3.420000000000000000e+02 3.430000000000000000e+02 3.440000000000000000e+02 3.450000000000000000e+02 3.460000000000000000e+02 3.470000000000000000e+02 3.480000000000000000e+02 3.490000000000000000e+02 3.500000000000000000e+02 3.510000000000000000e+02 3.520000000000000000e+02 3.530000000000000000e+02 3.540000000000000000e+02 3.550000000000000000e+02 3.560000000000000000e+02 3.570000000000000000e+02 3.580000000000000000e+02 3.590000000000000000e+02 3.600000000000000000e+02 3.610000000000000000e+02 3.620000000000000000e+02 3.630000000000000000e+02 3.640000000000000000e+02 3.650000000000000000e+02 3.660000000000000000e+02 3.670000000000000000e+02 3.680000000000000000e+02 3.690000000000000000e+02 3.700000000000000000e+02 3.710000000000000000e+02 3.720000000000000000e+02 3.730000000000000000e+02 3.740000000000000000e+02 3.750000000000000000e+02 3.760000000000000000e+02 3.770000000000000000e+02 3.780000000000000000e+02 3.790000000000000000e+02 3.800000000000000000e+02 3.810000000000000000e+02 3.820000000000000000e+02 3.830000000000000000e+02 3.840000000000000000e+02 3.850000000000000000e+02 3.860000000000000000e+02 3.870000000000000000e+02 3.880000000000000000e+02 3.890000000000000000e+02 3.900000000000000000e+02 3.910000000000000000e+02 3.920000000000000000e+02 3.930000000000000000e+02 3.940000000000000000e+02 3.950000000000000000e+02 3.960000000000000000e+02 3.970000000000000000e+02 3.980000000000000000e+02 3.990000000000000000e+02 4.000000000000000000e+02 4.010000000000000000e+02 4.020000000000000000e+02 4.030000000000000000e+02 4.040000000000000000e+02 4.050000000000000000e+02 4.060000000000000000e+02 4.070000000000000000e+02 4.080000000000000000e+02 4.090000000000000000e+02 4.100000000000000000e+02 4.110000000000000000e+02 4.120000000000000000e+02 4.130000000000000000e+02 4.140000000000000000e+02 4.150000000000000000e+02 4.160000000000000000e+02 4.170000000000000000e+02 4.180000000000000000e+02 4.190000000000000000e+02 4.200000000000000000e+02 4.210000000000000000e+02 4.220000000000000000e+02 4.230000000000000000e+02 4.240000000000000000e+02 4.250000000000000000e+02 4.260000000000000000e+02 4.270000000000000000e+02 4.280000000000000000e+02 4.290000000000000000e+02 4.300000000000000000e+02 4.310000000000000000e+02 4.320000000000000000e+02 4.330000000000000000e+02 4.340000000000000000e+02 4.350000000000000000e+02 4.360000000000000000e+02 4.370000000000000000e+02 4.380000000000000000e+02 4.390000000000000000e+02 4.400000000000000000e+02 4.410000000000000000e+02 4.420000000000000000e+02 4.430000000000000000e+02 4.440000000000000000e+02 4.450000000000000000e+02 4.460000000000000000e+02 4.470000000000000000e+02 4.480000000000000000e+02 4.490000000000000000e+02 4.500000000000000000e+02 4.510000000000000000e+02 4.520000000000000000e+02 4.530000000000000000e+02 4.540000000000000000e+02 4.550000000000000000e+02 4.560000000000000000e+02 4.570000000000000000e+02 4.580000000000000000e+02 4.590000000000000000e+02 4.600000000000000000e+02 4.610000000000000000e+02 4.620000000000000000e+02 4.630000000000000000e+02 4.640000000000000000e+02 4.650000000000000000e+02 4.660000000000000000e+02 4.670000000000000000e+02 4.680000000000000000e+02 4.690000000000000000e+02 4.700000000000000000e+02 4.710000000000000000e+02 4.720000000000000000e+02 4.730000000000000000e+02 4.740000000000000000e+02 4.750000000000000000e+02 4.760000000000000000e+02 4.770000000000000000e+02 4.780000000000000000e+02 4.790000000000000000e+02 4.800000000000000000e+02 4.810000000000000000e+02 4.820000000000000000e+02 4.830000000000000000e+02 4.840000000000000000e+02 4.850000000000000000e+02 4.860000000000000000e+02 4.870000000000000000e+02 4.880000000000000000e+02 4.890000000000000000e+02 4.900000000000000000e+02 4.910000000000000000e+02 4.920000000000000000e+02 4.930000000000000000e+02 4.940000000000000000e+02 4.950000000000000000e+02 4.960000000000000000e+02 4.970000000000000000e+02 4.980000000000000000e+02 4.990000000000000000e+02 5.000000000000000000e+02 5.010000000000000000e+02 5.020000000000000000e+02 5.030000000000000000e+02 5.040000000000000000e+02 5.050000000000000000e+02 5.060000000000000000e+02 5.070000000000000000e+02 5.080000000000000000e+02 5.090000000000000000e+02 5.100000000000000000e+02 5.110000000000000000e+02 5.120000000000000000e+02 5.130000000000000000e+02 5.140000000000000000e+02 5.150000000000000000e+02 5.160000000000000000e+02 5.170000000000000000e+02 5.180000000000000000e+02 5.190000000000000000e+02 5.200000000000000000e+02 5.210000000000000000e+02 5.220000000000000000e+02 5.230000000000000000e+02 5.240000000000000000e+02 5.250000000000000000e+02 5.260000000000000000e+02 5.270000000000000000e+02 5.280000000000000000e+02 5.290000000000000000e+02 5.300000000000000000e+02 5.310000000000000000e+02 5.320000000000000000e+02 5.330000000000000000e+02 5.340000000000000000e+02 5.350000000000000000e+02 5.360000000000000000e+02 5.370000000000000000e+02 5.380000000000000000e+02 5.390000000000000000e+02 5.400000000000000000e+02 5.410000000000000000e+02 5.420000000000000000e+02 5.430000000000000000e+02 5.440000000000000000e+02 5.450000000000000000e+02 5.460000000000000000e+02 5.470000000000000000e+02 5.480000000000000000e+02 5.490000000000000000e+02 5.500000000000000000e+02 5.510000000000000000e+02 5.520000000000000000e+02 5.530000000000000000e+02 5.540000000000000000e+02 5.550000000000000000e+02 5.560000000000000000e+02 5.570000000000000000e+02 5.580000000000000000e+02 5.590000000000000000e+02 5.600000000000000000e+02 5.610000000000000000e+02 5.620000000000000000e+02 5.630000000000000000e+02 5.640000000000000000e+02 5.650000000000000000e+02 5.660000000000000000e+02 5.670000000000000000e+02 5.680000000000000000e+02 5.690000000000000000e+02 5.700000000000000000e+02 5.710000000000000000e+02 5.720000000000000000e+02 5.730000000000000000e+02 5.740000000000000000e+02 5.750000000000000000e+02 5.760000000000000000e+02 5.770000000000000000e+02 5.780000000000000000e+02 5.790000000000000000e+02 5.800000000000000000e+02 5.810000000000000000e+02 5.820000000000000000e+02 5.830000000000000000e+02 5.840000000000000000e+02 5.850000000000000000e+02 5.860000000000000000e+02 5.870000000000000000e+02 5.880000000000000000e+02 5.890000000000000000e+02 5.900000000000000000e+02 5.910000000000000000e+02 5.920000000000000000e+02 5.930000000000000000e+02 5.940000000000000000e+02 5.950000000000000000e+02 5.960000000000000000e+02 5.970000000000000000e+02 5.980000000000000000e+02 5.990000000000000000e+02 6.000000000000000000e+02 6.010000000000000000e+02 6.020000000000000000e+02 6.030000000000000000e+02 6.040000000000000000e+02 6.050000000000000000e+02 6.060000000000000000e+02 6.070000000000000000e+02 6.080000000000000000e+02 6.090000000000000000e+02 6.100000000000000000e+02 6.110000000000000000e+02 6.120000000000000000e+02 6.130000000000000000e+02 6.140000000000000000e+02 6.150000000000000000e+02 6.160000000000000000e+02 6.170000000000000000e+02 6.180000000000000000e+02 6.190000000000000000e+02 6.200000000000000000e+02 6.210000000000000000e+02 6.220000000000000000e+02 6.230000000000000000e+02 6.240000000000000000e+02 6.250000000000000000e+02 6.260000000000000000e+02 6.270000000000000000e+02 6.280000000000000000e+02 6.290000000000000000e+02 6.300000000000000000e+02 6.310000000000000000e+02 6.320000000000000000e+02 6.330000000000000000e+02 6.340000000000000000e+02 6.350000000000000000e+02 6.360000000000000000e+02 6.370000000000000000e+02 6.380000000000000000e+02 6.390000000000000000e+02 6.400000000000000000e+02 6.410000000000000000e+02 6.420000000000000000e+02 6.430000000000000000e+02 6.440000000000000000e+02 6.450000000000000000e+02 6.460000000000000000e+02 6.470000000000000000e+02 6.480000000000000000e+02 6.490000000000000000e+02 6.500000000000000000e+02 6.510000000000000000e+02 6.520000000000000000e+02 6.530000000000000000e+02 6.540000000000000000e+02 6.550000000000000000e+02 6.560000000000000000e+02 6.570000000000000000e+02 6.580000000000000000e+02 6.590000000000000000e+02 6.600000000000000000e+02 6.610000000000000000e+02 6.620000000000000000e+02 6.630000000000000000e+02 6.640000000000000000e+02 6.650000000000000000e+02 6.660000000000000000e+02 6.670000000000000000e+02 6.680000000000000000e+02 6.690000000000000000e+02 6.700000000000000000e+02 6.710000000000000000e+02 6.720000000000000000e+02 6.730000000000000000e+02 6.740000000000000000e+02 6.750000000000000000e+02 6.760000000000000000e+02 6.770000000000000000e+02 6.780000000000000000e+02 6.790000000000000000e+02 6.800000000000000000e+02 6.810000000000000000e+02 6.820000000000000000e+02 6.830000000000000000e+02 6.840000000000000000e+02 6.850000000000000000e+02 6.860000000000000000e+02 6.870000000000000000e+02 6.880000000000000000e+02 6.890000000000000000e+02 6.900000000000000000e+02 6.910000000000000000e+02 6.920000000000000000e+02 6.930000000000000000e+02 6.940000000000000000e+02 6.950000000000000000e+02 6.960000000000000000e+02 6.970000000000000000e+02 6.980000000000000000e+02 6.990000000000000000e+02 7.000000000000000000e+02 7.010000000000000000e+02 7.020000000000000000e+02 7.030000000000000000e+02 7.040000000000000000e+02 7.050000000000000000e+02 7.060000000000000000e+02 7.070000000000000000e+02 7.080000000000000000e+02 7.090000000000000000e+02 7.100000000000000000e+02 7.110000000000000000e+02 7.120000000000000000e+02 7.130000000000000000e+02 7.140000000000000000e+02 7.150000000000000000e+02 7.160000000000000000e+02 7.170000000000000000e+02 7.180000000000000000e+02 7.190000000000000000e+02 7.200000000000000000e+02 7.210000000000000000e+02 7.220000000000000000e+02 7.230000000000000000e+02 7.240000000000000000e+02 7.250000000000000000e+02 7.260000000000000000e+02 7.270000000000000000e+02 7.280000000000000000e+02 7.290000000000000000e+02 7.300000000000000000e+02 7.310000000000000000e+02 7.320000000000000000e+02 7.330000000000000000e+02 7.340000000000000000e+02 7.350000000000000000e+02 7.360000000000000000e+02 7.370000000000000000e+02 7.380000000000000000e+02 7.390000000000000000e+02 7.400000000000000000e+02 7.410000000000000000e+02 7.420000000000000000e+02 7.430000000000000000e+02 7.440000000000000000e+02 7.450000000000000000e+02 7.460000000000000000e+02 7.470000000000000000e+02 7.480000000000000000e+02 7.490000000000000000e+02 7.500000000000000000e+02 7.510000000000000000e+02 7.520000000000000000e+02 7.530000000000000000e+02 7.540000000000000000e+02 7.550000000000000000e+02 7.560000000000000000e+02 7.570000000000000000e+02 7.580000000000000000e+02 7.590000000000000000e+02 7.600000000000000000e+02 7.610000000000000000e+02 7.620000000000000000e+02 7.630000000000000000e+02 7.640000000000000000e+02 7.650000000000000000e+02 7.660000000000000000e+02 7.670000000000000000e+02 7.680000000000000000e+02 7.690000000000000000e+02 7.700000000000000000e+02 7.710000000000000000e+02 7.720000000000000000e+02 7.730000000000000000e+02 7.740000000000000000e+02 7.750000000000000000e+02 7.760000000000000000e+02 7.770000000000000000e+02 7.780000000000000000e+02 7.790000000000000000e+02 7.800000000000000000e+02 7.810000000000000000e+02 7.820000000000000000e+02 7.830000000000000000e+02 7.840000000000000000e+02 7.850000000000000000e+02 7.860000000000000000e+02 7.870000000000000000e+02 7.880000000000000000e+02 7.890000000000000000e+02 7.900000000000000000e+02 7.910000000000000000e+02 7.920000000000000000e+02 7.930000000000000000e+02 7.940000000000000000e+02 7.950000000000000000e+02 7.960000000000000000e+02 7.970000000000000000e+02 7.980000000000000000e+02 7.990000000000000000e+02 8.000000000000000000e+02 8.010000000000000000e+02 8.020000000000000000e+02 8.030000000000000000e+02 8.040000000000000000e+02 8.050000000000000000e+02 8.060000000000000000e+02 8.070000000000000000e+02 8.080000000000000000e+02 8.090000000000000000e+02 8.100000000000000000e+02 8.110000000000000000e+02 8.120000000000000000e+02 8.130000000000000000e+02 8.140000000000000000e+02 8.150000000000000000e+02 8.160000000000000000e+02 8.170000000000000000e+02 8.180000000000000000e+02 8.190000000000000000e+02 8.200000000000000000e+02 8.210000000000000000e+02 8.220000000000000000e+02 8.230000000000000000e+02 8.240000000000000000e+02 8.250000000000000000e+02 8.260000000000000000e+02 8.270000000000000000e+02 8.280000000000000000e+02 8.290000000000000000e+02 8.300000000000000000e+02 8.310000000000000000e+02 8.320000000000000000e+02 8.330000000000000000e+02 8.340000000000000000e+02 8.350000000000000000e+02 8.360000000000000000e+02 8.370000000000000000e+02 8.380000000000000000e+02 8.390000000000000000e+02 8.400000000000000000e+02 8.410000000000000000e+02 8.420000000000000000e+02 8.430000000000000000e+02 8.440000000000000000e+02 8.450000000000000000e+02 8.460000000000000000e+02 8.470000000000000000e+02 8.480000000000000000e+02 8.490000000000000000e+02 8.500000000000000000e+02 8.510000000000000000e+02 8.520000000000000000e+02 8.530000000000000000e+02 8.540000000000000000e+02 8.550000000000000000e+02 8.560000000000000000e+02 8.570000000000000000e+02 8.580000000000000000e+02 8.590000000000000000e+02 8.600000000000000000e+02 8.610000000000000000e+02 8.620000000000000000e+02 8.630000000000000000e+02 8.640000000000000000e+02 8.650000000000000000e+02 8.660000000000000000e+02 8.670000000000000000e+02 8.680000000000000000e+02 8.690000000000000000e+02 8.700000000000000000e+02 8.710000000000000000e+02 8.720000000000000000e+02 8.730000000000000000e+02 8.740000000000000000e+02 8.750000000000000000e+02 8.760000000000000000e+02 8.770000000000000000e+02 8.780000000000000000e+02 8.790000000000000000e+02 8.800000000000000000e+02 8.810000000000000000e+02 8.820000000000000000e+02 8.830000000000000000e+02 8.840000000000000000e+02 8.850000000000000000e+02 8.860000000000000000e+02 8.870000000000000000e+02 8.880000000000000000e+02 8.890000000000000000e+02 8.900000000000000000e+02 8.910000000000000000e+02 8.920000000000000000e+02 8.930000000000000000e+02 8.940000000000000000e+02 8.950000000000000000e+02 8.960000000000000000e+02 8.970000000000000000e+02 8.980000000000000000e+02 8.990000000000000000e+02 9.000000000000000000e+02 9.010000000000000000e+02 9.020000000000000000e+02 9.030000000000000000e+02 9.040000000000000000e+02 9.050000000000000000e+02 9.060000000000000000e+02 9.070000000000000000e+02 9.080000000000000000e+02 9.090000000000000000e+02 9.100000000000000000e+02 9.110000000000000000e+02 9.120000000000000000e+02 9.130000000000000000e+02 9.140000000000000000e+02 9.150000000000000000e+02 9.160000000000000000e+02 9.170000000000000000e+02 9.180000000000000000e+02 9.190000000000000000e+02 9.200000000000000000e+02 9.210000000000000000e+02 9.220000000000000000e+02 9.230000000000000000e+02 9.240000000000000000e+02 9.250000000000000000e+02 9.260000000000000000e+02 9.270000000000000000e+02 9.280000000000000000e+02 9.290000000000000000e+02 9.300000000000000000e+02 9.310000000000000000e+02 9.320000000000000000e+02 9.330000000000000000e+02 9.340000000000000000e+02 9.350000000000000000e+02 9.360000000000000000e+02 9.370000000000000000e+02 9.380000000000000000e+02 9.390000000000000000e+02 9.400000000000000000e+02 9.410000000000000000e+02 9.420000000000000000e+02 9.430000000000000000e+02 9.440000000000000000e+02 9.450000000000000000e+02 9.460000000000000000e+02 9.470000000000000000e+02 9.480000000000000000e+02 9.490000000000000000e+02 9.500000000000000000e+02 9.510000000000000000e+02 9.520000000000000000e+02 9.530000000000000000e+02 9.540000000000000000e+02 9.550000000000000000e+02 9.560000000000000000e+02 9.570000000000000000e+02 9.580000000000000000e+02 9.590000000000000000e+02 9.600000000000000000e+02 9.610000000000000000e+02 9.620000000000000000e+02 9.630000000000000000e+02 9.640000000000000000e+02 9.650000000000000000e+02 9.660000000000000000e+02 9.670000000000000000e+02 9.680000000000000000e+02 9.690000000000000000e+02 9.700000000000000000e+02 9.710000000000000000e+02 9.720000000000000000e+02 9.730000000000000000e+02 9.740000000000000000e+02 9.750000000000000000e+02 9.760000000000000000e+02 9.770000000000000000e+02 9.780000000000000000e+02 9.790000000000000000e+02 9.800000000000000000e+02 9.810000000000000000e+02 9.820000000000000000e+02 9.830000000000000000e+02 9.840000000000000000e+02 9.850000000000000000e+02 9.860000000000000000e+02 9.870000000000000000e+02 9.880000000000000000e+02 9.890000000000000000e+02 9.900000000000000000e+02 9.910000000000000000e+02 9.920000000000000000e+02 9.930000000000000000e+02 9.940000000000000000e+02 9.950000000000000000e+02 9.960000000000000000e+02 9.970000000000000000e+02 9.980000000000000000e+02 9.990000000000000000e+02
1.000000000000000000e+00 1.000000000000000000e+00 1.000000000000000000e+00 1.000000000000000000e+00 1.000000000000000000e+00 1.000000000000000000e+00 1.000000000000000000e+00 1.000000000000000000e+00 1.000000000000000000e+00 1.000000000000000000e+00 1.000000000000000000e+00 1.000000000000000000e+00 1.000000000000000000e+00 1.000000000000000000e+00 1.000000000000000000e+00 1.000000000000000000e+00 1.000000000000000000e+00 1.000000000000000000e+00 1.000000000000000000e+00 1.000000000000000000e+00 1.000000000000000000e+00 1.000000000000000000e+00 1.000000000000000000e+00 1.000000000000000000e+00 1.000000000000000000e+00 1.000000000000000000e+00 1.000000000000000000e+00 1.000000000000000000e+00 1.000000000000000000e+00 1.000000000000000000e+00 1.000000000000000000e+00 1.000000000000000000e+00 1.000000000000000000e+00 1.000000000000000000e+00 1.000000000000000000e+00 1.000000000000000000e+00 1.000000000000000000e+00 1.000000000000000000e+00 1.000000000000000000e+00 1.000000000000000000e+00 1.000000000000000000e+00 1.000000000000000000e+00 1.000000000000000000e+00 1.000000000000000000e+00 1.000000000000000000e+00 1.000000000000000000e+00 1.000000000000000000e+00 1.000000000000000000e+00 1.000000000000000000e+00 1.000000000000000000e+00 1.000000000000000000e+00 1.000000000000000000e+00 1.000000000000000000e+00 1.000000000000000000e+00 1.000000000000000000e+00 1.000000000000000000e+00 1.000000000000000000e+00 1.000000000000000000e+00 1.000000000000000000e+00 1.000000000000000000e+00 1.000000000000000000e+00 1.000000000000000000e+00 1.000000000000000000e+00 1.000000000000000000e+00 1.000000000000000000e+00 1.000000000000000000e+00 1.000000000000000000e+00 1.000000000000000000e+00 1.000000000000000000e+00 1.000000000000000000e+00 1.000000000000000000e+00 1.000000000000000000e+00 1.000000000000000000e+00 1.000000000000000000e+00 1.000000000000000000e+00 1.000000000000000000e+00 1.000000000000000000e+00 1.000000000000000000e+00 1.000000000000000000e+00 1.000000000000000000e+00 1.000000000000000000e+00 1.000000000000000000e+00 1.000000000000000000e+00 1.000000000000000000e+00 1.000000000000000000e+00 1.000000000000000000e+00 1.000000000000000000e+00 1.000000000000000000e+00 1.000000000000000000e+00 1.000000000000000000e+00 1.000000000000000000e+00 1.000000000000000000e+00 1.000000000000000000e+00 1.000000000000000000e+00 1.000000000000000000e+00 1.000000000000000000e+00 1.000000000000000000e+00 1.000000000000000000e+00 1.000000000000000000e+00 1.000000000000000000e+00 1.000000000000000000e+00 1.000000000000000000e+00 1.000000000000000000e+00 1.000000000000000000e+00 1.000000000000000000e+00 1.000000000000000000e+00 1.000000000000000000e+00 1.000000000000000000e+00 1.000000000000000000e+00 1.000000000000000000e+00 1.000000000000000000e+00 1.000000000000000000e+00 1.000000000000000000e+00 1.000000000000000000e+00 1.000000000000000000e+00 1.000000000000000000e+00 1.000000000000000000e+00 1.000000000000000000e+00 1.000000000000000000e+00 1.000000000000000000e+00 1.000000000000000000e+00 1.000000000000000000e+00 1.000000000000000000e+00 1.000000000000000000e+00 1.000000000000000000e+00 1.000000000000000000e+00 1.000000000000000000e+00 1.000000000000000000e+00 1.000000000000000000e+00 1.000000000000000000e+00 1.000000000000000000e+00 1.000000000000000000e+00 1.000000000000000000e+00 1.000000000000000000e+00 1.000000000000000000e+00 1.000000000000000000e+00 1.000000000000000000e+00 1.000000000000000000e+00 1.000000000000000000e+00 1.000000000000000000e+00 1.000000000000000000e+00 1.000000000000000000e+00 1.000000000000000000e+00 1.000000000000000000e+00 1.000000000000000000e+00 1.000000000000000000e+00 1.000000000000000000e+00 1.000000000000000000e+00 1.000000000000000000e+00 1.000000000000000000e+00 1.000000000000000000e+00 1.000000000000000000e+00 1.000000000000000000e+00 1.000000000000000000e+00 1.000000000000000000e+00 1.000000000000000000e+00 1.000000000000000000e+00 1.000000000000000000e+00 1.000000000000000000e+00 1.000000000000000000e+00 1.000000000000000000e+00 1.000000000000000000e+00 1.000000000000000000e+00 1.000000000000000000e+00 1.000000000000000000e+00 1.000000000000000000e+00 1.000000000000000000e+00 1.000000000000000000e+00 1.000000000000000000e+00 1.000000000000000000e+00 1.000000000000000000e+00 1.000000000000000000e+00 1.000000000000000000e+00 1.000000000000000000e+00 1.000000000000000000e+00 1.000000000000000000e+00 1.000000000000000000e+00 1.000000000000000000e+00 1.000000000000000000e+00 1.000000000000000000e+00 1.000000000000000000e+00 1.000000000000000000e+00 1.000000000000000000e+00 1.000000000000000000e+00 1.000000000000000000e+00 1.000000000000000000e+00 1.000000000000000000e+00 1.000000000000000000e+00 1.000000000000000000e+00 1.000000000000000000e+00 1.000000000000000000e+00 1.000000000000000000e+00 1.000000000000000000e+00 1.000000000000000000e+00 1.000000000000000000e+00 1.000000000000000000e+00 1.000000000000000000e+00 1.000000000000000000e+00 1.000000000000000000e+00 1.000000000000000000e+00 1.000000000000000000e+00 1.000000000000000000e+00 1.000000000000000000e+00 1.000000000000000000e+00 1.000000000000000000e+00 1.000000000000000000e+00 1.000000000000000000e+00 1.000000000000000000e+00 1.000000000000000000e+00 1.000000000000000000e+00 1.000000000000000000e+00 1.000000000000000000e+00 1.000000000000000000e+00 1.000000000000000000e+00 1.000000000000000000e+00 1.000000000000000000e+00 1.000000000000000000e+00 1.000000000000000000e+00 1.000000000000000000e+00 1.000000000000000000e+00 1.000000000000000000e+00 1.000000000000000000e+00 1.000000000000000000e+00 1.000000000000000000e+00 1.000000000000000000e+00 1.000000000000000000e+00 1.000000000000000000e+00 1.000000000000000000e+00 1.000000000000000000e+00 1.000000000000000000e+00 1.000000000000000000e+00 1.000000000000000000e+00 1.000000000000000000e+00 1.000000000000000000e+00 1.000000000000000000e+00 1.000000000000000000e+00 1.000000000000000000e+00 1.000000000000000000e+00 1.000000000000000000e+00 1.000000000000000000e+00 1.000000000000000000e+00 1.000000000000000000e+00 1.000000000000000000e+00 1.000000000000000000e+00 1.000000000000000000e+00 1.000000000000000000e+00 1.000000000000000000e+00 1.000000000000000000e+00 1.000000000000000000e+00 1.000000000000000000e+00 1.000000000000000000e+00 1.000000000000000000e+00 1.000000000000000000e+00 1.000000000000000000e+00 1.000000000000000000e+00 1.000000000000000000e+00 1.000000000000000000e+00 1.000000000000000000e+00 1.000000000000000000e+00 1.000000000000000000e+00 1.000000000000000000e+00 1.000000000000000000e+00 1.000000000000000000e+00 1.000000000000000000e+00 1.000000000000000000e+00 1.000000000000000000e+00 1.000000000000000000e+00 1.000000000000000000e+00 1.000000000000000000e+00 1.000000000000000000e+00 1.000000000000000000e+00 1.000000000000000000e+00 1.000000000000000000e+00 1.000000000000000000e+00 1.000000000000000000e+00 1.000000000000000000e+00 1.000000000000000000e+00 1.000000000000000000e+00 1.000000000000000000e+00 1.000000000000000000e+00 1.000000000000000000e+00 1.000000000000000000e+00 1.000000000000000000e+00 1.000000000000000000e+00 1.000000000000000000e+00 1.000000000000000000e+00 1.000000000000000000e+00 1.000000000000000000e+00 1.000000000000000000e+00 1.000000000000000000e+00 1.000000000000000000e+00 1.000000000000000000e+00 1.000000000000000000e+00 1.000000000000000000e+00 1.000000000000000000e+00 1.000000000000000000e+00 1.000000000000000000e+00 1.000000000000000000e+00 1.000000000000000000e+00 1.000000000000000000e+00 1.000000000000000000e+00 1.000000000000000000e+00 1.000000000000000000e+00 1.000000000000000000e+00 1.000000000000000000e+00 1.000000000000000000e+00 1.000000000000000000e+00 1.000000000000000000e+00 1.000000000000000000e+00 1.000000000000000000e+00 1.000000000000000000e+00 1.000000000000000000e+00 1.000000000000000000e+00 1.000000000000000000e+00 1.000000000000000000e+00 1.000000000000000000e+00 1.000000000000000000e+00 1.000000000000000000e+00 1.000000000000000000e+00 1.000000000000000000e+00 1.000000000000000000e+00 1.000000000000000000e+00 1.000000000000000000e+00 1.000000000000000000e+00 1.000000000000000000e+00 1.000000000000000000e+00 1.000000000000000000e+00 1.000000000000000000e+00 1.000000000000000000e+00 1.000000000000000000e+00 1.000000000000000000e+00 1.000000000000000000e+00 1.000000000000000000e+00 1.000000000000000000e+00 1.000000000000000000e+00 1.000000000000000000e+00 1.000000000000000000e+00 1.000000000000000000e+00 1.000000000000000000e+00 1.000000000000000000e+00 1.000000000000000000e+00 1.000000000000000000e+00 1.000000000000000000e+00 1.000000000000000000e+00 1.000000000000000000e+00 1.000000000000000000e+00 1.000000000000000000e+00 1.000000000000000000e+00 1.000000000000000000e+00 1.000000000000000000e+00 1.000000000000000000e+00 1.000000000000000000e+00 1.000000000000000000e+00 1.000000000000000000e+00 1.000000000000000000e+00 1.000000000000000000e+00 1.000000000000000000e+00 1.000000000000000000e+00 1.000000000000000000e+00 1.000000000000000000e+00 1.000000000000000000e+00 1.000000000000000000e+00 1.000000000000000000e+00 1.000000000000000000e+00 1.000000000000000000e+00 1.000000000000000000e+00 1.000000000000000000e+00 1.000000000000000000e+00 1.000000000000000000e+00 1.000000000000000000e+00 1.000000000000000000e+00 1.000000000000000000e+00 1.000000000000000000e+00 1.000000000000000000e+00 1.000000000000000000e+00 1.000000000000000000e+00 1.000000000000000000e+00 1.000000000000000000e+00 1.000000000000000000e+00 1.000000000000000000e+00 1.000000000000000000e+00 1.000000000000000000e+00 1.000000000000000000e+00 1.000000000000000000e+00 1.000000000000000000e+00 1.000000000000000000e+00 1.000000000000000000e+00 1.000000000000000000e+00 1.000000000000000000e+00 1.000000000000000000e+00 1.000000000000000000e+00 1.000000000000000000e+00 1.000000000000000000e+00 1.000000000000000000e+00 1.000000000000000000e+00 1.000000000000000000e+00 1.000000000000000000e+00 1.000000000000000000e+00 1.000000000000000000e+00 1.000000000000000000e+00 1.000000000000000000e+00 1.000000000000000000e+00 1.000000000000000000e+00 1.000000000000000000e+00 1.000000000000000000e+00 1.000000000000000000e+00 1.000000000000000000e+00 1.000000000000000000e+00 1.000000000000000000e+00 1.000000000000000000e+00 1.000000000000000000e+00 1.000000000000000000e+00 1.000000000000000000e+00 1.000000000000000000e+00 1.000000000000000000e+00 1.000000000000000000e+00 1.000000000000000000e+00 1.000000000000000000e+00 1.000000000000000000e+00 1.000000000000000000e+00 1.000000000000000000e+00 1.000000000000000000e+00 1.000000000000000000e+00 1.000000000000000000e+00 1.000000000000000000e+00 1.000000000000000000e+00 1.000000000000000000e+00 1.000000000000000000e+00 1.000000000000000000e+00 1.000000000000000000e+00 1.000000000000000000e+00 1.000000000000000000e+00 1.000000000000000000e+00 1.000000000000000000e+00 1.000000000000000000e+00 1.000000000000000000e+00 1.000000000000000000e+00 1.000000000000000000e+00 1.000000000000000000e+00 1.000000000000000000e+00 1.000000000000000000e+00 1.000000000000000000e+00 1.000000000000000000e+00 1.000000000000000000e+00 1.000000000000000000e+00 1.000000000000000000e+00 1.000000000000000000e+00 1.000000000000000000e+00 1.000000000000000000e+00 1.000000000000000000e+00 1.000000000000000000e+00 1.000000000000000000e+00 1.000000000000000000e+00 1.000000000000000000e+00 1.000000000000000000e+00 1.000000000000000000e+00 1.000000000000000000e+00 1.000000000000000000e+00 1.000000000000000000e+00 1.000000000000000000e+00 1.000000000000000000e+00 1.000000000000000000e+00 1.000000000000000000e+00 1.000000000000000000e+00 1.000000000000000000e+00 1.000000000000000000e+00 1.000000000000000000e+00 1.000000000000000000e+00 1.000000000000000000e+00 1.000000000000000000e+00 1.000000000000000000e+00 1.000000000000000000e+00 1.000000000000000000e+00 1.000000000000000000e+00 1.000000000000000000e+00 1.000000000000000000e+00 1.000000000000000000e+00 1.000000000000000000e+00 1.000000000000000000e+00 1.000000000000000000e+00 1.000000000000000000e+00 1.000000000000000000e+00 1.000000000000000000e+00 1.000000000000000000e+00 1.000000000000000000e+00 1.000000000000000000e+00 1.000000000000000000e+00 1.000000000000000000e+00 1.000000000000000000e+00 1.000000000000000000e+00 1.000000000000000000e+00 1.000000000000000000e+00 1.000000000000000000e+00 1.000000000000000000e+00 1.000000000000000000e+00 1.000000000000000000e+00 1.000000000000000000e+00 1.000000000000000000e+00 1.000000000000000000e+00 1.000000000000000000e+00 1.000000000000000000e+00 1.000000000000000000e+00 1.000000000000000000e+00 1.000000000000000000e+00 1.000000000000000000e+00 1.000000000000000000e+00 1.000000000000000000e+00 1.000000000000000000e+00 1.000000000000000000e+00 1.000000000000000000e+00 1.000000000000000000e+00 1.000000000000000000e+00 1.000000000000000000e+00 1.000000000000000000e+00 1.000000000000000000e+00 1.000000000000000000e+00 1.000000000000000000e+00 1.000000000000000000e+00 1.000000000000000000e+00 1.000000000000000000e+00 1.000000000000000000e+00 1.000000000000000000e+00 1.000000000000000000e+00 1.000000000000000000e+00 1.000000000000000000e+00 1.000000000000000000e+00 1.000000000000000000e+00 1.000000000000000000e+00 1.000000000000000000e+00 1.000000000000000000e+00 1.000000000000000000e+00 1.000000000000000000e+00 1.000000000000000000e+00 1.000000000000000000e+00 1.000000000000000000e+00 1.000000000000000000e+00 1.000000000000000000e+00 1.000000000000000000e+00 1.000000000000000000e+00 1.000000000000000000e+00 1.000000000000000000e+00 1.000000000000000000e+00 1.000000000000000000e+00 1.000000000000000000e+00 1.000000000000000000e+00 1.000000000000000000e+00 1.000000000000000000e+00 1.000000000000000000e+00 1.000000000000000000e+00 1.000000000000000000e+00 1.000000000000000000e+00 1.000000000000000000e+00 1.000000000000000000e+00 1.000000000000000000e+00 1.000000000000000000e+00 1.000000000000000000e+00 1.000000000000000000e+00 1.000000000000000000e+00 1.000000000000000000e+00 1.000000000000000000e+00 1.000000000000000000e+00 1.000000000000000000e+00 1.000000000000000000e+00 1.000000000000000000e+00 1.000000000000000000e+00 1.000000000000000000e+00 1.000000000000000000e+00 1.000000000000000000e+00 1.000000000000000000e+00 1.000000000000000000e+00 1.000000000000000000e+00 1.000000000000000000e+00 1.000000000000000000e+00 1.000000000000000000e+00 1.000000000000000000e+00 1.000000000000000000e+00 1.000000000000000000e+00 1.000000000000000000e+00 1.000000000000000000e+00 1.000000000000000000e+00 1.000000000000000000e+00 1.000000000000000000e+00 1.000000000000000000e+00 1.000000000000000000e+00 1.000000000000000000e+00 1.000000000000000000e+00 1.000000000000000000e+00 1.000000000000000000e+00 1.000000000000000000e+00 1.000000000000000000e+00 1.000000000000000000e+00 1.000000000000000000e+00 1.000000000000000000e+00 1.000000000000000000e+00 1.000000000000000000e+00 1.000000000000000000e+00 1.000000000000000000e+00 1.000000000000000000e+00 1.000000000000000000e+00 1.000000000000000000e+00 1.000000000000000000e+00 1.000000000000000000e+00 1.000000000000000000e+00 1.000000000000000000e+00 1.000000000000000000e+00 1.000000000000000000e+00 1.000000000000000000e+00 1.000000000000000000e+00 1.000000000000000000e+00 1.000000000000000000e+00 1.000000000000000000e+00 1.000000000000000000e+00 1.000000000000000000e+00 1.000000000000000000e+00 1.000000000000000000e+00 1.000000000000000000e+00 1.000000000000000000e+00 1.000000000000000000e+00 1.000000000000000000e+00 1.000000000000000000e+00 1.000000000000000000e+00 1.000000000000000000e+00 1.000000000000000000e+00 1.000000000000000000e+00 1.000000000000000000e+00 1.000000000000000000e+00 1.000000000000000000e+00 1.000000000000000000e+00 1.000000000000000000e+00 1.000000000000000000e+00 1.000000000000000000e+00 1.000000000000000000e+00 1.000000000000000000e+00 1.000000000000000000e+00 1.000000000000000000e+00 1.000000000000000000e+00 1.000000000000000000e+00 1.000000000000000000e+00 1.000000000000000000e+00 1.000000000000000000e+00 1.000000000000000000e+00 1.000000000000000000e+00 1.000000000000000000e+00 1.000000000000000000e+00 1.000000000000000000e+00 1.000000000000000000e+00 1.000000000000000000e+00 1.000000000000000000e+00 1.000000000000000000e+00 1.000000000000000000e+00 1.000000000000000000e+00 1.000000000000000000e+00 1.000000000000000000e+00 1.000000000000000000e+00 1.000000000000000000e+00 1.000000000000000000e+00 1.000000000000000000e+00 1.000000000000000000e+00 1.000000000000000000e+00 1.000000000000000000e+00 1.000000000000000000e+00 1.000000000000000000e+00 1.000000000000000000e+00 1.000000000000000000e+00 1.000000000000000000e+00 1.000000000000000000e+00 1.000000000000000000e+00 1.000000000000000000e+00 1.000000000000000000e+00 1.000000000000000000e+00 1.000000000000000000e+00 1.000000000000000000e+00 1.000000000000000000e+00 1.000000000000000000e+00 1.000000000000000000e+00 1.000000000000000000e+00 1.000000000000000000e+00 1.000000000000000000e+00 1.000000000000000000e+00 1.000000000000000000e+00 1.000000000000000000e+00 1.000000000000000000e+00 1.000000000000000000e+00 1.000000000000000000e+00 1.000000000000000000e+00 1.000000000000000000e+00 1.000000000000000000e+00 1.000000000000000000e+00 1.000000000000000000e+00 1.000000000000000000e+00 1.000000000000000000e+00 1.000000000000000000e+00 1.000000000000000000e+00 1.000000000000000000e+00 1.000000000000000000e+00 1.000000000000000000e+00 1.000000000000000000e+00 1.000000000000000000e+00 1.000000000000000000e+00 1.000000000000000000e+00 1.000000000000000000e+00 1.000000000000000000e+00 1.000000000000000000e+00 1.000000000000000000e+00 1.000000000000000000e+00 1.000000000000000000e+00 1.000000000000000000e+00 1.000000000000000000e+00 1.000000000000000000e+00 1.000000000000000000e+00 1.000000000000000000e+00 1.000000000000000000e+00 1.000000000000000000e+00 1.000000000000000000e+00 1.000000000000000000e+00 1.000000000000000000e+00 1.000000000000000000e+00 1.000000000000000000e+00 1.000000000000000000e+00 1.000000000000000000e+00 1.000000000000000000e+00 1.000000000000000000e+00 1.000000000000000000e+00 1.000000000000000000e+00 1.000000000000000000e+00 1.000000000000000000e+00 1.000000000000000000e+00 1.000000000000000000e+00 1.000000000000000000e+00 1.000000000000000000e+00 1.000000000000000000e+00 1.000000000000000000e+00 1.000000000000000000e+00 1.000000000000000000e+00 1.000000000000000000e+00 1.000000000000000000e+00 1.000000000000000000e+00 1.000000000000000000e+00 1.000000000000000000e+00 1.000000000000000000e+00 1.000000000000000000e+00 1.000000000000000000e+00 1.000000000000000000e+00 1.000000000000000000e+00 1.000000000000000000e+00 1.000000000000000000e+00 1.000000000000000000e+00 1.000000000000000000e+00 1.000000000000000000e+00 1.000000000000000000e+00 1.000000000000000000e+00 1.000000000000000000e+00 1.000000000000000000e+00 1.000000000000000000e+00 1.000000000000000000e+00 1.000000000000000000e+00 1.000000000000000000e+00 1.000000000000000000e+00 1.000000000000000000e+00 1.000000000000000000e+00 1.000000000000000000e+00 1.000000000000000000e+00 1.000000000000000000e+00 1.000000000000000000e+00 1.000000000000000000e+00 1.000000000000000000e+00 1.000000000000000000e+00 1.000000000000000000e+00 1.000000000000000000e+00 1.000000000000000000e+00 1.000000000000000000e+00 1.000000000000000000e+00 1.000000000000000000e+00 1.000000000000000000e+00 1.000000000000000000e+00 1.000000000000000000e+00 1.000000000000000000e+00 1.000000000000000000e+00 1.000000000000000000e+00 1.000000000000000000e+00 1.000000000000000000e+00 1.000000000000000000e+00 1.000000000000000000e+00 1.000000000000000000e+00 1.000000000000000000e+00 1.000000000000000000e+00 1.000000000000000000e+00 1.000000000000000000e+00 1.000000000000000000e+00 1.000000000000000000e+00 1.000000000000000000e+00 1.000000000000000000e+00 1.000000000000000000e+00 1.000000000000000000e+00 1.000000000000000000e+00 1.000000000000000000e+00 1.000000000000000000e+00 1.000000000000000000e+00 1.000000000000000000e+00 1.000000000000000000e+00 1.000000000000000000e+00 1.000000000000000000e+00 1.000000000000000000e+00 1.000000000000000000e+00 1.000000000000000000e+00 1.000000000000000000e+00 1.000000000000000000e+00 1.000000000000000000e+00 1.000000000000000000e+00 1.000000000000000000e+00 1.000000000000000000e+00 1.000000000000000000e+00 1.000000000000000000e+00 1.000000000000000000e+00 1.000000000000000000e+00 1.000000000000000000e+00 1.000000000000000000e+00 1.000000000000000000e+00 1.000000000000000000e+00 1.000000000000000000e+00 1.000000000000000000e+00 1.000000000000000000e+00 1.000000000000000000e+00 1.000000000000000000e+00 1.000000000000000000e+00 1.000000000000000000e+00 1.000000000000000000e+00 1.000000000000000000e+00 1.000000000000000000e+00 1.000000000000000000e+00 1.000000000000000000e+00 1.000000000000000000e+00 1.000000000000000000e+00 1.000000000000000000e+00 1.000000000000000000e+00 1.000000000000000000e+00 1.000000000000000000e+00 1.000000000000000000e+00 1.000000000000000000e+00 1.000000000000000000e+00 1.000000000000000000e+00 1.000000000000000000e+00 1.000000000000000000e+00 1.000000000000000000e+00 1.000000000000000000e+00 1.000000000000000000e+00 1.000000000000000000e+00 1.000000000000000000e+00 1.000000000000000000e+00 1.000000000000000000e+00 1.000000000000000000e+00 1.000000000000000000e+00 1.000000000000000000e+00 1.000000000000000000e+00 1.000000000000000000e+00 1.000000000000000000e+00 1.000000000000000000e+00 1.000000000000000000e+00 1.000000000000000000e+00 1.000000000000000000e+00 1.000000000000000000e+00 1.000000000000000000e+00 1.000000000000000000e+00 1.000000000000000000e+00 1.000000000000000000e+00 1.000000000000000000e+00 1.000000000000000000e+00 1.000000000000000000e+00 1.000000000000000000e+00 1.000000000000000000e+00 1.000000000000000000e+00 1.000000000000000000e+00 1.000000000000000000e+00 1.000000000000000000e+00 1.000000000000000000e+00 1.000000000000000000e+00 1.000000000000000000e+00 1.000000000000000000e+00 1.000000000000000000e+00 1.000000000000000000e+00 1.000000000000000000e+00 1.000000000000000000e+00 1.000000000000000000e+00 1.000000000000000000e+00 1.000000000000000000e+00 1.000000000000000000e+00 1.000000000000000000e+00 1.000000000000000000e+00 1.000000000000000000e+00 1.000000000000000000e+00 1.000000000000000000e+00 1.000000000000000000e+00 1.000000000000000000e+00 1.000000000000000000e+00 1.000000000000000000e+00 1.000000000000000000e+00 1.000000000000000000e+00 1.000000000000000000e+00 1.000000000000000000e+00 1.000000000000000000e+00 1.000000000000000000e+00 1.000000000000000000e+00 1.000000000000000000e+00 1.000000000000000000e+00 1.000000000000000000e+00 1.000000000000000000e+00 1.000000000000000000e+00 1.000000000000000000e+00 1.000000000000000000e+00 1.000000000000000000e+00 1.000000000000000000e+00 1.000000000000000000e+00 1.000000000000000000e+00 1.000000000000000000e+00 1.000000000000000000e+00 1.000000000000000000e+00 1.000000000000000000e+00 1.000000000000000000e+00 1.000000000000000000e+00 1.000000000000000000e+00 1.000000000000000000e+00 1.000000000000000000e+00 1.000000000000000000e+00 1.000000000000000000e+00 1.000000000000000000e+00 1.000000000000000000e+00 1.000000000000000000e+00 1.000000000000000000e+00 1.000000000000000000e+00 1.000000000000000000e+00 1.000000000000000000e+00 1.000000000000000000e+00 1.000000000000000000e+00 1.000000000000000000e+00 1.000000000000000000e+00 1.000000000000000000e+00 1.000000000000000000e+00 1.000000000000000000e+00 1.000000000000000000e+00 1.000000000000000000e+00 1.000000000000000000e+00 1.000000000000000000e+00 1.000000000000000000e+00 1.000000000000000000e+00 1.000000000000000000e+00 1.000000000000000000e+00 1.000000000000000000e+00 1.000000000000000000e+00 1.000000000000000000e+00 1.000000000000000000e+00 1.000000000000000000e+00 1.000000000000000000e+00 1.000000000000000000e+00 1.000000000000000000e+00 1.000000000000000000e+00 1.000000000000000000e+00 1.000000000000000000e+00 1.000000000000000000e+00 1.000000000000000000e+00 1.000000000000000000e+00 1.000000000000000000e+00 1.000000000000000000e+00 1.000000000000000000e+00 1.000000000000000000e+00 1.000000000000000000e+00 1.000000000000000000e+00 1.000000000000000000e+00 1.000000000000000000e+00 1.000000000000000000e+00 1.000000000000000000e+00 1.000000000000000000e+00 1.000000000000000000e+00 1.000000000000000000e+00 1.000000000000000000e+00 1.000000000000000000e+00 1.000000000000000000e+00 1.000000000000000000e+00 1.000000000000000000e+00 1.000000000000000000e+00 1.000000000000000000e+00 1.000000000000000000e+00 1.000000000000000000e+00 1.000000000000000000e+00 1.000000000000000000e+00 1.000000000000000000e+00 1.000000000000000000e+00 1.000000000000000000e+00 1.000000000000000000e+00 1.000000000000000000e+00 1.000000000000000000e+00 1.000000000000000000e+00 1.000000000000000000e+00 1.000000000000000000e+00 1.000000000000000000e+00 1.000000000000000000e+00 1.000000000000000000e+00 1.000000000000000000e+00 1.000000000000000000e+00 1.000000000000000000e+00 1.000000000000000000e+00
2.935275000545081031e-02 5.253219059960774207e-01 -2.435248077262580635e-01 7.543967284467755219e-01 5.169595444867882694e-01 5.016222503034691860e-01 6.086355456989223089e-01 3.069854522530561791e-01 5.343292170189293255e-01 5.100338973367506412e-01 1.081278273964672021e+00 -6.999918324370519862e-01 1.406640416213112532e+00 4.555527832794515342e-01 5.148871507074583853e-01 3.974342432784979673e-01 8.792582487513448397e-01 9.776742429850023841e-01 7.157328332212781197e-01 5.196085560343527421e-01 3.874255942469517211e-01 9.849336391571572591e-01 4.044225671995540505e-01 4.988379584134222666e-01 8.918047145304182355e-02 6.713123125596841545e-01 3.801628591891007547e-01 6.713936399168244362e-01 5.563056399128333274e-01 1.584072953399827677e+00 5.092117946200506173e-01 6.100046795343048167e-01 7.192337321664459271e-01 5.157018021687899134e-01 7.033080365199663175e-01 4.522676788419938698e-01 5.078906976102421922e-01 1.797854790488540022e+00 -7.302159163978294565e-02 5.108864120681378962e-01 -1.783044467858255211e-01 -5.613955202761858887e-01 7.488099265980470154e-01 2.270460823616068380e-01 2.897226470941502985e-01 5.142580913199905623e-01 7.544764238409640278e-01 5.283037542634856365e-01 6.303085042362188695e-01 1.653671836855303418e-02 1.476050826262714777e-02 8.112152520881227291e-01 6.769101913292318029e-01 4.393951808019985750e-01 4.582052620357633943e-01 1.787683280371213726e-02 5.008582212697628711e-01 5.262080205239668684e-01 1.922981350920143218e-01 4.760193711928710214e-01 9.167452957458559482e-01 5.136860702046045501e-01 5.377299790073464258e-01 4.044227226387364649e-01 6.799845975193686831e-01 5.931523482515547174e-01 5.205112658411851223e-01 3.283823694820938721e-01 5.632631024644542128e-01 1.053448655911236320e-02 4.259945368787840247e-01 5.615555905716899110e-01 5.143401294229441589e-01 1.349572269502600542e-02 1.509364397553988324e+00 5.513130109545849589e-01 6.352459460767433397e-01 7.307066361943624910e-01 5.138806638571163932e-01 1.384030869269233799e+00 5.166884281306975968e-01 3.212027456931781377e-01 1.408328660411324540e+00 7.256268837814852102e-01 4.977063844397745518e-01 7.552837401900296399e-01 8.046970598647293915e-01 5.495940306331191794e-01 4.143644655570543622e-01 5.760467856744951876e-01 2.865732241168535421e-01 2.184723207487423213e+00 7.541106066912054429e-01 -9.511118981731256014e-03 5.123699419189259308e-01 4.735704767620126376e-01 5.615747499406044119e-01 4.779735887817506135e-01 1.895810018682559384e-01 6.637596702076520305e-01 1.610841387498752830e+00 6.892146512336527753e-01 5.489320229233211057e-01 6.925452281653233788e-01 8.597517773737429758e-01 -2.076055005522109198e+00 -1.221328983288477943e+00 5.394179539286937386e-01 5.962166709997256397e-01 9.709848774858956810e-01 5.641800571297930222e-01 4.365070485927389221e-01 1.689306034364419506e-01 4.919366952395713977e-01 5.226869750485327870e-01 4.982898643105496683e-01 4.814688928264932444e-01 5.344499017706046962e-01 9.344099321973279304e-01 5.208118358098441369e-01 1.304827181750931375e+00 5.503869354928441204e-01 5.960919346980656508e-01 -4.506699608967181248e-01 5.103548108396730454e-01 1.950007389117841550e+00 5.565408934645216243e-01 5.542462757517406802e-01 6.841479590831995861e-01 5.176337676014000078e-01 5.162310891141439484e-01 5.150567664187125638e-01 4.233425865046694381e-01 3.587202176440841273e-01 -2.999267514570125859e-01 -1.665340475119348185e-01 6.471255659567972662e-01 5.162459430132280286e-02 1.001114157671641580e+00 6.240039113464880272e-01 5.100686550619282222e-01 8.658847254471500055e-01 5.903771225925968924e-01 5.716961218417523360e-01 5.150488881345361980e-01 5.137546416328940546e-02 9.246931820161378157e-01 -3.156298299625688586e-02 4.451994143363913192e-01 -8.931532291063479789e-01 7.679255604089234577e-01 -2.934698187953524440e-01 5.142531627441256914e-01 5.609606434448685119e-01 4.511003196279001481e-01 5.147711638974745707e-01 1.956803519636189703e+00 -1.124441296934492879e-01 8.159421615028388253e-01 6.864461687420851943e-01 5.330082021380929680e-01 4.142854653749649674e-01 4.952673456747531677e-01 5.144232438598624890e-01 1.078962081994023103e+00 1.967829221512139848e-01 8.502452980618291356e-01 3.608083482982804568e-01 4.724997471308484132e-01 6.576306657777339915e-01 5.173109263446121764e-01 7.530633586105494048e-01 5.142760938317041397e-01 5.163278398661182989e-01 4.045494661848717532e-01 4.587869072152674088e-02 1.962432568258533072e-01 9.210239848725536305e-02 7.480936647753437807e-01 1.142405311221013964e+00 6.958592930534341914e-01 5.290087892106433154e-01 -1.765315972413160350e-01 4.403084576809106476e-01 6.184108702014058379e-01 5.374568728582561628e-01 5.117803918546079966e-01 5.036659736077827576e-01 2.799724325686103299e+00 5.510091391374096759e-01 5.420413369702403728e-01 -8.943747718989720763e-01 5.206589308827207496e-01 5.459506952723819362e-01 1.895852254948793281e-01 5.105127331590056938e-01 9.360522978940484240e-01 5.230340660939000186e-01 5.968803042345385279e-01 4.436032268044414750e-01 6.287948720265345015e-01 4.955676161751744191e-01 9.131248986329678630e-01 6.011329527029947162e-01 5.432258486119700969e-01 5.968802433185168566e-01 2.388195059694635525e-01 1.289695583931506073e+00 5.524230434195495087e-01 4.036911544109528238e-01 4.309414050106841199e-01 -8.474237573482146235e-02 4.838416225841850049e-01 1.580106916562410979e-01 5.050149499081724169e-01 5.120016365695712057e-01 5.200872232361697378e-01 5.148245914357111319e-01 5.185165102289359673e-01 5.162572590253629023e-01 4.372111128490932530e-01 5.901766232305390991e-01 -7.086817519843486846e-01 6.020199702085768934e-01 3.871745139939529734e-01 3.740999803909883514e-01 8.257696616856990968e-02 1.308500723026982060e+00 9.605302502256514163e-01 4.962331297599317792e-01 -1.033414699122739283e-01 1.056796091172625740e+00 5.135988259608851303e-01 4.463306404636438462e-01 5.897767819075150353e-01 4.120510826414820471e-01 3.228105895974058281e-01 1.824237115797464615e-01 -1.553862892692115805e-01 -9.524595539162614144e-02 3.944365188276061085e-01 5.273763305635951193e-01 -1.082518778506188772e-01 4.322826519189912342e-01 5.197281166617477854e-01 4.860340136766942432e-01 -9.924391664641997457e-02 7.537191759688858239e-01 -2.288445347179141276e+00 6.118218909236426972e-01 -6.075563433358083243e-01 4.974645758078760083e-01 5.198520534391011250e-01 4.044215050015738111e-01 4.747332424449511312e-01 5.647669058889369653e-01 5.423080189260842676e-01 7.626104306918447540e-01 5.556986045553496956e-01 1.692217471986163124e+00 6.791186845924628290e-01 6.907365638187368262e-01 4.757980368338597388e-01 3.577394268528876764e-01 9.167453340276743301e-01 4.161516171080376081e-01 2.683474032515312135e+00 5.011823040598867296e-01 2.315371750053394628e-01 7.308766137804302288e-01 5.057690852912768431e-01 9.161058360504453768e-01 5.145431327150593592e-01 5.615925360238078756e-01 5.148806026759109589e-01 1.104677976903716274e+00 7.696396077861878959e-01 8.621083594133622796e-01 8.077390660075600692e-01 4.679757543744777482e-01 6.796628609059292003e-01 5.217372121530525764e-01 3.842575355331174225e-01 -7.233537908825984353e-01 3.861873537792229749e-01 5.939333231940165936e-01 5.627213131820816283e-01 5.075526198353557117e-01 4.982897983702562761e-01 6.080958392888079489e-01 5.483793426557576067e-01 -8.452776796256651348e-01 7.263317180423987107e-01 5.490899236186447263e-01 1.497655273333900125e-02 5.521362912708992488e-01 1.850721566802190354e+00 5.035490284901982250e-01 5.138876051275167445e-01 4.451865055593469123e-01 -3.420915826255884085e+00 5.209774032005679567e-01 2.822999768539004695e+00 7.536694697960459877e-01 5.351804539553371987e-01 -5.765912465198029802e-01 5.103045869989405459e-01 5.158449474344465324e-01 4.399342838996501137e-01 4.520921005163610618e-01 3.595968744508764026e-01 6.431929730811221102e-01 3.143186037529427934e-01 5.207687544286409009e-01 5.179911909440162443e-01 3.524531830535562738e-01 5.337416618038309801e-01 7.540745719108212786e-01 5.189818902848860604e-01 1.200431943381360167e+00 1.005610666745547499e-02 2.220570318877030491e+00 2.641508070165647482e+00 5.116125720979839420e-01 -2.153689239749820294e-01 4.107906507403771279e-01 4.015449744764023055e-01 7.321415625322119647e-01 1.378287521599214083e+00 5.351404869107412310e-01 1.126738563874824850e+00 5.151926691596889762e-01 1.233294292159359956e-01 1.253716612154919474e+00 4.601721733299858341e-01 5.402740379038124541e-01 5.033827988664701936e-01 8.966668405898272631e-01 -3.725927451258853829e+00 1.634733333364113195e+00 5.203737491584038422e-01 6.375166663984321858e-01 5.165162690825626512e-01 1.797854784561706776e+00 3.032861469514745445e-01 5.516644028271590061e-01 5.315315502434755368e-01 4.730749760505011392e-01 1.377264073599758554e+00 5.761194267304945438e-01 5.968801314833985794e-01 4.322876292972189227e-01 6.011329556725983903e-01 5.487298400140149246e-01 5.674665106109946233e-01 8.970843363778777668e-01 5.162708306945482661e-01 3.857172473090401676e-01 1.830039821649957488e-01 6.605926425583140693e-01 5.187882200909392783e-01 3.654277471306966452e-01 5.516644278610590701e-01 6.557352996455630967e-01 5.208051001262508084e-01 1.021964342056696173e+00 9.727093790217977709e-01 1.138573639939610915e+00 5.156434085490132491e-01 2.264000215814732653e-01 9.167460217775078579e-01 -1.092621590714461521e-01 9.334954725222646132e-01 6.292374827434352724e-01 8.849835538060436824e-03 5.764698619443835437e-01 9.526483819986683033e-01 3.877735061151312279e-01 5.071393847154020973e-01 2.871812229099851566e-01 -3.350307971298269738e-01 -2.468817172702478580e+00 4.884905790186038210e-01 6.011329557583021677e-01 6.011329360943187261e-01 4.983352897288517713e-01 4.046156866665323038e-01 -2.212071405784381273e-01 3.077689389588018076e-01 5.212850654833960373e-01 6.931427017193365625e-01 5.163687573992153945e-01 1.044356438229037343e+00 5.968803509423441511e-01 5.152484410691552386e-01 4.857608480337346490e-01 2.731309304720121456e-01 6.557036431918089603e-01 5.266445027018605840e-01 5.170862889223779568e-01 5.348714580117409634e-01 2.897619796243849355e-01 1.756527880828399196e-02 6.011329550903135033e-01 6.604308720716479675e-01 5.145155595336760035e-01 4.086430643588755962e-01 8.588861683734395625e-01 7.218942845957730947e-01 5.637696222838177729e-01 1.861346238761942384e+00 5.078333147519926705e-01 -3.078920999210015719e+00 7.541125556491085069e-01 1.523080717117401006e+00 5.589055667220823587e-01 -1.073428989933039146e+00 7.768729725048577617e-01 4.487344614427656864e-01 5.242244078066502500e-01 5.382145656904636644e-01 -3.499524084490497344e-01 5.170289720937516487e-01 1.070552830343082462e+00 5.395671657760658935e-01 -3.613710867851366304e-01 5.185709371503277598e-01 5.175356060150635429e-01 7.824377692974380238e-01 5.260216679695981501e-01 5.605608131992710907e-01 -5.249056720447002888e-01 5.611192324488897265e-01 5.119433555642524114e-01 6.473300809781757925e-01 5.349457948232124727e-01 7.673914031995593410e-01 5.106639901399822046e-01 6.019682593007028570e-01 6.140071832296386534e-01 5.258001524800393067e-01 2.863708658167977150e-01 2.961874177164174338e-01 3.346564155421847264e-01 9.628225784010580046e-01 5.514345302500998081e-01 3.202348457065335108e+00 6.591267070561093178e-01 6.374165159911800993e-01 5.530578631558655811e-01 5.953968207895238285e-01 2.658484037748432005e-02 4.875298207800903838e-01 5.051757303880513028e-01 5.173818559615467327e-01 1.162089396416870590e+00 7.671118284188976899e-01 5.182480738411011645e-01 4.434565670109201774e-01 1.117496742455947212e+00 5.330220574081546703e-01 5.652294597918469110e-01 5.474447086073843671e-01 7.886429390734280842e-01 5.148140639935211427e-01 9.322635596949617742e-01 5.139538041586403372e-01 5.146317263096572558e-01 1.134495280403056798e-02 5.183618324170189418e-01 8.071720321198200959e-03 3.261380060321976693e-01 4.075333230174711940e-01 5.746753302143201569e-01 7.801210636751728655e-01 5.217604024618617276e-01 3.902884187990140474e-01 7.797228725897598078e-02 5.210034187226599833e-01 5.480774650262254521e-01 4.611771881629939118e-01 3.860714761788709010e-02 5.132691335182548720e-01 2.475863151799372608e-01 5.132212157331599300e-01 4.156586300342750562e-01 1.257929490171130427e+00 7.776028780583579270e-01 5.488172035116081204e-01 2.596427981658396833e-01 7.193632996229790688e-01 4.298395951245967406e-01 9.941272540922622136e-01 6.032643801668415851e-01 5.918088006380929356e-01 6.950286735765890400e-01 1.995453343277259872e+00 4.633941999398840106e-01 4.698092218515823038e-01 5.127734351728370221e-01 7.265632881819252820e-01 5.161138672285209283e-01 8.448955221487514100e-01 -5.732158245137979335e-01 3.502742222847770592e-01 5.121691183117157431e-01 4.274068900385478154e-01 3.775699649018973147e-01 -6.178877206264693500e-01 3.879136581600506339e-01 5.185267296345307253e-01 7.354861017957857738e-01 6.670166478421148959e-01 1.483617614094060677e+00 5.188573594667633682e-01 5.196544974375026937e-01 -7.053947707063050743e-01 5.144029180094547016e-01 1.220058392000042735e+00 7.095304989282120722e-01 2.701734083580129009e-01 2.580606756757946041e-01 -1.697087440473238118e+00 5.171832040507585715e-01 1.854064283787124900e-01 1.100350922225303396e+00 8.181253643640659101e-01 5.156091328203256108e-01 5.228608128161416069e-01 6.228640946484684804e-01 7.539140334290275192e-01 4.420163277640397625e-01 5.594456666626684838e-01 2.993939934958666713e-02 5.172666581529250518e-01 6.063966624727374910e-01 5.558294041854019429e-01 5.071813750449403191e-01 4.981641441166653750e-01 1.211652928918966587e+00 -1.035439589256786780e-01 -2.358561636614555923e-01 4.210495515417210233e-01 5.495891912337003138e-01 5.428416164539032751e-01 5.097392648445226992e-01 -8.572195526277700539e-01 3.167332322169674086e+00 5.432611382574801251e-01 4.468921721824536397e-01 4.248845514792767841e-01 5.120337038222380066e-01 5.114900483635612671e-01 5.731501346506687744e-01 3.257248780555925816e-01 5.945868359239214751e-01 5.133915890579261454e-01 5.871164790390300814e-01 3.468044277408005027e-01 4.200146602474632562e-01 5.518830029532416637e-01 4.057281993773469431e-01 5.060902302990403223e-01 5.503890481715765226e-01 6.615998370471828371e-01 1.011859470621171431e+00 2.317414283333417035e+00 5.366112991405753707e-01 4.970444639550945509e-01 4.306988560650758524e-01 4.950235633830697979e-01 3.678963921290665517e-01 5.152258778111084014e-01 5.189780987947432145e-01 5.168857836874704015e-01 5.295121108228723061e-01 4.771218638154976488e-01 7.540839495355764477e-01 3.657796835979703620e-01 4.636701742222159028e-01 4.547130060105911142e-01 5.356674826798369926e-01 1.162796724398122566e-01 9.167453153457951753e-01 5.648896042475088919e-01 1.170993047216287858e-01 1.911184992837949848e+00 2.861424571195004263e-01 4.247274180199828164e-01 5.905340150282911704e-01 6.305348004942115669e-02 5.263438230530150808e-01 1.514187890051745367e+00 7.796892448393694108e-01 7.461269492731031905e-01 5.173737418318995473e-01 5.476462025149865243e-01 4.645633861091842953e-01 6.576387980066046302e-01 5.336200400659667498e-01 5.181730798678042538e-01 -2.142035427737530584e-01 5.356037264036038748e-01 -1.482180610437739743e+00 4.875250415671942839e-01 5.052634191557109355e-01 5.186379267557031936e-01 4.451742851770411069e-01 9.167453153784770326e-01 2.205089680624921222e-01 5.408996959761404044e-01 1.340240184766835929e+00 -5.566294997032961156e-01 5.159307410284488249e-01 1.136342479806563999e+00 1.517165315915476098e+00 4.714346999121734605e-01 5.142642768194922720e-01 -5.487460114395757704e-02 -1.678924784732339415e+00 2.761902285634237897e-01 7.932586246975248390e-01 5.127293174262624875e-01 5.127369485430703921e-01 5.862201642084448050e-01 4.844752936432112356e-01 -4.071709175045654661e-01 8.199871156463259814e-01 4.982907225157721665e-01 3.316610852348801375e-01 5.471147544533928597e-01 -1.133751727984472213e-02 -1.711008096243486765e-01 1.791402115236771619e+00 4.139355867398051281e-01 5.055040082123469780e-01 5.186300593857474661e-01 3.265061650613328981e-01 5.824956904733689100e-01 -7.623139254552971367e-02 -1.157512014420668978e+00 5.124229047091287681e-01 5.339967067463501360e-01 5.242049694630624979e-01 6.155650471409749303e-01 5.196703720823850903e-01 5.451060704049092154e-01 5.617523567235008786e-01 5.724779658310785724e-01 1.032014996502144344e+00 7.232427953384046315e-01 5.199487647798514134e-01 5.923585982316129650e-01 4.588458258152464664e-01 4.393337228012392792e-01 3.342357638632109662e-02 5.516644125093751461e-01 4.821368185185898048e-01 4.866728637077772923e-01 7.573929045629209655e-01 9.132774006432802238e-01 8.448988792707680107e-01 -5.044563243440898237e-01 5.188597872868868643e-01 4.545063216730244049e-01 5.202449097422660040e-01 5.879972042086195616e-01 9.071067409987980668e-01 5.619619245162229548e-01 5.273791413154004237e-01 -2.542458857310174181e-01 -8.686156917211766970e-01 2.295580760146447741e+00 5.087874528172231514e-01 8.959688554118225845e-01 4.336915789211935324e-01 5.732742644353634454e-01 3.792318466324385851e-01 1.504121104516285001e-01 5.177130353179790756e-01 5.478771570473069952e-01 -4.473404358492595254e-03 5.199149954096404791e-01 4.307068506720619361e-01 5.150771262505253745e-01 6.451955229802620595e-01 5.190479383187820428e-01 6.111211654893065059e-01 4.066323026524300555e-01 5.044412550398869044e-01 4.210250167668301291e-01 5.213689230211657755e-01 4.173865301458362653e-01 5.332877024163660273e-01 -2.726672963940582894e-01 5.116719285570612286e-01 6.425880675158027744e-01 4.802826830015580195e-01 7.545806243698318649e-01 9.167450326855545173e-01 7.307634324279642657e-01 -5.975100573231689749e-01 9.867661294564317176e-01 1.797854790507275480e+00 4.918447826133159340e-01 4.638169379268773374e-01 1.077955438026089396e+00 5.646977425204932066e-01 7.547579753440943895e-01 5.189685314952536821e-01 1.830970970628819972e+00 5.146190582528112900e-01 4.322834741322941765e-01 1.234331838139316018e+00 -6.095936556215322127e-02 5.547533580178133361e-01 -1.619070106882274374e-01 -9.601619137914456648e-01 -1.708348057538761899e-01 7.740817953196048595e-01 5.684733996387530963e-01 5.140956409638126612e-01 -3.278143203488341206e-01 4.971253176244782579e-01 5.024986606567907743e-02 -3.796780395415989551e-01 4.978688938142492582e-01 5.121251325996027948e-01 5.231338770784147441e-01 5.526477325186986977e-01 5.402803159759038687e-01 9.097327907113307299e-01 -4.106812681577268753e-01 5.178104998669221803e-01 5.521782082239815592e-01 6.121109074967109320e-01 1.166753755322849750e+00 4.988891831315936942e-01 6.486189373519898327e-01 5.176581504742516771e-01 4.231660297704408630e-02 -3.501553591776423446e-01 5.337708686865660912e-01 5.286795645678294964e-01 6.793374698899071751e-01 5.048318837048223484e-01 3.472236159343310979e-01 5.150320556913656755e-01 5.192045124120343580e-01 3.685714210164653393e-01 5.210887252997746799e-01 8.391792536517153067e-01 2.555421631204404687e+00 -2.429352315640807003e-01 6.633673172835844456e-01 3.302844857756949137e-01 2.100602082882093713e-01 6.708751504895895668e-01 -5.733254041620448188e-02 -1.534905387498370466e+00 5.240598834912807424e-01 2.616967007558351987e+00 5.261976196881790191e-01 1.563384431289446819e-01 1.686139179090740126e-01 4.982898644708360081e-01 5.792749707794250247e-01 1.559855540104434946e+00 4.960035568839203934e-01 1.260603852354683918e-01 4.302548100163954836e-01 1.700812425852508580e+00 5.962268638027146128e-01 7.561260427081101243e-01 5.031544950785651338e-01 7.394780858970388948e-01 4.587042917743144876e-01 5.691543567725183550e-01 1.753986614600913652e-02 5.211508473276792452e-01 4.932516572871839533e-01 -5.733826620376490935e-01 -6.631391800603665676e-02 1.175413288768795139e+00 2.371797561279252453e-01 4.852279500679920199e-01 6.991004194187500076e-01 5.506610536971298098e-01 2.003818176024972697e+00 6.894230450908350738e-01 2.556634941720339546e-02 3.024041742871416694e-01 3.965498784812378497e-01 1.118283581707247398e+00 5.078247817995009683e-01 -2.707509409290956640e-02 5.033860381592951683e-01 -1.614284993355637188e-02 5.209268633020711636e-01 5.211543514393066623e-01 1.733081890565478815e-03 -5.091400378696295942e-02 6.673867410846097137e-01 5.897217603955515752e-01 5.698576824176456723e-01 2.508271587572944994e-01 4.520696499132624280e-01 5.000300716734268347e-01 5.364907154955211865e-01 5.509299608940436688e-01 4.794865365861780693e-01 6.134483533728591897e-01 1.016897551298610702e+00 3.128353290794250618e+00 9.309886767797211915e-01 5.202742317808952688e-01 6.301590034447298594e-01 2.143116779797204774e-01 5.187207347997803142e-01 8.474513411926077877e-01 4.968311516104560455e-01 1.316660032097291655e+00 4.488338343256097485e-01 -5.774505552369868511e-01 -1.716973397107384586e-02 4.079808497556665081e-01 6.131727770293672330e-01 5.142844470353523656e-01 5.128912859213885511e-01 3.952178398412663912e-02 5.210476420464479341e-01 4.123242084121611639e-01 -3.683015686886796036e+00 4.816904811364532968e-01 5.238776533848504835e-01 1.127962367072575800e+00 5.157120979551984563e-01 5.181372686499000624e-01 6.822799028244650454e-01 -8.850184107227291319e-01 -5.037209036312990662e-01 4.147136215068389364e-02 5.168767220892274139e-01 4.441091365512293554e-01 2.175028755365145117e-01 5.059286292012861175e-01 -3.380378052588561277e-01 6.091617699418604426e-01 5.020118128309897232e-01 6.949859894233171298e-01 5.437424365468842558e-01 4.720375539232403161e-01 1.560790123618273073e-01 -7.552516495374440586e-01 6.549747804222457725e-01 5.171584931374214600e-01 1.610048330881184986e-01 5.187049925487464686e-01 5.686454540482570597e-01 5.353083033245661371e-01 6.714273203333227524e-01 5.729763136125116674e-01 5.430652742456301141e-01 5.008371749141006246e-01 1.797854794550849844e+00 3.616910495353042321e-01 5.466316516505574929e-01 -1.202781256188615311e-01 5.518740248567527429e-01 6.281039061617477159e-01 5.303448938910854116e-01 4.936155858812564245e-01 3.535114998531223018e-01 9.350648868006377068e-01 1.202619131079760706e+00 5.566324289486778154e-01 5.785221692857734910e-01 5.963040983886901403e-01 4.702212595840191134e-01 4.910145831716162812e-01 5.156111023695361117e-01 9.867258107074261542e-01 7.158204468483031491e-01 -4.560940660998950569e-01 4.532520874225151597e-01 9.132655276489275442e-01 5.099528526774773640e-01 -1.801529392507471294e-02 5.217590465949106804e-01 1.332721289571466183e+00 -1.388341005566928743e-01 5.948546586684548831e-01 2.444852019692524414e-01 5.235698800461233704e-01 8.373366431273800981e-01 5.126641666834605982e-01 3.696386679273537812e-01 1.399834140903060575e+00 4.755900494077685003e-01 5.297469747245466820e-01 -6.577624842543193795e-01 4.510737493086003358e-01 1.041993855784769440e+00 6.034156660846049514e-01 8.318787171903146982e-02 9.684340066160851412e-01 -4.331967052927755690e-02 6.464148439637311672e-01 1.618385003922555798e+00 -8.579553188970506783e-01 5.691805943422856284e-01 5.163804216527290158e-01 -4.558314348693341955e-01 3.131293500864225088e-01 6.012584494984080097e-01 4.829301188685270474e-01 5.108056079739309308e-01 3.746435653312868985e-01 2.633534309187209876e-01 3.445584393613561613e-01 5.692138927995404885e-01 5.205507183372165558e-01 6.730603636855621991e-03 -1.056786373945742263e-01 5.239551794957871822e-01 1.063216455588922082e+00 4.587371579224818752e-01 -5.736982014447292721e-01 5.515017251662307496e-01 5.131617224090504470e-01 5.326763463585355574e-01 4.129152461373874344e-02 3.319213966685122807e-01 5.175265942392013319e-01 5.199288591759703149e-01 4.520419456619358956e-01 1.575576950684243888e-02 5.063313408750769185e-01 5.175425136972943152e-01 6.302757771044051882e-01 2.084929939452767389e+00 7.029597773019381421e-03 3.849822419961697606e-01 5.228982442876861647e-01 1.830945939006322520e+00 5.806754492809320656e-01 4.952049338666728029e-01 1.702884866474725645e-02 5.516644032278293919e-01 5.223665975890597890e-01 4.753845295027214757e-01 3.824512919645992048e-01 5.020771765170194412e-01 4.729481136466608393e-01 5.569114801429155825e-01 -5.313144600172982068e-01 5.143978566687430476e-01 5.443750376788374368e-01 5.438046073284275028e-01 1.098059644610372088e+00 5.211775837287295765e-01 -2.441606050443325127e-01 1.082414600519172154e+00 -1.264835370219475008e+00 -5.219154448952619818e-01 5.226807868115348477e-01 5.161362870170046468e-01 6.526584020255258300e-01 5.159007473744248173e-01 4.127595542982678278e-01 5.893642193997424839e-01 5.516644013224895060e-01 5.175564322626392544e-01 5.151069926563145440e-01 5.874302801389941209e-01 5.171880199344379703e-01 2.967985285065849466e-01 5.017513144393981328e-01 5.150348928296656359e-01 3.825864106357022565e-01 5.199094138893469719e-01 5.222059385008317456e-01 5.496948959983072314e-01 6.476521141582332053e-01 5.132252722675170187e-01 6.877865812366545928e-01 4.919903370831440470e-01 5.086877164685842390e-01 5.424568981787853961e-01 3.705587161455556333e-01 4.059360539592107298e-01 2.414591831087616214e+00 4.837925667015977593e-01 5.943365644599977182e-01 3.048529873425073200e-01 5.830094860900160159e-01 1.112095838913343737e+00 4.571755937863490327e-01 7.037479554699002104e-01 5.143093805572821475e-01
7.006548472023815810e-01 3.108902071284532775e-01 4.277462053471093317e-01 5.447599322338646244e-03 3.105901880253960634e-01 3.058829705629249052e-01 5.330764029753867206e-01 4.301529829594175069e-01 2.796226345543437741e-01 3.013438296410774209e-01 2.051011184253598962e+00 1.714551078516857174e+00 -1.441851564403342723e+00 6.178055355858443898e-01 3.151199266318941983e-01 4.301409638682880399e-01 1.305617069053827684e-01 4.340186755271428498e-01 4.362929512928985787e-01 3.096427052574044492e-01 4.578821386799181714e-01 2.113711373919914482e+00 3.855680349897225301e-01 3.687914172155065673e-01 7.289848665932323613e-01 -2.170950370793098549e-01 4.444043748927332671e-01 2.190192631655613897e-01 2.786947560905166377e-01 -8.791051047726662349e-01 3.526820630517547017e-01 -1.320443847541337978e-01 2.889809186738742652e-01 3.012419847911163573e-01 -4.225809264405086529e-01 4.744810530649563596e-01 3.134430947137870627e-01 -3.570160024902869766e-01 -3.232484314338525344e+00 3.051425285407881605e-01 1.150928491927313502e+00 1.421301368842732560e-01 -1.661934166270288005e-01 7.917930907684609387e-01 6.137400018191520035e-01 3.209060138982627319e-01 5.250055832941252429e-03 3.394476844148868189e-01 2.076756586535490612e-01 6.659806397477457951e-01 6.779380832802376355e-01 4.798783364464737078e-01 -2.229532085562254684e-01 2.135857212297773977e-01 6.025496612696621401e-01 6.540333931866394446e-01 3.557813685884791410e-01 2.500026020898989954e-01 3.465806276431573352e-01 3.587244947856927380e-01 4.264636118975134726e-01 4.123083823424635308e-01 3.051193258685435672e-01 3.855680178115492573e-01 -3.462108342104273095e-01 1.604334280652535139e-01 2.980169738781314193e-01 3.253414358646617988e-01 2.071286317131963151e-01 7.244556017772949552e-01 1.237895886683801072e-01 2.632673567191325947e-01 3.287057984803922195e-01 7.263175652416898886e-01 1.916623313365647174e+00 4.786899639176062649e-01 4.719602805380047061e-01 4.809042361399767929e-01 3.111332479860200451e-01 -1.335925738031489063e+00 3.170499944903682477e-01 5.985496355440126370e-01 2.320240272794539482e+00 9.503660402412614228e-02 2.684869083999782413e-01 -3.958537876295890046e-01 1.281221133626835873e-01 2.683881524770465044e-01 -5.765082435904222979e-01 -8.860713005203972870e-01 6.144402619090302275e-01 1.576089494598064356e+00 7.498593854998332475e-02 6.903895114437500480e-01 2.954160947296216033e-01 3.188315512551579967e-01 2.701331008882354445e-01 7.533572511953666728e-01 7.378684855944045440e-01 -2.223562965526708624e-01 -1.733262115497289091e-01 5.485353601050947658e-02 2.589517131195658295e-01 2.147576451446553680e-01 -2.032782680795721525e-02 3.100457956760245271e+00 -2.856226764444722566e-01 1.738841779102952845e-01 1.299027268767534993e-01 8.095639488152683860e-01 2.441084015292745990e-01 4.733472835364200271e-01 1.645774022591372232e-01 4.404741134345217524e-01 -4.846273410756749556e-01 2.129217716271544214e-01 1.917116463530044168e-01 4.318127924298934550e-01 1.063789697968269943e+00 3.039757159634503547e-01 -1.450006211705038739e+00 2.028683849911176174e-01 1.418611377941805252e-01 1.378809246481298656e+00 3.242642048018967160e-01 2.165575991384873777e+00 2.522016748658279517e-01 2.866586258223901007e-01 3.013697676304220030e-01 3.011806872869882690e-01 3.311499353474341989e-01 3.087680472339107696e-01 6.756834831152677134e-01 4.172538656318481864e-01 1.730953674088618610e-01 8.674803239549361278e-01 7.118545335147189457e-01 7.202887951024240509e-01 -3.338346484086723853e-01 2.033759208171325716e-01 3.539793089596983688e-01 3.216907211446768944e-01 2.995669118036176082e-01 2.671406990654334179e-01 3.093973497874494272e-01 6.946988915632800188e-01 -1.469549926002548246e-01 3.189057880235633413e-01 4.458150997916556224e-01 3.987906654205900514e-01 -2.478453378884726555e-01 2.340921197663527187e-02 3.209102359966782281e-01 2.654655105447895069e-01 3.256590896767199705e-01 3.058871412165697912e-01 -2.353069784089426797e+00 4.555786479084034113e-01 -5.951785722758293762e-01 -2.262598289891825099e-01 2.287056451089685138e-01 2.713928317923109401e-01 3.271193567375666467e-01 3.119317886242304882e-01 1.178410196441216223e-01 8.370796409628279700e-02 3.160187691846252367e-01 4.468709333142029116e-01 3.591393513263012038e-01 3.328961788888312179e-01 1.815495870080815477e-01 3.844493159742298424e-03 3.208887222995071564e-01 3.157614501553212549e-01 -2.495889261970777540e+00 6.932851997058007143e-01 6.094439279448250479e-01 9.622305584079314800e-01 -4.562398667291172050e-01 1.171453424579353975e+00 2.761879381912266639e-03 3.068642508299606608e-01 1.235656701412432668e+00 2.994671929763397245e-01 3.078762814510387358e-01 2.602059066480323923e-01 3.675523680785290348e-01 3.020945295063082181e-01 -4.762696652127996755e-01 2.987882918750203731e-01 2.576941716342128763e-01 8.122298568375052596e-01 3.162058872837933965e-01 2.943965028017219709e-01 2.338279467366214670e-01 3.132608284232232809e-01 -1.648438248540583295e+00 2.971622262833890638e-01 2.531711858633705625e-01 3.514077805483894479e-01 7.505632218790479759e-02 2.949734688097516710e-01 3.836214372522861460e-01 1.377407431048179587e-01 -7.841030809620829212e-01 2.531712158731932449e-01 4.687986311649294247e-01 -5.122554523736879695e-01 3.624521844124911074e-01 1.706256985850309327e-01 2.500941294050743613e-01 -3.239516387923202512e+00 4.500460109683978582e-01 9.283226871815501990e-01 3.123746058435900030e-01 3.181849476585112413e-01 3.119276668479009085e-01 3.373991755860452080e-01 3.151981673067907330e-01 3.114566374389207137e-01 3.448813047259460252e-01 1.292589012532380233e-01 6.639355599885976567e-01 1.130750514398475015e-01 5.030891875065333085e-01 4.814825816316870566e-01 3.932239899138817441e-01 -6.654992519956173247e-01 2.278352813002501254e+00 3.925549628845013128e-01 1.238273367927018365e+00 -1.388026717087667672e+00 3.072961640776348258e-01 2.224186056128607536e-01 3.530327408721923854e-01 1.166624225754574251e+00 5.049131346549816657e-01 8.097907882050825457e-01 2.825926632984257503e-01 6.695756820785121466e-01 2.863295102371633538e-01 2.995692263867627547e-01 -1.164881048582781409e+00 3.978839314572402697e-01 3.138463643273297077e-01 4.885409613305643495e-01 8.993929442339162472e-01 -3.578887310969819380e-01 3.138592644764382822e+00 4.906122769863470179e-01 1.254121704312722629e+00 -1.839071610948166957e-01 3.228874154700398513e-01 3.855649433648291047e-01 3.238635672100414475e-01 2.395493799089119247e-01 3.740104171560244550e-01 -1.212612127116248772e-01 1.262472012445531588e-01 5.616358579038313037e-01 2.667018623160796187e-01 9.400613712440415715e-02 2.506353697931419933e-01 4.018415520372784489e-01 4.264635756542831668e-01 2.617072851677209600e-01 3.220330078324088685e+00 3.713880703877442957e-01 6.538752865413426374e-01 5.384862163062875684e-01 2.299874316260089591e-01 4.269633614678747247e-01 3.115824256475938081e-01 2.870185781947271475e-01 3.120475432370622970e-01 -5.545810363895720130e-01 4.527626281141330367e-01 2.853805450160787349e-01 1.299708921163297004e-01 2.798018674460128752e-01 1.530060827301733095e+00 3.047836105297824782e-01 2.966396124499440234e-01 1.992299750587889440e+00 4.993745985979817226e-01 2.887814139916968781e-01 2.645648429550727099e-01 3.338653777306580528e-01 2.129210994666485557e-01 -2.056778450669466185e+00 2.610453636841686964e-01 1.522962215175401424e+00 -3.324824943093523943e-02 3.384517475137743814e-01 6.964872105415289560e-01 2.884271071983593449e-01 -7.202280807477694502e-01 4.142887569528687641e-01 3.078963164679605069e-01 4.457773845994125184e-01 -3.884732378324252666e-01 2.937422821611651025e-01 -2.217887759800507563e+00 4.503741004676759321e-03 2.964841722704134597e-01 6.029234822906263114e-01 3.152185051504866053e-01 3.107936940483757016e-01 4.757719363995207562e-01 1.964865560357768048e-01 -1.090779357989796472e-01 -7.618577077898498473e-01 1.769344070649659251e-03 6.860602026674633702e-01 3.254686040520085588e-01 4.985152808608690478e-01 2.943461739536576971e-01 5.035326015547822269e-03 3.045582522015479743e-01 2.432545187945577947e+00 6.925746054922827799e-01 2.468136719030017689e-01 -1.152820456165678520e+00 2.228977718727447599e-01 4.662124080488009525e+00 3.572517697632729416e-01 -1.444028917147339441e-01 5.699755806504580580e-01 -5.558613730906693640e+00 5.137672044429009155e-01 1.541510800844042128e+00 3.108608465240881857e-01 5.351802961323424146e-01 -4.418092933358770402e-01 4.156024018335410242e-01 3.217106455176731439e-01 2.809325765339208414e-01 2.371022656459519928e-01 2.916136781960457558e+00 -3.706070558131209780e-01 3.151553631326514116e-01 -1.910343960869033131e+00 3.166138722998388388e-01 -3.570159980760650997e-01 7.477015549347159062e-01 5.339355503340074138e-01 2.801224667351557840e-01 2.990189222057402230e-01 1.277731564122049690e+00 1.422863453103518638e-01 2.531713042750717291e-01 3.978779437272910169e-01 1.377407434383071116e-01 2.955401722323703351e-01 3.937665682823313640e-01 -6.087598864081029681e-01 3.096358346459434641e-01 5.492973856054381709e-01 3.841326976944667293e-01 1.668424998110208946e-01 3.098831987929087095e-01 4.794482139941508847e-01 5.339355499097679925e-01 4.264932059695941136e-01 3.087484608474583281e-01 1.888873049342328359e-01 4.249240174447041496e-01 3.395698383415413080e+00 3.034367392108586747e-01 1.414580967217852481e-01 4.264625033174942459e-01 8.476186783198231822e-01 4.664625278507935624e-01 -1.936139582283855631e-01 6.837917143313353430e-01 3.043567591196775779e-01 1.170319351285844245e-01 4.027915941946078049e-01 6.663906622662197909e-01 6.129081715244936168e-01 7.821923645591373209e-01 8.130898012132631303e-01 3.695476592143129846e-01 1.377407432128576470e-01 1.377407732014826192e-01 2.403509665903231507e-01 1.483015588429746345e-01 1.120008287575249062e+00 4.044446773851386734e-01 3.210563161162411916e-01 3.365254897841792880e-01 3.144164101325746530e-01 7.707201288377005799e-01 2.531712110835562246e-01 3.095531911781035928e-01 4.426323849080384121e-01 2.619180818907773101e-01 -6.340630525117034733e-01 3.029555564710249005e-01 3.072528577129082783e-01 3.781362261930888979e-01 6.934310494278951298e-01 7.192961374386473983e-01 1.377407437216543462e-01 7.713214546864446963e-02 3.109410480100910923e-01 4.757089725256699042e-01 -5.913664404468875757e-01 1.931121198524743954e-01 -3.497137679995072634e+00 1.952384954176477727e+00 6.339667137925123486e-01 -4.565852010128850780e-01 5.493620605078054775e-03 2.047098458767795393e+00 3.108185461521669746e-01 6.389210489098953172e-01 2.398577177515901979e-03 3.339992192484182998e-01 4.361546693343698045e-01 3.073027710316693084e-01 -4.698021733633837571e-01 2.797727712348356821e-01 2.050924394868967937e+00 3.431988580747771245e-01 -4.219846558868844411e-01 3.306839084684964902e-01 3.194616317385037263e-01 -1.452435467914941380e+00 3.255931952506641025e-01 3.596831585258791764e-01 4.030535422178592730e-01 1.665033312987250214e-01 3.128631888249410742e-01 2.148690338467482142e-01 3.251250973573354686e-01 -1.609157351808674363e-01 3.234751172250034390e-01 1.131371173710514072e-01 3.231203738872889253e-01 3.096113379378243047e-01 1.645234213592865549e-02 4.177301109558965164e-01 5.812516189952794399e-01 -1.379495423413607647e+00 -5.606082613229341760e-01 -1.103638190970687716e-01 8.616120679059115217e-02 2.497467724840991832e-01 4.290573317305308998e-01 3.623301709212507493e-01 7.308376559058706867e-01 -1.210174091629738213e-01 3.053648357315067452e-01 3.266549869061521894e-01 9.315699154494222478e-02 -1.605867355345471092e-01 3.227589196761144752e-01 4.535605116235103540e-01 4.793689407478040621e-01 3.114274953297322956e-01 2.635455703984706521e-01 3.179108780323490757e-01 2.545070126568290680e-01 3.132220254861707853e-01 5.055491203366899722e-01 4.110467865977054935e-01 3.120307255054387552e-01 6.829452016176421614e-01 3.309478081980763431e-01 7.353492963438572616e-01 5.259155160607258128e-02 5.228761824850971518e-01 2.408157102487684387e-01 -1.446184091703374364e+00 3.101102656343263653e-01 6.448085605992084357e-01 3.739287693731748186e-01 2.986160932507687660e-01 2.569203473556969097e-01 2.160960700228244102e-01 6.872272050643446484e-01 3.174032035418924980e-01 3.905225014788366034e-01 3.121142612958265339e-01 2.832152876735983815e-01 2.038924373514493515e-01 5.101339398373466727e-01 2.906959582740317738e-01 2.302159266735639143e-01 1.282574677306521915e-01 6.017327297356585281e-02 1.631332310359831617e+00 2.460927504184072800e-01 3.668887866587974833e-01 3.800709039443471715e-01 -8.390327513652084956e-01 3.944761769245841987e-01 2.919885341050197369e-01 4.585300443465573639e-01 -3.370108238501553360e-02 3.135727367152102985e-01 1.576538209744076102e+00 8.899460444814488724e-01 4.270723227139355260e-01 3.087647644895851196e-01 3.606999336311390025e-01 3.358789643200282837e-01 9.184637210902616422e-01 3.025264597269443634e+00 3.102974646842747153e-01 3.833996120808881580e-02 5.918186343381569570e-01 -1.945907991345559862e-01 3.137557001994731309e-01 3.110078570674627008e-01 1.066766879257151190e+00 3.118140452916616234e-01 -3.218662896998487066e-01 3.778710963143108725e-01 1.235543147674525027e-01 6.468681421187234548e-01 1.752250687974632903e+00 2.981063399912156076e-01 2.533714053268973920e-01 1.655454375250126509e+00 4.046717321172736970e-01 3.297796096974414115e-01 2.064226742377730517e-01 2.791531179244933214e-01 5.644700181172397288e-03 4.866152439845502498e-01 2.388525259901959907e-01 7.300691856912879807e-01 2.669637500514883688e-01 2.741395221672867089e-01 3.050027905181794119e-01 4.455022814308448043e-01 3.245350347648419675e-01 2.568400070553937264e-01 9.069353676757176963e-01 5.077560200876247709e-01 4.495626829618690756e-01 2.669431300248799044e-01 2.800620864802925714e-01 3.034469353299160121e-01 5.869730083285917832e-01 7.709628266080772452e-01 3.532951177341449589e-01 2.946657227004780277e-01 4.933536037059066404e-01 3.111492126269597147e-01 7.288909852482836627e-01 2.356099252240352049e-01 4.553878903855715365e-01 -3.150195779148390884e-01 3.129343008207701171e-01 2.953239011345478171e-01 4.250755793737813759e-01 2.902502388844517833e-01 2.669378749539299545e-01 1.776106969284554582e+00 7.823918175806106323e-02 2.668702765367736984e-01 -1.766075192129234750e-01 1.632639306617069241e+00 1.147464646695757207e+00 4.973365662852405333e-02 -4.565669754777469946e-01 4.062468118060382216e-01 3.553345979887383987e-01 5.130432606329080603e-01 3.096166877788404936e-01 3.092992085907645405e-01 1.982052715742139148e-01 3.428661483520474285e-01 3.719781240133257505e-01 5.770757944740250930e-03 -1.992905302727958350e-01 3.691028150303784505e-01 3.037658282395196974e-01 2.146325244804467569e-01 8.663989201583137678e-01 4.264635934354625291e-01 2.422157560446467905e-01 8.390012695556881006e-01 4.759608255901404128e-01 6.142627459700004122e-01 4.584697338222936125e-01 6.907661412209629148e-01 1.468128559081814277e+00 3.347087291066886405e-01 2.071240329113552825e+00 -2.244098793584810986e-02 1.417528237339328590e-01 3.105030022555110292e-01 2.587498034633540223e-01 3.433850748514987727e-01 3.328712361613217485e-01 3.097250721444275712e-01 3.103373580569920298e-01 3.597848153747261746e-01 1.902278278999154915e-01 -3.092792859615990375e-01 2.469048059944911055e-01 -7.499445372866413162e-02 3.176096283158326150e-01 4.457071306654604714e-01 4.264635934135906914e-01 2.098720602737652319e-01 1.995845421786749951e-01 -1.229841154880690457e+00 1.948333877577540729e+00 3.124408065616998686e-01 -7.178643489285458923e-01 2.975287685711202057e-01 3.081581817250013122e-01 3.148724188936847801e-01 -4.742324204450274472e+00 3.511920395134050743e+00 6.248298394480487072e-01 7.122974212515249814e-02 3.135261237942845725e-01 3.137314650653999504e-01 2.918726132355812797e-01 2.602033373104765346e+00 6.207798255947590826e-01 3.197097182058549203e-01 2.129215487852929301e-01 2.669199061181846688e-01 2.606258620554310346e-01 8.675400895860639894e-01 -3.771676904059389490e-01 -1.173219092698235988e+00 -1.205211948216697637e+00 3.101473512829742152e-01 3.164569170406364429e-01 7.181299448318232415e-01 3.616908956600473624e-01 1.357919791008335597e+00 4.731875246211254549e-01 3.145886996691016346e-01 3.028376394284086892e-01 3.339688087199678690e-01 2.996573724850559728e-01 3.157805233868051231e-01 6.485821727337250930e-01 2.736381221506373196e-01 6.537385135296870375e-01 2.225428637270312759e-01 3.367554155949499528e-02 3.156035999535960479e-01 1.903749789183459828e-01 3.559753773809637423e-01 2.896967551639231808e-01 6.641322779057274861e-01 5.339355275358965702e-01 4.175524261577848728e-01 3.508637517165397735e-01 3.134177506004195424e-01 2.621151250040739678e-01 1.576513804768321370e+00 1.867574999863849339e+00 3.165509123449848916e-01 3.682508063402986087e-01 3.137028443533441124e-01 1.629753793130898631e-01 2.318293362989114759e-01 2.700747302351046986e-01 2.879662943006440767e-01 3.232230741875971036e-01 7.964864546077047303e-01 8.763536053587714925e-01 2.331409767606895944e-01 1.855605929857403469e+00 2.458242136768923891e-01 -1.996600323579251490e-01 -2.729105494288096567e-01 -3.163717892681017219e-01 3.122792391069068030e-01 2.603784993370539813e-01 7.083438969909993110e-01 3.069529293319465113e-01 4.589884712574822667e-01 2.903312701921466066e-01 3.702230812164898910e-01 3.873433288824061349e-01 1.822911860879171311e-03 1.019688269846628970e+00 3.293290418862563906e-01 4.452687610117253558e-01 3.087126014777324956e-01 3.605788755478323004e-01 3.081185788131364234e-01 3.903934463032138202e-01 -1.047769204499117007e-01 2.229597014935886246e-01 3.289274406709148946e-01 5.026684418479341471e-03 4.264638659008939126e-01 1.111281841448573227e+00 9.534826028482610294e-01 -7.320390520702407811e-01 -3.570160025734326337e-01 6.516554808637443630e-01 -3.298959461283500705e+00 1.564451821616893001e+00 2.646786706777036757e-01 5.417304633400510383e-03 3.139287452368297315e-01 8.828825986042813101e-01 3.154376048008598610e-01 3.978836385666952857e-01 -4.364229557607198218e-01 8.258109117897516338e-01 2.805820558444727109e-01 8.809681785216805228e-01 2.078063738235078617e+00 -3.771613202350790894e-01 -1.449374846618286972e+00 2.440383160556774678e-01 3.198221369006564729e-01 7.678339098040850574e-01 3.451296090862895349e-01 7.041185803447486125e-01 4.691034123957983359e-01 1.957684660594142534e-01 3.155472273294687713e-01 3.080174712957999272e-01 2.280550215312915630e-01 3.222217701182261140e-01 1.397957431746101653e+00 1.615554005837034568e+00 3.170629683105634644e-01 2.682509138835749707e-01 9.612317984257455483e-02 -2.407900728717276839e-01 2.086433327823245809e-01 -1.467006571987866832e-02 3.153844084356829947e-01 7.067841678888689971e-01 -4.689218923332378330e-01 2.808766243195446877e-01 2.980838440894338359e-01 1.535625438498370021e-01 3.273441390646801841e-01 2.387008692650473274e-01 3.132556962349401508e-01 3.141675559512647209e-01 -1.659205452783375431e-03 2.664956822799441905e-01 4.385309660779180829e-01 1.114323789422284605e+00 1.102056912221949903e+00 9.312786649471848088e-01 1.956171387581572552e-01 7.787422064118401099e-01 1.366168731773333700e-01 4.734911785798097683e-01 -2.102554808630133110e+00 3.039311864573175925e-01 6.549617140794179448e-01 2.766054871777520741e-01 9.552258630395710215e-01 1.364351074307623257e+00 2.129217726122155652e-01 2.722455486800118285e-01 3.735527319673938584e-01 3.003174459025622633e-01 5.528010220938955888e-01 8.651014022509295742e-01 -7.736229723903194078e-01 1.717285647344114763e-01 8.650187766843978054e-02 3.205817910317698693e-01 3.424757329971706010e-01 7.708097201631114448e-01 -2.003424529540029642e-01 3.963166482408356783e-01 3.040974282630629077e-01 3.349725638228980840e-01 8.895362423956268971e-01 4.264591995349215625e-01 -2.103275844784658899e-01 8.593189312851150508e-01 -4.593170245618113934e-02 5.720825953488039017e-01 2.602777035022443286e-01 1.281981163245757394e+00 5.692259064796441059e-01 7.308601594218274711e-01 4.387495429565209659e-01 4.857624874985430052e-01 -5.428382248832354096e-01 2.570549836297544855e-01 7.629070189768569765e-01 3.160830004848129704e-01 6.310354764433214747e-01 2.590568692645766058e-01 3.083556560490585130e-01 7.287381418900004126e-01 1.382587887514328262e-01 -2.037937170670752529e+00 2.325301052597825158e-01 2.712803667924689743e-01 8.140793693207393211e-01 3.924830334726072678e-01 4.044899727247172616e-01 3.311604124220394185e-01 2.865557133382714006e-01 3.799132856752154841e-01 5.401498808894279746e-02 -1.617152492196652469e+00 7.512028038512426065e-01 2.556731708105380307e-01 3.305988775215797371e-01 1.997509540686596141e-01 8.230014968253317464e-01 3.106852559775225564e-01 -1.401015035778283568e-01 3.270048102921883082e-01 1.118800629681525827e+00 2.702349484834560833e-01 4.152762437350550062e-01 1.056877555333656460e+00 3.647744615667904422e-01 2.760488171304988025e+00 3.389828809958607692e-01 3.210763810562843323e-01 6.931750111153008875e-01 2.966925151649645320e-01 3.115887240892451504e-01 -2.077039050547324184e+00 4.152023898312457995e-01 3.306639183750532673e-01 5.148389107959497890e-01 3.205429352758349948e-01 2.366419171946596289e-01 -2.177358033898929290e-01 2.042161241692215246e+00 -5.199815774182746653e-01 8.287123507960576507e-01 3.122720256789173199e-01 3.331788261094236758e-01 7.950652566418815459e-01 3.629109762463517130e-01 1.327236213333292003e+00 1.846098833884244061e-01 3.248106648971246790e-01 -8.819631921472180780e-01 -1.328801410158067242e-01 -3.972950640207894013e-01 -3.911053556705055723e+00 2.934880042223933394e+00 4.655109120763326058e-02 3.239674629841809983e-01 -1.614518632917108620e+00 3.139210020386336564e-01 3.000999765843474498e-01 2.800853173423806242e-01 1.536428606402663599e-01 6.397538701779188486e-01 5.969010379247301490e-01 1.027923153702346104e+00 -3.570160044820812617e-01 -2.228293372988827681e-01 2.161024557273471536e-01 -1.182702649856956834e+00 2.704630169200902823e-01 -6.409440562749059156e-01 2.889305182212257295e-01 4.668575573654156208e-01 6.564787211585598747e-02 4.405057410750288782e-01 2.690695479928677525e-01 -7.565323916486668687e-02 2.105297555426708656e-01 2.957671218836062654e-01 3.592285157367800519e-01 3.018375430362343348e-01 3.149498328771762612e-01 -7.321245723909963754e-01 5.392229577724579892e-01 1.534570232179617300e+00 6.302197439409042146e-02 2.395167702251796427e-01 3.767047698412328005e-01 1.210518324663898637e+00 3.216943064518635320e-01 1.330942551573434940e-01 8.935106019992469228e-01 2.913202530284504377e-01 1.852311374604668659e+00 3.004664210018382908e-01 1.254771968329128962e+00 3.273862951245883335e-01 7.365465775518986735e-01 1.347779056891594385e+00 3.317926276554721832e-01 3.940856400357531930e-01 9.230775118252108058e-01 -1.881110122511475136e-01 -5.594027860230609689e-02 1.913132391993613290e-01 2.995002105694931083e-01 3.524687804501036581e-01 1.427164343153123627e-01 1.834830545905809518e-01 -3.629917746199988748e-01 1.292566620929559873e+00 2.782045820650728141e-01 3.113532252425966207e-01 -3.155424287335558464e+00 5.195793593065980431e-01 3.225441836540805518e-01 4.281123312891065291e-01 4.182951388981467900e-01 4.841537837981467196e-01 -1.071024482043333670e+00 6.127303284920162518e-01 2.791101105294565565e-01 3.049603521189602207e-01 1.034645184471347346e+00 4.542330428426081812e-01 3.072366008328638598e-01 -1.395929829772834196e+00 4.194402895022545930e-01 8.894320587811485046e-01 2.928985826958889760e-01 3.228244446862407746e-01 3.608255831440446704e-01 7.090207290492885894e-01 -7.178700245253427648e-02 3.098663727548160440e-01 3.074206522707137457e-01 7.861889688994663783e-02 6.798504731663231881e-01 3.343312963992460807e-01 7.218784018856462259e-01 1.710260130589803251e-01 6.881861202082637519e-01 -2.240857690144542336e-01 -1.505366045013190712e+00 3.216895103242984888e-01 -1.722517084511973259e-02 3.352010257813029526e-01 3.758915629676563008e-01 5.465431934798888752e-02 5.339355530312982490e-01 3.044414239347425499e-01 8.446092938074635514e-02 4.526904870667751712e-01 2.483151504161317247e-01 3.276110058811476100e-01 2.722155400975782569e-01 -8.277990284125276155e-01 3.181844882239405203e-01 3.435726731300068892e-01 3.070872030617269877e-01 -1.874346446933860544e-01 3.117588966077837198e-01 8.111045598546557933e-01 -5.394548411133449628e-01 1.107517205111481440e+00 6.087120362321747358e-01 2.467596207932526153e-01 3.104522361143283171e-01 -2.035979429863452150e+00 3.317613670446603047e-01 1.922359709052883225e-01 2.528595341005100416e-01 5.339355465653075061e-01 3.099509684640640583e-01 2.781458186840881086e-01 8.873160384528938627e-02 3.147388211630387511e-01 4.360756449148077696e-01 3.928141675517984321e-01 3.249232711409902330e-01 2.948882107546459408e-01 3.106304182646269507e-01 3.084309480878777432e-01 2.671172630920709001e-01 5.366544607724751947e-02 3.116911569983489283e-01 6.078759098076640388e-01 1.986792124149959204e-01 3.239921011634955272e-01 -1.320236575737757934e-01 1.528255483557017236e-01 5.591064088448054470e-01 4.427435844028565270e+00 3.277961053771972222e-01 1.042346703962830912e-01 5.445859545231210852e-01 1.977934692308518927e-01 1.545872271126821129e+00 3.565239134076658156e-01 6.506215801330050841e-01 3.074654330660552826e-01
