# 
#                 ----------------------------------------------------
#                 Data from a 3D direct N-body simulation. 
# 
#                 rows are i-particle; 
#                 coumns are :mass, tag, x ,y, z, vx, vy, vz, ax, ay, az
# 
#                 NTHU, Computational Physics 
# 
#                 ----------------------------------------------------
#                 Time = 0.0
0.000000000000000000e+00 1.000000000000000000e+00 2.000000000000000000e+00 3.000000000000000000e+00 4.000000000000000000e+00 5.000000000000000000e+00 6.000000000000000000e+00 7.000000000000000000e+00 8.000000000000000000e+00 9.000000000000000000e+00 1.000000000000000000e+01 1.100000000000000000e+01 1.200000000000000000e+01 1.300000000000000000e+01 1.400000000000000000e+01 1.500000000000000000e+01 1.600000000000000000e+01 1.700000000000000000e+01 1.800000000000000000e+01 1.900000000000000000e+01 2.000000000000000000e+01 2.100000000000000000e+01 2.200000000000000000e+01 2.300000000000000000e+01 2.400000000000000000e+01 2.500000000000000000e+01 2.600000000000000000e+01 2.700000000000000000e+01 2.800000000000000000e+01 2.900000000000000000e+01 3.000000000000000000e+01 3.100000000000000000e+01 3.200000000000000000e+01 3.300000000000000000e+01 3.400000000000000000e+01 3.500000000000000000e+01 3.600000000000000000e+01 3.700000000000000000e+01 3.800000000000000000e+01 3.900000000000000000e+01 4.000000000000000000e+01 4.100000000000000000e+01 4.200000000000000000e+01 4.300000000000000000e+01 4.400000000000000000e+01 4.500000000000000000e+01 4.600000000000000000e+01 4.700000000000000000e+01 4.800000000000000000e+01 4.900000000000000000e+01 5.000000000000000000e+01 5.100000000000000000e+01 5.200000000000000000e+01 5.300000000000000000e+01 5.400000000000000000e+01 5.500000000000000000e+01 5.600000000000000000e+01 5.700000000000000000e+01 5.800000000000000000e+01 5.900000000000000000e+01 6.000000000000000000e+01 6.100000000000000000e+01 6.200000000000000000e+01 6.300000000000000000e+01 6.400000000000000000e+01 6.500000000000000000e+01 6.600000000000000000e+01 6.700000000000000000e+01 6.800000000000000000e+01 6.900000000000000000e+01 7.000000000000000000e+01 7.100000000000000000e+01 7.200000000000000000e+01 7.300000000000000000e+01 7.400000000000000000e+01 7.500000000000000000e+01 7.600000000000000000e+01 7.700000000000000000e+01 7.800000000000000000e+01 7.900000000000000000e+01 8.000000000000000000e+01 8.100000000000000000e+01 8.200000000000000000e+01 8.300000000000000000e+01 8.400000000000000000e+01 8.500000000000000000e+01 8.600000000000000000e+01 8.700000000000000000e+01 8.800000000000000000e+01 8.900000000000000000e+01 9.000000000000000000e+01 9.100000000000000000e+01 9.200000000000000000e+01 9.300000000000000000e+01 9.400000000000000000e+01 9.500000000000000000e+01 9.600000000000000000e+01 9.700000000000000000e+01 9.800000000000000000e+01 9.900000000000000000e+01 1.000000000000000000e+02 1.010000000000000000e+02 1.020000000000000000e+02 1.030000000000000000e+02 1.040000000000000000e+02 1.050000000000000000e+02 1.060000000000000000e+02 1.070000000000000000e+02 1.080000000000000000e+02 1.090000000000000000e+02 1.100000000000000000e+02 1.110000000000000000e+02 1.120000000000000000e+02 1.130000000000000000e+02 1.140000000000000000e+02 1.150000000000000000e+02 1.160000000000000000e+02 1.170000000000000000e+02 1.180000000000000000e+02 1.190000000000000000e+02 1.200000000000000000e+02 1.210000000000000000e+02 1.220000000000000000e+02 1.230000000000000000e+02 1.240000000000000000e+02 1.250000000000000000e+02 1.260000000000000000e+02 1.270000000000000000e+02 1.280000000000000000e+02 1.290000000000000000e+02 1.300000000000000000e+02 1.310000000000000000e+02 1.320000000000000000e+02 1.330000000000000000e+02 1.340000000000000000e+02 1.350000000000000000e+02 1.360000000000000000e+02 1.370000000000000000e+02 1.380000000000000000e+02 1.390000000000000000e+02 1.400000000000000000e+02 1.410000000000000000e+02 1.420000000000000000e+02 1.430000000000000000e+02 1.440000000000000000e+02 1.450000000000000000e+02 1.460000000000000000e+02 1.470000000000000000e+02 1.480000000000000000e+02 1.490000000000000000e+02 1.500000000000000000e+02 1.510000000000000000e+02 1.520000000000000000e+02 1.530000000000000000e+02 1.540000000000000000e+02 1.550000000000000000e+02 1.560000000000000000e+02 1.570000000000000000e+02 1.580000000000000000e+02 1.590000000000000000e+02 1.600000000000000000e+02 1.610000000000000000e+02 1.620000000000000000e+02 1.630000000000000000e+02 1.640000000000000000e+02 1.650000000000000000e+02 1.660000000000000000e+02 1.670000000000000000e+02 1.680000000000000000e+02 1.690000000000000000e+02 1.700000000000000000e+02 1.710000000000000000e+02 1.720000000000000000e+02 1.730000000000000000e+02 1.740000000000000000e+02 1.750000000000000000e+02 1.760000000000000000e+02 1.770000000000000000e+02 1.780000000000000000e+02 1.790000000000000000e+02 1.800000000000000000e+02 1.810000000000000000e+02 1.820000000000000000e+02 1.830000000000000000e+02 1.840000000000000000e+02 1.850000000000000000e+02 1.860000000000000000e+02 1.870000000000000000e+02 1.880000000000000000e+02 1.890000000000000000e+02 1.900000000000000000e+02 1.910000000000000000e+02 1.920000000000000000e+02 1.930000000000000000e+02 1.940000000000000000e+02 1.950000000000000000e+02 1.960000000000000000e+02 1.970000000000000000e+02 1.980000000000000000e+02 1.990000000000000000e+02 2.000000000000000000e+02 2.010000000000000000e+02 2.020000000000000000e+02 2.030000000000000000e+02 2.040000000000000000e+02 2.050000000000000000e+02 2.060000000000000000e+02 2.070000000000000000e+02 2.080000000000000000e+02 2.090000000000000000e+02 2.100000000000000000e+02 2.110000000000000000e+02 2.120000000000000000e+02 2.130000000000000000e+02 2.140000000000000000e+02 2.150000000000000000e+02 2.160000000000000000e+02 2.170000000000000000e+02 2.180000000000000000e+02 2.190000000000000000e+02 2.200000000000000000e+02 2.210000000000000000e+02 2.220000000000000000e+02 2.230000000000000000e+02 2.240000000000000000e+02 2.250000000000000000e+02 2.260000000000000000e+02 2.270000000000000000e+02 2.280000000000000000e+02 2.290000000000000000e+02 2.300000000000000000e+02 2.310000000000000000e+02 2.320000000000000000e+02 2.330000000000000000e+02 2.340000000000000000e+02 2.350000000000000000e+02 2.360000000000000000e+02 2.370000000000000000e+02 2.380000000000000000e+02 2.390000000000000000e+02 2.400000000000000000e+02 2.410000000000000000e+02 2.420000000000000000e+02 2.430000000000000000e+02 2.440000000000000000e+02 2.450000000000000000e+02 2.460000000000000000e+02 2.470000000000000000e+02 2.480000000000000000e+02 2.490000000000000000e+02 2.500000000000000000e+02 2.510000000000000000e+02 2.520000000000000000e+02 2.530000000000000000e+02 2.540000000000000000e+02 2.550000000000000000e+02 2.560000000000000000e+02 2.570000000000000000e+02 2.580000000000000000e+02 2.590000000000000000e+02 2.600000000000000000e+02 2.610000000000000000e+02 2.620000000000000000e+02 2.630000000000000000e+02 2.640000000000000000e+02 2.650000000000000000e+02 2.660000000000000000e+02 2.670000000000000000e+02 2.680000000000000000e+02 2.690000000000000000e+02 2.700000000000000000e+02 2.710000000000000000e+02 2.720000000000000000e+02 2.730000000000000000e+02 2.740000000000000000e+02 2.750000000000000000e+02 2.760000000000000000e+02 2.770000000000000000e+02 2.780000000000000000e+02 2.790000000000000000e+02 2.800000000000000000e+02 2.810000000000000000e+02 2.820000000000000000e+02 2.830000000000000000e+02 2.840000000000000000e+02 2.850000000000000000e+02 2.860000000000000000e+02 2.870000000000000000e+02 2.880000000000000000e+02 2.890000000000000000e+02 2.900000000000000000e+02 2.910000000000000000e+02 2.920000000000000000e+02 2.930000000000000000e+02 2.940000000000000000e+02 2.950000000000000000e+02 2.960000000000000000e+02 2.970000000000000000e+02 2.980000000000000000e+02 2.990000000000000000e+02 3.000000000000000000e+02 3.010000000000000000e+02 3.020000000000000000e+02 3.030000000000000000e+02 3.040000000000000000e+02 3.050000000000000000e+02 3.060000000000000000e+02 3.070000000000000000e+02 3.080000000000000000e+02 3.090000000000000000e+02 3.100000000000000000e+02 3.110000000000000000e+02 3.120000000000000000e+02 3.130000000000000000e+02 3.140000000000000000e+02 3.150000000000000000e+02 3.160000000000000000e+02 3.170000000000000000e+02 3.180000000000000000e+02 3.190000000000000000e+02 3.200000000000000000e+02 3.210000000000000000e+02 3.220000000000000000e+02 3.230000000000000000e+02 3.240000000000000000e+02 3.250000000000000000e+02 3.260000000000000000e+02 3.270000000000000000e+02 3.280000000000000000e+02 3.290000000000000000e+02 3.300000000000000000e+02 3.310000000000000000e+02 3.320000000000000000e+02 3.330000000000000000e+02 3.340000000000000000e+02 3.350000000000000000e+02 3.360000000000000000e+02 3.370000000000000000e+02 3.380000000000000000e+02 3.390000000000000000e+02 3.400000000000000000e+02 3.410000000000000000e+02 3.420000000000000000e+02 3.430000000000000000e+02 3.440000000000000000e+02 3.450000000000000000e+02 3.460000000000000000e+02 3.470000000000000000e+02 3.480000000000000000e+02 3.490000000000000000e+02 3.500000000000000000e+02 3.510000000000000000e+02 3.520000000000000000e+02 3.530000000000000000e+02 3.540000000000000000e+02 3.550000000000000000e+02 3.560000000000000000e+02 3.570000000000000000e+02 3.580000000000000000e+02 3.590000000000000000e+02 3.600000000000000000e+02 3.610000000000000000e+02 3.620000000000000000e+02 3.630000000000000000e+02 3.640000000000000000e+02 3.650000000000000000e+02 3.660000000000000000e+02 3.670000000000000000e+02 3.680000000000000000e+02 3.690000000000000000e+02 3.700000000000000000e+02 3.710000000000000000e+02 3.720000000000000000e+02 3.730000000000000000e+02 3.740000000000000000e+02 3.750000000000000000e+02 3.760000000000000000e+02 3.770000000000000000e+02 3.780000000000000000e+02 3.790000000000000000e+02 3.800000000000000000e+02 3.810000000000000000e+02 3.820000000000000000e+02 3.830000000000000000e+02 3.840000000000000000e+02 3.850000000000000000e+02 3.860000000000000000e+02 3.870000000000000000e+02 3.880000000000000000e+02 3.890000000000000000e+02 3.900000000000000000e+02 3.910000000000000000e+02 3.920000000000000000e+02 3.930000000000000000e+02 3.940000000000000000e+02 3.950000000000000000e+02 3.960000000000000000e+02 3.970000000000000000e+02 3.980000000000000000e+02 3.990000000000000000e+02 4.000000000000000000e+02 4.010000000000000000e+02 4.020000000000000000e+02 4.030000000000000000e+02 4.040000000000000000e+02 4.050000000000000000e+02 4.060000000000000000e+02 4.070000000000000000e+02 4.080000000000000000e+02 4.090000000000000000e+02 4.100000000000000000e+02 4.110000000000000000e+02 4.120000000000000000e+02 4.130000000000000000e+02 4.140000000000000000e+02 4.150000000000000000e+02 4.160000000000000000e+02 4.170000000000000000e+02 4.180000000000000000e+02 4.190000000000000000e+02 4.200000000000000000e+02 4.210000000000000000e+02 4.220000000000000000e+02 4.230000000000000000e+02 4.240000000000000000e+02 4.250000000000000000e+02 4.260000000000000000e+02 4.270000000000000000e+02 4.280000000000000000e+02 4.290000000000000000e+02 4.300000000000000000e+02 4.310000000000000000e+02 4.320000000000000000e+02 4.330000000000000000e+02 4.340000000000000000e+02 4.350000000000000000e+02 4.360000000000000000e+02 4.370000000000000000e+02 4.380000000000000000e+02 4.390000000000000000e+02 4.400000000000000000e+02 4.410000000000000000e+02 4.420000000000000000e+02 4.430000000000000000e+02 4.440000000000000000e+02 4.450000000000000000e+02 4.460000000000000000e+02 4.470000000000000000e+02 4.480000000000000000e+02 4.490000000000000000e+02 4.500000000000000000e+02 4.510000000000000000e+02 4.520000000000000000e+02 4.530000000000000000e+02 4.540000000000000000e+02 4.550000000000000000e+02 4.560000000000000000e+02 4.570000000000000000e+02 4.580000000000000000e+02 4.590000000000000000e+02 4.600000000000000000e+02 4.610000000000000000e+02 4.620000000000000000e+02 4.630000000000000000e+02 4.640000000000000000e+02 4.650000000000000000e+02 4.660000000000000000e+02 4.670000000000000000e+02 4.680000000000000000e+02 4.690000000000000000e+02 4.700000000000000000e+02 4.710000000000000000e+02 4.720000000000000000e+02 4.730000000000000000e+02 4.740000000000000000e+02 4.750000000000000000e+02 4.760000000000000000e+02 4.770000000000000000e+02 4.780000000000000000e+02 4.790000000000000000e+02 4.800000000000000000e+02 4.810000000000000000e+02 4.820000000000000000e+02 4.830000000000000000e+02 4.840000000000000000e+02 4.850000000000000000e+02 4.860000000000000000e+02 4.870000000000000000e+02 4.880000000000000000e+02 4.890000000000000000e+02 4.900000000000000000e+02 4.910000000000000000e+02 4.920000000000000000e+02 4.930000000000000000e+02 4.940000000000000000e+02 4.950000000000000000e+02 4.960000000000000000e+02 4.970000000000000000e+02 4.980000000000000000e+02 4.990000000000000000e+02 5.000000000000000000e+02 5.010000000000000000e+02 5.020000000000000000e+02 5.030000000000000000e+02 5.040000000000000000e+02 5.050000000000000000e+02 5.060000000000000000e+02 5.070000000000000000e+02 5.080000000000000000e+02 5.090000000000000000e+02 5.100000000000000000e+02 5.110000000000000000e+02 5.120000000000000000e+02 5.130000000000000000e+02 5.140000000000000000e+02 5.150000000000000000e+02 5.160000000000000000e+02 5.170000000000000000e+02 5.180000000000000000e+02 5.190000000000000000e+02 5.200000000000000000e+02 5.210000000000000000e+02 5.220000000000000000e+02 5.230000000000000000e+02 5.240000000000000000e+02 5.250000000000000000e+02 5.260000000000000000e+02 5.270000000000000000e+02 5.280000000000000000e+02 5.290000000000000000e+02 5.300000000000000000e+02 5.310000000000000000e+02 5.320000000000000000e+02 5.330000000000000000e+02 5.340000000000000000e+02 5.350000000000000000e+02 5.360000000000000000e+02 5.370000000000000000e+02 5.380000000000000000e+02 5.390000000000000000e+02 5.400000000000000000e+02 5.410000000000000000e+02 5.420000000000000000e+02 5.430000000000000000e+02 5.440000000000000000e+02 5.450000000000000000e+02 5.460000000000000000e+02 5.470000000000000000e+02 5.480000000000000000e+02 5.490000000000000000e+02 5.500000000000000000e+02 5.510000000000000000e+02 5.520000000000000000e+02 5.530000000000000000e+02 5.540000000000000000e+02 5.550000000000000000e+02 5.560000000000000000e+02 5.570000000000000000e+02 5.580000000000000000e+02 5.590000000000000000e+02 5.600000000000000000e+02 5.610000000000000000e+02 5.620000000000000000e+02 5.630000000000000000e+02 5.640000000000000000e+02 5.650000000000000000e+02 5.660000000000000000e+02 5.670000000000000000e+02 5.680000000000000000e+02 5.690000000000000000e+02 5.700000000000000000e+02 5.710000000000000000e+02 5.720000000000000000e+02 5.730000000000000000e+02 5.740000000000000000e+02 5.750000000000000000e+02 5.760000000000000000e+02 5.770000000000000000e+02 5.780000000000000000e+02 5.790000000000000000e+02 5.800000000000000000e+02 5.810000000000000000e+02 5.820000000000000000e+02 5.830000000000000000e+02 5.840000000000000000e+02 5.850000000000000000e+02 5.860000000000000000e+02 5.870000000000000000e+02 5.880000000000000000e+02 5.890000000000000000e+02 5.900000000000000000e+02 5.910000000000000000e+02 5.920000000000000000e+02 5.930000000000000000e+02 5.940000000000000000e+02 5.950000000000000000e+02 5.960000000000000000e+02 5.970000000000000000e+02 5.980000000000000000e+02 5.990000000000000000e+02 6.000000000000000000e+02 6.010000000000000000e+02 6.020000000000000000e+02 6.030000000000000000e+02 6.040000000000000000e+02 6.050000000000000000e+02 6.060000000000000000e+02 6.070000000000000000e+02 6.080000000000000000e+02 6.090000000000000000e+02 6.100000000000000000e+02 6.110000000000000000e+02 6.120000000000000000e+02 6.130000000000000000e+02 6.140000000000000000e+02 6.150000000000000000e+02 6.160000000000000000e+02 6.170000000000000000e+02 6.180000000000000000e+02 6.190000000000000000e+02 6.200000000000000000e+02 6.210000000000000000e+02 6.220000000000000000e+02 6.230000000000000000e+02 6.240000000000000000e+02 6.250000000000000000e+02 6.260000000000000000e+02 6.270000000000000000e+02 6.280000000000000000e+02 6.290000000000000000e+02 6.300000000000000000e+02 6.310000000000000000e+02 6.320000000000000000e+02 6.330000000000000000e+02 6.340000000000000000e+02 6.350000000000000000e+02 6.360000000000000000e+02 6.370000000000000000e+02 6.380000000000000000e+02 6.390000000000000000e+02 6.400000000000000000e+02 6.410000000000000000e+02 6.420000000000000000e+02 6.430000000000000000e+02 6.440000000000000000e+02 6.450000000000000000e+02 6.460000000000000000e+02 6.470000000000000000e+02 6.480000000000000000e+02 6.490000000000000000e+02 6.500000000000000000e+02 6.510000000000000000e+02 6.520000000000000000e+02 6.530000000000000000e+02 6.540000000000000000e+02 6.550000000000000000e+02 6.560000000000000000e+02 6.570000000000000000e+02 6.580000000000000000e+02 6.590000000000000000e+02 6.600000000000000000e+02 6.610000000000000000e+02 6.620000000000000000e+02 6.630000000000000000e+02 6.640000000000000000e+02 6.650000000000000000e+02 6.660000000000000000e+02 6.670000000000000000e+02 6.680000000000000000e+02 6.690000000000000000e+02 6.700000000000000000e+02 6.710000000000000000e+02 6.720000000000000000e+02 6.730000000000000000e+02 6.740000000000000000e+02 6.750000000000000000e+02 6.760000000000000000e+02 6.770000000000000000e+02 6.780000000000000000e+02 6.790000000000000000e+02 6.800000000000000000e+02 6.810000000000000000e+02 6.820000000000000000e+02 6.830000000000000000e+02 6.840000000000000000e+02 6.850000000000000000e+02 6.860000000000000000e+02 6.870000000000000000e+02 6.880000000000000000e+02 6.890000000000000000e+02 6.900000000000000000e+02 6.910000000000000000e+02 6.920000000000000000e+02 6.930000000000000000e+02 6.940000000000000000e+02 6.950000000000000000e+02 6.960000000000000000e+02 6.970000000000000000e+02 6.980000000000000000e+02 6.990000000000000000e+02 7.000000000000000000e+02 7.010000000000000000e+02 7.020000000000000000e+02 7.030000000000000000e+02 7.040000000000000000e+02 7.050000000000000000e+02 7.060000000000000000e+02 7.070000000000000000e+02 7.080000000000000000e+02 7.090000000000000000e+02 7.100000000000000000e+02 7.110000000000000000e+02 7.120000000000000000e+02 7.130000000000000000e+02 7.140000000000000000e+02 7.150000000000000000e+02 7.160000000000000000e+02 7.170000000000000000e+02 7.180000000000000000e+02 7.190000000000000000e+02 7.200000000000000000e+02 7.210000000000000000e+02 7.220000000000000000e+02 7.230000000000000000e+02 7.240000000000000000e+02 7.250000000000000000e+02 7.260000000000000000e+02 7.270000000000000000e+02 7.280000000000000000e+02 7.290000000000000000e+02 7.300000000000000000e+02 7.310000000000000000e+02 7.320000000000000000e+02 7.330000000000000000e+02 7.340000000000000000e+02 7.350000000000000000e+02 7.360000000000000000e+02 7.370000000000000000e+02 7.380000000000000000e+02 7.390000000000000000e+02 7.400000000000000000e+02 7.410000000000000000e+02 7.420000000000000000e+02 7.430000000000000000e+02 7.440000000000000000e+02 7.450000000000000000e+02 7.460000000000000000e+02 7.470000000000000000e+02 7.480000000000000000e+02 7.490000000000000000e+02 7.500000000000000000e+02 7.510000000000000000e+02 7.520000000000000000e+02 7.530000000000000000e+02 7.540000000000000000e+02 7.550000000000000000e+02 7.560000000000000000e+02 7.570000000000000000e+02 7.580000000000000000e+02 7.590000000000000000e+02 7.600000000000000000e+02 7.610000000000000000e+02 7.620000000000000000e+02 7.630000000000000000e+02 7.640000000000000000e+02 7.650000000000000000e+02 7.660000000000000000e+02 7.670000000000000000e+02 7.680000000000000000e+02 7.690000000000000000e+02 7.700000000000000000e+02 7.710000000000000000e+02 7.720000000000000000e+02 7.730000000000000000e+02 7.740000000000000000e+02 7.750000000000000000e+02 7.760000000000000000e+02 7.770000000000000000e+02 7.780000000000000000e+02 7.790000000000000000e+02 7.800000000000000000e+02 7.810000000000000000e+02 7.820000000000000000e+02 7.830000000000000000e+02 7.840000000000000000e+02 7.850000000000000000e+02 7.860000000000000000e+02 7.870000000000000000e+02 7.880000000000000000e+02 7.890000000000000000e+02 7.900000000000000000e+02 7.910000000000000000e+02 7.920000000000000000e+02 7.930000000000000000e+02 7.940000000000000000e+02 7.950000000000000000e+02 7.960000000000000000e+02 7.970000000000000000e+02 7.980000000000000000e+02 7.990000000000000000e+02 8.000000000000000000e+02 8.010000000000000000e+02 8.020000000000000000e+02 8.030000000000000000e+02 8.040000000000000000e+02 8.050000000000000000e+02 8.060000000000000000e+02 8.070000000000000000e+02 8.080000000000000000e+02 8.090000000000000000e+02 8.100000000000000000e+02 8.110000000000000000e+02 8.120000000000000000e+02 8.130000000000000000e+02 8.140000000000000000e+02 8.150000000000000000e+02 8.160000000000000000e+02 8.170000000000000000e+02 8.180000000000000000e+02 8.190000000000000000e+02 8.200000000000000000e+02 8.210000000000000000e+02 8.220000000000000000e+02 8.230000000000000000e+02 8.240000000000000000e+02 8.250000000000000000e+02 8.260000000000000000e+02 8.270000000000000000e+02 8.280000000000000000e+02 8.290000000000000000e+02 8.300000000000000000e+02 8.310000000000000000e+02 8.320000000000000000e+02 8.330000000000000000e+02 8.340000000000000000e+02 8.350000000000000000e+02 8.360000000000000000e+02 8.370000000000000000e+02 8.380000000000000000e+02 8.390000000000000000e+02 8.400000000000000000e+02 8.410000000000000000e+02 8.420000000000000000e+02 8.430000000000000000e+02 8.440000000000000000e+02 8.450000000000000000e+02 8.460000000000000000e+02 8.470000000000000000e+02 8.480000000000000000e+02 8.490000000000000000e+02 8.500000000000000000e+02 8.510000000000000000e+02 8.520000000000000000e+02 8.530000000000000000e+02 8.540000000000000000e+02 8.550000000000000000e+02 8.560000000000000000e+02 8.570000000000000000e+02 8.580000000000000000e+02 8.590000000000000000e+02 8.600000000000000000e+02 8.610000000000000000e+02 8.620000000000000000e+02 8.630000000000000000e+02 8.640000000000000000e+02 8.650000000000000000e+02 8.660000000000000000e+02 8.670000000000000000e+02 8.680000000000000000e+02 8.690000000000000000e+02 8.700000000000000000e+02 8.710000000000000000e+02 8.720000000000000000e+02 8.730000000000000000e+02 8.740000000000000000e+02 8.750000000000000000e+02 8.760000000000000000e+02 8.770000000000000000e+02 8.780000000000000000e+02 8.790000000000000000e+02 8.800000000000000000e+02 8.810000000000000000e+02 8.820000000000000000e+02 8.830000000000000000e+02 8.840000000000000000e+02 8.850000000000000000e+02 8.860000000000000000e+02 8.870000000000000000e+02 8.880000000000000000e+02 8.890000000000000000e+02 8.900000000000000000e+02 8.910000000000000000e+02 8.920000000000000000e+02 8.930000000000000000e+02 8.940000000000000000e+02 8.950000000000000000e+02 8.960000000000000000e+02 8.970000000000000000e+02 8.980000000000000000e+02 8.990000000000000000e+02 9.000000000000000000e+02 9.010000000000000000e+02 9.020000000000000000e+02 9.030000000000000000e+02 9.040000000000000000e+02 9.050000000000000000e+02 9.060000000000000000e+02 9.070000000000000000e+02 9.080000000000000000e+02 9.090000000000000000e+02 9.100000000000000000e+02 9.110000000000000000e+02 9.120000000000000000e+02 9.130000000000000000e+02 9.140000000000000000e+02 9.150000000000000000e+02 9.160000000000000000e+02 9.170000000000000000e+02 9.180000000000000000e+02 9.190000000000000000e+02 9.200000000000000000e+02 9.210000000000000000e+02 9.220000000000000000e+02 9.230000000000000000e+02 9.240000000000000000e+02 9.250000000000000000e+02 9.260000000000000000e+02 9.270000000000000000e+02 9.280000000000000000e+02 9.290000000000000000e+02 9.300000000000000000e+02 9.310000000000000000e+02 9.320000000000000000e+02 9.330000000000000000e+02 9.340000000000000000e+02 9.350000000000000000e+02 9.360000000000000000e+02 9.370000000000000000e+02 9.380000000000000000e+02 9.390000000000000000e+02 9.400000000000000000e+02 9.410000000000000000e+02 9.420000000000000000e+02 9.430000000000000000e+02 9.440000000000000000e+02 9.450000000000000000e+02 9.460000000000000000e+02 9.470000000000000000e+02 9.480000000000000000e+02 9.490000000000000000e+02 9.500000000000000000e+02 9.510000000000000000e+02 9.520000000000000000e+02 9.530000000000000000e+02 9.540000000000000000e+02 9.550000000000000000e+02 9.560000000000000000e+02 9.570000000000000000e+02 9.580000000000000000e+02 9.590000000000000000e+02 9.600000000000000000e+02 9.610000000000000000e+02 9.620000000000000000e+02 9.630000000000000000e+02 9.640000000000000000e+02 9.650000000000000000e+02 9.660000000000000000e+02 9.670000000000000000e+02 9.680000000000000000e+02 9.690000000000000000e+02 9.700000000000000000e+02 9.710000000000000000e+02 9.720000000000000000e+02 9.730000000000000000e+02 9.740000000000000000e+02 9.750000000000000000e+02 9.760000000000000000e+02 9.770000000000000000e+02 9.780000000000000000e+02 9.790000000000000000e+02 9.800000000000000000e+02 9.810000000000000000e+02 9.820000000000000000e+02 9.830000000000000000e+02 9.840000000000000000e+02 9.850000000000000000e+02 9.860000000000000000e+02 9.870000000000000000e+02 9.880000000000000000e+02 9.890000000000000000e+02 9.900000000000000000e+02 9.910000000000000000e+02 9.920000000000000000e+02 9.930000000000000000e+02 9.940000000000000000e+02 9.950000000000000000e+02 9.960000000000000000e+02 9.970000000000000000e+02 9.980000000000000000e+02 9.990000000000000000e+02
1.000000000000000000e+00 1.000000000000000000e+00 1.000000000000000000e+00 1.000000000000000000e+00 1.000000000000000000e+00 1.000000000000000000e+00 1.000000000000000000e+00 1.000000000000000000e+00 1.000000000000000000e+00 1.000000000000000000e+00 1.000000000000000000e+00 1.000000000000000000e+00 1.000000000000000000e+00 1.000000000000000000e+00 1.000000000000000000e+00 1.000000000000000000e+00 1.000000000000000000e+00 1.000000000000000000e+00 1.000000000000000000e+00 1.000000000000000000e+00 1.000000000000000000e+00 1.000000000000000000e+00 1.000000000000000000e+00 1.000000000000000000e+00 1.000000000000000000e+00 1.000000000000000000e+00 1.000000000000000000e+00 1.000000000000000000e+00 1.000000000000000000e+00 1.000000000000000000e+00 1.000000000000000000e+00 1.000000000000000000e+00 1.000000000000000000e+00 1.000000000000000000e+00 1.000000000000000000e+00 1.000000000000000000e+00 1.000000000000000000e+00 1.000000000000000000e+00 1.000000000000000000e+00 1.000000000000000000e+00 1.000000000000000000e+00 1.000000000000000000e+00 1.000000000000000000e+00 1.000000000000000000e+00 1.000000000000000000e+00 1.000000000000000000e+00 1.000000000000000000e+00 1.000000000000000000e+00 1.000000000000000000e+00 1.000000000000000000e+00 1.000000000000000000e+00 1.000000000000000000e+00 1.000000000000000000e+00 1.000000000000000000e+00 1.000000000000000000e+00 1.000000000000000000e+00 1.000000000000000000e+00 1.000000000000000000e+00 1.000000000000000000e+00 1.000000000000000000e+00 1.000000000000000000e+00 1.000000000000000000e+00 1.000000000000000000e+00 1.000000000000000000e+00 1.000000000000000000e+00 1.000000000000000000e+00 1.000000000000000000e+00 1.000000000000000000e+00 1.000000000000000000e+00 1.000000000000000000e+00 1.000000000000000000e+00 1.000000000000000000e+00 1.000000000000000000e+00 1.000000000000000000e+00 1.000000000000000000e+00 1.000000000000000000e+00 1.000000000000000000e+00 1.000000000000000000e+00 1.000000000000000000e+00 1.000000000000000000e+00 1.000000000000000000e+00 1.000000000000000000e+00 1.000000000000000000e+00 1.000000000000000000e+00 1.000000000000000000e+00 1.000000000000000000e+00 1.000000000000000000e+00 1.000000000000000000e+00 1.000000000000000000e+00 1.000000000000000000e+00 1.000000000000000000e+00 1.000000000000000000e+00 1.000000000000000000e+00 1.000000000000000000e+00 1.000000000000000000e+00 1.000000000000000000e+00 1.000000000000000000e+00 1.000000000000000000e+00 1.000000000000000000e+00 1.000000000000000000e+00 1.000000000000000000e+00 1.000000000000000000e+00 1.000000000000000000e+00 1.000000000000000000e+00 1.000000000000000000e+00 1.000000000000000000e+00 1.000000000000000000e+00 1.000000000000000000e+00 1.000000000000000000e+00 1.000000000000000000e+00 1.000000000000000000e+00 1.000000000000000000e+00 1.000000000000000000e+00 1.000000000000000000e+00 1.000000000000000000e+00 1.000000000000000000e+00 1.000000000000000000e+00 1.000000000000000000e+00 1.000000000000000000e+00 1.000000000000000000e+00 1.000000000000000000e+00 1.000000000000000000e+00 1.000000000000000000e+00 1.000000000000000000e+00 1.000000000000000000e+00 1.000000000000000000e+00 1.000000000000000000e+00 1.000000000000000000e+00 1.000000000000000000e+00 1.000000000000000000e+00 1.000000000000000000e+00 1.000000000000000000e+00 1.000000000000000000e+00 1.000000000000000000e+00 1.000000000000000000e+00 1.000000000000000000e+00 1.000000000000000000e+00 1.000000000000000000e+00 1.000000000000000000e+00 1.000000000000000000e+00 1.000000000000000000e+00 1.000000000000000000e+00 1.000000000000000000e+00 1.000000000000000000e+00 1.000000000000000000e+00 1.000000000000000000e+00 1.000000000000000000e+00 1.000000000000000000e+00 1.000000000000000000e+00 1.000000000000000000e+00 1.000000000000000000e+00 1.000000000000000000e+00 1.000000000000000000e+00 1.000000000000000000e+00 1.000000000000000000e+00 1.000000000000000000e+00 1.000000000000000000e+00 1.000000000000000000e+00 1.000000000000000000e+00 1.000000000000000000e+00 1.000000000000000000e+00 1.000000000000000000e+00 1.000000000000000000e+00 1.000000000000000000e+00 1.000000000000000000e+00 1.000000000000000000e+00 1.000000000000000000e+00 1.000000000000000000e+00 1.000000000000000000e+00 1.000000000000000000e+00 1.000000000000000000e+00 1.000000000000000000e+00 1.000000000000000000e+00 1.000000000000000000e+00 1.000000000000000000e+00 1.000000000000000000e+00 1.000000000000000000e+00 1.000000000000000000e+00 1.000000000000000000e+00 1.000000000000000000e+00 1.000000000000000000e+00 1.000000000000000000e+00 1.000000000000000000e+00 1.000000000000000000e+00 1.000000000000000000e+00 1.000000000000000000e+00 1.000000000000000000e+00 1.000000000000000000e+00 1.000000000000000000e+00 1.000000000000000000e+00 1.000000000000000000e+00 1.000000000000000000e+00 1.000000000000000000e+00 1.000000000000000000e+00 1.000000000000000000e+00 1.000000000000000000e+00 1.000000000000000000e+00 1.000000000000000000e+00 1.000000000000000000e+00 1.000000000000000000e+00 1.000000000000000000e+00 1.000000000000000000e+00 1.000000000000000000e+00 1.000000000000000000e+00 1.000000000000000000e+00 1.000000000000000000e+00 1.000000000000000000e+00 1.000000000000000000e+00 1.000000000000000000e+00 1.000000000000000000e+00 1.000000000000000000e+00 1.000000000000000000e+00 1.000000000000000000e+00 1.000000000000000000e+00 1.000000000000000000e+00 1.000000000000000000e+00 1.000000000000000000e+00 1.000000000000000000e+00 1.000000000000000000e+00 1.000000000000000000e+00 1.000000000000000000e+00 1.000000000000000000e+00 1.000000000000000000e+00 1.000000000000000000e+00 1.000000000000000000e+00 1.000000000000000000e+00 1.000000000000000000e+00 1.000000000000000000e+00 1.000000000000000000e+00 1.000000000000000000e+00 1.000000000000000000e+00 1.000000000000000000e+00 1.000000000000000000e+00 1.000000000000000000e+00 1.000000000000000000e+00 1.000000000000000000e+00 1.000000000000000000e+00 1.000000000000000000e+00 1.000000000000000000e+00 1.000000000000000000e+00 1.000000000000000000e+00 1.000000000000000000e+00 1.000000000000000000e+00 1.000000000000000000e+00 1.000000000000000000e+00 1.000000000000000000e+00 1.000000000000000000e+00 1.000000000000000000e+00 1.000000000000000000e+00 1.000000000000000000e+00 1.000000000000000000e+00 1.000000000000000000e+00 1.000000000000000000e+00 1.000000000000000000e+00 1.000000000000000000e+00 1.000000000000000000e+00 1.000000000000000000e+00 1.000000000000000000e+00 1.000000000000000000e+00 1.000000000000000000e+00 1.000000000000000000e+00 1.000000000000000000e+00 1.000000000000000000e+00 1.000000000000000000e+00 1.000000000000000000e+00 1.000000000000000000e+00 1.000000000000000000e+00 1.000000000000000000e+00 1.000000000000000000e+00 1.000000000000000000e+00 1.000000000000000000e+00 1.000000000000000000e+00 1.000000000000000000e+00 1.000000000000000000e+00 1.000000000000000000e+00 1.000000000000000000e+00 1.000000000000000000e+00 1.000000000000000000e+00 1.000000000000000000e+00 1.000000000000000000e+00 1.000000000000000000e+00 1.000000000000000000e+00 1.000000000000000000e+00 1.000000000000000000e+00 1.000000000000000000e+00 1.000000000000000000e+00 1.000000000000000000e+00 1.000000000000000000e+00 1.000000000000000000e+00 1.000000000000000000e+00 1.000000000000000000e+00 1.000000000000000000e+00 1.000000000000000000e+00 1.000000000000000000e+00 1.000000000000000000e+00 1.000000000000000000e+00 1.000000000000000000e+00 1.000000000000000000e+00 1.000000000000000000e+00 1.000000000000000000e+00 1.000000000000000000e+00 1.000000000000000000e+00 1.000000000000000000e+00 1.000000000000000000e+00 1.000000000000000000e+00 1.000000000000000000e+00 1.000000000000000000e+00 1.000000000000000000e+00 1.000000000000000000e+00 1.000000000000000000e+00 1.000000000000000000e+00 1.000000000000000000e+00 1.000000000000000000e+00 1.000000000000000000e+00 1.000000000000000000e+00 1.000000000000000000e+00 1.000000000000000000e+00 1.000000000000000000e+00 1.000000000000000000e+00 1.000000000000000000e+00 1.000000000000000000e+00 1.000000000000000000e+00 1.000000000000000000e+00 1.000000000000000000e+00 1.000000000000000000e+00 1.000000000000000000e+00 1.000000000000000000e+00 1.000000000000000000e+00 1.000000000000000000e+00 1.000000000000000000e+00 1.000000000000000000e+00 1.000000000000000000e+00 1.000000000000000000e+00 1.000000000000000000e+00 1.000000000000000000e+00 1.000000000000000000e+00 1.000000000000000000e+00 1.000000000000000000e+00 1.000000000000000000e+00 1.000000000000000000e+00 1.000000000000000000e+00 1.000000000000000000e+00 1.000000000000000000e+00 1.000000000000000000e+00 1.000000000000000000e+00 1.000000000000000000e+00 1.000000000000000000e+00 1.000000000000000000e+00 1.000000000000000000e+00 1.000000000000000000e+00 1.000000000000000000e+00 1.000000000000000000e+00 1.000000000000000000e+00 1.000000000000000000e+00 1.000000000000000000e+00 1.000000000000000000e+00 1.000000000000000000e+00 1.000000000000000000e+00 1.000000000000000000e+00 1.000000000000000000e+00 1.000000000000000000e+00 1.000000000000000000e+00 1.000000000000000000e+00 1.000000000000000000e+00 1.000000000000000000e+00 1.000000000000000000e+00 1.000000000000000000e+00 1.000000000000000000e+00 1.000000000000000000e+00 1.000000000000000000e+00 1.000000000000000000e+00 1.000000000000000000e+00 1.000000000000000000e+00 1.000000000000000000e+00 1.000000000000000000e+00 1.000000000000000000e+00 1.000000000000000000e+00 1.000000000000000000e+00 1.000000000000000000e+00 1.000000000000000000e+00 1.000000000000000000e+00 1.000000000000000000e+00 1.000000000000000000e+00 1.000000000000000000e+00 1.000000000000000000e+00 1.000000000000000000e+00 1.000000000000000000e+00 1.000000000000000000e+00 1.000000000000000000e+00 1.000000000000000000e+00 1.000000000000000000e+00 1.000000000000000000e+00 1.000000000000000000e+00 1.000000000000000000e+00 1.000000000000000000e+00 1.000000000000000000e+00 1.000000000000000000e+00 1.000000000000000000e+00 1.000000000000000000e+00 1.000000000000000000e+00 1.000000000000000000e+00 1.000000000000000000e+00 1.000000000000000000e+00 1.000000000000000000e+00 1.000000000000000000e+00 1.000000000000000000e+00 1.000000000000000000e+00 1.000000000000000000e+00 1.000000000000000000e+00 1.000000000000000000e+00 1.000000000000000000e+00 1.000000000000000000e+00 1.000000000000000000e+00 1.000000000000000000e+00 1.000000000000000000e+00 1.000000000000000000e+00 1.000000000000000000e+00 1.000000000000000000e+00 1.000000000000000000e+00 1.000000000000000000e+00 1.000000000000000000e+00 1.000000000000000000e+00 1.000000000000000000e+00 1.000000000000000000e+00 1.000000000000000000e+00 1.000000000000000000e+00 1.000000000000000000e+00 1.000000000000000000e+00 1.000000000000000000e+00 1.000000000000000000e+00 1.000000000000000000e+00 1.000000000000000000e+00 1.000000000000000000e+00 1.000000000000000000e+00 1.000000000000000000e+00 1.000000000000000000e+00 1.000000000000000000e+00 1.000000000000000000e+00 1.000000000000000000e+00 1.000000000000000000e+00 1.000000000000000000e+00 1.000000000000000000e+00 1.000000000000000000e+00 1.000000000000000000e+00 1.000000000000000000e+00 1.000000000000000000e+00 1.000000000000000000e+00 1.000000000000000000e+00 1.000000000000000000e+00 1.000000000000000000e+00 1.000000000000000000e+00 1.000000000000000000e+00 1.000000000000000000e+00 1.000000000000000000e+00 1.000000000000000000e+00 1.000000000000000000e+00 1.000000000000000000e+00 1.000000000000000000e+00 1.000000000000000000e+00 1.000000000000000000e+00 1.000000000000000000e+00 1.000000000000000000e+00 1.000000000000000000e+00 1.000000000000000000e+00 1.000000000000000000e+00 1.000000000000000000e+00 1.000000000000000000e+00 1.000000000000000000e+00 1.000000000000000000e+00 1.000000000000000000e+00 1.000000000000000000e+00 1.000000000000000000e+00 1.000000000000000000e+00 1.000000000000000000e+00 1.000000000000000000e+00 1.000000000000000000e+00 1.000000000000000000e+00 1.000000000000000000e+00 1.000000000000000000e+00 1.000000000000000000e+00 1.000000000000000000e+00 1.000000000000000000e+00 1.000000000000000000e+00 1.000000000000000000e+00 1.000000000000000000e+00 1.000000000000000000e+00 1.000000000000000000e+00 1.000000000000000000e+00 1.000000000000000000e+00 1.000000000000000000e+00 1.000000000000000000e+00 1.000000000000000000e+00 1.000000000000000000e+00 1.000000000000000000e+00 1.000000000000000000e+00 1.000000000000000000e+00 1.000000000000000000e+00 1.000000000000000000e+00 1.000000000000000000e+00 1.000000000000000000e+00 1.000000000000000000e+00 1.000000000000000000e+00 1.000000000000000000e+00 1.000000000000000000e+00 1.000000000000000000e+00 1.000000000000000000e+00 1.000000000000000000e+00 1.000000000000000000e+00 1.000000000000000000e+00 1.000000000000000000e+00 1.000000000000000000e+00 1.000000000000000000e+00 1.000000000000000000e+00 1.000000000000000000e+00 1.000000000000000000e+00 1.000000000000000000e+00 1.000000000000000000e+00 1.000000000000000000e+00 1.000000000000000000e+00 1.000000000000000000e+00 1.000000000000000000e+00 1.000000000000000000e+00 1.000000000000000000e+00 1.000000000000000000e+00 1.000000000000000000e+00 1.000000000000000000e+00 1.000000000000000000e+00 1.000000000000000000e+00 1.000000000000000000e+00 1.000000000000000000e+00 1.000000000000000000e+00 1.000000000000000000e+00 1.000000000000000000e+00 1.000000000000000000e+00 1.000000000000000000e+00 1.000000000000000000e+00 1.000000000000000000e+00 1.000000000000000000e+00 1.000000000000000000e+00 1.000000000000000000e+00 1.000000000000000000e+00 1.000000000000000000e+00 1.000000000000000000e+00 1.000000000000000000e+00 1.000000000000000000e+00 1.000000000000000000e+00 1.000000000000000000e+00 1.000000000000000000e+00 1.000000000000000000e+00 1.000000000000000000e+00 1.000000000000000000e+00 1.000000000000000000e+00 1.000000000000000000e+00 1.000000000000000000e+00 1.000000000000000000e+00 1.000000000000000000e+00 1.000000000000000000e+00 1.000000000000000000e+00 1.000000000000000000e+00 1.000000000000000000e+00 1.000000000000000000e+00 1.000000000000000000e+00 1.000000000000000000e+00 1.000000000000000000e+00 1.000000000000000000e+00 1.000000000000000000e+00 1.000000000000000000e+00 1.000000000000000000e+00 1.000000000000000000e+00 1.000000000000000000e+00 1.000000000000000000e+00 1.000000000000000000e+00 1.000000000000000000e+00 1.000000000000000000e+00 1.000000000000000000e+00 1.000000000000000000e+00 1.000000000000000000e+00 1.000000000000000000e+00 1.000000000000000000e+00 1.000000000000000000e+00 1.000000000000000000e+00 1.000000000000000000e+00 1.000000000000000000e+00 1.000000000000000000e+00 1.000000000000000000e+00 1.000000000000000000e+00 1.000000000000000000e+00 1.000000000000000000e+00 1.000000000000000000e+00 1.000000000000000000e+00 1.000000000000000000e+00 1.000000000000000000e+00 1.000000000000000000e+00 1.000000000000000000e+00 1.000000000000000000e+00 1.000000000000000000e+00 1.000000000000000000e+00 1.000000000000000000e+00 1.000000000000000000e+00 1.000000000000000000e+00 1.000000000000000000e+00 1.000000000000000000e+00 1.000000000000000000e+00 1.000000000000000000e+00 1.000000000000000000e+00 1.000000000000000000e+00 1.000000000000000000e+00 1.000000000000000000e+00 1.000000000000000000e+00 1.000000000000000000e+00 1.000000000000000000e+00 1.000000000000000000e+00 1.000000000000000000e+00 1.000000000000000000e+00 1.000000000000000000e+00 1.000000000000000000e+00 1.000000000000000000e+00 1.000000000000000000e+00 1.000000000000000000e+00 1.000000000000000000e+00 1.000000000000000000e+00 1.000000000000000000e+00 1.000000000000000000e+00 1.000000000000000000e+00 1.000000000000000000e+00 1.000000000000000000e+00 1.000000000000000000e+00 1.000000000000000000e+00 1.000000000000000000e+00 1.000000000000000000e+00 1.000000000000000000e+00 1.000000000000000000e+00 1.000000000000000000e+00 1.000000000000000000e+00 1.000000000000000000e+00 1.000000000000000000e+00 1.000000000000000000e+00 1.000000000000000000e+00 1.000000000000000000e+00 1.000000000000000000e+00 1.000000000000000000e+00 1.000000000000000000e+00 1.000000000000000000e+00 1.000000000000000000e+00 1.000000000000000000e+00 1.000000000000000000e+00 1.000000000000000000e+00 1.000000000000000000e+00 1.000000000000000000e+00 1.000000000000000000e+00 1.000000000000000000e+00 1.000000000000000000e+00 1.000000000000000000e+00 1.000000000000000000e+00 1.000000000000000000e+00 1.000000000000000000e+00 1.000000000000000000e+00 1.000000000000000000e+00 1.000000000000000000e+00 1.000000000000000000e+00 1.000000000000000000e+00 1.000000000000000000e+00 1.000000000000000000e+00 1.000000000000000000e+00 1.000000000000000000e+00 1.000000000000000000e+00 1.000000000000000000e+00 1.000000000000000000e+00 1.000000000000000000e+00 1.000000000000000000e+00 1.000000000000000000e+00 1.000000000000000000e+00 1.000000000000000000e+00 1.000000000000000000e+00 1.000000000000000000e+00 1.000000000000000000e+00 1.000000000000000000e+00 1.000000000000000000e+00 1.000000000000000000e+00 1.000000000000000000e+00 1.000000000000000000e+00 1.000000000000000000e+00 1.000000000000000000e+00 1.000000000000000000e+00 1.000000000000000000e+00 1.000000000000000000e+00 1.000000000000000000e+00 1.000000000000000000e+00 1.000000000000000000e+00 1.000000000000000000e+00 1.000000000000000000e+00 1.000000000000000000e+00 1.000000000000000000e+00 1.000000000000000000e+00 1.000000000000000000e+00 1.000000000000000000e+00 1.000000000000000000e+00 1.000000000000000000e+00 1.000000000000000000e+00 1.000000000000000000e+00 1.000000000000000000e+00 1.000000000000000000e+00 1.000000000000000000e+00 1.000000000000000000e+00 1.000000000000000000e+00 1.000000000000000000e+00 1.000000000000000000e+00 1.000000000000000000e+00 1.000000000000000000e+00 1.000000000000000000e+00 1.000000000000000000e+00 1.000000000000000000e+00 1.000000000000000000e+00 1.000000000000000000e+00 1.000000000000000000e+00 1.000000000000000000e+00 1.000000000000000000e+00 1.000000000000000000e+00 1.000000000000000000e+00 1.000000000000000000e+00 1.000000000000000000e+00 1.000000000000000000e+00 1.000000000000000000e+00 1.000000000000000000e+00 1.000000000000000000e+00 1.000000000000000000e+00 1.000000000000000000e+00 1.000000000000000000e+00 1.000000000000000000e+00 1.000000000000000000e+00 1.000000000000000000e+00 1.000000000000000000e+00 1.000000000000000000e+00 1.000000000000000000e+00 1.000000000000000000e+00 1.000000000000000000e+00 1.000000000000000000e+00 1.000000000000000000e+00 1.000000000000000000e+00 1.000000000000000000e+00 1.000000000000000000e+00 1.000000000000000000e+00 1.000000000000000000e+00 1.000000000000000000e+00 1.000000000000000000e+00 1.000000000000000000e+00 1.000000000000000000e+00 1.000000000000000000e+00 1.000000000000000000e+00 1.000000000000000000e+00 1.000000000000000000e+00 1.000000000000000000e+00 1.000000000000000000e+00 1.000000000000000000e+00 1.000000000000000000e+00 1.000000000000000000e+00 1.000000000000000000e+00 1.000000000000000000e+00 1.000000000000000000e+00 1.000000000000000000e+00 1.000000000000000000e+00 1.000000000000000000e+00 1.000000000000000000e+00 1.000000000000000000e+00 1.000000000000000000e+00 1.000000000000000000e+00 1.000000000000000000e+00 1.000000000000000000e+00 1.000000000000000000e+00 1.000000000000000000e+00 1.000000000000000000e+00 1.000000000000000000e+00 1.000000000000000000e+00 1.000000000000000000e+00 1.000000000000000000e+00 1.000000000000000000e+00 1.000000000000000000e+00 1.000000000000000000e+00 1.000000000000000000e+00 1.000000000000000000e+00 1.000000000000000000e+00 1.000000000000000000e+00 1.000000000000000000e+00 1.000000000000000000e+00 1.000000000000000000e+00 1.000000000000000000e+00 1.000000000000000000e+00 1.000000000000000000e+00 1.000000000000000000e+00 1.000000000000000000e+00 1.000000000000000000e+00 1.000000000000000000e+00 1.000000000000000000e+00 1.000000000000000000e+00 1.000000000000000000e+00 1.000000000000000000e+00 1.000000000000000000e+00 1.000000000000000000e+00 1.000000000000000000e+00 1.000000000000000000e+00 1.000000000000000000e+00 1.000000000000000000e+00 1.000000000000000000e+00 1.000000000000000000e+00 1.000000000000000000e+00 1.000000000000000000e+00 1.000000000000000000e+00 1.000000000000000000e+00 1.000000000000000000e+00 1.000000000000000000e+00 1.000000000000000000e+00 1.000000000000000000e+00 1.000000000000000000e+00 1.000000000000000000e+00 1.000000000000000000e+00 1.000000000000000000e+00 1.000000000000000000e+00 1.000000000000000000e+00 1.000000000000000000e+00 1.000000000000000000e+00 1.000000000000000000e+00 1.000000000000000000e+00 1.000000000000000000e+00 1.000000000000000000e+00 1.000000000000000000e+00 1.000000000000000000e+00 1.000000000000000000e+00 1.000000000000000000e+00 1.000000000000000000e+00 1.000000000000000000e+00 1.000000000000000000e+00 1.000000000000000000e+00 1.000000000000000000e+00 1.000000000000000000e+00 1.000000000000000000e+00 1.000000000000000000e+00 1.000000000000000000e+00 1.000000000000000000e+00 1.000000000000000000e+00 1.000000000000000000e+00 1.000000000000000000e+00 1.000000000000000000e+00 1.000000000000000000e+00 1.000000000000000000e+00 1.000000000000000000e+00 1.000000000000000000e+00 1.000000000000000000e+00 1.000000000000000000e+00 1.000000000000000000e+00 1.000000000000000000e+00 1.000000000000000000e+00 1.000000000000000000e+00 1.000000000000000000e+00 1.000000000000000000e+00 1.000000000000000000e+00 1.000000000000000000e+00 1.000000000000000000e+00 1.000000000000000000e+00 1.000000000000000000e+00 1.000000000000000000e+00 1.000000000000000000e+00 1.000000000000000000e+00 1.000000000000000000e+00 1.000000000000000000e+00 1.000000000000000000e+00 1.000000000000000000e+00 1.000000000000000000e+00 1.000000000000000000e+00 1.000000000000000000e+00 1.000000000000000000e+00 1.000000000000000000e+00 1.000000000000000000e+00 1.000000000000000000e+00 1.000000000000000000e+00 1.000000000000000000e+00 1.000000000000000000e+00 1.000000000000000000e+00 1.000000000000000000e+00 1.000000000000000000e+00 1.000000000000000000e+00 1.000000000000000000e+00 1.000000000000000000e+00 1.000000000000000000e+00 1.000000000000000000e+00 1.000000000000000000e+00 1.000000000000000000e+00 1.000000000000000000e+00 1.000000000000000000e+00 1.000000000000000000e+00 1.000000000000000000e+00 1.000000000000000000e+00 1.000000000000000000e+00 1.000000000000000000e+00 1.000000000000000000e+00 1.000000000000000000e+00 1.000000000000000000e+00 1.000000000000000000e+00 1.000000000000000000e+00 1.000000000000000000e+00 1.000000000000000000e+00 1.000000000000000000e+00 1.000000000000000000e+00 1.000000000000000000e+00 1.000000000000000000e+00 1.000000000000000000e+00 1.000000000000000000e+00 1.000000000000000000e+00 1.000000000000000000e+00 1.000000000000000000e+00 1.000000000000000000e+00 1.000000000000000000e+00 1.000000000000000000e+00 1.000000000000000000e+00 1.000000000000000000e+00 1.000000000000000000e+00 1.000000000000000000e+00 1.000000000000000000e+00 1.000000000000000000e+00 1.000000000000000000e+00 1.000000000000000000e+00 1.000000000000000000e+00 1.000000000000000000e+00 1.000000000000000000e+00 1.000000000000000000e+00 1.000000000000000000e+00 1.000000000000000000e+00 1.000000000000000000e+00 1.000000000000000000e+00 1.000000000000000000e+00 1.000000000000000000e+00 1.000000000000000000e+00 1.000000000000000000e+00 1.000000000000000000e+00 1.000000000000000000e+00 1.000000000000000000e+00 1.000000000000000000e+00 1.000000000000000000e+00 1.000000000000000000e+00 1.000000000000000000e+00 1.000000000000000000e+00 1.000000000000000000e+00 1.000000000000000000e+00 1.000000000000000000e+00 1.000000000000000000e+00 1.000000000000000000e+00 1.000000000000000000e+00 1.000000000000000000e+00 1.000000000000000000e+00 1.000000000000000000e+00 1.000000000000000000e+00 1.000000000000000000e+00 1.000000000000000000e+00 1.000000000000000000e+00 1.000000000000000000e+00 1.000000000000000000e+00 1.000000000000000000e+00 1.000000000000000000e+00 1.000000000000000000e+00 1.000000000000000000e+00 1.000000000000000000e+00 1.000000000000000000e+00 1.000000000000000000e+00 1.000000000000000000e+00 1.000000000000000000e+00 1.000000000000000000e+00 1.000000000000000000e+00 1.000000000000000000e+00 1.000000000000000000e+00 1.000000000000000000e+00 1.000000000000000000e+00 1.000000000000000000e+00 1.000000000000000000e+00 1.000000000000000000e+00 1.000000000000000000e+00 1.000000000000000000e+00 1.000000000000000000e+00 1.000000000000000000e+00 1.000000000000000000e+00 1.000000000000000000e+00 1.000000000000000000e+00 1.000000000000000000e+00 1.000000000000000000e+00 1.000000000000000000e+00 1.000000000000000000e+00 1.000000000000000000e+00 1.000000000000000000e+00 1.000000000000000000e+00 1.000000000000000000e+00 1.000000000000000000e+00 1.000000000000000000e+00 1.000000000000000000e+00 1.000000000000000000e+00 1.000000000000000000e+00 1.000000000000000000e+00 1.000000000000000000e+00 1.000000000000000000e+00 1.000000000000000000e+00 1.000000000000000000e+00 1.000000000000000000e+00 1.000000000000000000e+00
-2.867076015546264015e-04 5.611071108398008045e-01 -2.021092988417690361e-01 7.262947230839165158e-01 5.059704195937489990e-01 5.724433695348573048e-01 6.383875568767449771e-01 2.614284938652356449e-01 5.193885854937048130e-01 5.123956813557297707e-01 1.076686736548905898e+00 -6.722903801396311607e-01 1.391689731049324585e+00 4.462877725381820815e-01 5.110577589714723201e-01 3.983388452978705030e-01 9.090250973210225460e-01 9.713716367379070515e-01 6.659403329432391772e-01 5.211091924669143394e-01 4.281599001824626383e-01 9.766426466322001287e-01 4.800991063426106042e-01 4.614554017277445741e-01 1.121366880559396401e-01 6.815781634816078238e-01 3.625757211221973253e-01 5.959832822624167026e-01 5.298747340700238340e-01 1.541278161635710076e+00 5.323640637792905750e-01 6.133014921944581754e-01 7.207508916276321731e-01 4.866833577428632540e-01 7.132760612110435883e-01 4.509705792981013039e-01 5.552536901703140071e-01 1.743145916486067648e+00 -6.283904742413963518e-02 4.979199886312511425e-01 -1.391365742774874625e-01 -5.590882168441301259e-01 7.508719967017716268e-01 2.235474914799163992e-01 2.615014458756914628e-01 5.221624693577867626e-01 7.262420232629174244e-01 5.251447607519446059e-01 5.770610618329078401e-01 2.593609102334638872e-02 3.435860871886861102e-03 8.421807561375890261e-01 6.698331306984490752e-01 4.722223181843774320e-01 4.521320352779802376e-01 1.777334254580688680e-02 4.789021826866062814e-01 5.435891646918267206e-01 1.859099521308860692e-01 4.666460301063998228e-01 9.093818909209141488e-01 5.509020921061906773e-01 4.843271964878630986e-01 4.800989539711452148e-01 6.827609007221759896e-01 5.294662911605004796e-01 5.106371183458620067e-01 2.882241182643215383e-01 5.376889798568904588e-01 -8.851358815529250176e-03 4.092935379563441556e-01 4.802628372777369981e-01 5.233535920398624253e-01 3.755692005569869624e-02 1.493574230786752999e+00 5.589895348427418309e-01 6.322567976503342679e-01 7.418368956727388053e-01 5.102275709943439042e-01 1.379336431334195145e+00 5.386019439649923912e-01 2.903751436747228354e-01 1.372185204571404915e+00 6.782493100263320418e-01 4.861627730268349157e-01 7.576152990683504562e-01 8.154134958443390868e-01 5.460965445719558886e-01 4.048028874734827531e-01 5.754628196357163272e-01 2.664900589343655590e-01 2.138953197717024413e+00 7.163244946107958366e-01 -5.067022519851941548e-02 5.595160350499900348e-01 5.716828579562940327e-01 5.315777805162676950e-01 4.723321949112007090e-01 1.894951154040800112e-01 6.859821321954886475e-01 1.578795560054976121e+00 6.874096266183673531e-01 5.422521218204340299e-01 7.674813857037540155e-01 8.589889298569555187e-01 -2.013386912859938427e+00 -1.194798970860014409e+00 5.473853972889967112e-01 5.602288685974087246e-01 9.728573839742920004e-01 5.280110659590093736e-01 4.648042985706830610e-01 1.660398264523110512e-01 4.739656981384717804e-01 5.177930761374899271e-01 5.122019031021496360e-01 5.264570154417651526e-01 5.534012762444437961e-01 8.742729247885997479e-01 5.119286413662598179e-01 1.292398774240732351e+00 5.618505654305312458e-01 5.447481608349785676e-01 -3.640011521291766083e-01 5.142052638329853709e-01 1.924453806314496918e+00 5.541021810827355676e-01 4.927509793075279809e-01 6.872548050863994673e-01 5.085501788233431908e-01 5.311204041376550444e-01 5.046193676888125479e-01 4.117218529532537530e-01 2.723906296004972027e-01 -2.231649148108406366e-01 -1.550471597065357088e-01 6.210388982529908564e-01 4.094556047305602381e-02 9.922624417700102173e-01 6.733931656745871797e-01 5.183943030098582261e-01 8.572959727720798062e-01 6.453020870556686051e-01 5.961524453091113784e-01 5.135859101015055606e-01 3.399959004960542014e-02 8.740715589332784807e-01 9.239191487879519493e-02 4.729146427147580822e-01 -8.632027603714772512e-01 7.782411370927024841e-01 -2.986701600688695390e-01 5.221635073508316127e-01 5.357804996776909245e-01 4.900116356747782898e-01 5.098758766232837081e-01 1.881262594275599165e+00 -6.298315758819192367e-02 8.085537597995070547e-01 6.992356659720925238e-01 5.150791067315735328e-01 4.218955075555695933e-01 5.163033731988654340e-01 5.108803147624286778e-01 1.089508564084705089e+00 1.525787729652968439e-01 8.451385524217350786e-01 4.282941291129857553e-01 5.885279673928275335e-01 6.183377890342450778e-01 4.412130121355359313e-01 7.260175266047838027e-01 5.221729761060543984e-01 5.153599974876328371e-01 4.061606274285877172e-01 2.376930047559827272e-02 1.786738805769665372e-01 7.811851900812563643e-02 7.394300687843945452e-01 1.140182312674617338e+00 7.150602861918137210e-01 5.037504136246275799e-01 -1.851758475482276345e-01 4.612145533246775342e-01 6.720326929509703451e-01 5.240599014061194660e-01 5.245917946884668392e-01 5.048733869026054144e-01 2.735350527727650416e+00 5.385192746919298390e-01 5.144678770049071481e-01 -8.650541413709522676e-01 5.309227779627753163e-01 5.736706176635363308e-01 1.793804538955075800e-01 5.133525729767718371e-01 9.267420820737581888e-01 5.274267236448805241e-01 6.747193688113449772e-01 4.194061825108780783e-01 6.173169035271465210e-01 5.534874582997402204e-01 9.594034163458672326e-01 5.996934900090835630e-01 5.432489254304848636e-01 6.747194378408165605e-01 2.822717864843798941e-01 1.278684084514138286e+00 5.027174980844475449e-01 3.607403194811121261e-01 4.439104316801302796e-01 -6.747712850810635987e-02 4.722723452657855980e-01 1.630906341696655715e-01 5.018640328520618255e-01 5.098909951814343255e-01 5.050483227337645431e-01 5.193013962980966847e-01 5.086215423487433496e-01 5.160319342845003376e-01 4.479595131715246037e-01 6.128336532276200677e-01 -6.952771955404136728e-01 5.696800122676689559e-01 3.244871450161157522e-01 3.975581504606713890e-01 1.501856783108244942e-01 1.278003910639121887e+00 9.494191377066403259e-01 5.015552365007440727e-01 -1.045051232741744940e-01 1.046717239102061825e+00 5.073630707771658033e-01 4.495649994937782057e-01 4.855254842752323996e-01 4.171000748389693813e-01 4.066815343138975303e-01 1.987950320064803822e-01 -1.458958787105740784e-01 -1.192811446417730847e-01 3.181084765631728151e-01 5.131205894045217653e-01 -9.873227377054856480e-02 4.666171226753704215e-01 5.029971672874740118e-01 4.556035967478410109e-01 -1.042559368106336509e-01 7.441017731189556450e-01 -2.207720787758205461e+00 5.919384567215978388e-01 -5.497981321623462980e-01 4.962208874370286904e-01 5.098667570924780845e-01 4.800987093611458478e-01 4.739896921116203976e-01 5.359096976241423116e-01 5.215806943155172348e-01 7.354657717450430177e-01 5.395352371972123029e-01 1.682187093545834067e+00 6.724726951947699316e-01 6.970505159499689185e-01 5.064412356523151360e-01 3.474513792994897154e-01 9.093819223543030406e-01 3.796687772476192158e-01 2.627395722055032579e+00 5.530656704447453054e-01 2.419815045967027567e-01 6.847074483352032503e-01 5.145216124734605101e-01 9.092071061566281420e-01 5.134323604252590822e-01 5.378748848552653561e-01 5.105534568272841467e-01 1.060692351075477324e+00 7.627032140062602883e-01 8.668122417569000815e-01 8.101803752188951879e-01 3.558298195045835888e-01 6.745550440522998237e-01 5.563318539438457666e-01 3.956323400816352254e-01 -6.999892114532543230e-01 3.819562519317105109e-01 6.862808851104593710e-01 5.504826041654187208e-01 5.447936974501451646e-01 5.122019021472733469e-01 6.063132257593284447e-01 5.439839165151330036e-01 -7.713097492354510365e-01 6.901556822258111401e-01 5.172687135169226069e-01 5.451087462804408285e-02 5.400081926815123445e-01 1.841173758678752881e+00 4.946922388362727796e-01 5.126392752469238756e-01 4.729272931486480647e-01 -3.341123286167396955e+00 5.208173578066799259e-01 2.708676276939950167e+00 7.262319013530310619e-01 4.951901256675881324e-01 -5.815250555186692871e-01 5.113936556845573023e-01 5.103487201656599082e-01 4.319482361893932088e-01 4.612046614874595329e-01 3.824298088701124088e-01 6.358803054318757919e-01 3.148705760468020753e-01 5.171470093580642358e-01 5.206775933907432652e-01 3.666635721330896436e-01 5.189519353128185797e-01 7.263918279467371786e-01 5.131063607516365144e-01 1.187887849345772073e+00 1.038306674563453311e-02 2.201346438511617265e+00 2.600595044857980653e+00 5.473598653220022037e-01 -1.960570303100577227e-01 4.624629915723292850e-01 4.050735874535523195e-01 7.218766563572162065e-01 1.360057070547324054e+00 5.385947368332271168e-01 1.117553945501330803e+00 5.126857006927260096e-01 1.289975824782239322e-01 1.244018511575830876e+00 3.916188797800401744e-01 5.052370754382692342e-01 5.342367707103654606e-01 8.726004630273871410e-01 -3.613563988604904686e+00 1.610916017023195312e+00 5.548289649632783815e-01 6.396690794750536924e-01 5.078999063766387323e-01 1.743145917762197294e+00 3.104789516396245230e-01 5.365184869884093155e-01 4.984675025558982231e-01 4.254064383251275339e-01 1.382647710680113384e+00 6.197527046627743230e-01 6.747194011792265744e-01 4.666121030499169042e-01 5.996934910485632875e-01 6.442414584308033820e-01 5.604439436474266678e-01 8.892253753723357024e-01 5.102117285267838698e-01 3.958139976728530240e-01 2.310145943218851750e-01 6.432402779346092503e-01 5.058830913464488210e-01 4.572128870436220072e-01 5.365184803232213584e-01 6.615582809060793767e-01 5.123720832822977744e-01 9.921368004441438737e-01 1.002067018529599896e+00 1.118650245671615640e+00 5.162627799609981194e-01 2.445672307801393663e-01 9.093821931740598830e-01 -1.086625916480673248e-01 9.330109559682141507e-01 6.270035654040652107e-01 1.161981600980797197e-02 5.609706648822948560e-01 9.980468252145681118e-01 3.923119448252235242e-01 5.303058876700016411e-01 2.688637150224988948e-01 -3.291981261793524016e-01 -2.414370179756443857e+00 4.689462355253513626e-01 5.996934900601725849e-01 5.996934541142249220e-01 5.247580487606773314e-01 4.586381556183369290e-01 -2.049163827758674061e-01 3.382027118765544849e-01 5.188544403992687570e-01 6.426502273203961169e-01 5.118796536258730656e-01 1.062095300170919243e+00 6.747192507378022563e-01 5.088075138722383262e-01 4.732951649333733135e-01 2.661147084556567122e-01 6.472767886300181406e-01 5.240258178193258898e-01 5.112222862129105483e-01 5.594050187396238938e-01 2.699295247093776440e-01 2.582879220208289528e-02 5.996934910907552041e-01 6.556487217640355469e-01 5.139448049879822289e-01 4.427139255678738672e-01 8.570112128459804746e-01 6.583294122741225607e-01 5.629575763501230012e-01 1.806300799036411719e+00 5.238329530584676652e-01 -2.968528190350108176e+00 7.259028600828747457e-01 1.499966871986837091e+00 5.040243887363304864e-01 -1.035288386877768918e+00 7.047238902720314169e-01 4.718586809006645733e-01 5.147622268609297613e-01 5.203988217124739801e-01 -2.675700186598578001e-01 5.089695250277359584e-01 1.063435893009676114e+00 6.261412983714090830e-01 -3.186287042917581580e-01 5.126253976683893265e-01 5.142833214383910612e-01 7.651281618094126769e-01 5.317789665058666460e-01 4.964999818000920828e-01 -5.020224254127578778e-01 5.626572257083487516e-01 5.090901380511178020e-01 7.099113187169806549e-01 4.829831452011044690e-01 7.639141486267115866e-01 5.130737146363636425e-01 5.697017393202309377e-01 7.218203457430827363e-01 5.519992386306329379e-01 3.401909536754038621e-01 2.651577293408621250e-01 3.106779718964539638e-01 9.529531166500995187e-01 5.449173528884649897e-01 3.149020754801802990e+00 6.606810086567515006e-01 5.999215753364012249e-01 5.602247859515617767e-01 6.332713584417888342e-01 2.775793303292389824e-02 4.828573314235323766e-01 5.937685801656943374e-01 5.241885578954919023e-01 1.165608758461040617e+00 7.642400107666433851e-01 5.274248624429049848e-01 4.524156814100437352e-01 1.114006550941148976e+00 5.273971593812192271e-01 5.338826041318615045e-01 5.107855532455904957e-01 7.145350245463801819e-01 5.076565520476291615e-01 9.175142617351539354e-01 4.814092394452705315e-01 5.108668937507020447e-01 9.475598205743829966e-03 5.340794975491776064e-01 3.308131251018126689e-02 3.645112283645793871e-01 4.191604124821726174e-01 5.508200432835744786e-01 7.702451494181052905e-01 5.157101836566647668e-01 4.013806644376163857e-01 4.597376856139720469e-02 5.597038007081260869e-01 5.420613443508137674e-01 5.251079056797460787e-01 4.699422955720422568e-02 5.075519682532837473e-01 2.470117935997989123e-01 5.112428203344272504e-01 4.317576617068331624e-01 1.249371079219890213e+00 7.914001762178166643e-01 5.154161980486956507e-01 2.779399923824977248e-01 6.263216425344744209e-01 4.183564833744021216e-01 9.855434997800822661e-01 5.819184128562510105e-01 5.307400490739153653e-01 6.834088634451727096e-01 1.963093006062021084e+00 4.533720675083112162e-01 4.143981873916952607e-01 5.139261952951147405e-01 6.900481041479206157e-01 4.371544141282083240e-01 8.212166591577767516e-01 -5.618171154097810760e-01 3.170800710617667217e-01 5.451067610265692975e-01 4.368781878400754271e-01 3.726394918498270870e-01 -5.966339977994193911e-01 3.905811818759913900e-01 5.069195809758265669e-01 7.391022214637792409e-01 6.637527420868799544e-01 1.415090291397961497e+00 5.098463209446323363e-01 5.023740865030396074e-01 -6.782139961038837761e-01 4.965998872817345422e-01 1.195874199427441775e+00 6.924533887009867161e-01 2.513057104789651053e-01 2.849250930320506581e-01 -1.558057811406015070e+00 4.863628502588927538e-01 1.927064091039106530e-01 1.091116707814400622e+00 8.115993108020812530e-01 5.156973087492275898e-01 5.053361595031768960e-01 6.196494530985798832e-01 7.258318989147141131e-01 4.711895565893500226e-01 5.654234083954623458e-01 2.454917745251276873e-02 5.120106569004072572e-01 6.259720628873037818e-01 6.512433520358951178e-01 4.975615758074818928e-01 5.907246633364748867e-01 1.183102599409985745e+00 -1.100028000682336943e-01 -2.259725855485486268e-01 4.526594542985231118e-01 5.420503922447381662e-01 5.618202543043948616e-01 5.287030851363886397e-01 -8.283181118280805721e-01 3.114018278075245671e+00 5.924612022901751818e-01 4.592186096390472594e-01 4.125352427789637511e-01 5.089257078939881662e-01 5.165850795626862890e-01 6.373057099941626946e-01 3.273850551296293432e-01 5.765904473526798357e-01 5.080797030067975006e-01 6.538397855322762853e-01 3.754040629955969766e-01 5.249446081820839938e-01 5.255409934172402542e-01 4.063059128345835602e-01 4.688529718620714770e-01 5.475955175455415880e-01 6.421996445672911724e-01 9.982889971620776404e-01 2.287911069816157550e+00 5.766797523444832096e-01 4.937736528866819574e-01 5.458944035672721462e-01 5.429945432575532527e-01 3.640654889617766510e-01 5.087847619174095115e-01 5.087043145610496975e-01 5.482894844646092336e-01 4.769308842159893924e-01 4.855036060923623720e-01 7.261381848621732971e-01 3.698332714150026068e-01 5.695743551991762077e-01 5.265194276219451464e-01 5.804370225548852735e-01 1.265572601755836080e-01 9.093819116481739462e-01 5.443429840969514766e-01 1.485444503573813968e-01 1.906809791997593040e+00 2.668687589773309776e-01 4.652363168153428319e-01 5.842667892313103684e-01 6.028406859598636758e-02 5.275812600192208990e-01 1.495750210894381205e+00 7.481614685529042186e-01 7.891399364994012844e-01 5.085929110477152015e-01 5.433103536149722634e-01 5.047972000539112658e-01 6.183239511592403259e-01 5.063059845084724175e-01 5.104973641967013309e-01 -1.553815152093893925e-01 5.881795545900324607e-01 -1.363463321913482185e+00 5.377949096704619514e-01 4.913899349322490284e-01 5.541692893002860831e-01 4.729405496845671131e-01 9.093819117014338982e-01 2.271687030407980590e-01 5.669481356000094507e-01 1.308437390744114026e+00 -5.309889654555305372e-01 5.171538179314284500e-01 1.115009674546937113e+00 1.473092102784980595e+00 3.903964884487831632e-01 5.180247188186084539e-01 -4.402652282616821566e-02 -1.636229018104819355e+00 2.839664084077017647e-01 7.293567885369490744e-01 5.265904505354545018e-01 5.122032566778684792e-01 4.742852341986387166e-01 4.885191669563487826e-01 -3.874708812181371087e-01 8.082521343639836875e-01 5.122019027369431043e-01 3.441522353079047303e-01 5.463773307860207984e-01 -2.372328967136936098e-02 -1.761078736534845701e-01 1.749879463631629717e+00 4.171349871036006407e-01 4.416512884578735476e-01 5.138906527829961712e-01 3.326490522543827377e-01 6.242504576727940790e-01 -1.383272131377972711e-02 -9.880072133974266979e-01 5.108165434790932213e-01 5.111537926934848208e-01 4.909004515753970233e-01 5.933883913521372788e-01 5.550368283726341279e-01 5.414314181788990599e-01 5.243920941805220171e-01 5.817530878738290667e-01 1.023494740629569355e+00 7.285115711344635203e-01 5.547824986021070437e-01 5.449622736356186659e-01 4.675547322808701889e-01 4.253600063477273041e-01 2.888365523757117047e-03 5.365184819731134702e-01 5.549759365042211678e-01 4.603302222976818348e-01 7.429787694510431306e-01 9.716941788858697304e-01 8.212230638077423484e-01 -4.642755724212330737e-01 5.550113137318823942e-01 5.222214127487876389e-01 5.150500982110277626e-01 5.728849897783122591e-01 8.957862960287694687e-01 5.497396315926394994e-01 4.974518019506309896e-01 -2.001185515925812120e-01 -8.365093787043612616e-01 2.246169118297105527e+00 5.229351776937858354e-01 8.867095957981873111e-01 4.841044874046744884e-01 5.671617008376074187e-01 3.602695037300268632e-01 1.487818900330421246e-01 5.101866999108809475e-01 5.430591105936680707e-01 3.638779710619658141e-03 5.114834535262501314e-01 4.243040287439553970e-01 5.002740097225402138e-01 7.475421785168900879e-01 5.040407606371963833e-01 5.858404500258016512e-01 3.865082885353152697e-01 5.366510143275993183e-01 3.499621412869633463e-01 5.068076016914757620e-01 4.487565662663113852e-01 5.281393167647520093e-01 -2.941643625571347953e-01 5.061685720459223603e-01 6.430487088619923908e-01 5.379117221672324867e-01 7.263938499624575940e-01 9.093819151568987014e-01 7.353908336907786225e-01 -5.785191043639245079e-01 9.937274980083622422e-01 1.743145916513452853e+00 4.753666739258484153e-01 4.638807242600354042e-01 1.067473801345181217e+00 5.343201996588418101e-01 7.264617138134400465e-01 5.114108371971290978e-01 1.778822478445292177e+00 5.171027102897998162e-01 4.666161781112733165e-01 1.233980427976800298e+00 -5.126881241192943195e-02 5.422265863330697488e-01 -1.687257445988839533e-01 -9.321146709796427343e-01 -1.763830097879831305e-01 7.805978189569975356e-01 5.355185766546981530e-01 5.738534296228317011e-01 -3.354006795937867769e-01 5.109313688700913847e-01 1.343531508520471283e-02 -3.454349178468928416e-01 4.602374652315726622e-01 5.089537011183684623e-01 5.155190717881489304e-01 5.690128034192346584e-01 5.642853528685496389e-01 9.006571050564158298e-01 -3.776660289475521903e-01 5.056006595015172245e-01 5.677303617159304983e-01 6.282056564107326713e-01 1.157140771083671860e+00 5.181761875316998056e-01 6.074838132397453183e-01 5.064876193120022574e-01 2.194327309559368847e-02 -2.670620710272104681e-01 5.172893073406594766e-01 5.077371793779550391e-01 6.594705498648046893e-01 5.044768396979318892e-01 3.346451282754404066e-01 5.121379042913708490e-01 5.147842653886076647e-01 3.338708133276286349e-01 5.090945225319005729e-01 8.369215099029159166e-01 2.513702480386084126e+00 -2.349407295424470743e-01 6.682469914586555149e-01 3.409021351713262815e-01 2.234323335778939101e-01 6.862608663941365261e-01 -5.649657102648368567e-02 -1.477696695783536462e+00 5.199109552206677698e-01 2.574331307031028082e+00 5.031791382210945018e-01 1.455594223622372618e-01 1.819120070477225071e-01 5.122019029575832771e-01 5.551575937571360253e-01 1.533631969930505656e+00 4.871926174593373404e-01 1.255953666890843590e-01 4.460081193764386942e-01 1.659323401510478968e+00 5.698811233147974553e-01 7.072148535557550852e-01 5.214361527155408904e-01 7.423761026807724761e-01 4.527474768197716770e-01 5.604860227578462029e-01 9.985566088516880864e-03 5.053232519919608201e-01 5.463955043027537428e-01 -5.616079499219903681e-01 -2.769657643841576949e-02 1.167387345232643980e+00 2.347145893534033079e-01 4.933328559766391730e-01 6.704482566148640688e-01 5.453423542791834278e-01 1.984095250204351180e+00 7.081592006348261803e-01 2.836472013292944822e-02 2.579212091623583891e-01 4.069570695964024321e-01 1.092268784886378352e+00 5.477416973657335264e-01 -2.034670596987233487e-02 4.952728903964025431e-01 -2.436441759609313598e-02 5.215791405829587335e-01 5.045480978654885984e-01 9.973405992714094379e-03 -7.234837147579027683e-02 6.650801028879579357e-01 6.224266352923674139e-01 5.261479704998296425e-01 3.100242367218789541e-01 5.289512820474266963e-01 4.816160150420706332e-01 5.679850602299433282e-01 5.501215764129624430e-01 4.820478957323334201e-01 6.419589860827227268e-01 1.012597464613034681e+00 3.077303285844340763e+00 8.893344098924653718e-01 5.224584454854712678e-01 6.541668715480972729e-01 2.105043128176368461e-01 5.123774420602726920e-01 8.337670462578040675e-01 4.820016587300780531e-01 1.315750792536406255e+00 5.112227566410965096e-01 -5.618297335889360644e-01 -1.093688703053173443e-02 4.177926104321663670e-01 6.106268594536283789e-01 5.411171075929172014e-01 5.050193576574895094e-01 -3.572862049098653528e-03 4.986339041782957837e-01 3.924344649133567620e-01 -3.534479169711548074e+00 4.906538355697670495e-01 5.264923641933982879e-01 1.116312774907862515e+00 5.165618094337900423e-01 5.947058270353748899e-01 6.794773841574406337e-01 -8.577004596013957372e-01 -5.069882124188511696e-01 5.638148198225512164e-02 5.123809497152317372e-01 4.064855440017153820e-01 2.262303745568705615e-01 4.865102387089306757e-01 -3.291656529346623228e-01 6.565769742924303376e-01 5.519843475606072136e-01 6.931678750075580542e-01 5.341795251843768355e-01 4.775133051300620157e-01 1.666084330823880966e-01 -7.266788375850050663e-01 6.485078368402671378e-01 5.209028931531487494e-01 1.670243352619645294e-01 5.101706603446148902e-01 5.871294816286672935e-01 4.942975114405954717e-01 6.687233734760742454e-01 5.657442978566513681e-01 5.361122110211056224e-01 4.974932328728957631e-01 1.743145916517232719e+00 3.727846638654312428e-01 5.522154258632074875e-01 -1.032247863162513851e-01 5.354920058793224413e-01 6.184085506963619139e-01 5.171805578575375817e-01 5.031917435960642226e-01 3.470767370508319738e-01 8.940327188504921807e-01 1.174703795926478778e+00 5.577277873604644665e-01 5.535942732588099435e-01 5.950665008875191120e-01 4.646584226275121687e-01 5.276553062443815056e-01 5.121064637636790762e-01 9.937460178652487430e-01 7.323462840833788734e-01 -4.469593965941644487e-01 4.424313271702992045e-01 9.205271658591039907e-01 4.858947433350282452e-01 4.168360337132361601e-04 5.313523893061045111e-01 1.175175522796275684e+00 -1.381458721452178684e-01 5.340015975884652155e-01 2.534804926461038388e-01 5.445935507002763742e-01 8.058633142939766181e-01 5.070245602393014250e-01 3.662516416526124252e-01 1.388375985246001365e+00 5.202783044374607035e-01 5.206701405873676025e-01 -6.082134161962345908e-01 4.621439314465305426e-01 1.044268128820484254e+00 5.821761592632843652e-01 1.079354483926282110e-01 9.423650993729156822e-01 -6.526176830958464736e-02 5.419988988775064076e-01 1.581086567887171057e+00 -8.481626397484391955e-01 5.318034402266058613e-01 5.084972722214801122e-01 -4.325616537396836381e-01 3.395283285416481611e-01 5.597291357705789228e-01 4.641044864756851407e-01 5.322455750092276450e-01 3.474316669862210771e-01 2.642246350829260959e-01 3.475841589681532562e-01 5.317691645998122718e-01 5.112593104667683130e-01 3.668760952969456462e-03 -5.300777314723564837e-02 5.083460475419914193e-01 1.057796819003364419e+00 3.929107140268312537e-01 -5.613497104478311073e-01 5.556580881418845541e-01 5.133791962580489532e-01 4.747748040168366934e-01 2.459599577943561918e-02 3.432269322780469034e-01 5.091042012142232842e-01 4.979397889669603949e-01 4.558548153805302428e-01 4.768211708013873201e-02 4.422437532490473555e-01 5.031732653076974593e-01 6.618820973644784500e-01 2.061750010135272593e+00 2.735249710857330999e-02 3.810701198892303410e-01 4.700424645999146112e-01 1.806272386471028391e+00 5.306570728475475951e-01 4.948085998343126901e-01 1.406307804226260109e-02 5.365184844109016638e-01 5.183901979798893889e-01 4.697220340933987992e-01 3.817467290515381695e-01 5.224798538006267812e-01 5.791830912909454732e-01 5.393501321448225250e-01 -5.022342136266543244e-01 5.089780264359257123e-01 5.096281768782467969e-01 5.079131113011660092e-01 9.511302470556398658e-01 5.007300142536447174e-01 -2.384858608283548509e-01 1.039289720282264406e+00 -1.213912122812092376e+00 -5.006705290141546527e-01 5.089002452531341536e-01 5.143602223321979139e-01 6.476472354834870160e-01 5.248776555747294292e-01 3.587849655029711760e-01 6.278960175598505833e-01 5.365184849091855224e-01 5.129576082909966805e-01 6.044378776937153752e-01 5.717486514571995526e-01 5.121573341276884905e-01 2.814875705598726130e-01 4.911033474091059392e-01 4.475651232313447303e-01 3.601457577464658999e-01 5.001426407219318193e-01 5.081448876580584306e-01 5.454744764980967719e-01 6.330611031251169862e-01 5.175412187630891170e-01 6.502623241033539392e-01 4.734044379960624105e-01 4.984548337222579062e-01 5.469674876828777288e-01 3.291306393930954477e-01 4.548428536376094011e-01 2.355681794116460281e+00 5.764900609263956532e-01 5.601712083334070558e-01 3.264150691485358524e-01 5.778939124133982697e-01 1.103939477477966280e+00 5.708557074874603954e-01 7.154561069384950400e-01 5.089761193661159755e-01
6.807572073327606832e-01 2.480044704340160222e-01 4.062920822832542522e-01 4.913889815043506054e-02 3.204343414727796602e-01 2.916509636898667046e-01 5.259940419980571047e-01 4.556576461950469503e-01 2.138124119080879182e-01 3.326089530733377653e-01 2.021313441734446492e+00 1.693485387944289267e+00 -1.409805423398738711e+00 6.226895475106870581e-01 3.137548182328312452e-01 3.821580282498635017e-01 1.282730890242967936e-01 4.211884836540531474e-01 4.486914785600052413e-01 3.047426213121539607e-01 4.731021481657710082e-01 2.075438973438137769e+00 4.032038947143818386e-01 3.630171915635774793e-01 7.034829190709944724e-01 -2.647853053958025837e-01 4.693886104898293277e-01 2.611198693241210123e-01 2.851647531733851881e-01 -8.315461860717048292e-01 2.288847148429900280e-01 -9.645055530881906092e-02 2.894880287274957942e-01 2.531171980904722840e-01 -4.292983563064242114e-01 4.201673450092540119e-01 3.077613391463839831e-01 -3.225049298051290148e-01 -3.164576282705072963e+00 2.933482397947769771e-01 1.104734483372116216e+00 1.385191049627477744e-01 -1.628733695299561801e-01 7.914008327952934962e-01 6.572696163831883709e-01 2.768338120443752937e-01 4.911354305167652673e-02 3.007111266827365847e-01 2.766173307242388302e-01 7.175260563997553076e-01 6.951614201670446302e-01 4.493988717629753826e-01 -2.830366240678485190e-01 1.971344301390236531e-01 6.050399443399508970e-01 6.865029493745591349e-01 3.365668203038845729e-01 2.807155031403820722e-01 3.481276618017365432e-01 3.381694304265218110e-01 4.224796212058022360e-01 3.389992466374232016e-01 3.242897680949686223e-01 4.032039117226564051e-01 -3.456970268564036886e-01 2.242778471221922587e-01 3.222770815456482696e-01 3.416193276216846209e-01 2.561836115275085701e-01 7.307896584424914410e-01 1.179182894436133500e-01 3.295303570442492114e-01 2.924045255793646381e-01 7.111060375665794187e-01 1.887500769579225190e+00 5.175770485355112305e-01 4.660202892498362393e-01 4.783507260869390709e-01 3.120635907773769424e-01 -1.313451419533568032e+00 2.822558597316358608e-01 6.459455291990813253e-01 2.243267450351446701e+00 1.313559939536504961e-01 2.853029579592206155e-01 -4.322643638393414700e-01 1.185667526073035244e-01 2.865462594232678351e-01 -5.682945759104935934e-01 -8.606775107521440482e-01 6.568053884887260496e-01 1.540340921390884743e+00 1.083981757482228719e-01 7.078229849618976610e-01 2.982842760393216164e-01 2.973888633739439902e-01 2.769680432006347282e-01 7.210692232079780606e-01 7.390328406351709400e-01 -2.661598564597287275e-01 -1.643624292974380785e-01 5.670611941591500310e-02 2.854792758692146215e-01 2.172364564323118474e-01 1.912769159001620825e-02 3.032296920279336394e+00 -2.763781154660877037e-01 6.033797616381388063e-02 2.119356469659244013e-01 8.062941579804325798e-01 2.282817777264434522e-01 3.909129473858488080e-01 1.716152203400546916e-01 4.815369791598885230e-01 -4.947898422949320030e-01 2.058563595764739407e-01 3.490970236424932316e-01 3.789013130546211028e-01 9.521995609761356727e-01 3.234723494594053950e-01 -1.424620964009330581e+00 2.735040557425393315e-01 2.336536291063726345e-01 1.283637292617524572e+00 2.972497439424761079e-01 2.126750180849682703e+00 1.678975162706732582e-01 3.845768851079285344e-01 2.915911814196993634e-01 3.305041675889692221e-01 2.495055628524744384e-01 3.146325683313190846e-01 6.713024645956199299e-01 3.993510612743051413e-01 1.854416157610506155e-01 8.847292994349365003e-01 6.923799025099895976e-01 7.259063807591866757e-01 -3.272392065764775926e-01 1.967039997397667106e-01 3.204747822542701186e-01 3.212808421284077398e-01 2.254061329039468708e-01 3.301193215708293494e-01 3.149002276178643478e-01 6.965577745825555223e-01 -1.097292402683542473e-01 3.184041473798755462e-01 4.473466475246008489e-01 3.942490673615696162e-01 -2.901578779830546462e-01 1.992392769975694436e-02 2.768366117437168206e-01 2.850573279892981704e-01 3.727778467132656370e-01 3.095494470985890034e-01 -2.215215318538948708e+00 4.427869933101353239e-01 -5.817577627620074132e-01 -2.645244954238128998e-01 3.696542036941738996e-01 1.868853178491439171e-01 3.257669253092757011e-01 3.102553453302472897e-01 1.067891771357555725e-01 5.483172843497717552e-02 3.137068358587163930e-01 3.946547350636094298e-01 2.508415920703545576e-01 3.713063672149217176e-01 1.895728549497004423e-01 4.884345544134548883e-02 2.768615278737367458e-01 3.128880440975542188e-01 -2.454437621938948766e+00 7.199504101354389229e-01 6.390506098913545374e-01 9.843554060236460179e-01 -4.513957392429349680e-01 1.167468470321237684e+00 -2.403705820686245082e-02 3.419238806123603425e-01 1.224330617962586354e+00 2.522406874285883505e-01 3.031217286200556527e-01 2.583236397333030232e-01 2.620718563056433914e-01 2.954213037687138943e-01 -4.529527061650125974e-01 3.736209273335781011e-01 1.955896129139255701e-01 7.998312828369860128e-01 3.050085029685001836e-01 2.179038980516841140e-01 2.197999905607981586e-01 3.226502919969250205e-01 -1.602633249165148932e+00 2.987982718625634138e-01 1.791193572703724812e-01 3.482593653441759529e-01 1.286296957701304755e-01 2.984871599742197623e-01 3.746226248651372548e-01 1.258820852441899785e-01 -8.065415033146824397e-01 1.791193237402626814e-01 4.442639392602069082e-01 -5.006983268721574287e-01 3.295457005555895713e-01 1.522487703286180549e-01 2.683446043284503646e-01 -3.168809012422862725e+00 4.312022346475425927e-01 9.391012295419713940e-01 3.087564454582773510e-01 3.289118726767806256e-01 3.201520862748791774e-01 2.969059737890417661e-01 3.155565225563922716e-01 3.091540376378937305e-01 3.164124349954052784e-01 1.986315764205163759e-01 6.558037468988667795e-01 1.518427321098791971e-01 5.292118025546267424e-01 4.375646381102469840e-01 3.785649485279700133e-01 -6.267820704969756518e-01 2.224866345507058085e+00 3.756705215470261816e-01 1.224715748091652623e+00 -1.374180189290776788e+00 3.151419568662379156e-01 2.008426220647497318e-01 3.461303003798598676e-01 1.138211674834717302e+00 4.685121044679221858e-01 7.868529535727774027e-01 2.771317158898797262e-01 6.705219467251973819e-01 3.451151957899991074e-01 3.124439001954902317e-01 -1.139702879570943406e+00 3.360520198031957118e-01 3.225813238261398541e-01 4.602724708983299551e-01 9.203724085563547153e-01 -3.325907922461971977e-01 3.057328085708525212e+00 4.545017407572072843e-01 1.204746443890487351e+00 -7.751266395419474653e-02 3.274004906752204791e-01 4.032040899370114007e-01 3.021047909547718846e-01 3.002293586190548647e-01 3.432823819302618928e-01 -7.975628133197634750e-02 1.661567733027693727e-01 5.604014649112124546e-01 2.910843117465862218e-01 9.076029590071749142e-02 2.785140136446143111e-01 3.155262171627920553e-01 4.224796045533624200e-01 2.718652150185461025e-01 3.144588676395791538e+00 3.825855565934930813e-01 6.563316970072585743e-01 5.443293003716030976e-01 3.482115970756395340e-01 4.225897906486128508e-01 3.138331663690012152e-01 2.624508626003393963e-01 3.128069516382284698e-01 -4.925299878911126306e-01 4.796253415482794047e-01 2.855370725184100400e-01 1.130008455341867390e-01 2.342031073944547126e-01 1.506968737395873781e+00 2.241606413613883853e-01 2.751056606367802693e-01 1.973810210795312603e+00 4.888073813647053067e-01 3.553876415210054374e-01 2.772460054843989830e-01 2.979683694621844681e-01 2.058563579664053067e-01 -2.037862139542648610e+00 2.861431700037908032e-01 1.455633684704890518e+00 1.633598407969582764e-02 2.228883076990453294e-01 7.163067571940309186e-01 2.493057208923147028e-01 -7.089829290859571698e-01 4.451206572388936578e-01 3.214677724010865933e-01 4.473850598125896361e-01 -3.744034782804566697e-01 2.962472026206207087e-01 -2.091767658990709489e+00 4.906763711258733951e-02 3.324627940082509614e-01 6.077222972050598804e-01 3.069808718368836065e-01 3.175177287354450928e-01 4.407777071895167542e-01 2.263839176994271729e-01 -1.284103413232919599e-01 -7.486367934119294576e-01 6.847463052197389453e-03 6.789128603764797987e-01 2.992861526040178077e-01 4.780404115839704815e-01 3.103251357557077483e-01 4.923968312963825783e-02 3.065537382959117041e-01 2.389412756604608834e+00 6.937806278688274375e-01 2.464606218473370525e-01 -1.124948063266749454e+00 2.215266946156542460e-01 4.549397943449931425e+00 3.145697327119467701e-01 -9.961683860057866935e-02 5.678294050933275772e-01 -5.437307876163875342e+00 4.971997449984753570e-01 1.506605017019989390e+00 3.074767219374489047e-01 5.438615365029981774e-01 -4.294995481151868688e-01 3.488421190039505126e-01 3.061682613394530184e-01 3.464672491738408633e-01 2.573895341370001089e-01 2.846877198371069007e+00 -3.595734672391838194e-01 2.566689286632894973e-01 -1.885540142536464181e+00 2.836429944776307499e-01 -3.225049328599385312e-01 7.371632746129727076e-01 5.570104896780651016e-01 3.604075581143821316e-01 3.465446697993785907e-01 1.288643666770008078e+00 1.340790403982054790e-01 1.791193325800631286e-01 3.360580643605845519e-01 1.258820831685079078e-01 2.445482700486701910e-01 3.989959748828776909e-01 -5.944146056221893959e-01 3.138785967712301450e-01 5.291031453342603941e-01 3.647927987785965498e-01 1.734367529629018967e-01 3.221946708444342056e-01 4.371135372809173414e-01 5.570105097683230033e-01 3.444985949057953190e-01 3.138345036561579482e-01 2.090991024759671357e-01 4.603442508391185073e-01 3.287951655344788726e+00 3.077827765532002990e-01 1.743205273665465183e-01 4.224793419781120996e-01 8.561802424636911768e-01 4.622997238140543752e-01 -1.888834138993882583e-01 6.951286076010544379e-01 2.264104353931391256e-01 1.113644849116808278e-01 3.855145420752572050e-01 6.471166603796237871e-01 6.663672220326262163e-01 7.693080733154993300e-01 8.046732475695912434e-01 3.876580005663259887e-01 1.258820851890111725e-01 1.258821451458354834e-01 3.601651905543232779e-01 1.053238540048257732e-01 1.120044474748012275e+00 4.168428409033889670e-01 3.246430814575107515e-01 3.858701925064070282e-01 3.132754502537676844e-01 7.888496054207718711e-01 1.791196065325594278e-01 3.153011324742147070e-01 4.347588522297242686e-01 3.119499039267866203e-01 -6.282787288601261455e-01 2.957401716649272760e-01 3.081805878559933376e-01 3.536844507452218123e-01 7.052010995320385778e-01 7.476519050989270943e-01 1.258820832910822196e-01 3.372967731005374614e-02 3.137382403103176065e-01 4.106479049400048043e-01 -5.885401577688501584e-01 2.196194358667813429e-01 -3.423338920003875963e+00 1.887204927691249257e+00 6.191588268939196560e-01 -4.331339092242767475e-01 4.911338422457080244e-02 2.015766173437461894e+00 3.223658143913480933e-01 6.280456932963597305e-01 6.379551456292360812e-02 2.767133490721528921e-01 4.633007683491700557e-01 3.278312190969952522e-01 -3.977226480863057523e-01 2.646627779948226289e-01 2.014122490095617835e+00 3.477513561251921459e-01 -3.874291490969309915e-01 2.519032116759861717e-01 3.043951275507514875e-01 -1.436093051268859888e+00 2.768594252059855543e-01 2.903725579389681011e-01 4.026087375059552165e-01 2.324661296289065038e-01 3.123507718208252681e-01 2.418894226070139319e-01 3.228791980604688305e-01 -1.598113639459443347e-01 3.116435424129985199e-01 1.517943125963559792e-01 3.416769113058558127e-01 2.625792740634126377e-01 3.003822420595429754e-02 4.508359922092077809e-01 6.358317857759837599e-01 -1.341816201803494035e+00 -4.689960138566942049e-01 -1.027434768682193994e-01 3.925892908145946908e-02 3.232436872629624869e-01 4.231351077213953427e-01 3.623707663521524847e-01 7.158980586398258072e-01 -9.296484347185693387e-02 3.299049259808262691e-01 2.938656476421027119e-01 9.150191029936532994e-02 -1.600742225936122309e-01 3.351447659195541662e-01 4.287350410719283911e-01 4.783948619003506320e-01 3.008421108257526844e-01 2.892219676777731951e-01 3.225478201144702517e-01 2.622237848134961191e-01 3.224316292770836312e-01 5.163821305539451068e-01 4.292676725890783862e-01 3.114532933824833427e-01 6.957781311790902645e-01 2.940216010124729884e-01 7.094827255508163733e-01 1.171965865622310865e-01 4.735583876174220275e-01 2.130351620044720895e-01 -1.426134092714737012e+00 3.089556275714883671e-01 6.404798874273969211e-01 3.937138556970450898e-01 2.536158902930685244e-01 2.840197298606447207e-01 3.176195659027531981e-01 7.077377872559630356e-01 3.220080295318407115e-01 3.570187060264496948e-01 3.114173949668541108e-01 2.966891530741362359e-01 2.247303711657620273e-01 5.292119885113646394e-01 2.963695732870273436e-01 2.827288030695436216e-01 2.157696907671563524e-01 3.622338156317457536e-02 1.599515103131747384e+00 3.385838781369160388e-01 3.750813953526279110e-01 3.713448082773375680e-01 -8.152674396287110659e-01 4.402513747936936395e-01 3.526497628236981985e-01 5.364140417642820902e-01 1.689835904437031813e-02 3.359172333475486938e-01 1.477084818234308816e+00 8.844637007461153555e-01 3.804551622456129323e-01 2.578887142036248581e-01 3.959546434290788230e-01 3.192029406531481373e-01 9.047905240986342523e-01 2.967692473216276383e+00 3.222472717449484381e-01 6.590533593732447737e-02 5.964934833121604552e-01 -1.561615895227817519e-01 3.165509343574880452e-01 3.054655253317688501e-01 1.048392272076772436e+00 3.397416382546117886e-01 -3.019520237521202133e-01 3.668817348586789207e-01 1.119411168711514915e-01 6.653641769692392183e-01 1.662194208718050792e+00 3.827699238876083876e-01 2.328454002376560417e-01 1.639417624320728128e+00 4.168860604460732922e-01 2.842953943064132627e-01 2.887370563620654806e-01 3.724245664214524965e-01 4.950783990585367472e-02 4.190172762865277400e-01 2.336395370192254906e-01 7.168783662657672862e-01 3.190208263798686161e-01 3.472239390384227464e-01 2.976335966663877231e-01 4.600869521225126046e-01 2.644343968389378796e-01 2.511129420787236999e-01 9.268910282866991146e-01 4.994328890525361886e-01 3.726451791164903660e-01 2.896111325162155636e-01 3.186204328276135977e-01 3.284556779549522298e-01 5.819072172020218758e-01 7.628406543446212273e-01 3.051316089400735732e-01 2.723497552177779335e-01 3.888499235494357054e-01 3.076360552966202477e-01 7.468864569976496615e-01 2.054406658097429617e-01 4.331881610998457033e-01 -3.173292193128006144e-01 3.169399721618673671e-01 2.287015031335661586e-01 4.017268543372125578e-01 3.545139574096366486e-01 2.263095614567817715e-01 1.734266206641639663e+00 1.504648383192466743e-01 2.878956876807295950e-01 -1.383774978841791625e-01 1.586795903956570886e+00 1.133928539973716676e+00 8.282152022143447756e-02 -4.648288446830879939e-01 3.129917072604346262e-01 3.331629267587686294e-01 5.138252391247855044e-01 3.128608777047073297e-01 3.102573620973720359e-01 2.017506683358417374e-01 3.295559854654222520e-01 3.580665051969925683e-01 4.938941770717859836e-02 -1.633867878234517013e-01 3.863962010526872382e-01 3.754184148402494592e-01 1.884020210713408250e-01 8.529403358957183823e-01 4.224796111125698750e-01 2.172894389818634531e-01 8.179723749030057833e-01 4.763402818751703571e-01 6.570345489351921975e-01 4.237677612090773871e-01 6.835628170965338812e-01 1.454474589419077812e+00 3.073840809487853876e-01 2.023384592712557772e+00 -1.138089792059982473e-02 1.309499785823228513e-01 3.192098573556917396e-01 2.872217260166380348e-01 3.108684118717184863e-01 3.713206150362611813e-01 3.286705828066834312e-01 3.180468259339095938e-01 3.511616889685884590e-01 1.807194793807132271e-01 -2.710960735486925843e-01 3.045939241930680774e-01 -7.745257075946171410e-02 2.546166942279098344e-01 4.474548764364285613e-01 4.224796110546367722e-01 1.952716284563655313e-01 2.533277061023183063e-01 -1.173052630855451639e+00 1.915704047753820083e+00 3.126163463808001031e-01 -6.829771678704641413e-01 2.981436822394688546e-01 3.161705892616096802e-01 3.105078347200066480e-01 -4.642840317292403540e+00 3.449127819895000169e+00 6.165542328600954747e-01 1.193531936109217956e-01 3.403665102783822172e-01 3.124274463380717903e-01 3.337817054690249696e-01 2.553670241620523917e+00 6.121361544433718826e-01 3.208463192842550549e-01 2.058563449455483585e-01 2.365790910668943148e-01 2.900501119484751311e-01 8.768183598050458549e-01 -3.796876985671283622e-01 -1.125674295195146613e+00 -1.175954046461675562e+00 3.203999508706528165e-01 3.157486221174201635e-01 6.998533027362804360e-01 3.270014565435435117e-01 1.243211197298049298e+00 4.583414920234428758e-01 3.057711729567028636e-01 3.004514049970861689e-01 2.934974165539878665e-01 2.666852942904938129e-01 2.560993597506907582e-01 6.534236385504507139e-01 2.854007666031103674e-01 6.322363059586769696e-01 2.131390442245642836e-01 1.749774107211359703e-02 2.561828282616788188e-01 2.199019204347270051e-01 3.271456646766118248e-01 3.620158755941174644e-01 7.132486734226938241e-01 5.570105044658691940e-01 4.880723034750353295e-01 3.947819438944168979e-01 3.205392171922117894e-01 2.519963282437930885e-01 1.477106367251471930e+00 1.807767785159596574e+00 2.550125684266381643e-01 3.310422617945005253e-01 3.059795863484581213e-01 1.849575676042485850e-01 2.407138838248286672e-01 1.884031116379820125e-01 3.460865244469983337e-01 3.194659938019606682e-01 7.851420645254180153e-01 8.597931854947374886e-01 2.600742300239519134e-01 1.824224102377775880e+00 1.711487665690765991e-01 -1.337826026730387363e-01 -2.697979933571509892e-01 -3.260594161461559670e-01 3.173657297408838951e-01 2.850751535279970050e-01 7.035586274368809123e-01 3.164794117213978741e-01 4.473416448908915655e-01 2.989457838383916544e-01 3.797042733147290572e-01 4.066503677893172353e-01 6.025477529064939691e-02 1.023157098408560284e+00 3.059804923357505313e-01 4.989776423591072430e-01 3.169569156990970082e-01 3.633220308372212548e-01 3.006023805286745509e-01 3.853803626294596274e-01 -1.243009838157641544e-01 2.237190903830876265e-01 2.991795311146829839e-01 4.892710638299380133e-02 4.224795449786266643e-01 1.122554466350654589e+00 9.382046029318056313e-01 -7.404879794946375160e-01 -3.225049298106104634e-01 6.359791270100063620e-01 -3.232019342719813615e+00 1.548600806762670645e+00 2.876027320581994728e-01 4.888120885752611500e-02 3.194930660912843612e-01 8.636968352077090127e-01 3.117485572760956836e-01 3.360525912545059279e-01 -4.350874473145030508e-01 8.296916728665680862e-01 2.672419517649581300e-01 8.894433415694055212e-01 2.047977746848279601e+00 -3.797796803832766410e-01 -1.419334428472987186e+00 2.960520343008681832e-01 2.376239268948378280e-01 7.828020728772265846e-01 3.070546775845098275e-01 6.978661760532083314e-01 4.689444516548306741e-01 1.333583823886153874e-01 3.085893605991023025e-01 3.489412930950360203e-01 2.208068624163313509e-01 3.674063961358456365e-01 1.366466540378869388e+00 1.571915822196740864e+00 3.143823650087024801e-01 2.557841589263641913e-01 1.338732526726398378e-02 -2.321864045589379644e-01 1.959861658304409837e-01 2.653439438517662258e-02 3.143096286735718170e-01 7.024368667483467110e-01 -3.989340499053626310e-01 3.069079401561066733e-01 3.409517132813384421e-01 1.610453058042532193e-01 3.198436904141724879e-01 2.855133477732050840e-01 3.121179288889454617e-01 3.125358797579423920e-01 -3.572683797004042733e-02 2.420302158977091223e-01 4.428852748559096164e-01 1.096787098225491253e+00 1.094424745152686729e+00 9.413249859288532750e-01 1.967918731285348000e-01 7.622101349561215544e-01 1.179932182575547800e-01 4.486373135474332474e-01 -2.035149048499325986e+00 2.908659579676027840e-01 6.483556654426633203e-01 2.806267102718244533e-01 9.589285230371642488e-01 1.349278308541607352e+00 2.058563585983995969e-01 3.034566282552709771e-01 3.714910971638974990e-01 2.037731328658928254e-01 5.580063079015896710e-01 7.817287761144150471e-01 -7.355080588961276922e-01 1.419319685648947893e-01 1.423486202558201241e-01 3.073929031550707291e-01 3.441523632890706730e-01 7.676214757150465751e-01 -1.384743852619867432e-01 3.842852046052994686e-01 3.212117723868173624e-01 2.560889010065005023e-01 8.848651080600046237e-01 4.200899074684426582e-01 -2.012550760878369649e-01 8.592616081117284699e-01 -4.237216158263031052e-02 5.721020737482970242e-01 2.854059145366180106e-01 1.268647008148794164e+00 5.320337329959645700e-01 7.153782150843494003e-01 4.340448570052550803e-01 4.749975810812299137e-01 -5.020882680797230657e-01 2.963380062447312224e-01 7.627937269070507176e-01 2.936614196363742102e-01 6.498297986696878192e-01 3.473310712437951420e-01 3.206164308920252393e-01 7.328695785694463449e-01 1.177305923363373558e-01 -2.006000891600666858e+00 3.140526270019852739e-01 2.791269489417768646e-01 7.132018103627321137e-01 3.828874064172082536e-01 3.870242029836414299e-01 2.449880229326664438e-01 2.388790552901830511e-01 3.588026389904889202e-01 1.840484352931217454e-02 -1.602184962614378261e+00 7.400079934693745143e-01 2.684940711429976701e-01 2.991724494250167510e-01 1.849421259094542469e-01 8.240817243248810264e-01 3.077086215687890314e-01 -1.242622924050218736e-01 3.104628139133501219e-01 1.112137078233829790e+00 3.222161490118392035e-01 4.142429570691746887e-01 1.067393577451593911e+00 3.038620646631405853e-01 2.685700624937167547e+00 2.710346835565468626e-01 3.259523718912629708e-01 6.900940063965163018e-01 3.229467600072993827e-01 2.818475008615126121e-01 -1.993583947815582125e+00 3.621170937351820829e-01 2.918568017268304282e-01 5.108733604100508252e-01 2.952064152440152522e-01 3.450311834383645304e-01 -2.596593840055250180e-01 2.006987459008824359e+00 -5.205304633731164810e-01 8.267072885554922479e-01 3.116762472060700673e-01 3.972408396369498940e-01 7.432827247753595046e-01 3.455989915347369990e-01 1.309446770508991387e+00 1.529392481860363529e-01 2.937987338922391500e-01 -8.755215930831299342e-01 -1.256907497161723342e-01 -2.274504054158869026e-01 -3.777787220823196623e+00 2.875489330157843249e+00 8.611461158821162587e-02 2.905536472849573615e-01 -1.569236098802899937e+00 3.067969541390130894e-01 1.790326496942344359e-01 3.432783423591060368e-01 1.308604749712386772e-01 6.367522635823418264e-01 5.898694840988184529e-01 9.677311900931495625e-01 -3.225049298390195163e-01 -2.092874241524358969e-01 2.085627090361490688e-01 -1.168124039219002652e+00 2.815689789604401971e-01 -6.247884162535047858e-01 3.506047918280302822e-01 4.845573720358681280e-01 3.677290073221536892e-02 4.109543623675756541e-01 2.748554045474899121e-01 -1.152471637385866082e-01 2.055459946490485190e-01 3.064415661294404569e-01 3.448676060602856031e-01 3.116797256593459298e-01 3.126205266964309226e-01 -7.403119096879772210e-01 5.846395083418137739e-01 1.522194849398062599e+00 5.241988483366979285e-02 2.429583606190739153e-01 4.136219425633517188e-01 1.215685384588145457e+00 2.850207671693077427e-01 1.692496692743132858e-01 8.979108283902402787e-01 3.350955495966855269e-01 1.819231517484611871e+00 4.012985839518113940e-01 1.159347876778975550e+00 3.187756842659716927e-01 7.368536352052756921e-01 1.338521291816754388e+00 2.995299349662574606e-01 3.982672047986709485e-01 8.992968228792554974e-01 -1.831969579631024247e-01 -4.620324345642681796e-02 1.429808104113218237e-01 2.943819032631360133e-01 3.420816427292020512e-01 1.409751540115219137e-01 2.626488396181312357e-01 -3.421501832233248552e-01 1.292420706348053505e+00 2.670193750956251777e-01 3.157862656207749974e-01 -3.065403745753799036e+00 4.696637944600847159e-01 3.896954080124381825e-01 4.717741318229231595e-01 4.375799737517532262e-01 5.078471540690069341e-01 -1.024503579066078807e+00 5.851058674242890500e-01 2.685041647119501551e-01 3.088468119268151235e-01 1.047740469042601097e+00 4.408082545858915124e-01 3.232781509586233892e-01 -1.375128994802669924e+00 4.647116180944880215e-01 8.849535800756445081e-01 2.950513619949087785e-01 3.094240989997917302e-01 2.939075479304599781e-01 6.937184945994453455e-01 -8.845313686620764893e-02 3.183690635412044223e-01 3.397230857386081548e-01 6.570084485245762662e-02 7.173591370898593222e-01 3.601241282774102492e-01 7.440154609468833113e-01 1.794634607257667158e-01 6.832566993471638206e-01 -2.009551398277550638e-01 -1.498345891940614072e+00 3.472601493291971875e-01 -1.374332280293311635e-02 2.978562212666219788e-01 2.945238844719570426e-01 5.696339435567180504e-02 5.570105029623821924e-01 3.074179398475281877e-01 8.883379208147472450e-02 4.583868266202091868e-01 3.278138183177292664e-01 2.931728038601382758e-01 2.714316787113819074e-01 -7.954320097038600768e-01 3.256648193555224391e-01 3.322514753859365788e-01 3.404051340450175989e-01 -6.175401776469460757e-02 3.201589420659431973e-01 7.868944856597415161e-01 -4.715420627824840061e-01 1.081266067508512840e+00 5.985853548943509406e-01 3.390441394037074785e-01 3.089972521656428328e-01 -2.009456570377912588e+00 2.932263905113343672e-01 1.779292574951440997e-01 2.232361755149913640e-01 5.570105098441407998e-01 3.111827824459288960e-01 2.617994983721894653e-01 1.334304551735983613e-01 3.139533302692404382e-01 4.350191601594564084e-01 4.262281434142892178e-01 3.989259990130537559e-01 3.060140832074231820e-01 3.114414076828039279e-01 3.261815635689898074e-01 2.873277014228084458e-01 3.044563932964484444e-03 3.110678014061357133e-01 5.763817397036252732e-01 2.333545391236479249e-01 2.919333121315366153e-01 -1.157079811041266670e-01 1.186629069108821044e-01 4.688278688756442047e-01 4.299827780109018782e+00 2.568172779527059801e-01 1.490556985658163802e-01 5.064584741201113571e-01 2.268704906304452040e-01 1.523299878995922896e+00 3.045845421173732914e-01 6.646982113943527004e-01 3.099413069973599999e-01
