# 
#                 ----------------------------------------------------
#                 Data from a 3D direct N-body simulation. 
# 
#                 rows are i-particle; 
#                 coumns are :mass, tag, x ,y, z, vx, vy, vz, ax, ay, az
# 
#                 NTHU, Computational Physics 
# 
#                 ----------------------------------------------------
#                 Time = 0.0
0.000000000000000000e+00 1.000000000000000000e+00 2.000000000000000000e+00 3.000000000000000000e+00 4.000000000000000000e+00 5.000000000000000000e+00 6.000000000000000000e+00 7.000000000000000000e+00 8.000000000000000000e+00 9.000000000000000000e+00 1.000000000000000000e+01 1.100000000000000000e+01 1.200000000000000000e+01 1.300000000000000000e+01 1.400000000000000000e+01 1.500000000000000000e+01 1.600000000000000000e+01 1.700000000000000000e+01 1.800000000000000000e+01 1.900000000000000000e+01 2.000000000000000000e+01 2.100000000000000000e+01 2.200000000000000000e+01 2.300000000000000000e+01 2.400000000000000000e+01 2.500000000000000000e+01 2.600000000000000000e+01 2.700000000000000000e+01 2.800000000000000000e+01 2.900000000000000000e+01 3.000000000000000000e+01 3.100000000000000000e+01 3.200000000000000000e+01 3.300000000000000000e+01 3.400000000000000000e+01 3.500000000000000000e+01 3.600000000000000000e+01 3.700000000000000000e+01 3.800000000000000000e+01 3.900000000000000000e+01 4.000000000000000000e+01 4.100000000000000000e+01 4.200000000000000000e+01 4.300000000000000000e+01 4.400000000000000000e+01 4.500000000000000000e+01 4.600000000000000000e+01 4.700000000000000000e+01 4.800000000000000000e+01 4.900000000000000000e+01 5.000000000000000000e+01 5.100000000000000000e+01 5.200000000000000000e+01 5.300000000000000000e+01 5.400000000000000000e+01 5.500000000000000000e+01 5.600000000000000000e+01 5.700000000000000000e+01 5.800000000000000000e+01 5.900000000000000000e+01 6.000000000000000000e+01 6.100000000000000000e+01 6.200000000000000000e+01 6.300000000000000000e+01 6.400000000000000000e+01 6.500000000000000000e+01 6.600000000000000000e+01 6.700000000000000000e+01 6.800000000000000000e+01 6.900000000000000000e+01 7.000000000000000000e+01 7.100000000000000000e+01 7.200000000000000000e+01 7.300000000000000000e+01 7.400000000000000000e+01 7.500000000000000000e+01 7.600000000000000000e+01 7.700000000000000000e+01 7.800000000000000000e+01 7.900000000000000000e+01 8.000000000000000000e+01 8.100000000000000000e+01 8.200000000000000000e+01 8.300000000000000000e+01 8.400000000000000000e+01 8.500000000000000000e+01 8.600000000000000000e+01 8.700000000000000000e+01 8.800000000000000000e+01 8.900000000000000000e+01 9.000000000000000000e+01 9.100000000000000000e+01 9.200000000000000000e+01 9.300000000000000000e+01 9.400000000000000000e+01 9.500000000000000000e+01 9.600000000000000000e+01 9.700000000000000000e+01 9.800000000000000000e+01 9.900000000000000000e+01 1.000000000000000000e+02 1.010000000000000000e+02 1.020000000000000000e+02 1.030000000000000000e+02 1.040000000000000000e+02 1.050000000000000000e+02 1.060000000000000000e+02 1.070000000000000000e+02 1.080000000000000000e+02 1.090000000000000000e+02 1.100000000000000000e+02 1.110000000000000000e+02 1.120000000000000000e+02 1.130000000000000000e+02 1.140000000000000000e+02 1.150000000000000000e+02 1.160000000000000000e+02 1.170000000000000000e+02 1.180000000000000000e+02 1.190000000000000000e+02 1.200000000000000000e+02 1.210000000000000000e+02 1.220000000000000000e+02 1.230000000000000000e+02 1.240000000000000000e+02 1.250000000000000000e+02 1.260000000000000000e+02 1.270000000000000000e+02 1.280000000000000000e+02 1.290000000000000000e+02 1.300000000000000000e+02 1.310000000000000000e+02 1.320000000000000000e+02 1.330000000000000000e+02 1.340000000000000000e+02 1.350000000000000000e+02 1.360000000000000000e+02 1.370000000000000000e+02 1.380000000000000000e+02 1.390000000000000000e+02 1.400000000000000000e+02 1.410000000000000000e+02 1.420000000000000000e+02 1.430000000000000000e+02 1.440000000000000000e+02 1.450000000000000000e+02 1.460000000000000000e+02 1.470000000000000000e+02 1.480000000000000000e+02 1.490000000000000000e+02 1.500000000000000000e+02 1.510000000000000000e+02 1.520000000000000000e+02 1.530000000000000000e+02 1.540000000000000000e+02 1.550000000000000000e+02 1.560000000000000000e+02 1.570000000000000000e+02 1.580000000000000000e+02 1.590000000000000000e+02 1.600000000000000000e+02 1.610000000000000000e+02 1.620000000000000000e+02 1.630000000000000000e+02 1.640000000000000000e+02 1.650000000000000000e+02 1.660000000000000000e+02 1.670000000000000000e+02 1.680000000000000000e+02 1.690000000000000000e+02 1.700000000000000000e+02 1.710000000000000000e+02 1.720000000000000000e+02 1.730000000000000000e+02 1.740000000000000000e+02 1.750000000000000000e+02 1.760000000000000000e+02 1.770000000000000000e+02 1.780000000000000000e+02 1.790000000000000000e+02 1.800000000000000000e+02 1.810000000000000000e+02 1.820000000000000000e+02 1.830000000000000000e+02 1.840000000000000000e+02 1.850000000000000000e+02 1.860000000000000000e+02 1.870000000000000000e+02 1.880000000000000000e+02 1.890000000000000000e+02 1.900000000000000000e+02 1.910000000000000000e+02 1.920000000000000000e+02 1.930000000000000000e+02 1.940000000000000000e+02 1.950000000000000000e+02 1.960000000000000000e+02 1.970000000000000000e+02 1.980000000000000000e+02 1.990000000000000000e+02 2.000000000000000000e+02 2.010000000000000000e+02 2.020000000000000000e+02 2.030000000000000000e+02 2.040000000000000000e+02 2.050000000000000000e+02 2.060000000000000000e+02 2.070000000000000000e+02 2.080000000000000000e+02 2.090000000000000000e+02 2.100000000000000000e+02 2.110000000000000000e+02 2.120000000000000000e+02 2.130000000000000000e+02 2.140000000000000000e+02 2.150000000000000000e+02 2.160000000000000000e+02 2.170000000000000000e+02 2.180000000000000000e+02 2.190000000000000000e+02 2.200000000000000000e+02 2.210000000000000000e+02 2.220000000000000000e+02 2.230000000000000000e+02 2.240000000000000000e+02 2.250000000000000000e+02 2.260000000000000000e+02 2.270000000000000000e+02 2.280000000000000000e+02 2.290000000000000000e+02 2.300000000000000000e+02 2.310000000000000000e+02 2.320000000000000000e+02 2.330000000000000000e+02 2.340000000000000000e+02 2.350000000000000000e+02 2.360000000000000000e+02 2.370000000000000000e+02 2.380000000000000000e+02 2.390000000000000000e+02 2.400000000000000000e+02 2.410000000000000000e+02 2.420000000000000000e+02 2.430000000000000000e+02 2.440000000000000000e+02 2.450000000000000000e+02 2.460000000000000000e+02 2.470000000000000000e+02 2.480000000000000000e+02 2.490000000000000000e+02 2.500000000000000000e+02 2.510000000000000000e+02 2.520000000000000000e+02 2.530000000000000000e+02 2.540000000000000000e+02 2.550000000000000000e+02 2.560000000000000000e+02 2.570000000000000000e+02 2.580000000000000000e+02 2.590000000000000000e+02 2.600000000000000000e+02 2.610000000000000000e+02 2.620000000000000000e+02 2.630000000000000000e+02 2.640000000000000000e+02 2.650000000000000000e+02 2.660000000000000000e+02 2.670000000000000000e+02 2.680000000000000000e+02 2.690000000000000000e+02 2.700000000000000000e+02 2.710000000000000000e+02 2.720000000000000000e+02 2.730000000000000000e+02 2.740000000000000000e+02 2.750000000000000000e+02 2.760000000000000000e+02 2.770000000000000000e+02 2.780000000000000000e+02 2.790000000000000000e+02 2.800000000000000000e+02 2.810000000000000000e+02 2.820000000000000000e+02 2.830000000000000000e+02 2.840000000000000000e+02 2.850000000000000000e+02 2.860000000000000000e+02 2.870000000000000000e+02 2.880000000000000000e+02 2.890000000000000000e+02 2.900000000000000000e+02 2.910000000000000000e+02 2.920000000000000000e+02 2.930000000000000000e+02 2.940000000000000000e+02 2.950000000000000000e+02 2.960000000000000000e+02 2.970000000000000000e+02 2.980000000000000000e+02 2.990000000000000000e+02 3.000000000000000000e+02 3.010000000000000000e+02 3.020000000000000000e+02 3.030000000000000000e+02 3.040000000000000000e+02 3.050000000000000000e+02 3.060000000000000000e+02 3.070000000000000000e+02 3.080000000000000000e+02 3.090000000000000000e+02 3.100000000000000000e+02 3.110000000000000000e+02 3.120000000000000000e+02 3.130000000000000000e+02 3.140000000000000000e+02 3.150000000000000000e+02 3.160000000000000000e+02 3.170000000000000000e+02 3.180000000000000000e+02 3.190000000000000000e+02 3.200000000000000000e+02 3.210000000000000000e+02 3.220000000000000000e+02 3.230000000000000000e+02 3.240000000000000000e+02 3.250000000000000000e+02 3.260000000000000000e+02 3.270000000000000000e+02 3.280000000000000000e+02 3.290000000000000000e+02 3.300000000000000000e+02 3.310000000000000000e+02 3.320000000000000000e+02 3.330000000000000000e+02 3.340000000000000000e+02 3.350000000000000000e+02 3.360000000000000000e+02 3.370000000000000000e+02 3.380000000000000000e+02 3.390000000000000000e+02 3.400000000000000000e+02 3.410000000000000000e+02 3.420000000000000000e+02 3.430000000000000000e+02 3.440000000000000000e+02 3.450000000000000000e+02 3.460000000000000000e+02 3.470000000000000000e+02 3.480000000000000000e+02 3.490000000000000000e+02 3.500000000000000000e+02 3.510000000000000000e+02 3.520000000000000000e+02 3.530000000000000000e+02 3.540000000000000000e+02 3.550000000000000000e+02 3.560000000000000000e+02 3.570000000000000000e+02 3.580000000000000000e+02 3.590000000000000000e+02 3.600000000000000000e+02 3.610000000000000000e+02 3.620000000000000000e+02 3.630000000000000000e+02 3.640000000000000000e+02 3.650000000000000000e+02 3.660000000000000000e+02 3.670000000000000000e+02 3.680000000000000000e+02 3.690000000000000000e+02 3.700000000000000000e+02 3.710000000000000000e+02 3.720000000000000000e+02 3.730000000000000000e+02 3.740000000000000000e+02 3.750000000000000000e+02 3.760000000000000000e+02 3.770000000000000000e+02 3.780000000000000000e+02 3.790000000000000000e+02 3.800000000000000000e+02 3.810000000000000000e+02 3.820000000000000000e+02 3.830000000000000000e+02 3.840000000000000000e+02 3.850000000000000000e+02 3.860000000000000000e+02 3.870000000000000000e+02 3.880000000000000000e+02 3.890000000000000000e+02 3.900000000000000000e+02 3.910000000000000000e+02 3.920000000000000000e+02 3.930000000000000000e+02 3.940000000000000000e+02 3.950000000000000000e+02 3.960000000000000000e+02 3.970000000000000000e+02 3.980000000000000000e+02 3.990000000000000000e+02 4.000000000000000000e+02 4.010000000000000000e+02 4.020000000000000000e+02 4.030000000000000000e+02 4.040000000000000000e+02 4.050000000000000000e+02 4.060000000000000000e+02 4.070000000000000000e+02 4.080000000000000000e+02 4.090000000000000000e+02 4.100000000000000000e+02 4.110000000000000000e+02 4.120000000000000000e+02 4.130000000000000000e+02 4.140000000000000000e+02 4.150000000000000000e+02 4.160000000000000000e+02 4.170000000000000000e+02 4.180000000000000000e+02 4.190000000000000000e+02 4.200000000000000000e+02 4.210000000000000000e+02 4.220000000000000000e+02 4.230000000000000000e+02 4.240000000000000000e+02 4.250000000000000000e+02 4.260000000000000000e+02 4.270000000000000000e+02 4.280000000000000000e+02 4.290000000000000000e+02 4.300000000000000000e+02 4.310000000000000000e+02 4.320000000000000000e+02 4.330000000000000000e+02 4.340000000000000000e+02 4.350000000000000000e+02 4.360000000000000000e+02 4.370000000000000000e+02 4.380000000000000000e+02 4.390000000000000000e+02 4.400000000000000000e+02 4.410000000000000000e+02 4.420000000000000000e+02 4.430000000000000000e+02 4.440000000000000000e+02 4.450000000000000000e+02 4.460000000000000000e+02 4.470000000000000000e+02 4.480000000000000000e+02 4.490000000000000000e+02 4.500000000000000000e+02 4.510000000000000000e+02 4.520000000000000000e+02 4.530000000000000000e+02 4.540000000000000000e+02 4.550000000000000000e+02 4.560000000000000000e+02 4.570000000000000000e+02 4.580000000000000000e+02 4.590000000000000000e+02 4.600000000000000000e+02 4.610000000000000000e+02 4.620000000000000000e+02 4.630000000000000000e+02 4.640000000000000000e+02 4.650000000000000000e+02 4.660000000000000000e+02 4.670000000000000000e+02 4.680000000000000000e+02 4.690000000000000000e+02 4.700000000000000000e+02 4.710000000000000000e+02 4.720000000000000000e+02 4.730000000000000000e+02 4.740000000000000000e+02 4.750000000000000000e+02 4.760000000000000000e+02 4.770000000000000000e+02 4.780000000000000000e+02 4.790000000000000000e+02 4.800000000000000000e+02 4.810000000000000000e+02 4.820000000000000000e+02 4.830000000000000000e+02 4.840000000000000000e+02 4.850000000000000000e+02 4.860000000000000000e+02 4.870000000000000000e+02 4.880000000000000000e+02 4.890000000000000000e+02 4.900000000000000000e+02 4.910000000000000000e+02 4.920000000000000000e+02 4.930000000000000000e+02 4.940000000000000000e+02 4.950000000000000000e+02 4.960000000000000000e+02 4.970000000000000000e+02 4.980000000000000000e+02 4.990000000000000000e+02 5.000000000000000000e+02 5.010000000000000000e+02 5.020000000000000000e+02 5.030000000000000000e+02 5.040000000000000000e+02 5.050000000000000000e+02 5.060000000000000000e+02 5.070000000000000000e+02 5.080000000000000000e+02 5.090000000000000000e+02 5.100000000000000000e+02 5.110000000000000000e+02 5.120000000000000000e+02 5.130000000000000000e+02 5.140000000000000000e+02 5.150000000000000000e+02 5.160000000000000000e+02 5.170000000000000000e+02 5.180000000000000000e+02 5.190000000000000000e+02 5.200000000000000000e+02 5.210000000000000000e+02 5.220000000000000000e+02 5.230000000000000000e+02 5.240000000000000000e+02 5.250000000000000000e+02 5.260000000000000000e+02 5.270000000000000000e+02 5.280000000000000000e+02 5.290000000000000000e+02 5.300000000000000000e+02 5.310000000000000000e+02 5.320000000000000000e+02 5.330000000000000000e+02 5.340000000000000000e+02 5.350000000000000000e+02 5.360000000000000000e+02 5.370000000000000000e+02 5.380000000000000000e+02 5.390000000000000000e+02 5.400000000000000000e+02 5.410000000000000000e+02 5.420000000000000000e+02 5.430000000000000000e+02 5.440000000000000000e+02 5.450000000000000000e+02 5.460000000000000000e+02 5.470000000000000000e+02 5.480000000000000000e+02 5.490000000000000000e+02 5.500000000000000000e+02 5.510000000000000000e+02 5.520000000000000000e+02 5.530000000000000000e+02 5.540000000000000000e+02 5.550000000000000000e+02 5.560000000000000000e+02 5.570000000000000000e+02 5.580000000000000000e+02 5.590000000000000000e+02 5.600000000000000000e+02 5.610000000000000000e+02 5.620000000000000000e+02 5.630000000000000000e+02 5.640000000000000000e+02 5.650000000000000000e+02 5.660000000000000000e+02 5.670000000000000000e+02 5.680000000000000000e+02 5.690000000000000000e+02 5.700000000000000000e+02 5.710000000000000000e+02 5.720000000000000000e+02 5.730000000000000000e+02 5.740000000000000000e+02 5.750000000000000000e+02 5.760000000000000000e+02 5.770000000000000000e+02 5.780000000000000000e+02 5.790000000000000000e+02 5.800000000000000000e+02 5.810000000000000000e+02 5.820000000000000000e+02 5.830000000000000000e+02 5.840000000000000000e+02 5.850000000000000000e+02 5.860000000000000000e+02 5.870000000000000000e+02 5.880000000000000000e+02 5.890000000000000000e+02 5.900000000000000000e+02 5.910000000000000000e+02 5.920000000000000000e+02 5.930000000000000000e+02 5.940000000000000000e+02 5.950000000000000000e+02 5.960000000000000000e+02 5.970000000000000000e+02 5.980000000000000000e+02 5.990000000000000000e+02 6.000000000000000000e+02 6.010000000000000000e+02 6.020000000000000000e+02 6.030000000000000000e+02 6.040000000000000000e+02 6.050000000000000000e+02 6.060000000000000000e+02 6.070000000000000000e+02 6.080000000000000000e+02 6.090000000000000000e+02 6.100000000000000000e+02 6.110000000000000000e+02 6.120000000000000000e+02 6.130000000000000000e+02 6.140000000000000000e+02 6.150000000000000000e+02 6.160000000000000000e+02 6.170000000000000000e+02 6.180000000000000000e+02 6.190000000000000000e+02 6.200000000000000000e+02 6.210000000000000000e+02 6.220000000000000000e+02 6.230000000000000000e+02 6.240000000000000000e+02 6.250000000000000000e+02 6.260000000000000000e+02 6.270000000000000000e+02 6.280000000000000000e+02 6.290000000000000000e+02 6.300000000000000000e+02 6.310000000000000000e+02 6.320000000000000000e+02 6.330000000000000000e+02 6.340000000000000000e+02 6.350000000000000000e+02 6.360000000000000000e+02 6.370000000000000000e+02 6.380000000000000000e+02 6.390000000000000000e+02 6.400000000000000000e+02 6.410000000000000000e+02 6.420000000000000000e+02 6.430000000000000000e+02 6.440000000000000000e+02 6.450000000000000000e+02 6.460000000000000000e+02 6.470000000000000000e+02 6.480000000000000000e+02 6.490000000000000000e+02 6.500000000000000000e+02 6.510000000000000000e+02 6.520000000000000000e+02 6.530000000000000000e+02 6.540000000000000000e+02 6.550000000000000000e+02 6.560000000000000000e+02 6.570000000000000000e+02 6.580000000000000000e+02 6.590000000000000000e+02 6.600000000000000000e+02 6.610000000000000000e+02 6.620000000000000000e+02 6.630000000000000000e+02 6.640000000000000000e+02 6.650000000000000000e+02 6.660000000000000000e+02 6.670000000000000000e+02 6.680000000000000000e+02 6.690000000000000000e+02 6.700000000000000000e+02 6.710000000000000000e+02 6.720000000000000000e+02 6.730000000000000000e+02 6.740000000000000000e+02 6.750000000000000000e+02 6.760000000000000000e+02 6.770000000000000000e+02 6.780000000000000000e+02 6.790000000000000000e+02 6.800000000000000000e+02 6.810000000000000000e+02 6.820000000000000000e+02 6.830000000000000000e+02 6.840000000000000000e+02 6.850000000000000000e+02 6.860000000000000000e+02 6.870000000000000000e+02 6.880000000000000000e+02 6.890000000000000000e+02 6.900000000000000000e+02 6.910000000000000000e+02 6.920000000000000000e+02 6.930000000000000000e+02 6.940000000000000000e+02 6.950000000000000000e+02 6.960000000000000000e+02 6.970000000000000000e+02 6.980000000000000000e+02 6.990000000000000000e+02 7.000000000000000000e+02 7.010000000000000000e+02 7.020000000000000000e+02 7.030000000000000000e+02 7.040000000000000000e+02 7.050000000000000000e+02 7.060000000000000000e+02 7.070000000000000000e+02 7.080000000000000000e+02 7.090000000000000000e+02 7.100000000000000000e+02 7.110000000000000000e+02 7.120000000000000000e+02 7.130000000000000000e+02 7.140000000000000000e+02 7.150000000000000000e+02 7.160000000000000000e+02 7.170000000000000000e+02 7.180000000000000000e+02 7.190000000000000000e+02 7.200000000000000000e+02 7.210000000000000000e+02 7.220000000000000000e+02 7.230000000000000000e+02 7.240000000000000000e+02 7.250000000000000000e+02 7.260000000000000000e+02 7.270000000000000000e+02 7.280000000000000000e+02 7.290000000000000000e+02 7.300000000000000000e+02 7.310000000000000000e+02 7.320000000000000000e+02 7.330000000000000000e+02 7.340000000000000000e+02 7.350000000000000000e+02 7.360000000000000000e+02 7.370000000000000000e+02 7.380000000000000000e+02 7.390000000000000000e+02 7.400000000000000000e+02 7.410000000000000000e+02 7.420000000000000000e+02 7.430000000000000000e+02 7.440000000000000000e+02 7.450000000000000000e+02 7.460000000000000000e+02 7.470000000000000000e+02 7.480000000000000000e+02 7.490000000000000000e+02 7.500000000000000000e+02 7.510000000000000000e+02 7.520000000000000000e+02 7.530000000000000000e+02 7.540000000000000000e+02 7.550000000000000000e+02 7.560000000000000000e+02 7.570000000000000000e+02 7.580000000000000000e+02 7.590000000000000000e+02 7.600000000000000000e+02 7.610000000000000000e+02 7.620000000000000000e+02 7.630000000000000000e+02 7.640000000000000000e+02 7.650000000000000000e+02 7.660000000000000000e+02 7.670000000000000000e+02 7.680000000000000000e+02 7.690000000000000000e+02 7.700000000000000000e+02 7.710000000000000000e+02 7.720000000000000000e+02 7.730000000000000000e+02 7.740000000000000000e+02 7.750000000000000000e+02 7.760000000000000000e+02 7.770000000000000000e+02 7.780000000000000000e+02 7.790000000000000000e+02 7.800000000000000000e+02 7.810000000000000000e+02 7.820000000000000000e+02 7.830000000000000000e+02 7.840000000000000000e+02 7.850000000000000000e+02 7.860000000000000000e+02 7.870000000000000000e+02 7.880000000000000000e+02 7.890000000000000000e+02 7.900000000000000000e+02 7.910000000000000000e+02 7.920000000000000000e+02 7.930000000000000000e+02 7.940000000000000000e+02 7.950000000000000000e+02 7.960000000000000000e+02 7.970000000000000000e+02 7.980000000000000000e+02 7.990000000000000000e+02 8.000000000000000000e+02 8.010000000000000000e+02 8.020000000000000000e+02 8.030000000000000000e+02 8.040000000000000000e+02 8.050000000000000000e+02 8.060000000000000000e+02 8.070000000000000000e+02 8.080000000000000000e+02 8.090000000000000000e+02 8.100000000000000000e+02 8.110000000000000000e+02 8.120000000000000000e+02 8.130000000000000000e+02 8.140000000000000000e+02 8.150000000000000000e+02 8.160000000000000000e+02 8.170000000000000000e+02 8.180000000000000000e+02 8.190000000000000000e+02 8.200000000000000000e+02 8.210000000000000000e+02 8.220000000000000000e+02 8.230000000000000000e+02 8.240000000000000000e+02 8.250000000000000000e+02 8.260000000000000000e+02 8.270000000000000000e+02 8.280000000000000000e+02 8.290000000000000000e+02 8.300000000000000000e+02 8.310000000000000000e+02 8.320000000000000000e+02 8.330000000000000000e+02 8.340000000000000000e+02 8.350000000000000000e+02 8.360000000000000000e+02 8.370000000000000000e+02 8.380000000000000000e+02 8.390000000000000000e+02 8.400000000000000000e+02 8.410000000000000000e+02 8.420000000000000000e+02 8.430000000000000000e+02 8.440000000000000000e+02 8.450000000000000000e+02 8.460000000000000000e+02 8.470000000000000000e+02 8.480000000000000000e+02 8.490000000000000000e+02 8.500000000000000000e+02 8.510000000000000000e+02 8.520000000000000000e+02 8.530000000000000000e+02 8.540000000000000000e+02 8.550000000000000000e+02 8.560000000000000000e+02 8.570000000000000000e+02 8.580000000000000000e+02 8.590000000000000000e+02 8.600000000000000000e+02 8.610000000000000000e+02 8.620000000000000000e+02 8.630000000000000000e+02 8.640000000000000000e+02 8.650000000000000000e+02 8.660000000000000000e+02 8.670000000000000000e+02 8.680000000000000000e+02 8.690000000000000000e+02 8.700000000000000000e+02 8.710000000000000000e+02 8.720000000000000000e+02 8.730000000000000000e+02 8.740000000000000000e+02 8.750000000000000000e+02 8.760000000000000000e+02 8.770000000000000000e+02 8.780000000000000000e+02 8.790000000000000000e+02 8.800000000000000000e+02 8.810000000000000000e+02 8.820000000000000000e+02 8.830000000000000000e+02 8.840000000000000000e+02 8.850000000000000000e+02 8.860000000000000000e+02 8.870000000000000000e+02 8.880000000000000000e+02 8.890000000000000000e+02 8.900000000000000000e+02 8.910000000000000000e+02 8.920000000000000000e+02 8.930000000000000000e+02 8.940000000000000000e+02 8.950000000000000000e+02 8.960000000000000000e+02 8.970000000000000000e+02 8.980000000000000000e+02 8.990000000000000000e+02 9.000000000000000000e+02 9.010000000000000000e+02 9.020000000000000000e+02 9.030000000000000000e+02 9.040000000000000000e+02 9.050000000000000000e+02 9.060000000000000000e+02 9.070000000000000000e+02 9.080000000000000000e+02 9.090000000000000000e+02 9.100000000000000000e+02 9.110000000000000000e+02 9.120000000000000000e+02 9.130000000000000000e+02 9.140000000000000000e+02 9.150000000000000000e+02 9.160000000000000000e+02 9.170000000000000000e+02 9.180000000000000000e+02 9.190000000000000000e+02 9.200000000000000000e+02 9.210000000000000000e+02 9.220000000000000000e+02 9.230000000000000000e+02 9.240000000000000000e+02 9.250000000000000000e+02 9.260000000000000000e+02 9.270000000000000000e+02 9.280000000000000000e+02 9.290000000000000000e+02 9.300000000000000000e+02 9.310000000000000000e+02 9.320000000000000000e+02 9.330000000000000000e+02 9.340000000000000000e+02 9.350000000000000000e+02 9.360000000000000000e+02 9.370000000000000000e+02 9.380000000000000000e+02 9.390000000000000000e+02 9.400000000000000000e+02 9.410000000000000000e+02 9.420000000000000000e+02 9.430000000000000000e+02 9.440000000000000000e+02 9.450000000000000000e+02 9.460000000000000000e+02 9.470000000000000000e+02 9.480000000000000000e+02 9.490000000000000000e+02 9.500000000000000000e+02 9.510000000000000000e+02 9.520000000000000000e+02 9.530000000000000000e+02 9.540000000000000000e+02 9.550000000000000000e+02 9.560000000000000000e+02 9.570000000000000000e+02 9.580000000000000000e+02 9.590000000000000000e+02 9.600000000000000000e+02 9.610000000000000000e+02 9.620000000000000000e+02 9.630000000000000000e+02 9.640000000000000000e+02 9.650000000000000000e+02 9.660000000000000000e+02 9.670000000000000000e+02 9.680000000000000000e+02 9.690000000000000000e+02 9.700000000000000000e+02 9.710000000000000000e+02 9.720000000000000000e+02 9.730000000000000000e+02 9.740000000000000000e+02 9.750000000000000000e+02 9.760000000000000000e+02 9.770000000000000000e+02 9.780000000000000000e+02 9.790000000000000000e+02 9.800000000000000000e+02 9.810000000000000000e+02 9.820000000000000000e+02 9.830000000000000000e+02 9.840000000000000000e+02 9.850000000000000000e+02 9.860000000000000000e+02 9.870000000000000000e+02 9.880000000000000000e+02 9.890000000000000000e+02 9.900000000000000000e+02 9.910000000000000000e+02 9.920000000000000000e+02 9.930000000000000000e+02 9.940000000000000000e+02 9.950000000000000000e+02 9.960000000000000000e+02 9.970000000000000000e+02 9.980000000000000000e+02 9.990000000000000000e+02
1.000000000000000000e+00 1.000000000000000000e+00 1.000000000000000000e+00 1.000000000000000000e+00 1.000000000000000000e+00 1.000000000000000000e+00 1.000000000000000000e+00 1.000000000000000000e+00 1.000000000000000000e+00 1.000000000000000000e+00 1.000000000000000000e+00 1.000000000000000000e+00 1.000000000000000000e+00 1.000000000000000000e+00 1.000000000000000000e+00 1.000000000000000000e+00 1.000000000000000000e+00 1.000000000000000000e+00 1.000000000000000000e+00 1.000000000000000000e+00 1.000000000000000000e+00 1.000000000000000000e+00 1.000000000000000000e+00 1.000000000000000000e+00 1.000000000000000000e+00 1.000000000000000000e+00 1.000000000000000000e+00 1.000000000000000000e+00 1.000000000000000000e+00 1.000000000000000000e+00 1.000000000000000000e+00 1.000000000000000000e+00 1.000000000000000000e+00 1.000000000000000000e+00 1.000000000000000000e+00 1.000000000000000000e+00 1.000000000000000000e+00 1.000000000000000000e+00 1.000000000000000000e+00 1.000000000000000000e+00 1.000000000000000000e+00 1.000000000000000000e+00 1.000000000000000000e+00 1.000000000000000000e+00 1.000000000000000000e+00 1.000000000000000000e+00 1.000000000000000000e+00 1.000000000000000000e+00 1.000000000000000000e+00 1.000000000000000000e+00 1.000000000000000000e+00 1.000000000000000000e+00 1.000000000000000000e+00 1.000000000000000000e+00 1.000000000000000000e+00 1.000000000000000000e+00 1.000000000000000000e+00 1.000000000000000000e+00 1.000000000000000000e+00 1.000000000000000000e+00 1.000000000000000000e+00 1.000000000000000000e+00 1.000000000000000000e+00 1.000000000000000000e+00 1.000000000000000000e+00 1.000000000000000000e+00 1.000000000000000000e+00 1.000000000000000000e+00 1.000000000000000000e+00 1.000000000000000000e+00 1.000000000000000000e+00 1.000000000000000000e+00 1.000000000000000000e+00 1.000000000000000000e+00 1.000000000000000000e+00 1.000000000000000000e+00 1.000000000000000000e+00 1.000000000000000000e+00 1.000000000000000000e+00 1.000000000000000000e+00 1.000000000000000000e+00 1.000000000000000000e+00 1.000000000000000000e+00 1.000000000000000000e+00 1.000000000000000000e+00 1.000000000000000000e+00 1.000000000000000000e+00 1.000000000000000000e+00 1.000000000000000000e+00 1.000000000000000000e+00 1.000000000000000000e+00 1.000000000000000000e+00 1.000000000000000000e+00 1.000000000000000000e+00 1.000000000000000000e+00 1.000000000000000000e+00 1.000000000000000000e+00 1.000000000000000000e+00 1.000000000000000000e+00 1.000000000000000000e+00 1.000000000000000000e+00 1.000000000000000000e+00 1.000000000000000000e+00 1.000000000000000000e+00 1.000000000000000000e+00 1.000000000000000000e+00 1.000000000000000000e+00 1.000000000000000000e+00 1.000000000000000000e+00 1.000000000000000000e+00 1.000000000000000000e+00 1.000000000000000000e+00 1.000000000000000000e+00 1.000000000000000000e+00 1.000000000000000000e+00 1.000000000000000000e+00 1.000000000000000000e+00 1.000000000000000000e+00 1.000000000000000000e+00 1.000000000000000000e+00 1.000000000000000000e+00 1.000000000000000000e+00 1.000000000000000000e+00 1.000000000000000000e+00 1.000000000000000000e+00 1.000000000000000000e+00 1.000000000000000000e+00 1.000000000000000000e+00 1.000000000000000000e+00 1.000000000000000000e+00 1.000000000000000000e+00 1.000000000000000000e+00 1.000000000000000000e+00 1.000000000000000000e+00 1.000000000000000000e+00 1.000000000000000000e+00 1.000000000000000000e+00 1.000000000000000000e+00 1.000000000000000000e+00 1.000000000000000000e+00 1.000000000000000000e+00 1.000000000000000000e+00 1.000000000000000000e+00 1.000000000000000000e+00 1.000000000000000000e+00 1.000000000000000000e+00 1.000000000000000000e+00 1.000000000000000000e+00 1.000000000000000000e+00 1.000000000000000000e+00 1.000000000000000000e+00 1.000000000000000000e+00 1.000000000000000000e+00 1.000000000000000000e+00 1.000000000000000000e+00 1.000000000000000000e+00 1.000000000000000000e+00 1.000000000000000000e+00 1.000000000000000000e+00 1.000000000000000000e+00 1.000000000000000000e+00 1.000000000000000000e+00 1.000000000000000000e+00 1.000000000000000000e+00 1.000000000000000000e+00 1.000000000000000000e+00 1.000000000000000000e+00 1.000000000000000000e+00 1.000000000000000000e+00 1.000000000000000000e+00 1.000000000000000000e+00 1.000000000000000000e+00 1.000000000000000000e+00 1.000000000000000000e+00 1.000000000000000000e+00 1.000000000000000000e+00 1.000000000000000000e+00 1.000000000000000000e+00 1.000000000000000000e+00 1.000000000000000000e+00 1.000000000000000000e+00 1.000000000000000000e+00 1.000000000000000000e+00 1.000000000000000000e+00 1.000000000000000000e+00 1.000000000000000000e+00 1.000000000000000000e+00 1.000000000000000000e+00 1.000000000000000000e+00 1.000000000000000000e+00 1.000000000000000000e+00 1.000000000000000000e+00 1.000000000000000000e+00 1.000000000000000000e+00 1.000000000000000000e+00 1.000000000000000000e+00 1.000000000000000000e+00 1.000000000000000000e+00 1.000000000000000000e+00 1.000000000000000000e+00 1.000000000000000000e+00 1.000000000000000000e+00 1.000000000000000000e+00 1.000000000000000000e+00 1.000000000000000000e+00 1.000000000000000000e+00 1.000000000000000000e+00 1.000000000000000000e+00 1.000000000000000000e+00 1.000000000000000000e+00 1.000000000000000000e+00 1.000000000000000000e+00 1.000000000000000000e+00 1.000000000000000000e+00 1.000000000000000000e+00 1.000000000000000000e+00 1.000000000000000000e+00 1.000000000000000000e+00 1.000000000000000000e+00 1.000000000000000000e+00 1.000000000000000000e+00 1.000000000000000000e+00 1.000000000000000000e+00 1.000000000000000000e+00 1.000000000000000000e+00 1.000000000000000000e+00 1.000000000000000000e+00 1.000000000000000000e+00 1.000000000000000000e+00 1.000000000000000000e+00 1.000000000000000000e+00 1.000000000000000000e+00 1.000000000000000000e+00 1.000000000000000000e+00 1.000000000000000000e+00 1.000000000000000000e+00 1.000000000000000000e+00 1.000000000000000000e+00 1.000000000000000000e+00 1.000000000000000000e+00 1.000000000000000000e+00 1.000000000000000000e+00 1.000000000000000000e+00 1.000000000000000000e+00 1.000000000000000000e+00 1.000000000000000000e+00 1.000000000000000000e+00 1.000000000000000000e+00 1.000000000000000000e+00 1.000000000000000000e+00 1.000000000000000000e+00 1.000000000000000000e+00 1.000000000000000000e+00 1.000000000000000000e+00 1.000000000000000000e+00 1.000000000000000000e+00 1.000000000000000000e+00 1.000000000000000000e+00 1.000000000000000000e+00 1.000000000000000000e+00 1.000000000000000000e+00 1.000000000000000000e+00 1.000000000000000000e+00 1.000000000000000000e+00 1.000000000000000000e+00 1.000000000000000000e+00 1.000000000000000000e+00 1.000000000000000000e+00 1.000000000000000000e+00 1.000000000000000000e+00 1.000000000000000000e+00 1.000000000000000000e+00 1.000000000000000000e+00 1.000000000000000000e+00 1.000000000000000000e+00 1.000000000000000000e+00 1.000000000000000000e+00 1.000000000000000000e+00 1.000000000000000000e+00 1.000000000000000000e+00 1.000000000000000000e+00 1.000000000000000000e+00 1.000000000000000000e+00 1.000000000000000000e+00 1.000000000000000000e+00 1.000000000000000000e+00 1.000000000000000000e+00 1.000000000000000000e+00 1.000000000000000000e+00 1.000000000000000000e+00 1.000000000000000000e+00 1.000000000000000000e+00 1.000000000000000000e+00 1.000000000000000000e+00 1.000000000000000000e+00 1.000000000000000000e+00 1.000000000000000000e+00 1.000000000000000000e+00 1.000000000000000000e+00 1.000000000000000000e+00 1.000000000000000000e+00 1.000000000000000000e+00 1.000000000000000000e+00 1.000000000000000000e+00 1.000000000000000000e+00 1.000000000000000000e+00 1.000000000000000000e+00 1.000000000000000000e+00 1.000000000000000000e+00 1.000000000000000000e+00 1.000000000000000000e+00 1.000000000000000000e+00 1.000000000000000000e+00 1.000000000000000000e+00 1.000000000000000000e+00 1.000000000000000000e+00 1.000000000000000000e+00 1.000000000000000000e+00 1.000000000000000000e+00 1.000000000000000000e+00 1.000000000000000000e+00 1.000000000000000000e+00 1.000000000000000000e+00 1.000000000000000000e+00 1.000000000000000000e+00 1.000000000000000000e+00 1.000000000000000000e+00 1.000000000000000000e+00 1.000000000000000000e+00 1.000000000000000000e+00 1.000000000000000000e+00 1.000000000000000000e+00 1.000000000000000000e+00 1.000000000000000000e+00 1.000000000000000000e+00 1.000000000000000000e+00 1.000000000000000000e+00 1.000000000000000000e+00 1.000000000000000000e+00 1.000000000000000000e+00 1.000000000000000000e+00 1.000000000000000000e+00 1.000000000000000000e+00 1.000000000000000000e+00 1.000000000000000000e+00 1.000000000000000000e+00 1.000000000000000000e+00 1.000000000000000000e+00 1.000000000000000000e+00 1.000000000000000000e+00 1.000000000000000000e+00 1.000000000000000000e+00 1.000000000000000000e+00 1.000000000000000000e+00 1.000000000000000000e+00 1.000000000000000000e+00 1.000000000000000000e+00 1.000000000000000000e+00 1.000000000000000000e+00 1.000000000000000000e+00 1.000000000000000000e+00 1.000000000000000000e+00 1.000000000000000000e+00 1.000000000000000000e+00 1.000000000000000000e+00 1.000000000000000000e+00 1.000000000000000000e+00 1.000000000000000000e+00 1.000000000000000000e+00 1.000000000000000000e+00 1.000000000000000000e+00 1.000000000000000000e+00 1.000000000000000000e+00 1.000000000000000000e+00 1.000000000000000000e+00 1.000000000000000000e+00 1.000000000000000000e+00 1.000000000000000000e+00 1.000000000000000000e+00 1.000000000000000000e+00 1.000000000000000000e+00 1.000000000000000000e+00 1.000000000000000000e+00 1.000000000000000000e+00 1.000000000000000000e+00 1.000000000000000000e+00 1.000000000000000000e+00 1.000000000000000000e+00 1.000000000000000000e+00 1.000000000000000000e+00 1.000000000000000000e+00 1.000000000000000000e+00 1.000000000000000000e+00 1.000000000000000000e+00 1.000000000000000000e+00 1.000000000000000000e+00 1.000000000000000000e+00 1.000000000000000000e+00 1.000000000000000000e+00 1.000000000000000000e+00 1.000000000000000000e+00 1.000000000000000000e+00 1.000000000000000000e+00 1.000000000000000000e+00 1.000000000000000000e+00 1.000000000000000000e+00 1.000000000000000000e+00 1.000000000000000000e+00 1.000000000000000000e+00 1.000000000000000000e+00 1.000000000000000000e+00 1.000000000000000000e+00 1.000000000000000000e+00 1.000000000000000000e+00 1.000000000000000000e+00 1.000000000000000000e+00 1.000000000000000000e+00 1.000000000000000000e+00 1.000000000000000000e+00 1.000000000000000000e+00 1.000000000000000000e+00 1.000000000000000000e+00 1.000000000000000000e+00 1.000000000000000000e+00 1.000000000000000000e+00 1.000000000000000000e+00 1.000000000000000000e+00 1.000000000000000000e+00 1.000000000000000000e+00 1.000000000000000000e+00 1.000000000000000000e+00 1.000000000000000000e+00 1.000000000000000000e+00 1.000000000000000000e+00 1.000000000000000000e+00 1.000000000000000000e+00 1.000000000000000000e+00 1.000000000000000000e+00 1.000000000000000000e+00 1.000000000000000000e+00 1.000000000000000000e+00 1.000000000000000000e+00 1.000000000000000000e+00 1.000000000000000000e+00 1.000000000000000000e+00 1.000000000000000000e+00 1.000000000000000000e+00 1.000000000000000000e+00 1.000000000000000000e+00 1.000000000000000000e+00 1.000000000000000000e+00 1.000000000000000000e+00 1.000000000000000000e+00 1.000000000000000000e+00 1.000000000000000000e+00 1.000000000000000000e+00 1.000000000000000000e+00 1.000000000000000000e+00 1.000000000000000000e+00 1.000000000000000000e+00 1.000000000000000000e+00 1.000000000000000000e+00 1.000000000000000000e+00 1.000000000000000000e+00 1.000000000000000000e+00 1.000000000000000000e+00 1.000000000000000000e+00 1.000000000000000000e+00 1.000000000000000000e+00 1.000000000000000000e+00 1.000000000000000000e+00 1.000000000000000000e+00 1.000000000000000000e+00 1.000000000000000000e+00 1.000000000000000000e+00 1.000000000000000000e+00 1.000000000000000000e+00 1.000000000000000000e+00 1.000000000000000000e+00 1.000000000000000000e+00 1.000000000000000000e+00 1.000000000000000000e+00 1.000000000000000000e+00 1.000000000000000000e+00 1.000000000000000000e+00 1.000000000000000000e+00 1.000000000000000000e+00 1.000000000000000000e+00 1.000000000000000000e+00 1.000000000000000000e+00 1.000000000000000000e+00 1.000000000000000000e+00 1.000000000000000000e+00 1.000000000000000000e+00 1.000000000000000000e+00 1.000000000000000000e+00 1.000000000000000000e+00 1.000000000000000000e+00 1.000000000000000000e+00 1.000000000000000000e+00 1.000000000000000000e+00 1.000000000000000000e+00 1.000000000000000000e+00 1.000000000000000000e+00 1.000000000000000000e+00 1.000000000000000000e+00 1.000000000000000000e+00 1.000000000000000000e+00 1.000000000000000000e+00 1.000000000000000000e+00 1.000000000000000000e+00 1.000000000000000000e+00 1.000000000000000000e+00 1.000000000000000000e+00 1.000000000000000000e+00 1.000000000000000000e+00 1.000000000000000000e+00 1.000000000000000000e+00 1.000000000000000000e+00 1.000000000000000000e+00 1.000000000000000000e+00 1.000000000000000000e+00 1.000000000000000000e+00 1.000000000000000000e+00 1.000000000000000000e+00 1.000000000000000000e+00 1.000000000000000000e+00 1.000000000000000000e+00 1.000000000000000000e+00 1.000000000000000000e+00 1.000000000000000000e+00 1.000000000000000000e+00 1.000000000000000000e+00 1.000000000000000000e+00 1.000000000000000000e+00 1.000000000000000000e+00 1.000000000000000000e+00 1.000000000000000000e+00 1.000000000000000000e+00 1.000000000000000000e+00 1.000000000000000000e+00 1.000000000000000000e+00 1.000000000000000000e+00 1.000000000000000000e+00 1.000000000000000000e+00 1.000000000000000000e+00 1.000000000000000000e+00 1.000000000000000000e+00 1.000000000000000000e+00 1.000000000000000000e+00 1.000000000000000000e+00 1.000000000000000000e+00 1.000000000000000000e+00 1.000000000000000000e+00 1.000000000000000000e+00 1.000000000000000000e+00 1.000000000000000000e+00 1.000000000000000000e+00 1.000000000000000000e+00 1.000000000000000000e+00 1.000000000000000000e+00 1.000000000000000000e+00 1.000000000000000000e+00 1.000000000000000000e+00 1.000000000000000000e+00 1.000000000000000000e+00 1.000000000000000000e+00 1.000000000000000000e+00 1.000000000000000000e+00 1.000000000000000000e+00 1.000000000000000000e+00 1.000000000000000000e+00 1.000000000000000000e+00 1.000000000000000000e+00 1.000000000000000000e+00 1.000000000000000000e+00 1.000000000000000000e+00 1.000000000000000000e+00 1.000000000000000000e+00 1.000000000000000000e+00 1.000000000000000000e+00 1.000000000000000000e+00 1.000000000000000000e+00 1.000000000000000000e+00 1.000000000000000000e+00 1.000000000000000000e+00 1.000000000000000000e+00 1.000000000000000000e+00 1.000000000000000000e+00 1.000000000000000000e+00 1.000000000000000000e+00 1.000000000000000000e+00 1.000000000000000000e+00 1.000000000000000000e+00 1.000000000000000000e+00 1.000000000000000000e+00 1.000000000000000000e+00 1.000000000000000000e+00 1.000000000000000000e+00 1.000000000000000000e+00 1.000000000000000000e+00 1.000000000000000000e+00 1.000000000000000000e+00 1.000000000000000000e+00 1.000000000000000000e+00 1.000000000000000000e+00 1.000000000000000000e+00 1.000000000000000000e+00 1.000000000000000000e+00 1.000000000000000000e+00 1.000000000000000000e+00 1.000000000000000000e+00 1.000000000000000000e+00 1.000000000000000000e+00 1.000000000000000000e+00 1.000000000000000000e+00 1.000000000000000000e+00 1.000000000000000000e+00 1.000000000000000000e+00 1.000000000000000000e+00 1.000000000000000000e+00 1.000000000000000000e+00 1.000000000000000000e+00 1.000000000000000000e+00 1.000000000000000000e+00 1.000000000000000000e+00 1.000000000000000000e+00 1.000000000000000000e+00 1.000000000000000000e+00 1.000000000000000000e+00 1.000000000000000000e+00 1.000000000000000000e+00 1.000000000000000000e+00 1.000000000000000000e+00 1.000000000000000000e+00 1.000000000000000000e+00 1.000000000000000000e+00 1.000000000000000000e+00 1.000000000000000000e+00 1.000000000000000000e+00 1.000000000000000000e+00 1.000000000000000000e+00 1.000000000000000000e+00 1.000000000000000000e+00 1.000000000000000000e+00 1.000000000000000000e+00 1.000000000000000000e+00 1.000000000000000000e+00 1.000000000000000000e+00 1.000000000000000000e+00 1.000000000000000000e+00 1.000000000000000000e+00 1.000000000000000000e+00 1.000000000000000000e+00 1.000000000000000000e+00 1.000000000000000000e+00 1.000000000000000000e+00 1.000000000000000000e+00 1.000000000000000000e+00 1.000000000000000000e+00 1.000000000000000000e+00 1.000000000000000000e+00 1.000000000000000000e+00 1.000000000000000000e+00 1.000000000000000000e+00 1.000000000000000000e+00 1.000000000000000000e+00 1.000000000000000000e+00 1.000000000000000000e+00 1.000000000000000000e+00 1.000000000000000000e+00 1.000000000000000000e+00 1.000000000000000000e+00 1.000000000000000000e+00 1.000000000000000000e+00 1.000000000000000000e+00 1.000000000000000000e+00 1.000000000000000000e+00 1.000000000000000000e+00 1.000000000000000000e+00 1.000000000000000000e+00 1.000000000000000000e+00 1.000000000000000000e+00 1.000000000000000000e+00 1.000000000000000000e+00 1.000000000000000000e+00 1.000000000000000000e+00 1.000000000000000000e+00 1.000000000000000000e+00 1.000000000000000000e+00 1.000000000000000000e+00 1.000000000000000000e+00 1.000000000000000000e+00 1.000000000000000000e+00 1.000000000000000000e+00 1.000000000000000000e+00 1.000000000000000000e+00 1.000000000000000000e+00 1.000000000000000000e+00 1.000000000000000000e+00 1.000000000000000000e+00 1.000000000000000000e+00 1.000000000000000000e+00 1.000000000000000000e+00 1.000000000000000000e+00 1.000000000000000000e+00 1.000000000000000000e+00 1.000000000000000000e+00 1.000000000000000000e+00 1.000000000000000000e+00 1.000000000000000000e+00 1.000000000000000000e+00 1.000000000000000000e+00 1.000000000000000000e+00 1.000000000000000000e+00 1.000000000000000000e+00 1.000000000000000000e+00 1.000000000000000000e+00 1.000000000000000000e+00 1.000000000000000000e+00 1.000000000000000000e+00 1.000000000000000000e+00 1.000000000000000000e+00 1.000000000000000000e+00 1.000000000000000000e+00 1.000000000000000000e+00 1.000000000000000000e+00 1.000000000000000000e+00 1.000000000000000000e+00 1.000000000000000000e+00 1.000000000000000000e+00 1.000000000000000000e+00 1.000000000000000000e+00 1.000000000000000000e+00 1.000000000000000000e+00 1.000000000000000000e+00 1.000000000000000000e+00 1.000000000000000000e+00 1.000000000000000000e+00 1.000000000000000000e+00 1.000000000000000000e+00 1.000000000000000000e+00 1.000000000000000000e+00 1.000000000000000000e+00 1.000000000000000000e+00 1.000000000000000000e+00 1.000000000000000000e+00 1.000000000000000000e+00 1.000000000000000000e+00 1.000000000000000000e+00 1.000000000000000000e+00 1.000000000000000000e+00 1.000000000000000000e+00 1.000000000000000000e+00 1.000000000000000000e+00 1.000000000000000000e+00 1.000000000000000000e+00 1.000000000000000000e+00 1.000000000000000000e+00 1.000000000000000000e+00 1.000000000000000000e+00 1.000000000000000000e+00 1.000000000000000000e+00 1.000000000000000000e+00 1.000000000000000000e+00 1.000000000000000000e+00 1.000000000000000000e+00 1.000000000000000000e+00 1.000000000000000000e+00 1.000000000000000000e+00 1.000000000000000000e+00 1.000000000000000000e+00 1.000000000000000000e+00 1.000000000000000000e+00 1.000000000000000000e+00 1.000000000000000000e+00 1.000000000000000000e+00 1.000000000000000000e+00 1.000000000000000000e+00 1.000000000000000000e+00 1.000000000000000000e+00 1.000000000000000000e+00 1.000000000000000000e+00 1.000000000000000000e+00 1.000000000000000000e+00 1.000000000000000000e+00 1.000000000000000000e+00 1.000000000000000000e+00 1.000000000000000000e+00 1.000000000000000000e+00 1.000000000000000000e+00 1.000000000000000000e+00 1.000000000000000000e+00 1.000000000000000000e+00 1.000000000000000000e+00 1.000000000000000000e+00 1.000000000000000000e+00 1.000000000000000000e+00 1.000000000000000000e+00 1.000000000000000000e+00 1.000000000000000000e+00 1.000000000000000000e+00 1.000000000000000000e+00 1.000000000000000000e+00 1.000000000000000000e+00 1.000000000000000000e+00 1.000000000000000000e+00 1.000000000000000000e+00 1.000000000000000000e+00 1.000000000000000000e+00 1.000000000000000000e+00 1.000000000000000000e+00 1.000000000000000000e+00 1.000000000000000000e+00 1.000000000000000000e+00 1.000000000000000000e+00 1.000000000000000000e+00 1.000000000000000000e+00 1.000000000000000000e+00 1.000000000000000000e+00 1.000000000000000000e+00 1.000000000000000000e+00 1.000000000000000000e+00 1.000000000000000000e+00 1.000000000000000000e+00 1.000000000000000000e+00 1.000000000000000000e+00 1.000000000000000000e+00 1.000000000000000000e+00 1.000000000000000000e+00 1.000000000000000000e+00 1.000000000000000000e+00 1.000000000000000000e+00 1.000000000000000000e+00 1.000000000000000000e+00 1.000000000000000000e+00 1.000000000000000000e+00 1.000000000000000000e+00 1.000000000000000000e+00 1.000000000000000000e+00 1.000000000000000000e+00 1.000000000000000000e+00 1.000000000000000000e+00 1.000000000000000000e+00 1.000000000000000000e+00 1.000000000000000000e+00 1.000000000000000000e+00 1.000000000000000000e+00 1.000000000000000000e+00 1.000000000000000000e+00 1.000000000000000000e+00 1.000000000000000000e+00 1.000000000000000000e+00 1.000000000000000000e+00 1.000000000000000000e+00 1.000000000000000000e+00 1.000000000000000000e+00 1.000000000000000000e+00 1.000000000000000000e+00 1.000000000000000000e+00 1.000000000000000000e+00 1.000000000000000000e+00 1.000000000000000000e+00 1.000000000000000000e+00 1.000000000000000000e+00 1.000000000000000000e+00 1.000000000000000000e+00 1.000000000000000000e+00 1.000000000000000000e+00 1.000000000000000000e+00 1.000000000000000000e+00 1.000000000000000000e+00 1.000000000000000000e+00 1.000000000000000000e+00 1.000000000000000000e+00 1.000000000000000000e+00 1.000000000000000000e+00 1.000000000000000000e+00 1.000000000000000000e+00 1.000000000000000000e+00 1.000000000000000000e+00 1.000000000000000000e+00 1.000000000000000000e+00 1.000000000000000000e+00 1.000000000000000000e+00 1.000000000000000000e+00 1.000000000000000000e+00 1.000000000000000000e+00 1.000000000000000000e+00 1.000000000000000000e+00 1.000000000000000000e+00 1.000000000000000000e+00 1.000000000000000000e+00 1.000000000000000000e+00 1.000000000000000000e+00 1.000000000000000000e+00 1.000000000000000000e+00 1.000000000000000000e+00 1.000000000000000000e+00 1.000000000000000000e+00 1.000000000000000000e+00 1.000000000000000000e+00 1.000000000000000000e+00 1.000000000000000000e+00 1.000000000000000000e+00 1.000000000000000000e+00 1.000000000000000000e+00 1.000000000000000000e+00 1.000000000000000000e+00 1.000000000000000000e+00 1.000000000000000000e+00 1.000000000000000000e+00 1.000000000000000000e+00 1.000000000000000000e+00 1.000000000000000000e+00 1.000000000000000000e+00 1.000000000000000000e+00 1.000000000000000000e+00 1.000000000000000000e+00 1.000000000000000000e+00 1.000000000000000000e+00 1.000000000000000000e+00 1.000000000000000000e+00 1.000000000000000000e+00 1.000000000000000000e+00 1.000000000000000000e+00 1.000000000000000000e+00 1.000000000000000000e+00 1.000000000000000000e+00 1.000000000000000000e+00 1.000000000000000000e+00 1.000000000000000000e+00 1.000000000000000000e+00 1.000000000000000000e+00 1.000000000000000000e+00 1.000000000000000000e+00 1.000000000000000000e+00 1.000000000000000000e+00 1.000000000000000000e+00 1.000000000000000000e+00 1.000000000000000000e+00 1.000000000000000000e+00 1.000000000000000000e+00 1.000000000000000000e+00 1.000000000000000000e+00 1.000000000000000000e+00 1.000000000000000000e+00 1.000000000000000000e+00 1.000000000000000000e+00 1.000000000000000000e+00 1.000000000000000000e+00 1.000000000000000000e+00 1.000000000000000000e+00 1.000000000000000000e+00 1.000000000000000000e+00 1.000000000000000000e+00 1.000000000000000000e+00 1.000000000000000000e+00 1.000000000000000000e+00 1.000000000000000000e+00 1.000000000000000000e+00 1.000000000000000000e+00 1.000000000000000000e+00 1.000000000000000000e+00 1.000000000000000000e+00 1.000000000000000000e+00 1.000000000000000000e+00 1.000000000000000000e+00 1.000000000000000000e+00 1.000000000000000000e+00 1.000000000000000000e+00 1.000000000000000000e+00 1.000000000000000000e+00 1.000000000000000000e+00 1.000000000000000000e+00 1.000000000000000000e+00 1.000000000000000000e+00 1.000000000000000000e+00 1.000000000000000000e+00 1.000000000000000000e+00 1.000000000000000000e+00 1.000000000000000000e+00 1.000000000000000000e+00 1.000000000000000000e+00 1.000000000000000000e+00 1.000000000000000000e+00 1.000000000000000000e+00 1.000000000000000000e+00 1.000000000000000000e+00 1.000000000000000000e+00 1.000000000000000000e+00 1.000000000000000000e+00 1.000000000000000000e+00 1.000000000000000000e+00 1.000000000000000000e+00 1.000000000000000000e+00 1.000000000000000000e+00 1.000000000000000000e+00 1.000000000000000000e+00 1.000000000000000000e+00
3.815866361617197694e-02 5.062546048908912466e-01 8.342091271134517427e-01 4.907640701322156240e-01 5.111397256644263365e-01 5.380288223611421339e-01 4.474826197547920326e-01 2.838368670171987906e-01 3.964409143703795935e-01 5.208891818563228249e-01 1.014074351320856993e+00 -3.018255408027537556e-01 1.160895249085527769e+00 5.176575449713676225e-01 5.076874544550553647e-01 4.203723484874206107e-01 9.639282448040736861e-01 6.688431523967887093e-01 2.973310454701982852e-01 5.083630730904945549e-01 3.538826355447253769e-01 8.682061977808022135e-01 2.933721055061189187e-01 5.493891116188066581e-01 7.125454624022640182e-01 7.841157330608372611e-01 5.272580898469177990e-01 4.829099608764255702e-01 4.950377477849275953e-01 9.477661145401981013e-01 4.856135055398147493e-01 3.949796927579090622e-01 8.282288065226829366e-01 5.050485435231674147e-01 7.439848383932075038e-01 5.639348046001235737e-01 6.201675138942683851e-01 9.527520105371140025e-01 1.124388668785554768e-01 5.033944098065409323e-01 5.475116345982525834e-01 -3.856285694895220106e-01 7.484564531028482515e-01 1.989649306410838370e-01 2.244968861138677552e-01 5.471861314292052469e-01 4.795671805876948190e-01 5.085007280399717056e-01 5.293333223172709268e-01 5.326950167558418964e-02 2.740412854347191313e-02 2.729706011085407114e-01 5.231982238325164625e-01 4.869876873110771109e-01 5.415625456426561568e-01 3.365495932110793703e-02 5.204219799675742220e-01 7.316628767420634283e-01 1.633803240770569098e-01 5.283097205180723455e-01 7.499852247722016418e-01 4.589991940995387654e-01 4.571994682787461906e-01 2.933709443828087515e-01 5.806948029320131432e-01 6.299296191805852096e-01 5.207295533220975825e-01 5.758231191978068209e-01 4.944417123277624615e-01 -3.898890543003583412e-03 5.145070671801618145e-01 5.231384144445471174e-01 4.891515180388910644e-01 -1.487697203272232011e-03 1.278408146329501172e+00 6.257173993207563178e-01 5.936378473840575598e-01 7.760085751074471405e-01 5.355443752231264787e-01 1.275230385983501913e+00 5.200931406114807087e-01 1.786594538592544135e-01 8.756905671450194717e-01 5.394633007613865994e-01 5.157438170905935815e-01 7.340993191763434123e-01 8.480977535381764021e-01 4.898609276510109134e-01 3.050467451535639474e-01 5.646911027802528071e-01 2.281303540422859877e-01 1.518571842605699773e+00 5.364735143179634180e-01 7.434302490878631764e-02 3.097415989151045546e-01 5.028488212729432805e-01 5.185065066235412523e-01 6.751774945552511120e-01 2.163555355210251274e-01 7.787344224649048741e-01 9.465622316548139015e-01 5.093299402424507072e-01 5.156574843434236222e-01 1.074857608523875241e+00 1.255584417252413876e-01 -1.186183745973668824e+00 -8.356046305968972687e-01 5.541565688313238036e-01 4.446466603759187675e-01 9.139743420168253696e-01 3.572149994954950114e-01 5.273360468064223205e-01 8.751204486078683065e-01 4.942579197563125581e-01 4.508667276558884218e-01 4.684534451230321084e-01 3.991317568846183272e-01 4.567223953420899707e-01 5.525005828522904228e-01 5.417702513549221832e-01 1.115693365813026805e+00 3.314460215666743537e-01 4.846231366534569096e-01 5.844296133458113385e-01 5.037205896339512767e-01 1.587019077307480375e+00 4.655337782367369726e-01 6.992242221199634900e-01 4.862823870766398993e-01 5.315745950171691936e-01 4.969530511035260001e-01 4.999489927407699819e-01 4.657043312383351563e-01 2.649971279290594950e-01 5.625545412772718912e-01 -2.116089891129131761e-02 8.707089685696302039e-01 -1.856215543368755841e-02 8.743120742297537662e-01 5.054443315105178192e-01 5.242587259764913687e-01 6.781112105375928234e-01 5.117775862442415225e-01 5.481344885710265347e-01 5.140053736658574124e-01 -3.854679038451475082e-02 5.284057506184695052e-01 5.249797197166652385e-01 4.590253966210426917e-01 -4.690340400977820456e-01 7.390027680522389675e-01 -9.731747976787344379e-02 5.469364980798037124e-01 4.959684090093806619e-01 8.124917978738733781e-01 4.332952121729951589e-01 8.622695124245020049e-01 5.708211727717710238e-01 8.017947481924700970e-01 7.957499926961431047e-01 3.729167544049655780e-01 4.270912914867592836e-01 4.903266875680567516e-01 5.388632371873218752e-01 1.135610492866247823e+00 -1.343271433757644018e-01 7.777944473746259968e-01 5.323107257439522177e-01 5.089485598401876087e-01 4.893635385465804344e-01 5.552317651461914361e-01 4.904825978298421041e-01 5.474434529851175402e-01 5.558337917373836756e-01 4.298025102812435549e-01 6.652987836003765310e-02 1.526653203586837704e-01 6.151297648505962834e-02 6.043008273960990273e-01 1.047596369930206883e+00 5.290740250118615151e-01 5.416131247509726743e-01 -2.358475544164204962e-01 7.532941502167832537e-01 5.920782420979231464e-01 4.621545339422654664e-01 5.266333789351177463e-01 5.326671092894558202e-01 1.837725370848871886e+00 8.146991167864378047e-01 5.131640357099236383e-01 -3.380440480530142455e-01 4.912378862147327441e-01 5.185284285448380492e-01 1.092063614693443846e-01 5.268079170250088428e-01 7.876774684188841968e-01 5.102078450742393301e-01 4.842180111887727234e-01 4.846517708433997762e-01 4.503016323906828822e-01 5.924950867757453610e-01 1.000195276516417708e+00 5.647797116660764338e-01 5.398851632683743240e-01 4.842179391741195382e-01 5.102899304384749257e-01 1.114538938112556776e+00 5.392327797543966517e-01 4.780867650559077475e-01 3.580249004863091944e-01 1.198857394669851500e-01 4.772478569574406526e-01 3.539389015119982496e-01 5.177899688368582387e-01 4.867117897854640329e-01 4.971288499311649067e-01 5.007775470246705884e-01 4.958644389983066225e-01 5.328223600597228327e-01 4.822228237437196086e-01 5.973565143712457060e-01 -3.990370845437692937e-01 5.930277769066225613e-01 7.429255980402014181e-01 5.028805760301071626e-01 5.626968605534187207e-01 6.958873066951104525e-01 7.983576775352609900e-01 8.243326313652283854e-01 -1.120735025617452668e-01 9.026623275129379564e-01 5.159175721499900114e-01 5.863749752518919722e-01 -6.430479513359346755e-02 5.850583617503870570e-01 4.001830740499953132e-01 4.180792414202411655e-01 -1.383168064261354815e-02 -1.359159404160622808e-01 5.252145303226547490e-01 5.381666827118386509e-01 5.548697784330691718e-02 4.484043987730075842e-01 4.968973291530833225e-01 1.062950621383717431e+00 -1.094344291676324632e-01 4.299230588533956010e-01 -1.135142613052007476e+00 4.692354780056038344e-01 3.916395923897292297e-01 4.662325938937869063e-01 5.075202161798182399e-01 2.933685729477980009e-01 5.037639842345621455e-01 4.919717723050661129e-01 4.491478509767017346e-01 5.429260990515751839e-01 6.329940480667218816e-01 1.458810400502527971e+00 5.182385121348396240e-01 4.559395922770559384e-01 2.680403948438129791e-01 6.088578358474988628e-01 7.473932659658251154e-01 5.004221014188136030e-01 1.881070767021133516e+00 5.088605213159629326e-01 3.786018346951305902e-01 8.950776748488561418e-01 5.255646404777416514e-01 7.564034770271206298e-01 4.934605074139866709e-01 4.918475745520984876e-01 5.434831532338427751e-01 4.744384301818923566e-01 1.405700879877730958e-01 8.831509122015391844e-01 8.543214089489451490e-01 -9.102360031982249799e-02 6.071444824388472217e-01 5.161870336354484889e-01 5.810487591886120962e-01 -3.726730150500368599e-01 3.455049969203095594e-01 8.135127028405063632e-01 4.802937603212616979e-01 5.209100349587900691e-01 4.684535449050217792e-01 6.184353881205182368e-01 4.880806118215638145e-01 3.258447083941469202e-01 4.435213624666479726e-01 5.405945453628018260e-01 6.827401557011543096e-03 5.731702037231438673e-01 1.630697484678923059e+00 6.713495379357139470e-01 5.184110845596902051e-01 4.593862246743486977e-01 -2.276593871890411069e+00 4.931219248263096766e-01 1.185455870519905863e+00 4.823276555700646284e-01 4.689294304693637505e-01 -5.541407075826048079e-01 5.161450694006600726e-01 5.016966877835822292e-01 4.190585852456598093e-01 4.906237414364609251e-01 7.416205218962013124e-01 5.508889329294363035e-01 3.324860516920523090e-01 5.389842781072402556e-01 5.096260272947771286e-01 5.320834084324574942e-01 5.361615094671614568e-01 4.906715687675426985e-01 5.128871153050985621e-01 1.020626618877722214e+00 5.525148580825465366e-02 1.909166106262858431e+00 2.023259571387999944e+00 5.027261042823440995e-01 5.900672656843974906e-02 5.075397440333252463e-01 4.205289458761345411e-01 5.382069212276746617e-01 1.121398438453480084e+00 5.108083459642829283e-01 9.896928851439424912e-01 5.232228773605376304e-01 3.495138938343247959e-01 1.140275235688239741e+00 4.044410062185501142e-01 5.077463362606378094e-01 5.161299638449904359e-01 6.182480087725399365e-01 -2.132084777938755504e+00 1.296336082668674283e+00 4.891807572897513001e-01 6.488254804625349648e-01 5.439350030482843490e-01 9.527521809523343821e-01 4.294678131575930813e-01 4.496301491041747589e-01 2.946005888941345963e-01 4.509321272714839068e-01 1.370312192369846027e+00 2.854388686469158665e-01 4.842179902819020998e-01 4.484121483605151837e-01 5.647797492326516178e-01 4.352205931031147834e-01 4.442809108709294130e-01 7.718975031362969030e-01 4.924897263040139417e-01 5.063228372305602631e-01 4.620805341667489352e-01 5.923139511364539089e-01 5.158173050209727828e-01 3.751710383591532194e-01 4.496293804578111453e-01 6.000064430985347919e-01 5.126133522187605873e-01 5.738958827747731029e-01 1.045811236802805633e+00 8.491062525497475866e-01 5.237890550815683666e-01 6.474337988306224645e-01 7.487787719923486573e-01 -1.433657812910161394e-02 7.893416721952729587e-01 4.421734862315723213e-01 5.991664158107452148e-02 5.313963406674820922e-01 1.059809251124968821e+00 5.511086307730718170e-01 3.584273443269653248e-01 2.390068967370105879e-01 -2.248704939766578148e-01 -1.685456754486607034e+00 5.780085287037132202e-01 5.647797116390795846e-01 5.647797116660678851e-01 4.900932249421722231e-01 2.668256141808681980e-01 2.466939556899153813e-02 4.877543065796606236e-01 4.985220589500849453e-01 2.322540529682934896e-01 5.118206891861852847e-01 1.160491260900276878e+00 4.842178657568368960e-01 5.175554474371441005e-01 4.877471681127543701e-01 4.625545236704587393e-01 5.168911651317583678e-01 4.735102530706717938e-01 3.815026202361286867e-01 7.664376494058571243e-01 5.564434421291332145e-01 3.746559521580623831e-02 5.647797053695208236e-01 5.878900570832321648e-01 5.191936218527199998e-01 7.468679566040749007e-01 7.289435196991549404e-01 6.712596771178344079e-01 5.506743100315093509e-01 1.068053638163190211e+00 4.368735028548642596e-01 -1.504024609699952775e+00 4.909211497412519498e-01 1.223793703413184275e+00 5.725769775373262815e-01 -5.053645300820298614e-01 4.790752429804550072e-01 2.983291965509902166e-01 8.540535080433968584e-01 5.034203684537867929e-01 7.072534488196835500e-01 5.054231733721806785e-01 9.691005879134293455e-01 4.567367548794439291e-01 3.680367939789981335e-01 5.453593945950366839e-01 5.138690200984323830e-01 6.773481521880666545e-01 5.236312569428546171e-01 8.317041412524933675e-01 6.645785464267917053e-03 4.822137397375016454e-01 5.159819282453246281e-01 6.527535044014464161e-01 4.862208018824628053e-01 7.202349320131744559e-01 5.201106707051210698e-01 5.928839067958696640e-01 7.541288049413386041e-01 5.152132920571120822e-01 2.195704559235074627e-01 8.695763921686069930e-02 1.293698163448949168e-01 8.216021932891430790e-01 4.995428659830997153e-01 2.444393557190149391e+00 5.743173726154106040e-01 6.005075177318307533e-01 5.850316816579498314e-01 7.693309001707067107e-01 2.593807035184142115e-02 5.022203241420023501e-01 5.522847269722854779e-01 4.372746096810412042e-01 1.058608915065785361e+00 7.193514671806851002e-01 5.135899005264957795e-01 3.589264578902164882e-01 8.942655390767320078e-01 5.106433733851855061e-01 4.906306086999817628e-01 5.296367767284885231e-01 5.581981678269508640e-01 5.066504806833120877e-01 7.224127528754585859e-01 4.924740757852991702e-01 5.197489177940136651e-01 5.428856655926803110e-02 5.383658948571184988e-01 -4.866386194981207718e-03 5.240367016467246675e-01 5.708541589586733078e-01 5.183611586738341437e-01 6.869357528160427995e-01 4.816444860129021621e-01 5.170895635478625074e-01 1.720740118451993816e-01 5.337563736353044819e-01 4.702594030170900163e-01 3.949908937749372906e-01 4.487129806842532487e-02 5.009590515346188377e-01 6.292034649144442326e-01 5.418052024147547163e-01 5.363892617461935020e-01 7.090043121867755094e-01 3.511884270421202769e-01 4.993317786019690341e-01 4.804935678191420978e-01 5.358149492460816399e-01 5.542532911341938595e-01 8.629831541333770062e-01 6.592261658804315916e-01 5.090252753853306000e-01 5.787046206592898479e-01 1.538686822027150347e+00 5.278251663931601279e-01 4.938919176054928362e-01 6.369396905683174515e-01 4.446501376664333538e-01 2.631119274948165998e-01 4.351519690307497634e-01 -3.689434702984029646e-01 5.113521858174924217e-01 4.773192759608713698e-01 5.612004201197399178e-01 5.089098733874964919e-01 -1.881215729520218649e-01 4.259138861756173733e-01 5.343715878877209891e-01 4.379143370195622276e-01 5.817602848711829200e-01 5.316365967823920569e-01 4.999313099299022567e-01 5.556038198879984513e-01 -1.842823256216912509e-01 4.971642993149016365e-01 8.648592806377370934e-01 5.824993371604805237e-01 7.744597731583353906e-02 5.157537253674969735e-01 3.645575219634332176e-01 5.075976353194834312e-01 5.255485504406729458e-01 9.529288920958245424e-01 8.451872851478835491e-01 5.447607648873138420e-01 4.828000568167812867e-01 1.770800411353207759e-01 4.863612553571032282e-01 5.161859521390679273e-01 6.757184080690470385e-01 1.632800723552299549e-02 5.236879907587276284e-01 5.644667192398046263e-01 6.014725703322069128e-01 6.237428331875276566e-01 7.381817258572229701e-01 2.238926044262656012e-01 -8.204498735279600052e-02 -8.853625504106391042e-02 5.663093328286802342e-01 5.074913913126731790e-01 5.216775815041977404e-01 4.976951031696202343e-01 -4.486898010498612810e-01 2.408814478582249397e+00 3.285892099236688013e-01 4.806023602201439648e-01 1.021020898231835838e+00 5.133193819740013986e-01 4.891093419078980098e-01 5.311583378820019519e-01 5.076237673392441918e-01 4.483802205447682820e-01 5.241934897491714596e-01 3.810577119582562178e-01 3.654645370194342657e-01 5.281174364099600060e-01 4.876338733646786716e-01 4.156416656528942322e-01 5.927915477042077219e-01 4.859720432015434133e-01 4.457379904997924580e-01 7.551875351406189818e-01 1.855455769292698953e+00 4.739106201215560477e-01 4.894629235165259273e-01 5.540615108432124236e-01 3.214581856924006442e-01 3.982210974463485376e-01 5.071629407461204497e-01 4.688684681298131984e-01 5.824989861098653909e-01 4.843942679488326686e-01 4.975629173006164141e-01 4.852097365168760446e-01 4.849209212362493582e-01 5.427094617987732184e-01 1.009468123971345221e+00 9.510993213863492279e-01 2.678231359833539993e-01 7.467870767086659534e-01 4.844983056425552492e-01 4.372291649401827129e-01 1.727447300176651490e+00 2.313713255904442379e-01 5.370316994175120540e-01 5.027682446837329344e-01 3.238244250022118131e-02 5.630918729836742465e-01 1.226666768344779390e+00 4.758888357610130959e-01 8.968912730065377037e-01 5.067047227023996347e-01 5.157265277818123828e-01 4.952680512285844716e-01 4.894055733547946763e-01 5.159517293774780189e-01 5.124821495977210928e-01 5.244155041061653311e-01 6.166950393679520026e-01 2.323552734616662896e-01 5.506547662884703209e-01 4.412049285230226769e-01 4.892654468692145264e-01 4.596637303260522334e-01 7.468054331557947290e-01 6.930391606146132366e-01 5.276019842873092003e-01 8.239358821284658019e-01 -1.908043581184109827e-01 5.196892239317604245e-01 7.186915542431318027e-01 8.116866138235262484e-01 5.667604609290252116e-01 5.236904503361967667e-01 9.891957107972734753e-02 -1.066092830926958612e+00 3.870527921935755788e-01 5.880902754709260716e-01 6.956380282340106636e-01 5.167152556189034129e-01 5.210078272096200225e-01 5.412874679987645932e-01 -1.209700213546691661e-01 7.796097608528606004e-01 4.684536715133816309e-01 6.766479989113776128e-01 5.056916962301689633e-01 -1.291747362682203193e-01 -1.688842667312666912e-01 1.152777788197235642e+00 4.738131807225119951e-01 4.355421346873543098e-01 5.155644111804229546e-01 4.184727527169065930e-01 4.590494389496262428e-01 5.413865719330381854e-01 8.048485910691708378e-01 5.441022721805870432e-01 4.692733733664645190e-01 5.033332464474296053e-01 5.901646642887659056e-01 4.901271693360844672e-01 4.845940828028041936e-01 5.026963221868662179e-01 5.889929885508048413e-01 8.639550173826253676e-01 4.908576808505444866e-01 4.921667019631912887e-01 5.233238830962239074e-01 5.365895653054596481e-01 6.171877806188909021e-01 1.921661882295071233e-02 4.496300729769457938e-01 3.009872650759574109e-01 5.580382427881345198e-01 6.237704743679918229e-01 1.180702062882176717e+00 4.351796497397026897e-01 7.484058245688922362e-02 5.007634252450575696e-01 5.404904971780480905e-01 5.064209121382599044e-01 5.590153034878097005e-01 5.234259470149822402e-01 4.574367436572610579e-01 5.411942738925134000e-01 8.707788299532766008e-01 -4.157468127983914852e-01 1.529755254329804304e+00 7.412299578030157043e-01 7.647432869644592568e-01 2.361988088131268537e-01 4.026645123007623339e-01 4.334794488475589569e-01 1.652360654019310593e-01 5.774557702928918568e-01 4.580695547099175591e-01 3.950447694537717602e-02 5.084977560311094713e-01 4.896492968972885329e-01 5.234936836401061777e-01 1.006243912998520340e+00 5.008726562511223168e-01 3.217988479776643373e-01 2.435113504653456107e-01 4.707891080047450494e-01 3.234474284805385347e-01 5.145276070126251211e-01 5.289982143626562605e-01 5.487087524468350352e-01 -4.627324864606543464e-01 4.429688990948640881e-01 5.739460769702871001e-01 4.968286305798822466e-01 4.846694501363034147e-01 7.484579872273807721e-01 7.559288603259740613e-01 -3.228474032255714277e-01 1.014202196956179414e+00 9.527520435465298698e-01 5.098613622212024854e-01 4.648891355865789055e-01 9.257568682281782646e-01 4.924315599301399837e-01 4.905049991215531535e-01 5.206412892624789901e-01 1.034859039904867162e+00 5.192542887760881465e-01 4.484062368826939871e-01 1.155062315263657879e+00 -4.246862647119434286e-02 7.182649901957794958e-01 -5.667581849981109809e-02 -5.544622093617193048e-01 -1.681302817614352962e-01 6.823177272035578778e-01 5.262318734329686221e-01 4.179804479713841170e-01 -3.064283647552182854e-01 4.752022234986828519e-01 1.738440043401959928e-02 4.305225970798188806e-01 3.687720208753842988e-01 5.281885955975456071e-01 5.078858239818191400e-01 5.370113642004560317e-01 5.774809498847023326e-01 7.755620644234153538e-01 8.384961292911141673e-02 5.248102803022439700e-01 4.046333209674010112e-01 5.840552725829548653e-01 1.017234613625825457e+00 3.036075120894705104e-01 6.948055997133564254e-01 4.688121626870570546e-01 1.012418093844724559e-01 7.054260945954548001e-01 4.975845371727735111e-01 4.995470227313447142e-01 5.242498037994007820e-01 5.636015732717414295e-01 4.876515393638115592e-01 5.324180335158409383e-01 4.921672996700932057e-01 3.908054424312218944e-01 6.105105485312636304e-01 7.781610357608198525e-01 1.942717406952888970e+00 -1.085296345033906762e-01 5.944838757042321120e-01 5.006320066728453533e-01 4.772430840498303461e-01 7.193075192512917715e-01 2.785071215658762034e-01 -7.095936860334228768e-01 5.164805724532055553e-01 2.011057375770409994e+00 5.047561471048953585e-01 2.307928096841428411e-01 3.674381212104717020e-01 4.684533904394417303e-01 7.074762252326916023e-01 1.134479585258353129e+00 3.525342343883351437e-01 6.492094128276526543e-02 4.916090846219494659e-01 1.006063875588192769e+00 3.783452960404022902e-01 4.817337355724394810e-01 5.082322982731500849e-01 8.031898167706763569e-01 5.422904215380227599e-01 3.930400975981304112e-01 -1.433848729899530640e-02 4.853393998591508662e-01 5.002584996175853949e-01 -3.635309285948057911e-01 5.776754479362562478e-01 1.015484246739067453e+00 2.495590364593159582e-01 3.153522254174691009e-01 9.137859068696613241e-01 5.484177974277463230e-01 1.700513933491773599e+00 4.017607525334657703e-01 1.769648476201212198e-02 5.388592386259467570e-01 5.067888210508587621e-01 4.082067785417065608e-01 5.532308293315679748e-01 6.150594373482562438e-02 4.966104332539790223e-01 -7.862537035405398056e-02 5.090614116477439888e-01 5.611041639325721198e-01 6.735074762533220516e-02 -4.351611593755838614e-02 6.045921316896395448e-01 4.119414996336786539e-01 4.996345511910024739e-01 5.419198873492718782e-01 7.033930225147702053e-01 5.003304105753073605e-01 4.757706274075786390e-01 5.047517060843375036e-01 4.799043351235859345e-01 5.948974686648027532e-01 9.459323836008247666e-01 2.405063872655408996e+00 4.139367758713436984e-01 4.951738763787317810e-01 4.978371886118942435e-01 1.209819400737929679e-01 5.198974249838582695e-01 4.843026391501947248e-01 5.025115767422808633e-01 1.265925201411590262e+00 5.335988258495811820e-01 -3.442567225837537825e-01 8.168236703811665445e-02 6.355504038043777726e-01 5.770125318524863545e-01 5.083114258858071333e-01 4.990172044045407262e-01 6.759050913033837205e-02 5.114010183754158501e-01 5.576395191211830360e-01 -1.578460839979152874e+00 4.559836360904745423e-01 4.902501248701809367e-01 9.545803803876191651e-01 5.671527122431074819e-01 7.044452255189327383e-01 7.886557073192961287e-01 -4.957601442878587505e-01 -4.365606300936767936e-01 -6.046233959134658664e-03 5.002196389410796806e-01 5.056686868985561523e-01 1.072651769741210348e+00 5.147506451143045725e-01 -1.351711545546476489e-01 9.140166268400625738e-01 4.989427399569387189e-01 6.526316936738542074e-01 4.719403812484731509e-01 4.958717484450069768e-01 3.059581670226970140e-01 -3.413678613755988800e-01 5.717071568607736687e-01 5.237901932446208386e-01 2.706484940139773365e-01 6.052230930680047027e-01 3.859082489494649604e-01 5.019786727836413887e-01 4.787679982865253869e-01 4.879088147168219036e-01 4.473506708805506937e-01 5.015720751948802292e-01 9.527520016977606421e-01 5.431308567623456263e-01 5.132484542071995559e-01 1.057463001932840013e-01 4.926239795881910966e-01 5.293430094865739788e-01 5.184150232783120149e-01 3.362117453432584280e-01 2.622979852107271137e-01 6.735139021926921377e-01 2.850245711974776497e-01 5.009911198055292392e-01 4.933090705219179140e-01 4.474389105532022848e-01 5.343697837080543245e-01 5.002499828508354396e-01 5.177112542837263298e-01 1.014143972946584205e+00 5.860165628616312850e-01 -2.774972704036992588e-01 3.391118325093639974e-01 7.750018260007567328e-01 5.344796619397900184e-01 2.483482208513746459e-01 4.931002712126651977e-01 1.592715745624077861e-01 -1.994570005719653941e-02 8.295298035558035243e-01 3.826527099893826667e-01 5.573262426119317547e-01 4.710531850848855839e-01 4.928615003388792104e-01 4.097283012693753723e-01 1.219563170979787836e+00 5.220438562779943226e-01 3.910838670023268904e-01 1.978496801364579838e-01 2.388049492410159735e-01 1.048982530926861001e+00 3.554828878667495862e-01 4.862767935268686448e-01 3.597463099390681429e-01 -2.294312704812809522e-01 5.930361146663442051e-01 1.009458009257467204e+00 -6.617380655847681092e-01 5.774267368272758549e-01 4.831778682796604163e-01 -1.190684938441828600e-01 4.664211993689372227e-01 6.259743488194902117e-01 5.064247404749964154e-01 5.150546633150586695e-01 3.542441333381558533e-01 3.233512080293266533e-01 5.099267453833710162e-01 4.895572604766307845e-01 5.439637600348466995e-01 9.134074087157248445e-02 1.067211392102209500e+00 4.927601657129350721e-01 9.732170450343864410e-01 6.661469825514804155e-01 -3.679988175178940946e-01 7.098616507511795737e-01 5.135469167002526536e-01 3.160886318113446114e-01 1.168407242928227660e-02 5.861403533034483804e-01 5.152537113823476567e-01 5.152678498121001649e-01 3.574255053242698099e-01 4.959416067498390035e-02 5.083977469668790050e-01 3.773785177141505964e-01 5.195458494420022166e-01 1.733646946187463289e+00 7.761213749080436708e-01 3.377377359770477594e-01 5.136768434346582479e-01 1.454950628219768616e+00 2.321861897700812083e-01 5.049689669992782903e-01 7.891374680341997072e-01 4.496301558293611667e-01 5.068716382477531646e-01 4.254888770166793122e-01 5.762732904177170212e-01 5.323592585147584044e-01 4.484261985073758061e-01 5.153012985564844328e-01 -4.229013817455560403e-02 4.915243506614750402e-01 7.118897928892290450e-01 4.715168910174311057e-01 5.311520963940034035e-01 5.154406447912648348e-01 -3.533543092739504371e-02 3.337913015459288424e-01 -5.311480434375169812e-01 -2.191677985664816641e-01 4.678892047422959499e-01 5.155792468691616781e-01 5.857093524063667900e-01 4.935321566463964360e-01 5.288876636091752736e-01 4.255019174948270755e-01 4.496301546710025354e-01 5.365051003556833287e-01 6.149832083480413214e-01 4.728739379663057796e-01 5.103414778205921376e-01 9.808699553361489576e-01 5.321354193086375028e-01 5.112940959857895651e-01 1.469066295176559012e-01 5.134157445901085248e-01 5.200450600588771843e-01 4.879257987043041367e-01 5.957895902773157060e-01 4.871641405271683323e-01 7.929832700268601986e-01 7.545626693917035777e-01 5.179101209356483659e-01 4.346589981846127326e-01 1.757510835911227920e-01 6.979087153381663411e-01 1.581574592733151485e+00 4.855452811604711871e-01 2.505485102887012872e-01 5.753954727702975669e-01 5.288357534332536192e-01 1.001705358888246300e+00 4.359188386670726501e-01 8.003404209224057597e-01 5.174793384017688513e-01
7.161291559839128018e-01 3.170670109677036774e-01 5.818941865492398557e-01 4.435305443305255224e-01 3.032460455954886780e-01 2.660119106827671942e-01 2.550546629108517149e-01 5.213534134393706942e-01 4.140098706584355859e-01 2.957533151853610209e-01 1.620387891723177987e+00 1.407461254552215602e+00 -9.247418825771058781e-01 3.001825445221182886e-01 2.261768636155783441e-01 3.050738931369184059e-01 2.303905578571123769e-01 3.612900131566601503e-01 1.735742853885578474e-01 3.194175539015593479e-01 5.333460017905141681e-01 1.569809676937961029e+00 3.878095749116159952e-01 2.752135432135166537e-01 1.650563733013845902e-01 -5.915580261896429271e-01 3.303028648648214105e-01 3.292648570875584269e-01 3.361582462633688206e-01 -1.757848160265811921e-01 3.468760450983975341e-01 3.494100875408771567e-01 3.450946788495992124e-01 3.471239511186869908e-01 -2.095195090135651139e-01 2.488534687711856930e-01 2.130881467061960799e-01 1.565240416949645608e-01 -2.256901639947585192e+00 3.234296251385395116e-01 2.433333972787928845e-01 1.239403932626884780e-01 -6.601305652337516316e-02 6.922093352534597344e-01 9.056329067257292698e-01 2.606643944038542493e-01 4.402688261125892177e-01 3.031864104770897184e-01 2.892119466265939964e-01 7.904485473856548428e-01 7.970278038915774577e-01 4.024832743790214828e-01 -7.042170037565964602e-01 3.326981341440842233e-01 3.048343404900207831e-01 7.869603081764552366e-01 2.817323056568222239e-01 1.413917774734230748e-01 3.784322919521862505e-01 3.353256130356292442e-01 3.428542524221392385e-01 2.759699141404101108e-01 3.421897942603740472e-01 3.878093360550321500e-01 1.337963331465281125e-01 1.763882147202037176e-01 3.002684545922714721e-01 2.002382150259012783e-01 2.876273663091807875e-01 8.360519787817881632e-01 2.488967777305037266e-01 3.338063545187223702e-01 3.458638178730998325e-01 7.709515605377867953e-01 1.497030820778132432e+00 2.101776378376319365e-01 3.878554717382852735e-01 3.739327383108526082e-01 3.049051207302054811e-01 -9.478476813446635729e-01 3.231871312985321598e-01 9.333161401001724977e-01 1.185366797244534087e+00 3.084827614047757072e-01 2.716821397202991428e-01 -6.886513786351575739e-01 -3.591719807330025216e-02 3.484524919074328264e-01 -3.982223447393218874e-01 -4.574908544583352610e-01 8.973603687167164278e-01 1.055194059540515594e+00 1.853895168684864259e-01 7.312712132051678582e-01 5.648969453743939440e-01 3.201725392755579991e-01 1.803406681437944581e-01 2.500823325141244835e-01 7.763544794905957724e-01 -6.062660817942561176e-01 4.651170483196892524e-02 2.364242695236715708e-01 3.129170760599638279e-01 2.949251692618805598e-01 3.064021989369704602e-01 2.132925234307773366e+00 -1.508084597699006213e-01 -5.935972095013886118e-01 3.785621800777776991e-01 6.820777593948221806e-01 4.770083038619285509e-01 2.959266590214006953e-01 4.217924861500547129e-01 3.391665548427136301e-01 -5.598004496683373077e-01 3.330392025602840755e-01 5.090632236044311254e-01 3.069955773539212451e-01 -2.556464644872538661e-01 3.398063130273707988e-01 -1.069478046866225940e+00 2.816808406661575059e-01 3.557395525438414863e-01 4.881351209106680328e-02 3.282622115297146315e-01 1.616401664073586542e+00 4.287550268879132265e-01 3.374459236008126028e-01 4.689576533260539914e-01 2.872781818029388479e-01 2.977209259908935590e-01 3.366563639498691973e-01 2.863433437744947185e-01 1.478640315207772893e-01 2.558664035012649940e-01 9.250037491395287637e-01 7.481370773154089049e-02 8.136774586502074635e-01 -2.241672137630642825e-01 3.378528062095543794e-01 2.792782464664854691e-01 3.196431389669150969e-01 2.033725180212703210e-01 3.091827785956891006e-01 2.964716488501069613e-01 7.456974898124968387e-01 6.816357277539809578e-01 2.953211866875528058e-01 3.651050998491744415e-01 3.357635309936351509e-01 -5.382696769261011704e-01 7.360460272847445251e-02 2.609834729554521005e-01 3.431601297336494549e-01 4.706989982919634885e-01 4.259560787974859264e-01 -3.576422930062028160e-01 2.854729443553007395e-01 -4.731776861923164268e-01 -5.989383474000384844e-01 3.192919846285473540e-01 9.353349918592000767e-02 3.436699500599136869e-01 3.012832737937454763e-01 6.083311220789512641e-03 -1.231742556488012175e-01 3.689534497742286145e-01 4.522240545270193035e-01 3.171245647256933364e-01 1.953988643758681476e-01 7.422308072666283785e-01 4.438673296716962868e-01 2.602639051730656350e-01 2.496968737258405402e-01 -1.868506797045867529e+00 7.456413226527722760e-01 8.341652004713986379e-01 1.010836468748562478e+00 -3.204267224252286272e-01 1.034755971614185199e+00 2.766046833137155714e-01 2.530686635854361710e-01 9.875125420182421232e-01 2.404950335403502892e-01 2.260671366784358649e-01 3.800899237184768298e-01 2.957651571071996943e-01 2.823078597763513664e-01 -1.308419937197932148e-01 1.320837907504425202e-01 3.961055689478846786e-01 5.948815692959821266e-01 3.380853758852607749e-01 2.699635798919419738e-01 6.787399015644525468e-02 3.052702657173892442e-01 -9.194922901243496316e-01 2.764895161788252231e-01 4.216672578016554263e-01 3.565108254626870310e-01 2.897769784176567609e-01 1.745378859303307328e-01 2.004771768776455465e-01 4.713358758097729168e-02 -9.369919379872484466e-01 4.216657798416447167e-01 3.126307248732665967e-01 -3.383204897677026812e-01 3.192159488711622251e-01 1.730966560107407015e-01 5.248186445764242425e-01 -2.253025891674600434e+00 3.551219976971072834e-01 8.036017769044089265e-01 3.027208209767712765e-01 3.455234097315427189e-01 3.307201944010612626e-01 3.280654044142546355e-01 3.535789293268087885e-01 3.076643603784856573e-01 3.960198769176213607e-01 4.573225115597370216e-01 5.257968117288438492e-01 1.803267851829450930e-01 2.479381196887803229e-01 3.241182861023954587e-01 2.259292526302240922e-01 8.734609419846592337e-02 1.504259050030763767e+00 -7.115647991293347352e-02 1.036450879064908515e+00 -1.155058104118186657e+00 2.934548634571117476e-01 1.886797039139326282e-01 2.623260029716258934e-01 2.112359267122249640e-01 -1.984637364461658005e-01 4.785573427168249294e-01 2.123469071290164101e-01 5.495243752467257048e-01 5.195743283352959319e-01 2.788076275384547831e-01 -8.569912742405645378e-01 4.241322956025149193e-01 3.321347922734231295e-01 3.958722764762506729e-02 1.048640282317464756e+00 4.852158253730278759e-01 1.977669246611849507e+00 2.863824718509055400e-01 4.021205446447206344e-01 3.799639114583552857e-01 3.195325112269808976e-01 3.878113527183396636e-01 3.389815468324889336e-01 3.502253518749364192e-01 9.443965705510576347e-02 2.847885870514519913e-01 3.212729345525605074e-01 5.230230277527745386e-01 3.116688555042578801e-01 4.370212416459490767e-01 3.623511182793798246e-01 4.831170584930139511e-01 3.472843567815578347e-01 9.490998034530520600e-02 2.137439910552320743e+00 2.860517464176594027e-01 6.711121567661023635e-01 3.021469278211062065e-02 3.134860066120750410e-01 3.742644559375402635e-01 3.370499403221848822e-01 3.472783527855966001e-01 2.650884264594334239e-01 4.175785670752586998e-01 1.676893895915197441e-01 2.818014653345921050e-01 -2.893863256753586785e-02 8.670947211763377349e-02 1.194162489603518784e+00 2.647559668243354980e-01 1.381220093228083430e-02 1.700100990720712524e+00 3.501721660993261098e-01 7.281406324774539751e-01 3.440335948338406613e-01 3.029981760759626330e-01 3.330392523244534164e-01 -1.589623348572889894e+00 3.511625771842295518e-01 4.620462459575573888e-01 4.606444854172897507e-01 -4.672773232302359081e-01 7.512247354005023858e-01 2.898283921641151561e-01 -5.033903814985170033e-01 1.961130040521180118e-01 3.047469610658115613e-01 3.646802452125806338e-01 -1.865584003944889269e-01 3.256661390206814222e-01 -4.136900185521627527e-01 4.408922510099840819e-01 3.315188835621457608e-01 6.520792297691613282e-01 3.048899486388197966e-01 3.195984322466629002e-01 3.148618698234920688e-01 3.431120421588728653e-01 6.699590792950810281e-02 -5.511532060591908255e-01 8.488741141301478499e-02 2.882125292431370611e-01 3.012244717048768172e-01 2.606130090671380795e-01 2.736412452990819033e-01 4.442574412152550667e-01 3.007496534651389331e-01 1.816882422072412906e+00 7.910484188141415629e-01 2.421024215762928311e-01 -7.335267300402608104e-01 2.980775360226979309e-01 3.058508195527479323e+00 3.409142947429216752e-01 1.170203834291618505e-01 5.192023402006946675e-01 -3.849217468819337462e+00 3.012892556999539062e-01 1.071810205337654365e+00 2.997003621495125669e-01 5.667123145745042168e-01 -3.130338717632689671e-01 2.372224088874755055e-01 3.019359300565317983e-01 3.021642349466601707e-01 3.506198406398777223e-01 1.934013073014751782e+00 -2.127043778104441285e-01 3.426655551902186292e-01 -1.569796199318289620e+00 2.960781302777137358e-01 1.565239725736368714e-01 5.196651752372459798e-01 3.816271983993236305e-01 3.940148899788042391e-01 5.199062921976026486e-01 1.340781544951958670e+00 4.392932035190845186e-01 4.216683334300536101e-01 4.241496886138854117e-01 4.713356400824382508e-02 1.619611442720643169e-01 4.201096425564320724e-01 -4.332961258624637435e-01 3.425110750808547100e-01 5.505469091142658478e-01 3.687823452251058898e-01 2.366818156370657511e-01 3.058707445107205491e-01 1.923375924937497372e-01 3.816275879105873181e-01 4.984526332774672497e-01 3.080556500572190215e-01 2.994462585193519710e-01 7.445976204169652002e-01 1.839797661762808456e+00 2.954873833432986596e-01 3.731763643742582737e-01 3.497490698268332920e-01 9.113580461129234811e-01 3.420806711424959623e-01 4.021247851839046539e-01 7.934457321086338943e-01 1.576923647003983797e-01 1.838606386157012884e-01 2.436957525549058312e-01 4.472532597693387180e-01 9.157748856143055338e-01 5.928800469486149582e-01 6.921542229855617290e-01 2.767630114379007744e-01 4.713358766386064463e-02 4.713358757960132289e-02 3.454870354305782376e-01 3.617991822108291844e-01 1.094216891296724281e+00 -1.391710747572835194e-01 2.607684747298448791e-01 3.678304318054343991e-01 3.121852898998430104e-01 9.090192477946735794e-01 4.216652163101732298e-01 3.048589205307808414e-01 3.498475847342505940e-01 1.807719511609889862e-02 -4.773339332949901870e-01 4.175683817940156750e-01 2.719409786343613966e-01 1.849349205307616595e-01 2.608238160826020224e-01 7.291756460323594036e-01 4.713360444096434398e-02 -3.673922429796755984e-01 3.024548031940914594e-01 3.608115001545661449e-02 -4.240380423622480688e-01 1.905899142913182465e-01 -2.451818485216247012e+00 1.014028714139155518e+00 2.768804599384626086e-01 -1.216782792638387983e-01 4.441536641150428122e-01 1.509051713847740395e+00 3.166531450518446644e-01 4.843957936862117175e-01 8.048977935021455199e-01 4.091120100566775220e-01 1.477372592876123325e-01 2.771560587698211897e-01 7.003964337342041269e-01 3.154003831326530616e-01 1.530301336460831552e+00 2.998149631165549778e-01 1.811604546256506132e-01 2.622271204381692589e-01 3.087649262968300556e-01 -1.106810395034378836e+00 2.934763605555564814e-01 6.072199384897477431e-02 3.847540401257207310e-01 4.186829027059946751e-01 3.024465222399881914e-01 2.454356984524745655e-01 3.531996186280350614e-01 -1.305461628930231210e-01 2.970413425557464904e-01 1.804269540010267625e-01 3.016340890259187613e-01 3.075915693781026694e-01 6.680012614321854114e-01 7.278932404694508085e-01 8.531336317637331357e-01 -8.407834507280336211e-01 4.943297733816614525e-01 -1.109053033821339428e-03 -3.583309557336314399e-01 1.797438663152178262e-01 3.391349191628426629e-01 3.207683104439643662e-01 7.502077694604327718e-01 2.759859325900667626e-01 3.232623284687876630e-01 3.947569900673020826e-01 1.181286369101100103e-01 -1.298623167313710802e-01 3.128444744971122238e-01 5.168291837111094189e-01 4.148510677179023109e-01 3.410753967665365871e-01 3.427278614581476535e-01 3.046197631338682932e-01 4.143894496730110566e-01 3.185821285609097830e-01 4.235361436224707732e-01 3.457621965631249572e-01 2.958516304812455200e-01 7.941000859146806201e-01 2.997003080730540892e-01 7.481454767898282343e-01 3.084738981366463156e-02 2.925880842193906428e-01 2.972892427329864029e-01 -1.099054575503062736e+00 3.251379407554881307e-01 2.697719170259753607e-01 5.242282755418057327e-01 2.812351804423448010e-01 3.530537661683574857e-01 5.006214658747675239e-01 8.043814395545109130e-01 3.141641772187681036e-01 3.680464837631675090e-01 2.659914174808149512e-01 8.424244745795433920e-02 4.376219703903697078e-01 1.622404877236722776e-01 2.969820969669423327e-01 -1.137036399219130967e-03 2.822909805693114560e-01 1.902388418123708291e-01 1.158431205136026820e+00 2.378419203214307831e-01 2.814546462591880349e-01 2.733230125693678625e-01 -5.033805377578223217e-01 3.142054051616918753e-01 3.728321920862693872e-01 3.539592026467870411e-01 4.595552842506892000e-01 5.151836492744619189e-01 -9.543786727237320994e-03 8.052841188757648982e-01 5.411238586458892996e-01 3.588319549280589160e-01 2.561451107724842524e-01 3.428621815645940263e-01 6.666936881186174002e-01 2.213097798070470912e+00 3.039484234920060701e-01 3.821019614486348970e-01 5.810596488523362968e-01 3.802013280352012914e-01 2.721871509992425109e-01 2.818341329663828221e-01 7.271413546931263516e-01 3.469303053008223614e-01 -2.629776429229037718e-02 2.227515641593479923e-01 3.880604408733450555e-02 -1.528622786908093167e-02 4.141024921430959682e-01 3.029734669756070087e-01 4.297685378352642527e-01 1.385461169945472859e+00 4.676803434947074400e-01 2.481977058246312151e-01 5.421873112131744277e-01 3.026160222372511477e-01 4.415766832928113006e-01 2.660113596090976640e-01 2.074132955504543740e-01 7.589755417322040509e-01 3.405429217817507737e-01 4.072696501396562696e-01 2.608036399958542639e-01 2.849925002203098634e-01 1.254949688458634749e-01 4.103933186390320009e-01 9.371859583718286091e-01 3.866438932178996590e-01 3.238385186175478103e-01 3.646187101430963806e-01 3.673171783618226494e-01 2.458954346919134948e-01 5.215804317916025168e-01 6.041601071615041452e-01 4.183292408645112315e-01 3.529855825150311488e-01 4.461610964167874727e-01 2.997884676592932340e-01 2.392554445095106952e-01 2.308887328216733537e-01 3.006796809918777513e-01 3.086571419568461816e-01 2.964671779536419693e-01 3.323259699796993205e-01 5.076860098469528904e-01 2.156846453299076927e-01 3.512389560572913849e-01 1.171104072010071606e+00 2.337951606357380474e-01 3.433168180308115991e-01 3.818893580652364395e-01 8.360432921434044484e-01 9.356118508392060606e-01 1.387215494789998949e-01 -1.731678324825040027e-01 -1.419891066438867533e-01 5.098319900316408138e-01 4.518244171360832895e-01 2.824446851503590872e-01 3.582202935397155175e-01 2.913229848695306212e-01 3.553497091067434610e-01 3.247767341955242193e-01 4.413855561511613734e-01 3.201955862459684443e-01 4.584837500012833300e-01 7.999433748698110413e-01 -2.595306221360969834e-02 6.661921666737840031e-01 3.474473742766476803e-01 3.510917534148562669e-01 9.318208034097955061e-03 4.633926906582789274e-01 8.992568873944829511e-01 3.231567547050206435e-01 5.896688843735703456e-01 1.246071323397268449e+00 2.820660396791296320e-01 1.492075395327046250e+00 5.631413118774143411e-01 1.344993665587130849e-01 3.057581268859687063e-01 2.941195475850847396e-01 3.129768028811106273e-01 1.953988492540507660e-01 2.930701928713373428e-01 3.042773498165511903e-01 2.171465153485388766e-01 3.031325939184107976e-01 2.450950368566457704e-01 2.880967647779439922e-01 4.380712346168522120e-01 3.428568921188827612e-01 3.642479289723399294e-01 3.473831895815943094e-01 2.887493983567586131e-01 3.920647215901761906e-01 -3.071548642836097187e-01 1.480330383664566707e+00 2.975639433118168475e-01 -2.648071701416963158e-02 3.065824765953678588e-01 2.446579319980089484e-01 3.240624789005751571e-01 -3.333412906515927698e+00 2.609908340009307715e+00 5.059780192949929756e-01 2.200119146179575491e-01 1.305253754608879380e-01 3.019313522420184470e-01 2.912706861442464490e-01 1.920142553177820677e+00 4.972185291113475625e-01 3.865992864583939204e-01 3.330397938813200454e-01 8.197115072751328668e-01 3.163501463560648985e-01 9.255615976384198307e-01 -3.379440956046316225e-01 -4.482012260029071826e-01 -6.675789293542001568e-01 1.017755704600727534e-01 3.040469022246528596e-01 4.391755764889766489e-01 2.793179563992875813e-01 2.882806638879401029e-01 1.583383344619502253e-01 2.753375359340085038e-01 3.778578578372155938e-01 3.624469855222132719e-01 1.356925184503996740e-01 3.470044879767011925e-01 3.656796962455927669e-01 3.273463872986155376e-01 2.993935674249096901e-01 1.101922133439432183e-01 3.537621592660507575e-01 3.419371166046935029e-01 2.735509072071833359e-01 2.597151858239039046e-01 2.660997261508058487e-01 8.319807867896863440e-01 3.816272383121466771e-01 3.506065443406356508e-01 3.144517352944003474e-01 1.646829946919937393e-01 1.915653978347854614e-01 -9.591230676133280508e-03 1.006938699149465322e+00 3.550712339902735160e-01 2.702805673857628377e-01 3.244507717661355706e-01 2.720724384088445413e-01 1.114401947070633031e-01 7.039471422327599204e-02 2.573201630984796595e-01 2.159849644961640003e-01 6.299244392311540430e-01 6.198011020960529915e-01 1.799789754659611163e-01 1.409780010690641738e+00 2.439849458718651443e-01 1.885705567050942610e-01 3.173528169276411681e-01 -3.979980698636831904e-01 2.823913965751568833e-01 3.343146682903317402e-01 7.898687342218324581e-01 3.090898168785868316e-01 3.597999481363830521e-01 3.127786979370043019e-01 2.555736312072356964e-01 3.359627451955108923e-01 6.801489500661032084e-01 6.366213207979738442e-01 4.255252333050431601e-01 4.166329898014806687e-01 2.915859346208590219e-01 2.622477085542644915e-01 1.396888601029084020e-01 3.430852834539318552e-01 -3.134401651167934011e-01 2.109550852491132167e-01 3.423586661159304101e-01 4.421823238839142634e-01 3.513194356808465590e-01 1.162973563109391595e+00 7.339575913308906685e-01 -7.139053385618833181e-01 1.565240410260103077e-01 3.365584971283750448e-01 -2.346292540185646924e+00 1.337598293747030542e+00 3.483030500539491814e-01 4.436407168194220763e-01 3.132774100898155223e-01 5.839987443461268635e-01 2.977866039023959743e-01 4.241497781767386566e-01 -3.334534457847756483e-01 7.369079012583433785e-01 -2.097868518329874463e-02 9.381406775689731248e-01 1.640887779458701790e+00 -3.376619766280900548e-01 -1.121934471359184782e+00 2.931889240054486034e-01 6.235621699748974400e-01 9.452184637869390782e-01 3.686264005153762624e-01 7.221420500214575933e-01 3.949103221122279850e-01 2.550434991345430502e-01 2.980381093801606762e-01 3.183628146467255005e-01 2.818959498527170426e-01 9.817667325895746561e-03 9.428935260107061955e-01 9.561512722114454688e-01 2.931735041363383587e-01 4.587489584419937594e-01 -8.700419185766078423e-02 -4.763379732835463370e-02 5.192323894749539814e-01 2.217942171265765983e-01 3.681960737589592969e-01 7.197541210269442491e-01 7.022639862199747673e-01 3.384544587743998911e-01 2.725640534894731570e-01 2.829382722025191033e-01 3.062803914265495586e-01 1.321859650601944214e-01 2.828052530977397394e-01 3.336520128153772080e-01 1.827023046067581813e-01 2.455714460023486478e-01 4.796167616041836501e-01 8.577162886547652354e-01 9.688696862481525063e-01 5.992180808592025842e-01 2.682962787729782916e-01 3.701128172603501132e-01 -4.576839055657790784e-02 1.519891945799968780e-01 -1.130519940605428708e+00 2.939076555330892848e-01 5.616758155761191196e-01 3.169146968615868531e-01 6.476736597468017997e-01 1.081131382470509772e+00 3.330391630031655503e-01 6.817825627013164580e-02 3.398298986292306312e-01 2.881461514491787113e-01 7.216759213955608043e-01 3.239326464906339131e-01 -1.417972490326713797e-01 5.290548400983471344e-01 3.412127803073600751e-01 3.250675069206084289e-01 3.594707273012771598e-01 2.771274315087356999e-01 1.812074081101046064e-01 2.366163179128873140e-01 3.249146925588070056e-01 3.217792886060537594e-01 8.043880195705512826e-01 2.836663523439005852e-01 -1.239990297708595257e-01 7.518717310220859318e-01 3.615552576943575347e-01 2.439050893377941176e-01 2.904402496818828672e-01 1.080420667327696149e+00 -1.985162767720653407e-02 7.660214845032268238e-01 3.384775179378548549e-01 3.083918701171072807e-01 4.049237924147167655e-01 3.086091018970524291e-01 7.149743354863909994e-01 2.786137667528963413e-01 9.088748923393239476e-01 3.103676902772148916e-01 2.515822337366147021e-01 7.575144693485028613e-01 -1.819788540139884864e-02 -1.610924503372868744e+00 2.691347107520470905e-01 3.393472187465154111e-01 2.905450398126701028e-01 6.793667898102510039e-01 3.407125156232336805e-01 3.699841125794047225e-01 3.220255355522872454e-01 4.197229418512439247e-01 2.412440155226264205e-01 -1.359424499627033045e+00 6.431570450437940067e-01 3.347025473277088214e-01 3.351670719555608913e-01 3.348188709922146900e-01 7.039921069272190302e-01 3.048432921881402136e-01 4.061318264500958786e-01 3.564199824634006197e-01 9.890158906158068586e-01 4.475819314653729508e-01 4.015423410930414327e-01 1.081786306049671742e+00 4.034282919838534931e-01 1.691692585384458436e+00 3.201590535855189934e-01 3.292042163660185428e-01 7.559699782360106424e-01 3.079849362726027051e-01 2.389311580892312381e-01 -8.943109840470181426e-01 2.217009390871529095e-01 3.403982941690643638e-01 4.546221884003533442e-01 1.846005060766618133e-01 4.076218184411149470e-01 -5.967420638645279940e-01 1.541330432749520085e+00 -4.376356391025357784e-01 5.176597607853006267e-01 3.721476481948973736e-01 4.275090056930804794e-01 3.730910157895511170e-01 3.021161116199018171e-01 9.832181858211713754e-01 -7.847793981246631301e-02 3.341507085035241853e-01 -6.212655373769101486e-01 5.701541399356319095e-01 3.082598375231559440e-01 -2.019319566866511817e+00 2.073368143958080445e+00 2.831510427923561446e-01 2.956377484462093808e-01 -8.904737570006094893e-01 2.493536219112403307e-01 -3.154091809841077371e-03 3.263961681459662811e-01 3.573383915690989676e-01 5.736385182207285327e-01 3.931246275574131754e-01 3.351201009209831549e-01 1.565240398317093995e-01 2.639161926844246775e-01 3.083952198516790588e-01 -8.912242063311395235e-01 3.460418215421071086e-01 -4.635009070730135572e-01 3.060856308346109333e-01 9.091819479030580076e-03 3.327145445153972259e-01 2.748268884684058611e-01 4.148947731711163378e-01 3.491388885046797785e-01 3.402740892413752549e-01 2.925308690053751715e-01 2.667191514194311996e-01 2.722787407514665747e-01 3.060558212349565599e-01 -7.143896852880434745e-01 1.495884319108868876e-01 1.290631311100050249e+00 -2.989479105227308819e-03 2.783845794183291145e-01 2.861438339912362738e-01 1.211019267588061332e+00 3.494248992032682466e-01 2.536532002363391380e-01 9.283891383334701430e-01 1.519310740294743389e-01 1.273773810393127981e+00 3.312861560085499923e-01 2.807159635846510071e-01 3.486096331901549217e-01 5.055800801911296549e-01 1.199078773216163851e+00 3.266440369869515470e-01 3.559599490814761014e-01 5.096361238238104052e-01 4.692197948454020495e-01 7.414478139261740375e-02 -2.805160139141328890e-01 3.729353241259167895e-01 5.913968495511467971e-01 1.691799022560511734e-01 4.625395483513325967e-01 -1.572919069684168211e-02 1.247888401422069249e+00 2.451607678962625658e-01 3.578722587632932606e-01 -1.859988195489673535e+00 3.700984820897879612e-01 3.016135285089402429e-01 3.467625726137721909e-01 -8.059215669888683542e-02 2.764936704778314658e-01 -2.594203179163640516e-01 1.460135838497129690e-01 3.449291188118234763e-01 3.092190468164937034e-01 1.101297102866519495e+00 1.593713571024675535e-01 3.112086814754775332e-01 -1.071966027961230639e+00 1.901246793033342652e-01 8.038064804181034306e-01 7.763125510847642685e-01 2.989828572635000459e-01 -2.224449579727105775e-01 7.643784440585833506e-01 3.651381506255860776e-01 3.054094396792877419e-01 3.013229360533176693e-01 6.173074257305735113e-01 7.886583334249318566e-01 3.200561371192733873e-01 5.180961568201045697e-01 2.817918372794300241e-01 6.125627065929631909e-01 4.873977092750180207e-01 -1.320992706222180235e+00 2.965161198020777600e-01 3.993924480761389811e-02 4.583121119540394806e-01 3.234312404520990891e-01 3.114219444592464248e-01 3.816271947096063766e-01 3.065312284977884660e-01 4.066028190780107687e-01 2.414428432421154014e-01 3.164599514186781093e-01 3.942406278966065769e-01 2.717490964261453090e-01 -2.859840350930611397e-01 3.438397114208727179e-01 2.975897537091131140e-01 3.613793004375969176e-01 2.377938136982999384e-01 3.124958577978489971e-01 4.206414721767788856e-01 3.680985507472100404e-01 7.324092440809064630e-01 4.657941323862412331e-01 3.678472287261091989e-01 3.070235850960038593e-01 -1.608648646737461663e+00 3.493842396545419615e-01 4.106796852552572763e-01 3.016184530161817867e-01 3.816271922129312877e-01 2.652636887630989704e-01 2.197750068064807105e-01 2.881156095784480065e-01 3.157500720611479683e-01 2.051811913967337975e-01 2.669403152266002222e-01 3.014656732915014792e-01 4.598832648795578848e-01 2.998438212367764422e-01 2.978167707587302537e-01 3.478809048159799966e-01 4.060316879829999337e-01 3.511855763905789574e-01 2.615080362941716863e-01 5.784735930561295258e-02 3.449557225166299257e-01 3.675958538807415632e-01 2.611641899146518314e-02 -3.831831056160331928e-01 2.623402732131340453e+00 3.586613787713568424e-01 7.025071864632237428e-01 2.071978755170000852e-01 2.854514769997628654e-01 1.203925646510295877e+00 5.098369366077049047e-01 7.587413844139765384e-01 2.969788348982073112e-01
