# 
#                 ----------------------------------------------------
#                 Data from a 3D direct N-body simulation. 
# 
#                 rows are i-particle; 
#                 coumns are :mass, tag, x ,y, z, vx, vy, vz, ax, ay, az
# 
#                 NTHU, Computational Physics 
# 
#                 ----------------------------------------------------
#                 Time = 0.0
0.000000000000000000e+00 1.000000000000000000e+00 2.000000000000000000e+00 3.000000000000000000e+00 4.000000000000000000e+00 5.000000000000000000e+00 6.000000000000000000e+00 7.000000000000000000e+00 8.000000000000000000e+00 9.000000000000000000e+00 1.000000000000000000e+01 1.100000000000000000e+01 1.200000000000000000e+01 1.300000000000000000e+01 1.400000000000000000e+01 1.500000000000000000e+01 1.600000000000000000e+01 1.700000000000000000e+01 1.800000000000000000e+01 1.900000000000000000e+01 2.000000000000000000e+01 2.100000000000000000e+01 2.200000000000000000e+01 2.300000000000000000e+01 2.400000000000000000e+01 2.500000000000000000e+01 2.600000000000000000e+01 2.700000000000000000e+01 2.800000000000000000e+01 2.900000000000000000e+01 3.000000000000000000e+01 3.100000000000000000e+01 3.200000000000000000e+01 3.300000000000000000e+01 3.400000000000000000e+01 3.500000000000000000e+01 3.600000000000000000e+01 3.700000000000000000e+01 3.800000000000000000e+01 3.900000000000000000e+01 4.000000000000000000e+01 4.100000000000000000e+01 4.200000000000000000e+01 4.300000000000000000e+01 4.400000000000000000e+01 4.500000000000000000e+01 4.600000000000000000e+01 4.700000000000000000e+01 4.800000000000000000e+01 4.900000000000000000e+01 5.000000000000000000e+01 5.100000000000000000e+01 5.200000000000000000e+01 5.300000000000000000e+01 5.400000000000000000e+01 5.500000000000000000e+01 5.600000000000000000e+01 5.700000000000000000e+01 5.800000000000000000e+01 5.900000000000000000e+01 6.000000000000000000e+01 6.100000000000000000e+01 6.200000000000000000e+01 6.300000000000000000e+01 6.400000000000000000e+01 6.500000000000000000e+01 6.600000000000000000e+01 6.700000000000000000e+01 6.800000000000000000e+01 6.900000000000000000e+01 7.000000000000000000e+01 7.100000000000000000e+01 7.200000000000000000e+01 7.300000000000000000e+01 7.400000000000000000e+01 7.500000000000000000e+01 7.600000000000000000e+01 7.700000000000000000e+01 7.800000000000000000e+01 7.900000000000000000e+01 8.000000000000000000e+01 8.100000000000000000e+01 8.200000000000000000e+01 8.300000000000000000e+01 8.400000000000000000e+01 8.500000000000000000e+01 8.600000000000000000e+01 8.700000000000000000e+01 8.800000000000000000e+01 8.900000000000000000e+01 9.000000000000000000e+01 9.100000000000000000e+01 9.200000000000000000e+01 9.300000000000000000e+01 9.400000000000000000e+01 9.500000000000000000e+01 9.600000000000000000e+01 9.700000000000000000e+01 9.800000000000000000e+01 9.900000000000000000e+01 1.000000000000000000e+02 1.010000000000000000e+02 1.020000000000000000e+02 1.030000000000000000e+02 1.040000000000000000e+02 1.050000000000000000e+02 1.060000000000000000e+02 1.070000000000000000e+02 1.080000000000000000e+02 1.090000000000000000e+02 1.100000000000000000e+02 1.110000000000000000e+02 1.120000000000000000e+02 1.130000000000000000e+02 1.140000000000000000e+02 1.150000000000000000e+02 1.160000000000000000e+02 1.170000000000000000e+02 1.180000000000000000e+02 1.190000000000000000e+02 1.200000000000000000e+02 1.210000000000000000e+02 1.220000000000000000e+02 1.230000000000000000e+02 1.240000000000000000e+02 1.250000000000000000e+02 1.260000000000000000e+02 1.270000000000000000e+02 1.280000000000000000e+02 1.290000000000000000e+02 1.300000000000000000e+02 1.310000000000000000e+02 1.320000000000000000e+02 1.330000000000000000e+02 1.340000000000000000e+02 1.350000000000000000e+02 1.360000000000000000e+02 1.370000000000000000e+02 1.380000000000000000e+02 1.390000000000000000e+02 1.400000000000000000e+02 1.410000000000000000e+02 1.420000000000000000e+02 1.430000000000000000e+02 1.440000000000000000e+02 1.450000000000000000e+02 1.460000000000000000e+02 1.470000000000000000e+02 1.480000000000000000e+02 1.490000000000000000e+02 1.500000000000000000e+02 1.510000000000000000e+02 1.520000000000000000e+02 1.530000000000000000e+02 1.540000000000000000e+02 1.550000000000000000e+02 1.560000000000000000e+02 1.570000000000000000e+02 1.580000000000000000e+02 1.590000000000000000e+02 1.600000000000000000e+02 1.610000000000000000e+02 1.620000000000000000e+02 1.630000000000000000e+02 1.640000000000000000e+02 1.650000000000000000e+02 1.660000000000000000e+02 1.670000000000000000e+02 1.680000000000000000e+02 1.690000000000000000e+02 1.700000000000000000e+02 1.710000000000000000e+02 1.720000000000000000e+02 1.730000000000000000e+02 1.740000000000000000e+02 1.750000000000000000e+02 1.760000000000000000e+02 1.770000000000000000e+02 1.780000000000000000e+02 1.790000000000000000e+02 1.800000000000000000e+02 1.810000000000000000e+02 1.820000000000000000e+02 1.830000000000000000e+02 1.840000000000000000e+02 1.850000000000000000e+02 1.860000000000000000e+02 1.870000000000000000e+02 1.880000000000000000e+02 1.890000000000000000e+02 1.900000000000000000e+02 1.910000000000000000e+02 1.920000000000000000e+02 1.930000000000000000e+02 1.940000000000000000e+02 1.950000000000000000e+02 1.960000000000000000e+02 1.970000000000000000e+02 1.980000000000000000e+02 1.990000000000000000e+02 2.000000000000000000e+02 2.010000000000000000e+02 2.020000000000000000e+02 2.030000000000000000e+02 2.040000000000000000e+02 2.050000000000000000e+02 2.060000000000000000e+02 2.070000000000000000e+02 2.080000000000000000e+02 2.090000000000000000e+02 2.100000000000000000e+02 2.110000000000000000e+02 2.120000000000000000e+02 2.130000000000000000e+02 2.140000000000000000e+02 2.150000000000000000e+02 2.160000000000000000e+02 2.170000000000000000e+02 2.180000000000000000e+02 2.190000000000000000e+02 2.200000000000000000e+02 2.210000000000000000e+02 2.220000000000000000e+02 2.230000000000000000e+02 2.240000000000000000e+02 2.250000000000000000e+02 2.260000000000000000e+02 2.270000000000000000e+02 2.280000000000000000e+02 2.290000000000000000e+02 2.300000000000000000e+02 2.310000000000000000e+02 2.320000000000000000e+02 2.330000000000000000e+02 2.340000000000000000e+02 2.350000000000000000e+02 2.360000000000000000e+02 2.370000000000000000e+02 2.380000000000000000e+02 2.390000000000000000e+02 2.400000000000000000e+02 2.410000000000000000e+02 2.420000000000000000e+02 2.430000000000000000e+02 2.440000000000000000e+02 2.450000000000000000e+02 2.460000000000000000e+02 2.470000000000000000e+02 2.480000000000000000e+02 2.490000000000000000e+02 2.500000000000000000e+02 2.510000000000000000e+02 2.520000000000000000e+02 2.530000000000000000e+02 2.540000000000000000e+02 2.550000000000000000e+02 2.560000000000000000e+02 2.570000000000000000e+02 2.580000000000000000e+02 2.590000000000000000e+02 2.600000000000000000e+02 2.610000000000000000e+02 2.620000000000000000e+02 2.630000000000000000e+02 2.640000000000000000e+02 2.650000000000000000e+02 2.660000000000000000e+02 2.670000000000000000e+02 2.680000000000000000e+02 2.690000000000000000e+02 2.700000000000000000e+02 2.710000000000000000e+02 2.720000000000000000e+02 2.730000000000000000e+02 2.740000000000000000e+02 2.750000000000000000e+02 2.760000000000000000e+02 2.770000000000000000e+02 2.780000000000000000e+02 2.790000000000000000e+02 2.800000000000000000e+02 2.810000000000000000e+02 2.820000000000000000e+02 2.830000000000000000e+02 2.840000000000000000e+02 2.850000000000000000e+02 2.860000000000000000e+02 2.870000000000000000e+02 2.880000000000000000e+02 2.890000000000000000e+02 2.900000000000000000e+02 2.910000000000000000e+02 2.920000000000000000e+02 2.930000000000000000e+02 2.940000000000000000e+02 2.950000000000000000e+02 2.960000000000000000e+02 2.970000000000000000e+02 2.980000000000000000e+02 2.990000000000000000e+02 3.000000000000000000e+02 3.010000000000000000e+02 3.020000000000000000e+02 3.030000000000000000e+02 3.040000000000000000e+02 3.050000000000000000e+02 3.060000000000000000e+02 3.070000000000000000e+02 3.080000000000000000e+02 3.090000000000000000e+02 3.100000000000000000e+02 3.110000000000000000e+02 3.120000000000000000e+02 3.130000000000000000e+02 3.140000000000000000e+02 3.150000000000000000e+02 3.160000000000000000e+02 3.170000000000000000e+02 3.180000000000000000e+02 3.190000000000000000e+02 3.200000000000000000e+02 3.210000000000000000e+02 3.220000000000000000e+02 3.230000000000000000e+02 3.240000000000000000e+02 3.250000000000000000e+02 3.260000000000000000e+02 3.270000000000000000e+02 3.280000000000000000e+02 3.290000000000000000e+02 3.300000000000000000e+02 3.310000000000000000e+02 3.320000000000000000e+02 3.330000000000000000e+02 3.340000000000000000e+02 3.350000000000000000e+02 3.360000000000000000e+02 3.370000000000000000e+02 3.380000000000000000e+02 3.390000000000000000e+02 3.400000000000000000e+02 3.410000000000000000e+02 3.420000000000000000e+02 3.430000000000000000e+02 3.440000000000000000e+02 3.450000000000000000e+02 3.460000000000000000e+02 3.470000000000000000e+02 3.480000000000000000e+02 3.490000000000000000e+02 3.500000000000000000e+02 3.510000000000000000e+02 3.520000000000000000e+02 3.530000000000000000e+02 3.540000000000000000e+02 3.550000000000000000e+02 3.560000000000000000e+02 3.570000000000000000e+02 3.580000000000000000e+02 3.590000000000000000e+02 3.600000000000000000e+02 3.610000000000000000e+02 3.620000000000000000e+02 3.630000000000000000e+02 3.640000000000000000e+02 3.650000000000000000e+02 3.660000000000000000e+02 3.670000000000000000e+02 3.680000000000000000e+02 3.690000000000000000e+02 3.700000000000000000e+02 3.710000000000000000e+02 3.720000000000000000e+02 3.730000000000000000e+02 3.740000000000000000e+02 3.750000000000000000e+02 3.760000000000000000e+02 3.770000000000000000e+02 3.780000000000000000e+02 3.790000000000000000e+02 3.800000000000000000e+02 3.810000000000000000e+02 3.820000000000000000e+02 3.830000000000000000e+02 3.840000000000000000e+02 3.850000000000000000e+02 3.860000000000000000e+02 3.870000000000000000e+02 3.880000000000000000e+02 3.890000000000000000e+02 3.900000000000000000e+02 3.910000000000000000e+02 3.920000000000000000e+02 3.930000000000000000e+02 3.940000000000000000e+02 3.950000000000000000e+02 3.960000000000000000e+02 3.970000000000000000e+02 3.980000000000000000e+02 3.990000000000000000e+02 4.000000000000000000e+02 4.010000000000000000e+02 4.020000000000000000e+02 4.030000000000000000e+02 4.040000000000000000e+02 4.050000000000000000e+02 4.060000000000000000e+02 4.070000000000000000e+02 4.080000000000000000e+02 4.090000000000000000e+02 4.100000000000000000e+02 4.110000000000000000e+02 4.120000000000000000e+02 4.130000000000000000e+02 4.140000000000000000e+02 4.150000000000000000e+02 4.160000000000000000e+02 4.170000000000000000e+02 4.180000000000000000e+02 4.190000000000000000e+02 4.200000000000000000e+02 4.210000000000000000e+02 4.220000000000000000e+02 4.230000000000000000e+02 4.240000000000000000e+02 4.250000000000000000e+02 4.260000000000000000e+02 4.270000000000000000e+02 4.280000000000000000e+02 4.290000000000000000e+02 4.300000000000000000e+02 4.310000000000000000e+02 4.320000000000000000e+02 4.330000000000000000e+02 4.340000000000000000e+02 4.350000000000000000e+02 4.360000000000000000e+02 4.370000000000000000e+02 4.380000000000000000e+02 4.390000000000000000e+02 4.400000000000000000e+02 4.410000000000000000e+02 4.420000000000000000e+02 4.430000000000000000e+02 4.440000000000000000e+02 4.450000000000000000e+02 4.460000000000000000e+02 4.470000000000000000e+02 4.480000000000000000e+02 4.490000000000000000e+02 4.500000000000000000e+02 4.510000000000000000e+02 4.520000000000000000e+02 4.530000000000000000e+02 4.540000000000000000e+02 4.550000000000000000e+02 4.560000000000000000e+02 4.570000000000000000e+02 4.580000000000000000e+02 4.590000000000000000e+02 4.600000000000000000e+02 4.610000000000000000e+02 4.620000000000000000e+02 4.630000000000000000e+02 4.640000000000000000e+02 4.650000000000000000e+02 4.660000000000000000e+02 4.670000000000000000e+02 4.680000000000000000e+02 4.690000000000000000e+02 4.700000000000000000e+02 4.710000000000000000e+02 4.720000000000000000e+02 4.730000000000000000e+02 4.740000000000000000e+02 4.750000000000000000e+02 4.760000000000000000e+02 4.770000000000000000e+02 4.780000000000000000e+02 4.790000000000000000e+02 4.800000000000000000e+02 4.810000000000000000e+02 4.820000000000000000e+02 4.830000000000000000e+02 4.840000000000000000e+02 4.850000000000000000e+02 4.860000000000000000e+02 4.870000000000000000e+02 4.880000000000000000e+02 4.890000000000000000e+02 4.900000000000000000e+02 4.910000000000000000e+02 4.920000000000000000e+02 4.930000000000000000e+02 4.940000000000000000e+02 4.950000000000000000e+02 4.960000000000000000e+02 4.970000000000000000e+02 4.980000000000000000e+02 4.990000000000000000e+02 5.000000000000000000e+02 5.010000000000000000e+02 5.020000000000000000e+02 5.030000000000000000e+02 5.040000000000000000e+02 5.050000000000000000e+02 5.060000000000000000e+02 5.070000000000000000e+02 5.080000000000000000e+02 5.090000000000000000e+02 5.100000000000000000e+02 5.110000000000000000e+02 5.120000000000000000e+02 5.130000000000000000e+02 5.140000000000000000e+02 5.150000000000000000e+02 5.160000000000000000e+02 5.170000000000000000e+02 5.180000000000000000e+02 5.190000000000000000e+02 5.200000000000000000e+02 5.210000000000000000e+02 5.220000000000000000e+02 5.230000000000000000e+02 5.240000000000000000e+02 5.250000000000000000e+02 5.260000000000000000e+02 5.270000000000000000e+02 5.280000000000000000e+02 5.290000000000000000e+02 5.300000000000000000e+02 5.310000000000000000e+02 5.320000000000000000e+02 5.330000000000000000e+02 5.340000000000000000e+02 5.350000000000000000e+02 5.360000000000000000e+02 5.370000000000000000e+02 5.380000000000000000e+02 5.390000000000000000e+02 5.400000000000000000e+02 5.410000000000000000e+02 5.420000000000000000e+02 5.430000000000000000e+02 5.440000000000000000e+02 5.450000000000000000e+02 5.460000000000000000e+02 5.470000000000000000e+02 5.480000000000000000e+02 5.490000000000000000e+02 5.500000000000000000e+02 5.510000000000000000e+02 5.520000000000000000e+02 5.530000000000000000e+02 5.540000000000000000e+02 5.550000000000000000e+02 5.560000000000000000e+02 5.570000000000000000e+02 5.580000000000000000e+02 5.590000000000000000e+02 5.600000000000000000e+02 5.610000000000000000e+02 5.620000000000000000e+02 5.630000000000000000e+02 5.640000000000000000e+02 5.650000000000000000e+02 5.660000000000000000e+02 5.670000000000000000e+02 5.680000000000000000e+02 5.690000000000000000e+02 5.700000000000000000e+02 5.710000000000000000e+02 5.720000000000000000e+02 5.730000000000000000e+02 5.740000000000000000e+02 5.750000000000000000e+02 5.760000000000000000e+02 5.770000000000000000e+02 5.780000000000000000e+02 5.790000000000000000e+02 5.800000000000000000e+02 5.810000000000000000e+02 5.820000000000000000e+02 5.830000000000000000e+02 5.840000000000000000e+02 5.850000000000000000e+02 5.860000000000000000e+02 5.870000000000000000e+02 5.880000000000000000e+02 5.890000000000000000e+02 5.900000000000000000e+02 5.910000000000000000e+02 5.920000000000000000e+02 5.930000000000000000e+02 5.940000000000000000e+02 5.950000000000000000e+02 5.960000000000000000e+02 5.970000000000000000e+02 5.980000000000000000e+02 5.990000000000000000e+02 6.000000000000000000e+02 6.010000000000000000e+02 6.020000000000000000e+02 6.030000000000000000e+02 6.040000000000000000e+02 6.050000000000000000e+02 6.060000000000000000e+02 6.070000000000000000e+02 6.080000000000000000e+02 6.090000000000000000e+02 6.100000000000000000e+02 6.110000000000000000e+02 6.120000000000000000e+02 6.130000000000000000e+02 6.140000000000000000e+02 6.150000000000000000e+02 6.160000000000000000e+02 6.170000000000000000e+02 6.180000000000000000e+02 6.190000000000000000e+02 6.200000000000000000e+02 6.210000000000000000e+02 6.220000000000000000e+02 6.230000000000000000e+02 6.240000000000000000e+02 6.250000000000000000e+02 6.260000000000000000e+02 6.270000000000000000e+02 6.280000000000000000e+02 6.290000000000000000e+02 6.300000000000000000e+02 6.310000000000000000e+02 6.320000000000000000e+02 6.330000000000000000e+02 6.340000000000000000e+02 6.350000000000000000e+02 6.360000000000000000e+02 6.370000000000000000e+02 6.380000000000000000e+02 6.390000000000000000e+02 6.400000000000000000e+02 6.410000000000000000e+02 6.420000000000000000e+02 6.430000000000000000e+02 6.440000000000000000e+02 6.450000000000000000e+02 6.460000000000000000e+02 6.470000000000000000e+02 6.480000000000000000e+02 6.490000000000000000e+02 6.500000000000000000e+02 6.510000000000000000e+02 6.520000000000000000e+02 6.530000000000000000e+02 6.540000000000000000e+02 6.550000000000000000e+02 6.560000000000000000e+02 6.570000000000000000e+02 6.580000000000000000e+02 6.590000000000000000e+02 6.600000000000000000e+02 6.610000000000000000e+02 6.620000000000000000e+02 6.630000000000000000e+02 6.640000000000000000e+02 6.650000000000000000e+02 6.660000000000000000e+02 6.670000000000000000e+02 6.680000000000000000e+02 6.690000000000000000e+02 6.700000000000000000e+02 6.710000000000000000e+02 6.720000000000000000e+02 6.730000000000000000e+02 6.740000000000000000e+02 6.750000000000000000e+02 6.760000000000000000e+02 6.770000000000000000e+02 6.780000000000000000e+02 6.790000000000000000e+02 6.800000000000000000e+02 6.810000000000000000e+02 6.820000000000000000e+02 6.830000000000000000e+02 6.840000000000000000e+02 6.850000000000000000e+02 6.860000000000000000e+02 6.870000000000000000e+02 6.880000000000000000e+02 6.890000000000000000e+02 6.900000000000000000e+02 6.910000000000000000e+02 6.920000000000000000e+02 6.930000000000000000e+02 6.940000000000000000e+02 6.950000000000000000e+02 6.960000000000000000e+02 6.970000000000000000e+02 6.980000000000000000e+02 6.990000000000000000e+02 7.000000000000000000e+02 7.010000000000000000e+02 7.020000000000000000e+02 7.030000000000000000e+02 7.040000000000000000e+02 7.050000000000000000e+02 7.060000000000000000e+02 7.070000000000000000e+02 7.080000000000000000e+02 7.090000000000000000e+02 7.100000000000000000e+02 7.110000000000000000e+02 7.120000000000000000e+02 7.130000000000000000e+02 7.140000000000000000e+02 7.150000000000000000e+02 7.160000000000000000e+02 7.170000000000000000e+02 7.180000000000000000e+02 7.190000000000000000e+02 7.200000000000000000e+02 7.210000000000000000e+02 7.220000000000000000e+02 7.230000000000000000e+02 7.240000000000000000e+02 7.250000000000000000e+02 7.260000000000000000e+02 7.270000000000000000e+02 7.280000000000000000e+02 7.290000000000000000e+02 7.300000000000000000e+02 7.310000000000000000e+02 7.320000000000000000e+02 7.330000000000000000e+02 7.340000000000000000e+02 7.350000000000000000e+02 7.360000000000000000e+02 7.370000000000000000e+02 7.380000000000000000e+02 7.390000000000000000e+02 7.400000000000000000e+02 7.410000000000000000e+02 7.420000000000000000e+02 7.430000000000000000e+02 7.440000000000000000e+02 7.450000000000000000e+02 7.460000000000000000e+02 7.470000000000000000e+02 7.480000000000000000e+02 7.490000000000000000e+02 7.500000000000000000e+02 7.510000000000000000e+02 7.520000000000000000e+02 7.530000000000000000e+02 7.540000000000000000e+02 7.550000000000000000e+02 7.560000000000000000e+02 7.570000000000000000e+02 7.580000000000000000e+02 7.590000000000000000e+02 7.600000000000000000e+02 7.610000000000000000e+02 7.620000000000000000e+02 7.630000000000000000e+02 7.640000000000000000e+02 7.650000000000000000e+02 7.660000000000000000e+02 7.670000000000000000e+02 7.680000000000000000e+02 7.690000000000000000e+02 7.700000000000000000e+02 7.710000000000000000e+02 7.720000000000000000e+02 7.730000000000000000e+02 7.740000000000000000e+02 7.750000000000000000e+02 7.760000000000000000e+02 7.770000000000000000e+02 7.780000000000000000e+02 7.790000000000000000e+02 7.800000000000000000e+02 7.810000000000000000e+02 7.820000000000000000e+02 7.830000000000000000e+02 7.840000000000000000e+02 7.850000000000000000e+02 7.860000000000000000e+02 7.870000000000000000e+02 7.880000000000000000e+02 7.890000000000000000e+02 7.900000000000000000e+02 7.910000000000000000e+02 7.920000000000000000e+02 7.930000000000000000e+02 7.940000000000000000e+02 7.950000000000000000e+02 7.960000000000000000e+02 7.970000000000000000e+02 7.980000000000000000e+02 7.990000000000000000e+02 8.000000000000000000e+02 8.010000000000000000e+02 8.020000000000000000e+02 8.030000000000000000e+02 8.040000000000000000e+02 8.050000000000000000e+02 8.060000000000000000e+02 8.070000000000000000e+02 8.080000000000000000e+02 8.090000000000000000e+02 8.100000000000000000e+02 8.110000000000000000e+02 8.120000000000000000e+02 8.130000000000000000e+02 8.140000000000000000e+02 8.150000000000000000e+02 8.160000000000000000e+02 8.170000000000000000e+02 8.180000000000000000e+02 8.190000000000000000e+02 8.200000000000000000e+02 8.210000000000000000e+02 8.220000000000000000e+02 8.230000000000000000e+02 8.240000000000000000e+02 8.250000000000000000e+02 8.260000000000000000e+02 8.270000000000000000e+02 8.280000000000000000e+02 8.290000000000000000e+02 8.300000000000000000e+02 8.310000000000000000e+02 8.320000000000000000e+02 8.330000000000000000e+02 8.340000000000000000e+02 8.350000000000000000e+02 8.360000000000000000e+02 8.370000000000000000e+02 8.380000000000000000e+02 8.390000000000000000e+02 8.400000000000000000e+02 8.410000000000000000e+02 8.420000000000000000e+02 8.430000000000000000e+02 8.440000000000000000e+02 8.450000000000000000e+02 8.460000000000000000e+02 8.470000000000000000e+02 8.480000000000000000e+02 8.490000000000000000e+02 8.500000000000000000e+02 8.510000000000000000e+02 8.520000000000000000e+02 8.530000000000000000e+02 8.540000000000000000e+02 8.550000000000000000e+02 8.560000000000000000e+02 8.570000000000000000e+02 8.580000000000000000e+02 8.590000000000000000e+02 8.600000000000000000e+02 8.610000000000000000e+02 8.620000000000000000e+02 8.630000000000000000e+02 8.640000000000000000e+02 8.650000000000000000e+02 8.660000000000000000e+02 8.670000000000000000e+02 8.680000000000000000e+02 8.690000000000000000e+02 8.700000000000000000e+02 8.710000000000000000e+02 8.720000000000000000e+02 8.730000000000000000e+02 8.740000000000000000e+02 8.750000000000000000e+02 8.760000000000000000e+02 8.770000000000000000e+02 8.780000000000000000e+02 8.790000000000000000e+02 8.800000000000000000e+02 8.810000000000000000e+02 8.820000000000000000e+02 8.830000000000000000e+02 8.840000000000000000e+02 8.850000000000000000e+02 8.860000000000000000e+02 8.870000000000000000e+02 8.880000000000000000e+02 8.890000000000000000e+02 8.900000000000000000e+02 8.910000000000000000e+02 8.920000000000000000e+02 8.930000000000000000e+02 8.940000000000000000e+02 8.950000000000000000e+02 8.960000000000000000e+02 8.970000000000000000e+02 8.980000000000000000e+02 8.990000000000000000e+02 9.000000000000000000e+02 9.010000000000000000e+02 9.020000000000000000e+02 9.030000000000000000e+02 9.040000000000000000e+02 9.050000000000000000e+02 9.060000000000000000e+02 9.070000000000000000e+02 9.080000000000000000e+02 9.090000000000000000e+02 9.100000000000000000e+02 9.110000000000000000e+02 9.120000000000000000e+02 9.130000000000000000e+02 9.140000000000000000e+02 9.150000000000000000e+02 9.160000000000000000e+02 9.170000000000000000e+02 9.180000000000000000e+02 9.190000000000000000e+02 9.200000000000000000e+02 9.210000000000000000e+02 9.220000000000000000e+02 9.230000000000000000e+02 9.240000000000000000e+02 9.250000000000000000e+02 9.260000000000000000e+02 9.270000000000000000e+02 9.280000000000000000e+02 9.290000000000000000e+02 9.300000000000000000e+02 9.310000000000000000e+02 9.320000000000000000e+02 9.330000000000000000e+02 9.340000000000000000e+02 9.350000000000000000e+02 9.360000000000000000e+02 9.370000000000000000e+02 9.380000000000000000e+02 9.390000000000000000e+02 9.400000000000000000e+02 9.410000000000000000e+02 9.420000000000000000e+02 9.430000000000000000e+02 9.440000000000000000e+02 9.450000000000000000e+02 9.460000000000000000e+02 9.470000000000000000e+02 9.480000000000000000e+02 9.490000000000000000e+02 9.500000000000000000e+02 9.510000000000000000e+02 9.520000000000000000e+02 9.530000000000000000e+02 9.540000000000000000e+02 9.550000000000000000e+02 9.560000000000000000e+02 9.570000000000000000e+02 9.580000000000000000e+02 9.590000000000000000e+02 9.600000000000000000e+02 9.610000000000000000e+02 9.620000000000000000e+02 9.630000000000000000e+02 9.640000000000000000e+02 9.650000000000000000e+02 9.660000000000000000e+02 9.670000000000000000e+02 9.680000000000000000e+02 9.690000000000000000e+02 9.700000000000000000e+02 9.710000000000000000e+02 9.720000000000000000e+02 9.730000000000000000e+02 9.740000000000000000e+02 9.750000000000000000e+02 9.760000000000000000e+02 9.770000000000000000e+02 9.780000000000000000e+02 9.790000000000000000e+02 9.800000000000000000e+02 9.810000000000000000e+02 9.820000000000000000e+02 9.830000000000000000e+02 9.840000000000000000e+02 9.850000000000000000e+02 9.860000000000000000e+02 9.870000000000000000e+02 9.880000000000000000e+02 9.890000000000000000e+02 9.900000000000000000e+02 9.910000000000000000e+02 9.920000000000000000e+02 9.930000000000000000e+02 9.940000000000000000e+02 9.950000000000000000e+02 9.960000000000000000e+02 9.970000000000000000e+02 9.980000000000000000e+02 9.990000000000000000e+02
1.000000000000000000e+00 1.000000000000000000e+00 1.000000000000000000e+00 1.000000000000000000e+00 1.000000000000000000e+00 1.000000000000000000e+00 1.000000000000000000e+00 1.000000000000000000e+00 1.000000000000000000e+00 1.000000000000000000e+00 1.000000000000000000e+00 1.000000000000000000e+00 1.000000000000000000e+00 1.000000000000000000e+00 1.000000000000000000e+00 1.000000000000000000e+00 1.000000000000000000e+00 1.000000000000000000e+00 1.000000000000000000e+00 1.000000000000000000e+00 1.000000000000000000e+00 1.000000000000000000e+00 1.000000000000000000e+00 1.000000000000000000e+00 1.000000000000000000e+00 1.000000000000000000e+00 1.000000000000000000e+00 1.000000000000000000e+00 1.000000000000000000e+00 1.000000000000000000e+00 1.000000000000000000e+00 1.000000000000000000e+00 1.000000000000000000e+00 1.000000000000000000e+00 1.000000000000000000e+00 1.000000000000000000e+00 1.000000000000000000e+00 1.000000000000000000e+00 1.000000000000000000e+00 1.000000000000000000e+00 1.000000000000000000e+00 1.000000000000000000e+00 1.000000000000000000e+00 1.000000000000000000e+00 1.000000000000000000e+00 1.000000000000000000e+00 1.000000000000000000e+00 1.000000000000000000e+00 1.000000000000000000e+00 1.000000000000000000e+00 1.000000000000000000e+00 1.000000000000000000e+00 1.000000000000000000e+00 1.000000000000000000e+00 1.000000000000000000e+00 1.000000000000000000e+00 1.000000000000000000e+00 1.000000000000000000e+00 1.000000000000000000e+00 1.000000000000000000e+00 1.000000000000000000e+00 1.000000000000000000e+00 1.000000000000000000e+00 1.000000000000000000e+00 1.000000000000000000e+00 1.000000000000000000e+00 1.000000000000000000e+00 1.000000000000000000e+00 1.000000000000000000e+00 1.000000000000000000e+00 1.000000000000000000e+00 1.000000000000000000e+00 1.000000000000000000e+00 1.000000000000000000e+00 1.000000000000000000e+00 1.000000000000000000e+00 1.000000000000000000e+00 1.000000000000000000e+00 1.000000000000000000e+00 1.000000000000000000e+00 1.000000000000000000e+00 1.000000000000000000e+00 1.000000000000000000e+00 1.000000000000000000e+00 1.000000000000000000e+00 1.000000000000000000e+00 1.000000000000000000e+00 1.000000000000000000e+00 1.000000000000000000e+00 1.000000000000000000e+00 1.000000000000000000e+00 1.000000000000000000e+00 1.000000000000000000e+00 1.000000000000000000e+00 1.000000000000000000e+00 1.000000000000000000e+00 1.000000000000000000e+00 1.000000000000000000e+00 1.000000000000000000e+00 1.000000000000000000e+00 1.000000000000000000e+00 1.000000000000000000e+00 1.000000000000000000e+00 1.000000000000000000e+00 1.000000000000000000e+00 1.000000000000000000e+00 1.000000000000000000e+00 1.000000000000000000e+00 1.000000000000000000e+00 1.000000000000000000e+00 1.000000000000000000e+00 1.000000000000000000e+00 1.000000000000000000e+00 1.000000000000000000e+00 1.000000000000000000e+00 1.000000000000000000e+00 1.000000000000000000e+00 1.000000000000000000e+00 1.000000000000000000e+00 1.000000000000000000e+00 1.000000000000000000e+00 1.000000000000000000e+00 1.000000000000000000e+00 1.000000000000000000e+00 1.000000000000000000e+00 1.000000000000000000e+00 1.000000000000000000e+00 1.000000000000000000e+00 1.000000000000000000e+00 1.000000000000000000e+00 1.000000000000000000e+00 1.000000000000000000e+00 1.000000000000000000e+00 1.000000000000000000e+00 1.000000000000000000e+00 1.000000000000000000e+00 1.000000000000000000e+00 1.000000000000000000e+00 1.000000000000000000e+00 1.000000000000000000e+00 1.000000000000000000e+00 1.000000000000000000e+00 1.000000000000000000e+00 1.000000000000000000e+00 1.000000000000000000e+00 1.000000000000000000e+00 1.000000000000000000e+00 1.000000000000000000e+00 1.000000000000000000e+00 1.000000000000000000e+00 1.000000000000000000e+00 1.000000000000000000e+00 1.000000000000000000e+00 1.000000000000000000e+00 1.000000000000000000e+00 1.000000000000000000e+00 1.000000000000000000e+00 1.000000000000000000e+00 1.000000000000000000e+00 1.000000000000000000e+00 1.000000000000000000e+00 1.000000000000000000e+00 1.000000000000000000e+00 1.000000000000000000e+00 1.000000000000000000e+00 1.000000000000000000e+00 1.000000000000000000e+00 1.000000000000000000e+00 1.000000000000000000e+00 1.000000000000000000e+00 1.000000000000000000e+00 1.000000000000000000e+00 1.000000000000000000e+00 1.000000000000000000e+00 1.000000000000000000e+00 1.000000000000000000e+00 1.000000000000000000e+00 1.000000000000000000e+00 1.000000000000000000e+00 1.000000000000000000e+00 1.000000000000000000e+00 1.000000000000000000e+00 1.000000000000000000e+00 1.000000000000000000e+00 1.000000000000000000e+00 1.000000000000000000e+00 1.000000000000000000e+00 1.000000000000000000e+00 1.000000000000000000e+00 1.000000000000000000e+00 1.000000000000000000e+00 1.000000000000000000e+00 1.000000000000000000e+00 1.000000000000000000e+00 1.000000000000000000e+00 1.000000000000000000e+00 1.000000000000000000e+00 1.000000000000000000e+00 1.000000000000000000e+00 1.000000000000000000e+00 1.000000000000000000e+00 1.000000000000000000e+00 1.000000000000000000e+00 1.000000000000000000e+00 1.000000000000000000e+00 1.000000000000000000e+00 1.000000000000000000e+00 1.000000000000000000e+00 1.000000000000000000e+00 1.000000000000000000e+00 1.000000000000000000e+00 1.000000000000000000e+00 1.000000000000000000e+00 1.000000000000000000e+00 1.000000000000000000e+00 1.000000000000000000e+00 1.000000000000000000e+00 1.000000000000000000e+00 1.000000000000000000e+00 1.000000000000000000e+00 1.000000000000000000e+00 1.000000000000000000e+00 1.000000000000000000e+00 1.000000000000000000e+00 1.000000000000000000e+00 1.000000000000000000e+00 1.000000000000000000e+00 1.000000000000000000e+00 1.000000000000000000e+00 1.000000000000000000e+00 1.000000000000000000e+00 1.000000000000000000e+00 1.000000000000000000e+00 1.000000000000000000e+00 1.000000000000000000e+00 1.000000000000000000e+00 1.000000000000000000e+00 1.000000000000000000e+00 1.000000000000000000e+00 1.000000000000000000e+00 1.000000000000000000e+00 1.000000000000000000e+00 1.000000000000000000e+00 1.000000000000000000e+00 1.000000000000000000e+00 1.000000000000000000e+00 1.000000000000000000e+00 1.000000000000000000e+00 1.000000000000000000e+00 1.000000000000000000e+00 1.000000000000000000e+00 1.000000000000000000e+00 1.000000000000000000e+00 1.000000000000000000e+00 1.000000000000000000e+00 1.000000000000000000e+00 1.000000000000000000e+00 1.000000000000000000e+00 1.000000000000000000e+00 1.000000000000000000e+00 1.000000000000000000e+00 1.000000000000000000e+00 1.000000000000000000e+00 1.000000000000000000e+00 1.000000000000000000e+00 1.000000000000000000e+00 1.000000000000000000e+00 1.000000000000000000e+00 1.000000000000000000e+00 1.000000000000000000e+00 1.000000000000000000e+00 1.000000000000000000e+00 1.000000000000000000e+00 1.000000000000000000e+00 1.000000000000000000e+00 1.000000000000000000e+00 1.000000000000000000e+00 1.000000000000000000e+00 1.000000000000000000e+00 1.000000000000000000e+00 1.000000000000000000e+00 1.000000000000000000e+00 1.000000000000000000e+00 1.000000000000000000e+00 1.000000000000000000e+00 1.000000000000000000e+00 1.000000000000000000e+00 1.000000000000000000e+00 1.000000000000000000e+00 1.000000000000000000e+00 1.000000000000000000e+00 1.000000000000000000e+00 1.000000000000000000e+00 1.000000000000000000e+00 1.000000000000000000e+00 1.000000000000000000e+00 1.000000000000000000e+00 1.000000000000000000e+00 1.000000000000000000e+00 1.000000000000000000e+00 1.000000000000000000e+00 1.000000000000000000e+00 1.000000000000000000e+00 1.000000000000000000e+00 1.000000000000000000e+00 1.000000000000000000e+00 1.000000000000000000e+00 1.000000000000000000e+00 1.000000000000000000e+00 1.000000000000000000e+00 1.000000000000000000e+00 1.000000000000000000e+00 1.000000000000000000e+00 1.000000000000000000e+00 1.000000000000000000e+00 1.000000000000000000e+00 1.000000000000000000e+00 1.000000000000000000e+00 1.000000000000000000e+00 1.000000000000000000e+00 1.000000000000000000e+00 1.000000000000000000e+00 1.000000000000000000e+00 1.000000000000000000e+00 1.000000000000000000e+00 1.000000000000000000e+00 1.000000000000000000e+00 1.000000000000000000e+00 1.000000000000000000e+00 1.000000000000000000e+00 1.000000000000000000e+00 1.000000000000000000e+00 1.000000000000000000e+00 1.000000000000000000e+00 1.000000000000000000e+00 1.000000000000000000e+00 1.000000000000000000e+00 1.000000000000000000e+00 1.000000000000000000e+00 1.000000000000000000e+00 1.000000000000000000e+00 1.000000000000000000e+00 1.000000000000000000e+00 1.000000000000000000e+00 1.000000000000000000e+00 1.000000000000000000e+00 1.000000000000000000e+00 1.000000000000000000e+00 1.000000000000000000e+00 1.000000000000000000e+00 1.000000000000000000e+00 1.000000000000000000e+00 1.000000000000000000e+00 1.000000000000000000e+00 1.000000000000000000e+00 1.000000000000000000e+00 1.000000000000000000e+00 1.000000000000000000e+00 1.000000000000000000e+00 1.000000000000000000e+00 1.000000000000000000e+00 1.000000000000000000e+00 1.000000000000000000e+00 1.000000000000000000e+00 1.000000000000000000e+00 1.000000000000000000e+00 1.000000000000000000e+00 1.000000000000000000e+00 1.000000000000000000e+00 1.000000000000000000e+00 1.000000000000000000e+00 1.000000000000000000e+00 1.000000000000000000e+00 1.000000000000000000e+00 1.000000000000000000e+00 1.000000000000000000e+00 1.000000000000000000e+00 1.000000000000000000e+00 1.000000000000000000e+00 1.000000000000000000e+00 1.000000000000000000e+00 1.000000000000000000e+00 1.000000000000000000e+00 1.000000000000000000e+00 1.000000000000000000e+00 1.000000000000000000e+00 1.000000000000000000e+00 1.000000000000000000e+00 1.000000000000000000e+00 1.000000000000000000e+00 1.000000000000000000e+00 1.000000000000000000e+00 1.000000000000000000e+00 1.000000000000000000e+00 1.000000000000000000e+00 1.000000000000000000e+00 1.000000000000000000e+00 1.000000000000000000e+00 1.000000000000000000e+00 1.000000000000000000e+00 1.000000000000000000e+00 1.000000000000000000e+00 1.000000000000000000e+00 1.000000000000000000e+00 1.000000000000000000e+00 1.000000000000000000e+00 1.000000000000000000e+00 1.000000000000000000e+00 1.000000000000000000e+00 1.000000000000000000e+00 1.000000000000000000e+00 1.000000000000000000e+00 1.000000000000000000e+00 1.000000000000000000e+00 1.000000000000000000e+00 1.000000000000000000e+00 1.000000000000000000e+00 1.000000000000000000e+00 1.000000000000000000e+00 1.000000000000000000e+00 1.000000000000000000e+00 1.000000000000000000e+00 1.000000000000000000e+00 1.000000000000000000e+00 1.000000000000000000e+00 1.000000000000000000e+00 1.000000000000000000e+00 1.000000000000000000e+00 1.000000000000000000e+00 1.000000000000000000e+00 1.000000000000000000e+00 1.000000000000000000e+00 1.000000000000000000e+00 1.000000000000000000e+00 1.000000000000000000e+00 1.000000000000000000e+00 1.000000000000000000e+00 1.000000000000000000e+00 1.000000000000000000e+00 1.000000000000000000e+00 1.000000000000000000e+00 1.000000000000000000e+00 1.000000000000000000e+00 1.000000000000000000e+00 1.000000000000000000e+00 1.000000000000000000e+00 1.000000000000000000e+00 1.000000000000000000e+00 1.000000000000000000e+00 1.000000000000000000e+00 1.000000000000000000e+00 1.000000000000000000e+00 1.000000000000000000e+00 1.000000000000000000e+00 1.000000000000000000e+00 1.000000000000000000e+00 1.000000000000000000e+00 1.000000000000000000e+00 1.000000000000000000e+00 1.000000000000000000e+00 1.000000000000000000e+00 1.000000000000000000e+00 1.000000000000000000e+00 1.000000000000000000e+00 1.000000000000000000e+00 1.000000000000000000e+00 1.000000000000000000e+00 1.000000000000000000e+00 1.000000000000000000e+00 1.000000000000000000e+00 1.000000000000000000e+00 1.000000000000000000e+00 1.000000000000000000e+00 1.000000000000000000e+00 1.000000000000000000e+00 1.000000000000000000e+00 1.000000000000000000e+00 1.000000000000000000e+00 1.000000000000000000e+00 1.000000000000000000e+00 1.000000000000000000e+00 1.000000000000000000e+00 1.000000000000000000e+00 1.000000000000000000e+00 1.000000000000000000e+00 1.000000000000000000e+00 1.000000000000000000e+00 1.000000000000000000e+00 1.000000000000000000e+00 1.000000000000000000e+00 1.000000000000000000e+00 1.000000000000000000e+00 1.000000000000000000e+00 1.000000000000000000e+00 1.000000000000000000e+00 1.000000000000000000e+00 1.000000000000000000e+00 1.000000000000000000e+00 1.000000000000000000e+00 1.000000000000000000e+00 1.000000000000000000e+00 1.000000000000000000e+00 1.000000000000000000e+00 1.000000000000000000e+00 1.000000000000000000e+00 1.000000000000000000e+00 1.000000000000000000e+00 1.000000000000000000e+00 1.000000000000000000e+00 1.000000000000000000e+00 1.000000000000000000e+00 1.000000000000000000e+00 1.000000000000000000e+00 1.000000000000000000e+00 1.000000000000000000e+00 1.000000000000000000e+00 1.000000000000000000e+00 1.000000000000000000e+00 1.000000000000000000e+00 1.000000000000000000e+00 1.000000000000000000e+00 1.000000000000000000e+00 1.000000000000000000e+00 1.000000000000000000e+00 1.000000000000000000e+00 1.000000000000000000e+00 1.000000000000000000e+00 1.000000000000000000e+00 1.000000000000000000e+00 1.000000000000000000e+00 1.000000000000000000e+00 1.000000000000000000e+00 1.000000000000000000e+00 1.000000000000000000e+00 1.000000000000000000e+00 1.000000000000000000e+00 1.000000000000000000e+00 1.000000000000000000e+00 1.000000000000000000e+00 1.000000000000000000e+00 1.000000000000000000e+00 1.000000000000000000e+00 1.000000000000000000e+00 1.000000000000000000e+00 1.000000000000000000e+00 1.000000000000000000e+00 1.000000000000000000e+00 1.000000000000000000e+00 1.000000000000000000e+00 1.000000000000000000e+00 1.000000000000000000e+00 1.000000000000000000e+00 1.000000000000000000e+00 1.000000000000000000e+00 1.000000000000000000e+00 1.000000000000000000e+00 1.000000000000000000e+00 1.000000000000000000e+00 1.000000000000000000e+00 1.000000000000000000e+00 1.000000000000000000e+00 1.000000000000000000e+00 1.000000000000000000e+00 1.000000000000000000e+00 1.000000000000000000e+00 1.000000000000000000e+00 1.000000000000000000e+00 1.000000000000000000e+00 1.000000000000000000e+00 1.000000000000000000e+00 1.000000000000000000e+00 1.000000000000000000e+00 1.000000000000000000e+00 1.000000000000000000e+00 1.000000000000000000e+00 1.000000000000000000e+00 1.000000000000000000e+00 1.000000000000000000e+00 1.000000000000000000e+00 1.000000000000000000e+00 1.000000000000000000e+00 1.000000000000000000e+00 1.000000000000000000e+00 1.000000000000000000e+00 1.000000000000000000e+00 1.000000000000000000e+00 1.000000000000000000e+00 1.000000000000000000e+00 1.000000000000000000e+00 1.000000000000000000e+00 1.000000000000000000e+00 1.000000000000000000e+00 1.000000000000000000e+00 1.000000000000000000e+00 1.000000000000000000e+00 1.000000000000000000e+00 1.000000000000000000e+00 1.000000000000000000e+00 1.000000000000000000e+00 1.000000000000000000e+00 1.000000000000000000e+00 1.000000000000000000e+00 1.000000000000000000e+00 1.000000000000000000e+00 1.000000000000000000e+00 1.000000000000000000e+00 1.000000000000000000e+00 1.000000000000000000e+00 1.000000000000000000e+00 1.000000000000000000e+00 1.000000000000000000e+00 1.000000000000000000e+00 1.000000000000000000e+00 1.000000000000000000e+00 1.000000000000000000e+00 1.000000000000000000e+00 1.000000000000000000e+00 1.000000000000000000e+00 1.000000000000000000e+00 1.000000000000000000e+00 1.000000000000000000e+00 1.000000000000000000e+00 1.000000000000000000e+00 1.000000000000000000e+00 1.000000000000000000e+00 1.000000000000000000e+00 1.000000000000000000e+00 1.000000000000000000e+00 1.000000000000000000e+00 1.000000000000000000e+00 1.000000000000000000e+00 1.000000000000000000e+00 1.000000000000000000e+00 1.000000000000000000e+00 1.000000000000000000e+00 1.000000000000000000e+00 1.000000000000000000e+00 1.000000000000000000e+00 1.000000000000000000e+00 1.000000000000000000e+00 1.000000000000000000e+00 1.000000000000000000e+00 1.000000000000000000e+00 1.000000000000000000e+00 1.000000000000000000e+00 1.000000000000000000e+00 1.000000000000000000e+00 1.000000000000000000e+00 1.000000000000000000e+00 1.000000000000000000e+00 1.000000000000000000e+00 1.000000000000000000e+00 1.000000000000000000e+00 1.000000000000000000e+00 1.000000000000000000e+00 1.000000000000000000e+00 1.000000000000000000e+00 1.000000000000000000e+00 1.000000000000000000e+00 1.000000000000000000e+00 1.000000000000000000e+00 1.000000000000000000e+00 1.000000000000000000e+00 1.000000000000000000e+00 1.000000000000000000e+00 1.000000000000000000e+00 1.000000000000000000e+00 1.000000000000000000e+00 1.000000000000000000e+00 1.000000000000000000e+00 1.000000000000000000e+00 1.000000000000000000e+00 1.000000000000000000e+00 1.000000000000000000e+00 1.000000000000000000e+00 1.000000000000000000e+00 1.000000000000000000e+00 1.000000000000000000e+00 1.000000000000000000e+00 1.000000000000000000e+00 1.000000000000000000e+00 1.000000000000000000e+00 1.000000000000000000e+00 1.000000000000000000e+00 1.000000000000000000e+00 1.000000000000000000e+00 1.000000000000000000e+00 1.000000000000000000e+00 1.000000000000000000e+00 1.000000000000000000e+00 1.000000000000000000e+00 1.000000000000000000e+00 1.000000000000000000e+00 1.000000000000000000e+00 1.000000000000000000e+00 1.000000000000000000e+00 1.000000000000000000e+00 1.000000000000000000e+00 1.000000000000000000e+00 1.000000000000000000e+00 1.000000000000000000e+00 1.000000000000000000e+00 1.000000000000000000e+00 1.000000000000000000e+00 1.000000000000000000e+00 1.000000000000000000e+00 1.000000000000000000e+00 1.000000000000000000e+00 1.000000000000000000e+00 1.000000000000000000e+00 1.000000000000000000e+00 1.000000000000000000e+00 1.000000000000000000e+00 1.000000000000000000e+00 1.000000000000000000e+00 1.000000000000000000e+00 1.000000000000000000e+00 1.000000000000000000e+00 1.000000000000000000e+00 1.000000000000000000e+00 1.000000000000000000e+00 1.000000000000000000e+00 1.000000000000000000e+00 1.000000000000000000e+00 1.000000000000000000e+00 1.000000000000000000e+00 1.000000000000000000e+00 1.000000000000000000e+00 1.000000000000000000e+00 1.000000000000000000e+00 1.000000000000000000e+00 1.000000000000000000e+00 1.000000000000000000e+00 1.000000000000000000e+00 1.000000000000000000e+00 1.000000000000000000e+00 1.000000000000000000e+00 1.000000000000000000e+00 1.000000000000000000e+00 1.000000000000000000e+00 1.000000000000000000e+00 1.000000000000000000e+00 1.000000000000000000e+00 1.000000000000000000e+00 1.000000000000000000e+00 1.000000000000000000e+00 1.000000000000000000e+00 1.000000000000000000e+00 1.000000000000000000e+00 1.000000000000000000e+00 1.000000000000000000e+00 1.000000000000000000e+00 1.000000000000000000e+00 1.000000000000000000e+00 1.000000000000000000e+00 1.000000000000000000e+00 1.000000000000000000e+00 1.000000000000000000e+00 1.000000000000000000e+00 1.000000000000000000e+00 1.000000000000000000e+00 1.000000000000000000e+00 1.000000000000000000e+00 1.000000000000000000e+00 1.000000000000000000e+00 1.000000000000000000e+00 1.000000000000000000e+00 1.000000000000000000e+00 1.000000000000000000e+00 1.000000000000000000e+00 1.000000000000000000e+00 1.000000000000000000e+00 1.000000000000000000e+00 1.000000000000000000e+00 1.000000000000000000e+00 1.000000000000000000e+00 1.000000000000000000e+00 1.000000000000000000e+00 1.000000000000000000e+00 1.000000000000000000e+00 1.000000000000000000e+00 1.000000000000000000e+00 1.000000000000000000e+00 1.000000000000000000e+00 1.000000000000000000e+00 1.000000000000000000e+00 1.000000000000000000e+00 1.000000000000000000e+00 1.000000000000000000e+00 1.000000000000000000e+00 1.000000000000000000e+00 1.000000000000000000e+00 1.000000000000000000e+00 1.000000000000000000e+00 1.000000000000000000e+00 1.000000000000000000e+00 1.000000000000000000e+00 1.000000000000000000e+00 1.000000000000000000e+00 1.000000000000000000e+00 1.000000000000000000e+00 1.000000000000000000e+00 1.000000000000000000e+00 1.000000000000000000e+00 1.000000000000000000e+00 1.000000000000000000e+00 1.000000000000000000e+00 1.000000000000000000e+00 1.000000000000000000e+00 1.000000000000000000e+00 1.000000000000000000e+00 1.000000000000000000e+00 1.000000000000000000e+00 1.000000000000000000e+00 1.000000000000000000e+00 1.000000000000000000e+00 1.000000000000000000e+00 1.000000000000000000e+00 1.000000000000000000e+00 1.000000000000000000e+00 1.000000000000000000e+00 1.000000000000000000e+00 1.000000000000000000e+00 1.000000000000000000e+00 1.000000000000000000e+00 1.000000000000000000e+00 1.000000000000000000e+00 1.000000000000000000e+00 1.000000000000000000e+00 1.000000000000000000e+00 1.000000000000000000e+00 1.000000000000000000e+00 1.000000000000000000e+00 1.000000000000000000e+00 1.000000000000000000e+00 1.000000000000000000e+00 1.000000000000000000e+00 1.000000000000000000e+00 1.000000000000000000e+00 1.000000000000000000e+00 1.000000000000000000e+00 1.000000000000000000e+00 1.000000000000000000e+00 1.000000000000000000e+00 1.000000000000000000e+00 1.000000000000000000e+00 1.000000000000000000e+00 1.000000000000000000e+00 1.000000000000000000e+00 1.000000000000000000e+00 1.000000000000000000e+00 1.000000000000000000e+00 1.000000000000000000e+00 1.000000000000000000e+00 1.000000000000000000e+00 1.000000000000000000e+00 1.000000000000000000e+00 1.000000000000000000e+00 1.000000000000000000e+00 1.000000000000000000e+00 1.000000000000000000e+00 1.000000000000000000e+00 1.000000000000000000e+00 1.000000000000000000e+00 1.000000000000000000e+00 1.000000000000000000e+00 1.000000000000000000e+00 1.000000000000000000e+00 1.000000000000000000e+00 1.000000000000000000e+00 1.000000000000000000e+00 1.000000000000000000e+00 1.000000000000000000e+00 1.000000000000000000e+00 1.000000000000000000e+00 1.000000000000000000e+00 1.000000000000000000e+00 1.000000000000000000e+00 1.000000000000000000e+00 1.000000000000000000e+00 1.000000000000000000e+00 1.000000000000000000e+00 1.000000000000000000e+00 1.000000000000000000e+00 1.000000000000000000e+00 1.000000000000000000e+00 1.000000000000000000e+00 1.000000000000000000e+00 1.000000000000000000e+00 1.000000000000000000e+00 1.000000000000000000e+00 1.000000000000000000e+00 1.000000000000000000e+00 1.000000000000000000e+00 1.000000000000000000e+00 1.000000000000000000e+00 1.000000000000000000e+00 1.000000000000000000e+00 1.000000000000000000e+00 1.000000000000000000e+00 1.000000000000000000e+00 1.000000000000000000e+00 1.000000000000000000e+00 1.000000000000000000e+00 1.000000000000000000e+00 1.000000000000000000e+00 1.000000000000000000e+00 1.000000000000000000e+00 1.000000000000000000e+00 1.000000000000000000e+00 1.000000000000000000e+00 1.000000000000000000e+00 1.000000000000000000e+00 1.000000000000000000e+00 1.000000000000000000e+00 1.000000000000000000e+00 1.000000000000000000e+00 1.000000000000000000e+00 1.000000000000000000e+00 1.000000000000000000e+00 1.000000000000000000e+00 1.000000000000000000e+00 1.000000000000000000e+00 1.000000000000000000e+00 1.000000000000000000e+00 1.000000000000000000e+00 1.000000000000000000e+00 1.000000000000000000e+00 1.000000000000000000e+00 1.000000000000000000e+00 1.000000000000000000e+00 1.000000000000000000e+00 1.000000000000000000e+00 1.000000000000000000e+00 1.000000000000000000e+00 1.000000000000000000e+00 1.000000000000000000e+00 1.000000000000000000e+00 1.000000000000000000e+00 1.000000000000000000e+00 1.000000000000000000e+00 1.000000000000000000e+00 1.000000000000000000e+00 1.000000000000000000e+00 1.000000000000000000e+00 1.000000000000000000e+00 1.000000000000000000e+00 1.000000000000000000e+00 1.000000000000000000e+00 1.000000000000000000e+00 1.000000000000000000e+00 1.000000000000000000e+00 1.000000000000000000e+00 1.000000000000000000e+00 1.000000000000000000e+00 1.000000000000000000e+00 1.000000000000000000e+00 1.000000000000000000e+00 1.000000000000000000e+00 1.000000000000000000e+00 1.000000000000000000e+00 1.000000000000000000e+00 1.000000000000000000e+00 1.000000000000000000e+00 1.000000000000000000e+00 1.000000000000000000e+00 1.000000000000000000e+00 1.000000000000000000e+00 1.000000000000000000e+00 1.000000000000000000e+00 1.000000000000000000e+00 1.000000000000000000e+00 1.000000000000000000e+00 1.000000000000000000e+00 1.000000000000000000e+00 1.000000000000000000e+00 1.000000000000000000e+00 1.000000000000000000e+00 1.000000000000000000e+00 1.000000000000000000e+00 1.000000000000000000e+00 1.000000000000000000e+00 1.000000000000000000e+00 1.000000000000000000e+00 1.000000000000000000e+00 1.000000000000000000e+00 1.000000000000000000e+00 1.000000000000000000e+00 1.000000000000000000e+00 1.000000000000000000e+00 1.000000000000000000e+00 1.000000000000000000e+00 1.000000000000000000e+00 1.000000000000000000e+00 1.000000000000000000e+00 1.000000000000000000e+00 1.000000000000000000e+00 1.000000000000000000e+00 1.000000000000000000e+00 1.000000000000000000e+00
5.451275610733818944e-02 5.149062494522927969e-01 -2.772901132992831585e-01 7.731645420616941600e-01 5.216450192224387772e-01 5.356427931262927045e-01 5.810036636564777091e-01 3.669058825637242505e-01 5.626423734414293110e-01 5.164335417920740134e-01 1.085367523606195039e+00 -7.247080043882229150e-01 1.419747689798660284e+00 4.655234045472629312e-01 5.233863392873592257e-01 4.128377731893408398e-01 8.484670271146482756e-01 9.798782894677378064e-01 7.427244253425888676e-01 5.225385185488090611e-01 3.699674012324682959e-01 9.923500143884257385e-01 3.617980611143231662e-01 5.450630838871215467e-01 7.220302431679996580e-02 6.656889104783413336e-01 4.052283116675552965e-01 7.064101071264673459e-01 5.252151972632942423e-01 1.622158747287131941e+00 4.943148110815294149e-01 6.049019014295110575e-01 7.185566160123580959e-01 5.167588381334129455e-01 6.935375395046250446e-01 4.592026715558364391e-01 5.563972745396232877e-01 1.846424629985981669e+00 -8.790680296142507066e-02 5.272427634567226074e-01 -2.129876231944399512e-01 -5.622581804563990815e-01 7.467407593032144852e-01 2.301921035084591727e-01 3.151733080924107866e-01 4.916401950008123523e-01 7.735180780277333135e-01 5.128282186960880784e-01 6.652876199350857833e-01 9.812333993334972776e-03 3.140958625547311811e-02 7.733831304977232257e-01 6.818428369706940328e-01 4.213562996912749714e-01 4.634164244322950821e-01 2.081860152486104606e-02 5.556303491107786874e-01 5.078800759203830895e-01 1.984419583408861543e-01 5.339419222834822509e-01 9.254783505386245945e-01 4.702731145031320836e-01 5.011011592842073981e-01 3.617979228734375385e-01 6.766004557672322672e-01 6.431609711811894226e-01 5.317277293808609917e-01 3.950388372444579299e-01 5.620105943030029305e-01 3.736930882961406880e-02 4.539335763837727966e-01 5.982646035317696898e-01 5.233187548208629858e-01 1.078416525153116576e-02 1.523426539171008010e+00 5.365466397325842074e-01 6.379253532558091244e-01 7.197592844119016231e-01 5.207091367261880155e-01 1.387905872598562684e+00 5.452255720981427078e-01 3.487122331675464038e-01 1.440533069681974698e+00 7.571380082345030571e-01 5.142204382796737860e-01 7.522625021648213783e-01 7.973742180686296255e-01 5.294582731634225325e-01 4.230425011662615753e-01 5.765525866850533809e-01 3.158071682407598835e-01 2.225525679328753004e+00 7.796651156938706473e-01 4.581185765562509338e-02 4.758294198423627108e-01 5.006236924176158398e-01 5.644406290841823548e-01 4.830476872450900072e-01 1.900396641368209405e-01 6.574682405840133192e-01 1.638142185775176118e+00 6.884103275795337984e-01 5.322292250470634922e-01 6.086355184198948276e-01 8.561241168533076928e-01 -2.132062732583542175e+00 -1.244970334910050269e+00 5.242992355712344787e-01 6.193092324842137675e-01 9.686272477205123410e-01 5.908914725932224998e-01 4.226907625804561253e-01 1.796068852914763092e-01 5.050943089235790939e-01 5.270848426991147084e-01 4.978840846106724616e-01 4.595910846394472560e-01 5.028772057727575184e-01 9.869713041002129428e-01 5.074260200481328642e-01 1.315836083630903763e+00 5.399546048921589625e-01 6.335358893386610069e-01 -5.276836135836318054e-01 5.123088397313596554e-01 1.972842983781139425e+00 5.135743226672337958e-01 5.299015776474755857e-01 6.755453500245169884e-01 5.055757158073116431e-01 5.701564246642237821e-01 5.252688384035414382e-01 4.353918205854913626e-01 4.609747194744294174e-01 -3.661038567411795119e-01 -1.723890403953061978e-01 6.691519947014910041e-01 5.291209513946103921e-02 1.009059911628950479e+00 5.633268099676366214e-01 5.250832119997800307e-01 8.733007383038162708e-01 5.086416074011448352e-01 4.946659560508764319e-01 5.238473368938006969e-01 3.727025531498871086e-02 9.659889078191171707e-01 -1.380180770164337600e-01 4.257960762062126259e-01 -9.199274295065281715e-01 7.558005408296398775e-01 -2.863789621391754081e-01 4.916525204349689870e-01 5.515068563298787252e-01 5.106469328536485941e-01 5.125738353358599841e-01 2.024250558147703938e+00 -1.564368729981704398e-01 8.243369787120766734e-01 6.633486768452714344e-01 5.551921938355971475e-01 4.420329174101343406e-01 5.258533737492395721e-01 5.238097470805264111e-01 1.068857949180822775e+00 2.406168201561995623e-01 8.522348966327324415e-01 3.151837202334492050e-01 4.045318347575543316e-01 6.486198997420304924e-01 5.934498831536825225e-01 7.712333553105547024e-01 4.915907232106520031e-01 5.201378595677942362e-01 4.031296880900213098e-01 4.637118104464383467e-02 2.158975494126096628e-01 1.064330084241251195e-01 7.556458250374892271e-01 1.143866921736777176e+00 6.729516382170473987e-01 5.149549666635488965e-01 -1.684032550484213520e-01 4.402906940401046798e-01 4.828512686648582797e-01 5.467799259415363489e-01 5.175251173281769645e-01 5.159637146757980464e-01 2.856943119583179591e+00 4.860318534528806356e-01 5.642191572607805350e-01 -9.196050752168773990e-01 5.287640992444544441e-01 5.106652919941964131e-01 1.991968922261495856e-01 5.261673221234058895e-01 9.442634357185328842e-01 4.954732055390524414e-01 4.583825800860482080e-01 5.452776887017094509e-01 6.330534691306447526e-01 5.140291770137804805e-01 8.626737998377150829e-01 6.022102694285308422e-01 5.432102024326287415e-01 4.583825876420412615e-01 2.030255203286952803e-01 1.299391262438011951e+00 5.586235369329283218e-01 4.637164758656767694e-01 4.229086391332078643e-01 -9.438294260773820443e-02 4.956560373111023599e-01 1.549802537845546835e-01 5.157539934096435630e-01 5.178410258223631324e-01 5.191103133226933064e-01 5.227089680627945434e-01 5.234491661746744073e-01 5.194875716034845770e-01 4.393153956254873815e-01 5.643426004194734835e-01 -7.196993302719174590e-01 6.222723504421634466e-01 4.542307673911611388e-01 3.558571518921720966e-01 2.294439963382690489e-02 1.334871375498224211e+00 9.704339922406586272e-01 4.913709712095014615e-01 -1.022483236042976001e-01 1.065707145533549394e+00 5.246635225712954487e-01 4.645229554473258582e-01 6.535868456253632885e-01 4.076823417174686992e-01 2.632343463484604906e-01 1.678175610646926441e-01 -1.638183235762861734e-01 -7.082504759328554778e-02 4.880781323972487873e-01 4.972440149885462568e-01 -1.172637633444247457e-01 4.343028539673845501e-01 5.196823154869220085e-01 5.151471320846124913e-01 -9.423036339575928400e-02 7.613503241273441580e-01 -2.360547723791090569e+00 6.175042536841052199e-01 -6.585591867376729969e-01 4.995151180609762043e-01 5.203495036721186295e-01 3.617994036274880254e-01 4.842157226628875932e-01 5.608147501846736382e-01 5.243070082929125464e-01 7.832361615258922605e-01 5.686879769042163524e-01 1.700454653119407356e+00 6.831463179798608065e-01 6.809102984082912036e-01 4.555929304928506007e-01 3.933551986600274386e-01 9.254783237690930031e-01 4.626866158859305744e-01 2.733551745043449888e+00 4.557675050426437946e-01 2.222292000836944559e-01 7.629703620935949226e-01 5.080315543041775683e-01 9.256004028848572318e-01 5.223467315039904690e-01 5.807678514520520086e-01 5.217644097556320970e-01 1.143593765155454856e+00 7.678879316699113167e-01 8.575239073916962607e-01 8.023452739515474219e-01 5.764832014255805159e-01 6.842274676530142319e-01 5.094125719162481136e-01 3.748715656295674714e-01 -7.440730395064262259e-01 3.901413751569507982e-01 4.630455502623759267e-01 5.571346730629176403e-01 5.288678292280798443e-01 4.978841604434829371e-01 6.109456466783477202e-01 5.283303963257071079e-01 -9.109499336068369590e-01 7.565528487346314668e-01 5.209291808076299546e-01 -1.075650881331786761e-02 4.711355495090469025e-01 1.858555643949967306e+00 5.067452237768741430e-01 5.218813373236279585e-01 4.258091508725929120e-01 -3.492139910854271001e+00 5.248780887271276008e-01 2.925150647703247397e+00 7.717532204247159466e-01 5.055003873812439208e-01 -5.713748737893196150e-01 5.287532336217906082e-01 5.229780465201142592e-01 4.512218265600628775e-01 4.495588034737121319e-01 3.414348958848614224e-01 6.498244597813758183e-01 3.139038232633133418e-01 5.242682640320339704e-01 5.273863561542291301e-01 3.531364385216169133e-01 5.215238026591944021e-01 7.722314595900789946e-01 5.229182921975009668e-01 1.211628006052220208e+00 3.348706026675372927e-02 2.237431353103444209e+00 2.677795164216740798e+00 4.890184238555136953e-01 -2.326272418484824078e-01 3.903925585667670228e-01 3.999153742441345361e-01 7.405503554166895652e-01 1.394593894839852632e+00 5.319536164711561321e-01 1.134648966225747735e+00 5.232645508996393025e-01 1.196234679943413010e-01 1.260497701570339801e+00 5.407392465098739276e-01 5.605530183336526751e-01 5.250353569194704528e-01 9.079420428746184379e-01 -3.826362617907423491e+00 1.656016481339387836e+00 5.229445940396977299e-01 6.355949222207409877e-01 5.180066376425026542e-01 1.846424637141077962e+00 2.970353775465522372e-01 5.627620075799877331e-01 4.894172369795478095e-01 5.815631749534198036e-01 1.371630953130188013e+00 5.362211873480376978e-01 4.583829602755578603e-01 4.342973377807228252e-01 6.022102735980536803e-01 4.486097520355477597e-01 5.706876992762354162e-01 9.026405419211367409e-01 5.234587885458367174e-01 3.816044129453193823e-01 1.503911133064913253e-01 6.588180363291306074e-01 5.201011619537803110e-01 3.000265065791834496e-01 5.627619635711124113e-01 6.322160826324216831e-01 5.190995898399552999e-01 1.043265059634643999e+00 9.420537172754768207e-01 1.156344285621794254e+00 5.199164499585072763e-01 2.151876893359223608e-01 9.254781687804600754e-01 -1.097997814346905743e-01 9.337314620952957833e-01 6.304219191271344114e-01 3.502121192916481801e-02 4.798476614974807042e-01 9.050764229696196539e-01 3.846698133843566847e-01 4.860686932261612525e-01 3.085970164346861777e-01 -3.400159047291727021e-01 -2.517394485826295103e+00 5.295620686786979281e-01 6.022102689001092024e-01 6.022103153035709422e-01 5.090026701734553516e-01 3.661747109156370250e-01 -2.356382132880221747e-01 2.862774403570403914e-01 5.197292368340997726e-01 7.124566110374019878e-01 5.211018112519788525e-01 1.026871739858997490e+00 4.583824816389135415e-01 5.213056910187104931e-01 4.936301936691671055e-01 2.875072818648741757e-01 6.609851356906876196e-01 5.260286424139550832e-01 5.166552949581600940e-01 5.024202722601180948e-01 3.113554981981070391e-01 1.790731071682499786e-02 6.022102695640157988e-01 6.633940015354971020e-01 5.230363737687673265e-01 3.929694733792896688e-01 8.600357547265043978e-01 7.569843131169461392e-01 5.644839801935213064e-01 1.910489895494359880e+00 4.929363083637539611e-01 -3.177542544136228386e+00 7.732502056348606878e-01 1.542779665487685303e+00 5.935010371968215681e-01 -1.107347742439420912e+00 8.333512802086274762e-01 4.370716572971974356e-01 5.316147274172696724e-01 5.024566127487953837e-01 -4.230408591489731029e-01 5.060426856297839393e-01 1.076910740490412577e+00 4.530822745195047241e-01 -3.991490962112961838e-01 5.115495525335896909e-01 5.265492965857502261e-01 7.935929086741346783e-01 4.906710535373653981e-01 6.002641934726858919e-01 -5.439429296812412495e-01 5.612066747591274440e-01 5.255754636897096432e-01 5.602246399978172420e-01 5.299705530488182381e-01 7.700160798418733687e-01 5.225480009708628470e-01 6.223549549255303903e-01 4.631246312779287444e-01 5.123045164489473668e-01 2.451816078165847679e-01 3.259540470008537305e-01 3.586469674161193999e-01 9.716359307030834058e-01 5.572401001575824075e-01 3.249999008310719972e+00 6.563935995355270059e-01 6.608686218331963902e-01 5.462999305780356085e-01 5.543550963673256060e-01 1.838594318255552459e-02 4.930757469186115016e-01 5.194919645738210745e-01 5.197350873394465109e-01 1.157522805755822004e+00 7.701071180953003026e-01 5.112851828622688721e-01 4.380685428984373853e-01 1.119535564543528983e+00 5.130282259466405481e-01 5.674032620336405541e-01 5.010797682231611372e-01 8.420386687581860041e-01 5.267826184042598836e-01 9.446915447697163959e-01 5.288390547182224566e-01 5.221580519065573966e-01 3.286826303187349169e-02 5.360405807498742625e-01 1.267405062679173057e-02 2.951574693190115450e-01 4.003695800630484580e-01 5.770638176852884715e-01 7.875785003800208628e-01 5.136348230865559472e-01 3.842443883985178776e-01 1.131232746280312063e-01 5.011489135751788782e-01 5.320231380419280232e-01 4.437141991288680032e-01 9.997777027390996815e-03 5.236142143269135740e-01 2.604474698723559523e-01 5.206223236916308617e-01 4.096413758083355394e-01 1.263093688328281283e+00 7.585785573976339125e-01 5.005708027274722305e-01 2.482120956577237025e-01 7.915676161618350193e-01 4.451387187261238720e-01 1.001733104664574547e+00 5.844942308623434224e-01 6.223229055321657377e-01 7.057337650047464939e-01 2.024392675212905335e+00 4.893285375602552389e-01 5.392074280175176426e-01 5.097710025470301165e-01 7.562280771608583807e-01 6.066119385839540135e-01 8.657527574545758053e-01 -5.839113515736381599e-01 3.971614545069929170e-01 5.226581500960842952e-01 4.341535841562400022e-01 4.263002147630142735e-01 -6.359178965288967422e-01 3.855306897028105695e-01 5.195014265805159015e-01 7.264543787847626000e-01 6.694923411397598612e-01 1.543342376335373523e+00 5.208813409365750102e-01 5.197970401299999432e-01 -7.287951460385529989e-01 5.145000615150621126e-01 1.241605382062026086e+00 7.230744814576508528e-01 2.876457495981724621e-01 2.367945553352033827e-01 -1.821178292501563156e+00 5.629803120014691409e-01 1.904408819516865137e-01 1.108474558932374343e+00 8.261982685401693116e-01 5.381114637580878268e-01 5.517728825027544692e-01 5.680634291069491804e-01 7.729382199124366082e-01 4.230639739334057792e-01 5.541617752308420908e-01 1.605753887041145786e-02 5.817155468094330484e-01 5.332101125438539757e-01 4.145760810992272782e-01 5.139150994028846009e-01 4.448972423441499013e-01 1.233288756944794340e+00 -9.771997216081045046e-02 -2.446343513449854012e-01 4.109647678191978848e-01 5.315204375715615326e-01 5.294857103939014653e-01 4.987593165894410041e-01 -8.830660325811160449e-01 3.214283083748189718e+00 4.848309534344763527e-01 4.390565773490356372e-01 4.484398683604786662e-01 5.269206450963073163e-01 5.064277742646730029e-01 4.965099420316910761e-01 3.275191412803507007e-01 6.106127393335046838e-01 5.231227312932670293e-01 4.795398463002188416e-01 3.218597143889504464e-01 4.019657741326203571e-01 5.705278030987144255e-01 4.052254896061225908e-01 5.421457918634683404e-01 5.286688772311104456e-01 6.785190225718366053e-01 1.023629884430853343e+00 2.343459425837822074e+00 5.022144081560406814e-01 5.002442720430032574e-01 3.548132483974106854e-01 4.742771452716141867e-01 3.818031331800745831e-01 5.247760391592778406e-01 5.145735984894418413e-01 4.961891058003780053e-01 5.775969688224227294e-01 5.215743293433428018e-01 7.726809724817097491e-01 3.644691403826113563e-01 3.978532467386468596e-01 4.040397055639159962e-01 4.954162869056017993e-01 1.071302056074221881e-01 9.254783319715143008e-01 5.591660901625922220e-01 9.163940042161267119e-02 1.914056204409080530e+00 3.160373420777242703e-01 4.050667013726134136e-01 5.961432577118737086e-01 6.559534254014640076e-02 5.522031491072479925e-01 1.531645258998420411e+00 8.013054575743635555e-01 7.018988693176249072e-01 5.206049393597621533e-01 5.293366118164045675e-01 4.319284188752804399e-01 6.486212008359442116e-01 5.310898226336168149e-01 5.189966325578333484e-01 -2.635078357999063314e-01 4.862178048476864523e-01 -1.588247501873597090e+00 4.862982610647038628e-01 5.197297556961567588e-01 5.250399254398969706e-01 4.258229801058584507e-01 9.254783319303643285e-01 2.229498649233676022e-01 5.120429804802167917e-01 1.368301569231887616e+00 -5.795283139847278164e-01 5.208429767906842534e-01 1.154796394062076681e+00 1.556207459095175549e+00 5.794906967243057538e-01 5.215823798802153854e-01 -6.457065324124887373e-02 -1.717031785971547375e+00 2.692586340861573002e-01 8.373217190508955854e-01 5.293474398753801324e-01 5.242978009650762772e-01 6.191214630523417251e-01 4.808571578199577479e-01 -4.247258537394190125e-01 8.331328300942849596e-01 4.978833341417790992e-01 3.253877308021656534e-01 5.223041278520971220e-01 -1.664086215070421709e-04 -1.654863554738693066e-01 1.828230398294526715e+00 4.111635283269696739e-01 5.394902048363554581e-01 5.198504848847906867e-01 3.210496125554537783e-01 5.134118197685394458e-01 -1.313705417436324685e-01 -1.308344066136722050e+00 5.273286633805246426e-01 5.039167836178519710e-01 4.790935444790509479e-01 5.718594823142304495e-01 5.232110539864859300e-01 5.468601620008061159e-01 5.244011623779190057e-01 5.611114317144517694e-01 1.039265612419775664e+00 7.142226001011495740e-01 5.233336090128187790e-01 6.261343263367978862e-01 5.272908719751889794e-01 5.243791029572588691e-01 5.441243125052770691e-02 5.627620001874131805e-01 4.316154623287342118e-01 5.672430107757320261e-01 7.545233258580458235e-01 8.519579497788878353e-01 8.657358423419118099e-01 -5.403287454151143310e-01 5.236954543982555998e-01 4.601583303761512811e-01 5.210917179344981554e-01 5.953058125218765317e-01 9.142836713277360250e-01 5.083538580414170838e-01 5.236426058104906023e-01 -2.993349741673165809e-01 -8.973251031582644144e-01 2.339323114007000992e+00 5.073319975388136394e-01 9.042452045237224789e-01 4.136078521312363532e-01 5.765748727751768277e-01 3.972483741595851936e-01 1.521911423831061594e-01 5.208606889027224129e-01 5.311423340731484810e-01 -3.962554414062839647e-03 5.186452909122216681e-01 4.489761203178851412e-01 5.266575725510116435e-01 5.232539071467160463e-01 5.202415406262647091e-01 6.335661280416595709e-01 4.250141881308468483e-01 5.667711932632775174e-01 4.988395845413456930e-01 5.154868297091329543e-01 4.131675601678801990e-01 5.130027861019769153e-01 -2.524698449983580617e-01 5.166138115043106271e-01 6.417549804227858923e-01 5.596546659404303403e-01 7.734424304810612050e-01 9.254782836389712219e-01 7.262127828268271079e-01 -6.144444235926451725e-01 9.798225553767980767e-01 1.846424629959144914e+00 5.064644471120365310e-01 4.637609623840349693e-01 1.087295638059618375e+00 5.656051023737643790e-01 7.736243453214436405e-01 5.194020277473267999e-01 1.877285266473183167e+00 5.211249635702775995e-01 4.343021418551369361e-01 1.236157187405987790e+00 -6.710824254591381266e-02 4.965819578584232397e-01 -1.542801142207995690e-01 -9.851694342450055819e-01 -1.656270881270570372e-01 7.739712381706993494e-01 5.727469567205125678e-01 5.209809178769578830e-01 -3.199195637644081103e-01 5.454168872240037214e-01 5.296887605590445969e-02 -4.090542372746198696e-01 5.366214656233972979e-01 5.172122926728055514e-01 5.205836244886410391e-01 5.186348236502122955e-01 4.775807619772446388e-01 9.178142452908268911e-01 -4.400368292631575695e-01 5.209627836102806997e-01 4.956261732016580268e-01 5.893172515497823172e-01 1.175363146607031561e+00 4.839581467452621077e-01 6.841675440755009552e-01 5.198557038414391984e-01 4.947470073351830505e-02 -4.233912287533068142e-01 5.563351527599832425e-01 5.625745633750887098e-01 6.870337952326657227e-01 5.104491591222036773e-01 3.691100242125554542e-01 5.222855824649041967e-01 5.223402805600070309e-01 4.047713730244301700e-01 5.353776048619942607e-01 8.409626157417848802e-01 2.592562880593197061e+00 -2.499238339835314626e-01 6.577858694327860523e-01 3.414458531610769509e-01 2.011708843477831854e-01 6.554952669274436428e-01 -5.571180254490435552e-02 -1.585950304189727378e+00 4.953503643867491757e-01 2.655064093479066578e+00 5.834684796546018015e-01 1.676316119836346596e-01 1.568664733397813205e-01 4.978840844453131798e-01 5.908638080484044375e-01 1.582940219051017561e+00 5.151851712766833957e-01 1.260400459178697696e-01 4.166985063992799110e-01 1.737263872785585361e+00 6.025919577881513334e-01 7.892014411571333099e-01 5.288808455538790421e-01 7.380218176490591642e-01 4.645162076386308847e-01 5.806941331633037606e-01 2.496679169370965776e-02 5.252264180345067590e-01 5.666879062187173410e-01 -5.836880640071276938e-01 -9.875355935950425046e-02 1.182103475793509384e+00 2.397828513309051279e-01 4.797173849326264450e-01 7.189299255008008149e-01 5.291449778552448358e-01 2.021274477036120398e+00 6.662736346605900861e-01 1.802782934432881415e-02 3.573807700151838684e-01 3.965480530673661241e-01 1.140471112126072217e+00 5.023795114313723831e-01 -2.597021926501079034e-02 5.280769462902692446e-01 -8.395997922859594828e-03 5.404645286853483332e-01 5.184329261656968058e-01 5.916111752804965006e-03 -2.864520191997524390e-02 6.617624663534844576e-01 5.188114162566866971e-01 5.901815553978180251e-01 1.997367864216792188e-01 4.110252884200716883e-01 5.242764227527528798e-01 4.629768104081975477e-01 4.916557769287218660e-01 4.794034167042827144e-01 5.867288072648300101e-01 1.020667934195302884e+00 3.174668097899616903e+00 9.600810329360367490e-01 5.284836725478966324e-01 5.823994209993804683e-01 2.178945028101264558e-01 5.231758994079570568e-01 8.581778672469264624e-01 5.069046951936094780e-01 1.317150883718594567e+00 4.783266984802300170e-01 -5.913251099284890788e-01 -2.032924562500396104e-02 4.209306645511898815e-01 6.154495976544449576e-01 5.710506630276024342e-01 5.234059416476214421e-01 5.822339752340110336e-02 5.288620302928678241e-01 4.983197287621520255e-01 -3.815813892968785037e+00 4.785004583837853542e-01 5.141385868013776950e-01 1.138311921868838450e+00 5.246856142963193248e-01 4.339746537788443104e-01 6.750468027070025689e-01 -9.094212140514436049e-01 -4.997947042720372601e-01 2.759782602763291223e-02 5.248958533211094402e-01 5.654889627024286547e-01 2.114726308783412556e-01 5.195776868019588157e-01 -3.454413141227417605e-01 5.631951443161770099e-01 5.470717119156801589e-01 6.964707268216308034e-01 5.527121674609816182e-01 4.678531592680279516e-01 1.466690768569791636e-01 -7.807301183864594485e-01 6.555125810514754736e-01 5.608148585852387180e-01 1.557840104476345133e-01 5.205778619936626272e-01 5.300941096680206188e-01 5.119724098815149338e-01 6.681996964900388525e-01 5.795691561168941908e-01 5.490807003689806010e-01 5.037365073287369821e-01 1.846424629133434081e+00 3.520558204715006356e-01 5.356858331170285537e-01 -1.349072968962076180e-01 5.312329501304694501e-01 6.391590285464182619e-01 5.104310036093235858e-01 4.850065269858597206e-01 3.673208548999719603e-01 9.547868620212146551e-01 1.223594958865995341e+00 5.546996990525240312e-01 5.879748420743509119e-01 5.970017690191004034e-01 4.903493109511054548e-01 5.473323349955496742e-01 5.228054943797171283e-01 9.798794766015122004e-01 6.911422188363439689e-01 -4.638852913005376277e-01 4.632130512028530545e-01 9.044852654895837452e-01 5.179561471765311564e-01 -3.435443466225278353e-02 5.299152555177709667e-01 1.472104146662729152e+00 -1.385959354665018406e-01 6.438128198544603720e-01 2.365310346041793743e-01 4.692973176039630379e-01 8.647520857454731313e-01 5.188786483883267575e-01 3.731701045426787378e-01 1.409935471411724039e+00 4.690429361303657951e-01 5.202700470962310364e-01 -7.012484561936672689e-01 4.427645374009928636e-01 1.039829023401339647e+00 6.211540828407290382e-01 6.823044594326700685e-02 9.889801156697387574e-01 -2.263237235727109248e-02 7.187519706160445665e-01 1.651238890260023462e+00 -8.661976278173191268e-01 5.826744889709563058e-01 5.223466825378814127e-01 -4.765878689238425281e-01 3.027308982928420544e-01 5.862405563221581017e-01 5.083493687087462520e-01 4.832919592417567745e-01 4.156149680582704176e-01 2.627931913718133949e-01 3.469727507680284706e-01 5.793699061087457247e-01 5.210522370442968176e-01 8.676863251601640500e-03 -1.486644379184004772e-01 5.395663563981668576e-01 1.067965270103090614e+00 5.264418811422395539e-01 -5.834586226623807992e-01 4.581980032110097301e-01 5.228508744519385631e-01 5.620595110490492763e-01 4.620012766732998349e-02 3.253188690732373711e-01 5.198397758468490393e-01 5.336380372737655753e-01 4.525258640259292031e-01 -1.002847744531956860e-02 5.620913495116000025e-01 5.300078853787634214e-01 5.886511088846551054e-01 2.105465562046956673e+00 -9.501725383371340677e-03 3.885444277725488837e-01 5.729195933203716784e-01 1.852779769172084645e+00 4.969994746299415955e-01 5.465192950325027388e-01 2.449677406368018506e-02 5.627620083296970277e-01 5.221536211126650562e-01 4.777787063559987835e-01 3.943865295629570555e-01 5.133333827377860592e-01 4.316811479472070223e-01 5.119026034525661073e-01 -5.567982731391771800e-01 5.202386774772478351e-01 4.968435213044546384e-01 5.094974643836885919e-01 1.228212963621373666e+00 5.280365799155539719e-01 -2.484911264504949258e-01 1.120413516409384025e+00 -1.310285118335551502e+00 -5.408930092667393330e-01 5.436274289748826982e-01 5.207203403240734385e-01 6.634915851357009453e-01 5.226816077175001629e-01 4.819985542971347292e-01 5.305693499607382346e-01 5.627620187437278876e-01 5.213988961479038009e-01 4.938561044090769014e-01 6.004616930978821099e-01 5.245396554007794032e-01 3.148713270944323850e-01 5.171427407524091802e-01 5.412448018454681931e-01 4.033016835357567942e-01 5.305479288394456816e-01 5.237341892778193397e-01 5.301620718983193203e-01 6.544914184781390754e-01 5.237832941513137497e-01 7.155143084085316962e-01 5.101614333836347326e-01 5.336308882095233130e-01 5.383252469103914084e-01 4.101853446492139121e-01 3.677116698539779072e-01 2.467268075169728014e+00 4.939540121462472899e-01 6.218152255689319841e-01 2.970958723390607070e-01 5.802877698036671417e-01 1.119674334275761129e+00 4.164020065642362045e-01 6.927127652872088204e-01 5.232380724355679691e-01
7.158554656505783376e-01 3.010144391168215749e-01 4.462012155915258127e-01 -2.605766652137642830e-02 3.131333370424279061e-01 3.785642064003214013e-01 5.380092990072710135e-01 4.007681400281553619e-01 3.600837211635938284e-01 2.938270296936486559e-01 2.077482679904270491e+00 1.733317006072129685e+00 -1.470017076663312938e+00 5.939807894179017778e-01 3.102022002040647486e-01 4.585447849611233306e-01 1.346456980845049112e-01 4.455642478231365278e-01 4.138842411659492404e-01 2.927180917989257170e-01 4.249864748687753879e-01 2.147909735460136194e+00 3.602036844340492650e-01 3.500399629838824578e-01 7.489775997833373333e-01 -1.773508523093678402e-01 4.148347642341628227e-01 1.920630885058471349e-01 2.739337656558826772e-01 -9.214552571306341422e-01 4.382952309592508255e-01 -1.563997523684252100e-01 2.891710667968242499e-01 3.303877207539770988e-01 -4.131614975689990032e-01 4.996998960976966053e-01 3.342798812910805495e-01 -3.877263724333556705e-01 -3.296786860044096379e+00 3.234751858116108880e-01 1.191798064633265763e+00 1.456167029690611237e-01 -1.687829274268088375e-01 7.916297891569332723e-01 5.686907138211168000e-01 3.232126015985405387e-01 -2.651834448457428967e-02 2.977748919091582347e-01 1.489605514606459069e-01 6.529674014106429114e-01 6.890314198783598076e-01 5.018269596294605561e-01 -1.635226882175618290e-01 2.373100818008956059e-01 5.949637536231610069e-01 6.561314713001173970e-01 3.069786112922026633e-01 2.451567111570010782e-01 3.452905391154529324e-01 3.345543657756917533e-01 4.321909299385254810e-01 4.378027265552154046e-01 3.398745856603676563e-01 3.602036967330873307e-01 -3.430025929974569454e-01 1.259490043707140738e-01 2.970576349564691965e-01 3.111008732889470885e-01 2.279207676105443892e-01 7.091193463481331172e-01 1.525708421934258152e-01 2.440504094006001046e-01 3.184331930717653192e-01 7.264494820011382359e-01 1.942600490085366394e+00 4.272873421292140428e-01 4.772695425972206529e-01 4.825406796089797834e-01 3.114742917345362239e-01 -1.355455840226842179e+00 3.226976618688437437e-01 5.497503447816944888e-01 2.388820513899637898e+00 7.237746221023874660e-02 2.523939958477856571e-01 -3.599916169650667075e-01 1.384946773737955605e-01 2.825565669452126949e-01 -5.833680979013701196e-01 -9.082847141845998840e-01 5.686949340014271215e-01 1.607949480632263395e+00 5.646475186096413384e-02 6.805381367999536746e-01 3.582658582382903800e-01 3.434828122666427896e-01 2.679784097550127475e-01 7.801120677425087413e-01 7.367607820582254829e-01 -1.747122551047998185e-01 -1.808224910475685343e-01 5.555452632387855583e-02 2.953039076090056558e-01 2.157827177746676206e-01 -5.280634888027342655e-02 3.161377189413992372e+00 -2.938575862061952870e-01 3.153149063041040812e-01 8.489340639826423174e-02 8.118034921187285979e-01 2.691075982524068211e-01 5.199742673009278837e-01 1.619284674667098300e-01 3.820607723853818860e-01 -4.750011440259885309e-01 2.613909110321014362e-01 1.068116717007049771e-01 4.213906327228823523e-01 1.161632054157519134e+00 3.452765860853740376e-01 -1.472532410293036831e+00 1.398607436329757647e-01 8.397183157446830304e-02 1.463350913856089841e+00 3.081058327664958907e-01 2.200288657021669980e+00 3.675868284596650604e-01 2.086814005548650597e-01 3.110238904656661418e-01 3.160036162303730967e-01 3.428570825635627317e-01 3.147415674036200817e-01 6.731464163771763154e-01 4.186882298195579999e-01 1.625064314624623529e-01 8.569452740373506572e-01 7.259508596863016860e-01 7.097564518006457268e-01 -3.395810853997986989e-01 2.174837806100128612e-01 2.827298935137129154e-01 3.220512240865373021e-01 3.507209540634333989e-01 2.471211977780471691e-01 3.144782703559263481e-01 7.003698302740373194e-01 -1.762561847396429127e-01 3.192948284053143682e-01 4.271398818932392594e-01 4.028592272014370201e-01 -2.066687385035119451e-01 2.751436314166112035e-02 3.232027650680913133e-01 2.798465242245033457e-01 2.818707840391982966e-01 3.125397580479054582e-01 -2.476160717876029427e+00 4.670402751419934217e-01 -6.070444532132759363e-01 -1.798906384213582732e-01 1.532711326361849702e-01 3.621574359198009296e-01 3.081488934728819906e-01 3.130040247713584689e-01 1.279865119730110856e-01 1.126246498808557706e-01 3.192360686469493669e-01 4.826395782654719357e-01 4.440986895033848803e-01 2.871676830485085374e-01 2.167324207387214541e-01 -2.847205341295463987e-02 3.232353718219870831e-01 3.081833243066641748e-01 -2.532626969203340295e+00 6.722198246625845641e-01 5.800807353750001560e-01 9.395486347974887353e-01 -4.600975400804011017e-01 1.174358142852411691e+00 3.690144359787637246e-02 3.205862995630335832e-01 1.245091518513254059e+00 3.512774110237552594e-01 3.110123168825105200e-01 3.115248526084258840e-01 3.308668126568812817e-01 3.330128203627268912e-01 -4.970139016220203043e-01 3.154010226471553602e-01 3.196916255495054204e-01 8.230078384533364710e-01 2.906277550198567705e-01 3.583785084636154639e-01 2.467946801585910177e-01 3.075663264521789619e-01 -1.688835682684508344e+00 3.258445480644194814e-01 3.465720950736564943e-01 2.960994925041501857e-01 4.103052113571593190e-02 3.790279347983335212e-01 3.894365040252845689e-01 1.491485479297113004e-01 -7.623716642412242672e-01 3.465720613857685706e-01 4.888297091165358932e-01 -5.225088392341238341e-01 3.463677781243441611e-01 2.102092421895480623e-01 2.339451928685372106e-01 -3.299133297968884548e+00 4.325355680922022272e-01 9.159235177802313999e-01 3.240544824594859263e-01 3.138205303891390963e-01 3.125364219939391064e-01 3.176375411501388690e-01 3.068940271539896680e-01 3.138290976580850322e-01 3.702137935236082811e-01 9.370481457245735668e-02 6.709929897675369626e-01 1.054920164498032581e-01 4.603729177602509104e-01 5.181484071715068973e-01 4.068858724965751517e-01 -6.991427659796299876e-01 2.326062349415168207e+00 4.062637078915929401e-01 1.250317415094150730e+00 -1.400114637771047832e+00 3.149941077655752930e-01 2.606825716594609044e-01 3.504733736838347991e-01 1.189775180866103232e+00 5.247406071916970172e-01 8.302650446961893360e-01 2.875263081790565556e-01 6.672648089867768695e-01 2.372406279815578722e-01 2.959304832109020955e-01 -1.188044823075117939e+00 4.210161633513366808e-01 3.088903764245978234e-01 5.021813365908578408e-01 8.801229286971806731e-01 -3.785561215436778482e-01 3.211178289786167372e+00 5.017837599479697541e-01 1.297711102248681359e+00 -2.736976254750445592e-01 3.195158867259135782e-01 3.602071105802979178e-01 3.483027787197116587e-01 2.498902116440970822e-01 3.357397959882239546e-01 -1.512379826901620039e-01 9.719856480524016740e-02 5.625705135485061792e-01 2.438014008847294023e-01 1.008993636020192736e-01 2.394747789888535539e-01 4.697586453258265071e-01 4.321909390357135949e-01 2.556044391686735362e-01 3.287972659817773202e+00 3.505421901963005071e-01 6.515229361254046836e-01 5.262195814006571659e-01 2.324880938241115635e-01 4.321676904016561460e-01 3.090885149667895182e-01 3.005803130192001849e-01 3.114111198880029074e-01 -6.094483305206145340e-01 4.239545005083608098e-01 2.851932298789073283e-01 1.437661108569316393e-01 3.356184431517587052e-01 1.550635701938817279e+00 3.701980096575865353e-01 3.159319828522534901e-01 2.008584249858238024e+00 5.088156679207230804e-01 2.790477846198361478e-01 2.714321177669128948e-01 2.989857510377268990e-01 2.613915579804919620e-01 -2.072629439479951596e+00 2.948491894360636412e-01 1.582746531346612029e+00 -7.515202134773910081e-02 3.596212804014172759e-01 6.692905204105347172e-01 3.323026356072264487e-01 -7.297986412488014496e-01 3.784820475316587607e-01 3.010492958191901547e-01 4.271769494891396457e-01 -4.010309809902813383e-01 2.988620034497191380e-01 -2.330586725856379715e+00 -2.793935736618814725e-02 3.218095464125176886e-01 5.985096114230046283e-01 3.103106604298203064e-01 3.112801377632606337e-01 4.923442523325636810e-01 1.743390289524102965e-01 -8.709262890959749981e-02 -7.734874422207732581e-01 -2.683369726228527520e-03 6.883140616927687638e-01 3.178703433961879155e-01 5.013139785340378074e-01 3.191034411001488769e-01 -2.720716827580295025e-02 3.117928453338966177e-01 2.471065503446126854e+00 6.790985747044875342e-01 2.471220986091741678e-01 -1.177555140929720023e+00 2.359865061238123618e-01 4.762851181889041108e+00 3.967277360642061934e-01 -1.807362665109779054e-01 5.716080034027805068e-01 -5.667116258598412948e+00 5.284215895279603670e-01 1.572805541708584665e+00 3.132709654885856287e-01 5.268188124547844575e-01 -4.523021816916102944e-01 4.349082131427118858e-01 2.719562475066173990e-01 3.185625844765624382e-01 2.196854244049115112e-01 2.978045882010364132e+00 -3.804587133383192099e-01 3.016958577110894768e-01 -1.932479234823747172e+00 3.275669127370398614e-01 -3.877263768834834368e-01 7.566542243798700662e-01 5.070191901728579031e-01 2.607605393789356185e-01 2.829465464771095395e-01 1.267121507582728235e+00 1.533268940864047636e-01 3.465718415497740512e-01 4.210228636992104367e-01 1.491485381841108349e-01 3.530808182683877749e-01 3.882799707260882749e-01 -6.210018156827132874e-01 3.113616344865228758e-01 5.599338564622799996e-01 3.997046352226997779e-01 1.743207301690029298e-01 3.149280526566010652e-01 5.029125115606317697e-01 5.070192153326920081e-01 4.859334493353895112e-01 3.156654029394452277e-01 1.713475730483394466e-01 3.916771139939839719e-01 3.491852077031292634e+00 3.176636726781045250e-01 1.144856735164477141e-01 4.321909957451772200e-01 8.397441161229928230e-01 4.692427385302674891e-01 -1.942046139642326363e-01 6.848423890941404135e-01 3.545588832034408111e-01 1.241227988274674482e-01 4.179102336709941690e-01 6.780973946850742395e-01 5.531659551477668968e-01 7.936254610785259400e-01 8.206003814038523858e-01 2.920784504059866782e-01 1.491485478528065955e-01 1.491484736221103669e-01 2.362163900376976489e-01 1.980959826066714113e-01 1.119779822794706892e+00 3.921983893547944522e-01 3.149951301237416956e-01 2.888101502437858681e-01 3.109696785257606844e-01 7.530923569362314440e-01 3.465715205763792994e-01 3.119240146753123888e-01 4.320918883484976547e-01 2.179823151589734276e-01 -6.396893155653436969e-01 3.115263618553014147e-01 3.134347126420651830e-01 3.801607026695426050e-01 6.767364457089487528e-01 6.800515697124928094e-01 1.491485481832996729e-01 1.194751860487198725e-01 3.173929744128719532e-01 5.078938350426630555e-01 -5.943982858464292862e-01 1.777120384336109415e-01 -3.563108058785204868e+00 2.010586508002131012e+00 6.336456113065194184e-01 -4.775338046856787422e-01 -2.592502971712361270e-02 2.077660442751219527e+00 3.197294046933954470e-01 6.486280871791841873e-01 -4.426629111289959173e-02 3.802802536293781732e-01 4.086089485287443535e-01 2.950704482547225616e-01 -5.321438527967347065e-01 3.704070731055373322e-01 2.083826891554668936e+00 2.490237435446734093e-01 -4.525010476849445906e-01 3.010676472128122061e-01 3.062767904288535847e-01 -1.462194031268712724e+00 2.774817438858032670e-01 3.696712691719781785e-01 4.034260309069344075e-01 1.247255310633924308e-01 3.124122057779561978e-01 2.098178416495109222e-01 3.159791587012933389e-01 -1.611820690074005080e-01 3.188476670974647043e-01 1.054438870212700136e-01 3.037845512920856472e-01 3.054685872482985065e-01 1.187167380235502889e-02 3.869848113388140720e-01 5.259082509340203826e-01 -1.413143489449536272e+00 -6.409176139758745450e-01 -1.171660698590268473e-01 1.288355635386139730e-01 1.827207585795887768e-01 4.340238045057192018e-01 3.603473881538382662e-01 7.200968850306862512e-01 -1.375707831575986306e-01 3.298498452841122641e-01 3.213157373029824626e-01 9.509629216073457736e-02 -1.614738265564015507e-01 2.788316845170271119e-01 4.632806940229976522e-01 4.799228941461317621e-01 3.183536266771564427e-01 2.832239876579683568e-01 3.109039361589203687e-01 2.473319873840351957e-01 3.085580320584455083e-01 4.918522580917753517e-01 3.046599453156781379e-01 3.126332118971170693e-01 6.855012430776034060e-01 3.317697721061657057e-01 7.285771514409663530e-01 -8.186289679359367612e-04 5.620674746616410866e-01 2.791610190344319120e-01 -1.467195367153152130e+00 3.058635491374205317e-01 6.377765989506646305e-01 3.557571187261704959e-01 3.383039570042030708e-01 2.820588174743693943e-01 1.759729904225091346e-01 6.844935726187239000e-01 3.115552659187250661e-01 4.179738483905327540e-01 3.103055771189077716e-01 2.757065693499924919e-01 1.853998297344235657e-01 4.868754338187913921e-01 3.227151818082771850e-01 1.841308283308839278e-01 5.890212846551860087e-02 9.128169368750792267e-02 1.659618346738986006e+00 1.795495836948932666e-01 3.487686371064385726e-01 3.879464310793228066e-01 -8.602842718406304989e-01 3.343407428714788576e-01 2.394344682224021081e-01 3.460250364230073594e-01 -7.505632193377652361e-02 2.757207640330450737e-01 1.664290430882421346e+00 8.935736749386684608e-01 4.615388205848757752e-01 3.079597012553989543e-01 3.282197337222326761e-01 3.457056045497604035e-01 9.302278558224192917e-01 3.076753717068992255e+00 3.125326868176582229e-01 1.888029952203949119e-02 5.868136220891754240e-01 -2.282500249053344976e-01 3.094301641365064803e-01 3.224783265775368335e-01 1.082635574597506478e+00 3.124097848324588478e-01 -3.395943744219541149e-01 3.874731528881796283e-01 1.345978070590328202e-01 6.264691351279093601e-01 1.832633210424743142e+00 2.464770027707689493e-01 2.741231782840453657e-01 1.669395955003133425e+00 3.940125468581915924e-01 2.493302102335966386e-01 1.607842856336205994e-01 2.033886193485126004e-01 -2.635464697161283079e-02 5.176034044188402294e-01 2.435955641198689903e-01 7.204130473974607041e-01 2.749554814912316125e-01 2.171516321735831589e-01 3.239652001749270260e-01 3.965638017354722322e-01 4.129810661092634949e-01 2.619952141225257436e-01 8.872267081833136171e-01 5.151649234233347530e-01 4.975731675536658183e-01 2.904494686613180443e-01 2.444942512635102094e-01 3.074007524523144630e-01 5.915495595837889642e-01 7.778604663685927401e-01 3.691135779245675597e-01 3.179758509311423897e-01 5.704121381119678924e-01 3.148843163700897341e-01 7.063658695401858756e-01 3.034005249712758423e-01 4.739948128048241949e-01 -3.086534440468143292e-01 3.082152080529976801e-01 3.349301309148945971e-01 4.452974592088809191e-01 2.293573930654860260e-01 3.375125332398856148e-01 1.813432857293842071e+00 2.267472649344304952e-02 2.826655761462262273e-01 -2.088155235902719176e-01 1.672789243084002786e+00 1.159413906505666114e+00 3.754608574183354586e-02 -4.456619522928745858e-01 4.365528317210314313e-01 2.961533068622392295e-01 4.966719686413668677e-01 3.126229012795470608e-01 3.158171653544241120e-01 2.190567935298293467e-01 3.366859745796904613e-01 3.059179071844748132e-01 -2.576467835480027863e-02 -2.257959796201379210e-01 3.285182843191185031e-01 2.463473069647475477e-01 2.409725926902202831e-01 8.783747940231810825e-01 4.321909362045177061e-01 2.976150368646390265e-01 8.544473940651791111e-01 4.754645043300764207e-01 5.690117360139401725e-01 4.611095800231683195e-01 6.972122487248929579e-01 1.480104330087733455e+00 3.856393841959124269e-01 2.111498135058553327e+00 -2.387335282082304888e-02 1.527402974270490044e-01 3.121424563466626556e-01 2.940592916435866289e-01 3.720815936363905396e-01 2.871986150391227510e-01 3.214984862603305626e-01 3.126569798867209204e-01 3.674272030352353502e-01 2.123264405271431121e-01 -3.433928462301490403e-01 2.642603850332417847e-01 -6.366549594614560881e-02 3.024676160729572461e-01 4.272458561887478856e-01 4.321909362654749454e-01 2.256698506688746553e-01 2.125570424578140105e-01 -1.279949584375998928e+00 1.977457690868767548e+00 3.094940619715651486e-01 -7.479294484480923932e-01 2.970310538250904853e-01 3.254638377976966646e-01 3.085641795689600952e-01 -4.831255178927817084e+00 3.567958055697672215e+00 6.322002080666981882e-01 3.485946130781699542e-02 3.281277907105566438e-01 3.082493403315528235e-01 2.650039223817307055e-01 2.645289203410758017e+00 6.284973051374698194e-01 3.191622333471539341e-01 2.613910899902310847e-01 2.960326814019633712e-01 3.094914367078269168e-01 8.589150641117623275e-01 -3.742284324614680302e-01 -1.215407255271845344e+00 -1.230483318016728722e+00 3.164794812066729635e-01 3.058464679863308056e-01 7.343466101208960817e-01 3.716271473860376373e-01 1.459231105158601327e+00 4.864205636840769342e-01 3.114702192700697925e-01 3.185853637102098457e-01 3.194549909262651144e-01 3.372340466930917602e-01 3.020939914986287000e-01 6.419770705455198900e-01 2.712970937714728747e-01 6.613052283802909326e-01 2.310596109998059589e-01 5.356116988601332396e-02 3.020057637914211890e-01 1.803232102752478638e-01 3.129319229337157449e-01 2.569537144100201842e-01 6.376377315073886720e-01 5.070192117940586218e-01 3.159832640678969518e-01 2.521835470576572202e-01 3.068487437465095558e-01 2.718327757426521329e-01 1.664309081671456969e+00 1.920976294577504850e+00 3.030111111890621545e-01 3.434686186881934500e-01 3.069027821331185013e-01 1.647469513963114307e-01 2.245642387748954250e-01 3.858722409749248405e-01 3.176483922927208492e-01 3.269453087599601404e-01 8.065833331557760166e-01 8.910122524724513049e-01 2.674870262188327463e-01 1.883649481014356253e+00 3.239373694174453866e-01 -2.553381249473574144e-01 -2.721736881687429888e-01 -3.071933297529301221e-01 3.111884608244678274e-01 2.931655966374118183e-01 7.109798345322309032e-01 3.147088380467647495e-01 4.525970263344715194e-01 3.297250004040286342e-01 3.406396109545624107e-01 2.890090203704929750e-01 -4.720159772109978197e-02 1.012693239108693799e+00 3.257390015064431377e-01 3.743422419168533910e-01 3.178394360797179852e-01 3.530685954079371136e-01 3.360221208583575869e-01 3.951542852600968270e-01 -8.671542627644276968e-02 2.223883693516067184e-01 2.854977978517272974e-01 -2.670055323871394978e-02 4.321910660496420808e-01 1.100094050853160033e+00 9.671163203412340703e-01 -7.233048014261191927e-01 -3.877263723505289250e-01 6.595706066698800996e-01 -3.358765216302291634e+00 1.578653407266431774e+00 2.810391277434859947e-01 -2.571661065318023298e-02 3.073879790837897863e-01 8.998891433635465287e-01 3.078540487263030645e-01 4.210164303041695755e-01 -4.378132750742694812e-01 8.188848975407759800e-01 3.206664687949856707e-01 8.663446049909049318e-01 2.104873759681819223e+00 -3.741014275130160049e-01 -1.477378723307740005e+00 2.411121468830119408e-01 3.102935571316164376e-01 7.541808205720675895e-01 2.771935939462072951e-01 7.027408784114667073e-01 4.691227523345690154e-01 2.807037850636495691e-01 2.988373157822671877e-01 3.098257430786277022e-01 2.742402319387122200e-01 3.070261856353807550e-01 1.426057584811501133e+00 1.654315913135379956e+00 3.042600547992760918e-01 3.468837686114396579e-01 1.914818883711713327e-01 -2.475988896934393502e-01 2.224233924630588111e-01 -4.589446502748996404e-02 3.110146078583937990e-01 7.035403833323360390e-01 -5.321357735307762349e-01 2.710845510034556871e-01 2.889120691435838606e-01 1.535461204549775915e-01 3.216738188018961053e-01 1.997421426691880220e-01 3.110138821961547229e-01 3.102847657744106646e-01 3.734483529996142359e-02 2.900634900124653415e-01 4.344897354388159161e-01 1.129943438555883528e+00 1.108703918598063609e+00 9.182592666045014118e-01 2.065389296424133825e-01 7.901637604080710142e-01 1.528075460424181686e-01 4.952804399775497246e-01 -2.162700454176552434e+00 3.017330363067836085e-01 6.608689290032029318e-01 2.912183589310469167e-01 9.488086469805215861e-01 1.377181651075517488e+00 2.613909101768560617e-01 2.494115561833794570e-01 3.753234710308298583e-01 3.828216019937644155e-01 5.490886114490225456e-01 9.339306062404084674e-01 -8.071561752114697619e-01 2.290421146376779293e-01 4.023100992597880565e-02 2.996335951496055805e-01 3.410279356375448545e-01 7.658979768273264099e-01 -2.514983093209802179e-01 4.070734831829864731e-01 3.072738406531387856e-01 3.614132005634004274e-01 8.939677569138693158e-01 4.319100079491651201e-01 -2.191587014181683446e-01 8.585523317789530706e-01 -4.041683778753996092e-02 5.649524463864153967e-01 2.952962923859593358e-01 1.293804360122172703e+00 5.935320891379451957e-01 7.205984879519687913e-01 4.365167575969281510e-01 4.858125591001289934e-01 -5.778174321381692735e-01 2.288224359685082920e-01 7.554763000421047536e-01 3.242854590849791885e-01 6.141929485092038066e-01 3.039534190527889423e-01 3.156076427099918646e-01 7.180113034683087703e-01 1.576533781231896081e-01 -2.064511801632499477e+00 2.021369640632002807e-01 2.528166012314606581e-01 9.000925365832359581e-01 3.553079650132063838e-01 3.768487924177482129e-01 3.803951254070786492e-01 3.138612346707980727e-01 3.979264308107504644e-01 9.184155366810363430e-02 -1.630162751613465133e+00 7.615633830857543307e-01 2.450313158044874762e-01 3.176236243253704461e-01 2.297738140882134572e-01 8.204602953019878298e-01 3.157703876177559987e-01 -1.527841947118977473e-01 3.452826834776592246e-01 1.124443598614403239e+00 2.716089861818634654e-01 4.162091896207620878e-01 1.044733934859357838e+00 4.111271057858905120e-01 2.827289917647560991e+00 3.302985446597940800e-01 3.121436291821265141e-01 7.084096256284586612e-01 3.191310768207200610e-01 3.372002192409342958e-01 -2.151650104774542882e+00 4.488769723204360518e-01 3.186715736863032777e-01 5.183492658567104838e-01 3.059547352114311281e-01 1.960055248677858575e-01 -1.842396778742608765e-01 2.073583729060152869e+00 -5.186779208805493147e-01 8.264619396870095391e-01 3.112897970931961522e-01 2.965176129586971077e-01 8.369938547568058773e-01 2.932363218940568506e-01 1.342434294726167154e+00 2.166946056596903980e-01 3.906252619765784306e-01 -8.863328570527692074e-01 -1.319268673653738178e-01 -5.455641804842245035e-01 -4.030174269752571092e+00 2.987831859755865072e+00 2.460284241056383270e-02 2.873439757009502160e-01 -1.654402972850116837e+00 3.076728624088004294e-01 4.053148684850670924e-01 3.269328798750920084e-01 1.764196947883558686e-01 6.422405807834501434e-01 6.025036123243874275e-01 1.080612871520430840e+00 -3.877263723740143608e-01 -2.340891348457966314e-01 2.413747232578306867e-01 -1.194792222088638223e+00 2.759252572364719880e-01 -6.547574572640545432e-01 3.060191320832162942e-01 4.492465947672746318e-01 1.008440830403485727e-01 4.550395454988364619e-01 2.639209259879906622e-01 -3.177041163649399480e-02 2.411174245227512836e-01 2.861035994382090109e-01 3.656161106663379234e-01 3.347074785310626965e-01 3.118139837919975399e-01 -7.233933868060763439e-01 4.877693719544650142e-01 1.545070991259739124e+00 7.337701354787982966e-02 2.363656680702027890e-01 2.557126537167906943e-01 1.205309874987022134e+00 3.343487156774779812e-01 1.010256907400033238e-01 8.869527089540060194e-01 2.474046400730756101e-01 1.881097434438500082e+00 2.744577197104208222e-01 1.338231934266255418e+00 3.265232194718457603e-01 7.349302551563720032e-01 1.355905607897301746e+00 3.845903418027382670e-01 3.115050711025675323e-01 9.439357103044235808e-01 -1.859514602053270460e-01 -6.471253458130371561e-02 2.346316598079243310e-01 3.044764970418344374e-01 3.613881458028203042e-01 1.448716252935895454e-01 1.273927483732223143e-01 -3.813374394080326635e-01 1.292335819186306356e+00 2.965829974261702806e-01 3.124329918982345355e-01 -3.235761239346987672e+00 5.535789281158807196e-01 2.409305952151648000e-01 3.724919005876833888e-01 3.822171093888410698e-01 4.452238865026040826e-01 -1.111710309253472362e+00 6.299519713129220211e-01 2.920392090540506191e-01 3.130425034962764919e-01 1.023299872838086877e+00 4.652908844208666350e-01 3.022716161718435046e-01 -1.414294218455707464e+00 3.707687079615759052e-01 8.940460925466998665e-01 3.443346844557393927e-01 3.109455199420587679e-01 3.145169150964128857e-01 7.118862919672473977e-01 -5.273722337612749694e-02 3.135622727881984817e-01 2.951065628857468814e-01 9.467781997811476613e-02 6.680070415042991261e-01 2.531800355627347732e-01 6.971680968322474525e-01 1.784423479341972207e-01 6.925422995499118661e-01 -2.430770815103170390e-01 -1.510926303271773907e+00 2.877032744973036515e-01 -2.027361930670226395e-02 3.008602435600464253e-01 3.665650225341308688e-01 5.512101962164363961e-02 5.070191986738756817e-01 3.061064420386854779e-01 8.338687522444625244e-02 4.334327090871812893e-01 3.102591508200595039e-01 2.929131946943037690e-01 2.954032263380160228e-01 -8.561685656759646657e-01 3.189475072703489844e-01 2.985391513320925783e-01 3.055639595351206106e-01 -2.987898825070590125e-01 3.065477016706903979e-01 8.323204265717358830e-01 -5.993301175649619061e-01 1.130963943809821348e+00 6.177675924773411431e-01 2.905872753625973193e-01 3.139682770274517254e-01 -2.061024459406524567e+00 3.179813393895488671e-01 2.280860218317174171e-01 2.971141994896316918e-01 5.070191923639538745e-01 3.114837663960312586e-01 3.371942464952891183e-01 6.238667509613975148e-02 3.117820705370739076e-01 4.343365586079838692e-01 3.182386542431761001e-01 2.405347692039255247e-01 2.853438043846707739e-01 3.096552973542456844e-01 3.116044556220423090e-01 2.841081563209166827e-01 1.122911636384882894e-01 3.129083719144509224e-01 6.252288520386354298e-01 1.679998343345558143e-01 3.111496413549111328e-01 -1.456992749910308860e-01 1.860313964961775868e-01 6.254832800546492599e-01 4.541543041426839622e+00 3.432398560753135430e-01 7.274556787397516711e-02 5.664179152425694586e-01 1.791313130341020965e-01 1.565975210072253709e+00 3.386838122994433320e-01 6.368650927148914453e-01 3.174151264531872574e-01
