# 
#                 ----------------------------------------------------
#                 Data from a 3D direct N-body simulation. 
# 
#                 rows are i-particle; 
#                 coumns are :mass, tag, x ,y, z, vx, vy, vz, ax, ay, az
# 
#                 NTHU, Computational Physics 
# 
#                 ----------------------------------------------------
#                 Time = 0.0
0.000000000000000000e+00 1.000000000000000000e+00 2.000000000000000000e+00 3.000000000000000000e+00 4.000000000000000000e+00 5.000000000000000000e+00 6.000000000000000000e+00 7.000000000000000000e+00 8.000000000000000000e+00 9.000000000000000000e+00 1.000000000000000000e+01 1.100000000000000000e+01 1.200000000000000000e+01 1.300000000000000000e+01 1.400000000000000000e+01 1.500000000000000000e+01 1.600000000000000000e+01 1.700000000000000000e+01 1.800000000000000000e+01 1.900000000000000000e+01 2.000000000000000000e+01 2.100000000000000000e+01 2.200000000000000000e+01 2.300000000000000000e+01 2.400000000000000000e+01 2.500000000000000000e+01 2.600000000000000000e+01 2.700000000000000000e+01 2.800000000000000000e+01 2.900000000000000000e+01 3.000000000000000000e+01 3.100000000000000000e+01 3.200000000000000000e+01 3.300000000000000000e+01 3.400000000000000000e+01 3.500000000000000000e+01 3.600000000000000000e+01 3.700000000000000000e+01 3.800000000000000000e+01 3.900000000000000000e+01 4.000000000000000000e+01 4.100000000000000000e+01 4.200000000000000000e+01 4.300000000000000000e+01 4.400000000000000000e+01 4.500000000000000000e+01 4.600000000000000000e+01 4.700000000000000000e+01 4.800000000000000000e+01 4.900000000000000000e+01 5.000000000000000000e+01 5.100000000000000000e+01 5.200000000000000000e+01 5.300000000000000000e+01 5.400000000000000000e+01 5.500000000000000000e+01 5.600000000000000000e+01 5.700000000000000000e+01 5.800000000000000000e+01 5.900000000000000000e+01 6.000000000000000000e+01 6.100000000000000000e+01 6.200000000000000000e+01 6.300000000000000000e+01 6.400000000000000000e+01 6.500000000000000000e+01 6.600000000000000000e+01 6.700000000000000000e+01 6.800000000000000000e+01 6.900000000000000000e+01 7.000000000000000000e+01 7.100000000000000000e+01 7.200000000000000000e+01 7.300000000000000000e+01 7.400000000000000000e+01 7.500000000000000000e+01 7.600000000000000000e+01 7.700000000000000000e+01 7.800000000000000000e+01 7.900000000000000000e+01 8.000000000000000000e+01 8.100000000000000000e+01 8.200000000000000000e+01 8.300000000000000000e+01 8.400000000000000000e+01 8.500000000000000000e+01 8.600000000000000000e+01 8.700000000000000000e+01 8.800000000000000000e+01 8.900000000000000000e+01 9.000000000000000000e+01 9.100000000000000000e+01 9.200000000000000000e+01 9.300000000000000000e+01 9.400000000000000000e+01 9.500000000000000000e+01 9.600000000000000000e+01 9.700000000000000000e+01 9.800000000000000000e+01 9.900000000000000000e+01 1.000000000000000000e+02 1.010000000000000000e+02 1.020000000000000000e+02 1.030000000000000000e+02 1.040000000000000000e+02 1.050000000000000000e+02 1.060000000000000000e+02 1.070000000000000000e+02 1.080000000000000000e+02 1.090000000000000000e+02 1.100000000000000000e+02 1.110000000000000000e+02 1.120000000000000000e+02 1.130000000000000000e+02 1.140000000000000000e+02 1.150000000000000000e+02 1.160000000000000000e+02 1.170000000000000000e+02 1.180000000000000000e+02 1.190000000000000000e+02 1.200000000000000000e+02 1.210000000000000000e+02 1.220000000000000000e+02 1.230000000000000000e+02 1.240000000000000000e+02 1.250000000000000000e+02 1.260000000000000000e+02 1.270000000000000000e+02 1.280000000000000000e+02 1.290000000000000000e+02 1.300000000000000000e+02 1.310000000000000000e+02 1.320000000000000000e+02 1.330000000000000000e+02 1.340000000000000000e+02 1.350000000000000000e+02 1.360000000000000000e+02 1.370000000000000000e+02 1.380000000000000000e+02 1.390000000000000000e+02 1.400000000000000000e+02 1.410000000000000000e+02 1.420000000000000000e+02 1.430000000000000000e+02 1.440000000000000000e+02 1.450000000000000000e+02 1.460000000000000000e+02 1.470000000000000000e+02 1.480000000000000000e+02 1.490000000000000000e+02 1.500000000000000000e+02 1.510000000000000000e+02 1.520000000000000000e+02 1.530000000000000000e+02 1.540000000000000000e+02 1.550000000000000000e+02 1.560000000000000000e+02 1.570000000000000000e+02 1.580000000000000000e+02 1.590000000000000000e+02 1.600000000000000000e+02 1.610000000000000000e+02 1.620000000000000000e+02 1.630000000000000000e+02 1.640000000000000000e+02 1.650000000000000000e+02 1.660000000000000000e+02 1.670000000000000000e+02 1.680000000000000000e+02 1.690000000000000000e+02 1.700000000000000000e+02 1.710000000000000000e+02 1.720000000000000000e+02 1.730000000000000000e+02 1.740000000000000000e+02 1.750000000000000000e+02 1.760000000000000000e+02 1.770000000000000000e+02 1.780000000000000000e+02 1.790000000000000000e+02 1.800000000000000000e+02 1.810000000000000000e+02 1.820000000000000000e+02 1.830000000000000000e+02 1.840000000000000000e+02 1.850000000000000000e+02 1.860000000000000000e+02 1.870000000000000000e+02 1.880000000000000000e+02 1.890000000000000000e+02 1.900000000000000000e+02 1.910000000000000000e+02 1.920000000000000000e+02 1.930000000000000000e+02 1.940000000000000000e+02 1.950000000000000000e+02 1.960000000000000000e+02 1.970000000000000000e+02 1.980000000000000000e+02 1.990000000000000000e+02 2.000000000000000000e+02 2.010000000000000000e+02 2.020000000000000000e+02 2.030000000000000000e+02 2.040000000000000000e+02 2.050000000000000000e+02 2.060000000000000000e+02 2.070000000000000000e+02 2.080000000000000000e+02 2.090000000000000000e+02 2.100000000000000000e+02 2.110000000000000000e+02 2.120000000000000000e+02 2.130000000000000000e+02 2.140000000000000000e+02 2.150000000000000000e+02 2.160000000000000000e+02 2.170000000000000000e+02 2.180000000000000000e+02 2.190000000000000000e+02 2.200000000000000000e+02 2.210000000000000000e+02 2.220000000000000000e+02 2.230000000000000000e+02 2.240000000000000000e+02 2.250000000000000000e+02 2.260000000000000000e+02 2.270000000000000000e+02 2.280000000000000000e+02 2.290000000000000000e+02 2.300000000000000000e+02 2.310000000000000000e+02 2.320000000000000000e+02 2.330000000000000000e+02 2.340000000000000000e+02 2.350000000000000000e+02 2.360000000000000000e+02 2.370000000000000000e+02 2.380000000000000000e+02 2.390000000000000000e+02 2.400000000000000000e+02 2.410000000000000000e+02 2.420000000000000000e+02 2.430000000000000000e+02 2.440000000000000000e+02 2.450000000000000000e+02 2.460000000000000000e+02 2.470000000000000000e+02 2.480000000000000000e+02 2.490000000000000000e+02 2.500000000000000000e+02 2.510000000000000000e+02 2.520000000000000000e+02 2.530000000000000000e+02 2.540000000000000000e+02 2.550000000000000000e+02 2.560000000000000000e+02 2.570000000000000000e+02 2.580000000000000000e+02 2.590000000000000000e+02 2.600000000000000000e+02 2.610000000000000000e+02 2.620000000000000000e+02 2.630000000000000000e+02 2.640000000000000000e+02 2.650000000000000000e+02 2.660000000000000000e+02 2.670000000000000000e+02 2.680000000000000000e+02 2.690000000000000000e+02 2.700000000000000000e+02 2.710000000000000000e+02 2.720000000000000000e+02 2.730000000000000000e+02 2.740000000000000000e+02 2.750000000000000000e+02 2.760000000000000000e+02 2.770000000000000000e+02 2.780000000000000000e+02 2.790000000000000000e+02 2.800000000000000000e+02 2.810000000000000000e+02 2.820000000000000000e+02 2.830000000000000000e+02 2.840000000000000000e+02 2.850000000000000000e+02 2.860000000000000000e+02 2.870000000000000000e+02 2.880000000000000000e+02 2.890000000000000000e+02 2.900000000000000000e+02 2.910000000000000000e+02 2.920000000000000000e+02 2.930000000000000000e+02 2.940000000000000000e+02 2.950000000000000000e+02 2.960000000000000000e+02 2.970000000000000000e+02 2.980000000000000000e+02 2.990000000000000000e+02 3.000000000000000000e+02 3.010000000000000000e+02 3.020000000000000000e+02 3.030000000000000000e+02 3.040000000000000000e+02 3.050000000000000000e+02 3.060000000000000000e+02 3.070000000000000000e+02 3.080000000000000000e+02 3.090000000000000000e+02 3.100000000000000000e+02 3.110000000000000000e+02 3.120000000000000000e+02 3.130000000000000000e+02 3.140000000000000000e+02 3.150000000000000000e+02 3.160000000000000000e+02 3.170000000000000000e+02 3.180000000000000000e+02 3.190000000000000000e+02 3.200000000000000000e+02 3.210000000000000000e+02 3.220000000000000000e+02 3.230000000000000000e+02 3.240000000000000000e+02 3.250000000000000000e+02 3.260000000000000000e+02 3.270000000000000000e+02 3.280000000000000000e+02 3.290000000000000000e+02 3.300000000000000000e+02 3.310000000000000000e+02 3.320000000000000000e+02 3.330000000000000000e+02 3.340000000000000000e+02 3.350000000000000000e+02 3.360000000000000000e+02 3.370000000000000000e+02 3.380000000000000000e+02 3.390000000000000000e+02 3.400000000000000000e+02 3.410000000000000000e+02 3.420000000000000000e+02 3.430000000000000000e+02 3.440000000000000000e+02 3.450000000000000000e+02 3.460000000000000000e+02 3.470000000000000000e+02 3.480000000000000000e+02 3.490000000000000000e+02 3.500000000000000000e+02 3.510000000000000000e+02 3.520000000000000000e+02 3.530000000000000000e+02 3.540000000000000000e+02 3.550000000000000000e+02 3.560000000000000000e+02 3.570000000000000000e+02 3.580000000000000000e+02 3.590000000000000000e+02 3.600000000000000000e+02 3.610000000000000000e+02 3.620000000000000000e+02 3.630000000000000000e+02 3.640000000000000000e+02 3.650000000000000000e+02 3.660000000000000000e+02 3.670000000000000000e+02 3.680000000000000000e+02 3.690000000000000000e+02 3.700000000000000000e+02 3.710000000000000000e+02 3.720000000000000000e+02 3.730000000000000000e+02 3.740000000000000000e+02 3.750000000000000000e+02 3.760000000000000000e+02 3.770000000000000000e+02 3.780000000000000000e+02 3.790000000000000000e+02 3.800000000000000000e+02 3.810000000000000000e+02 3.820000000000000000e+02 3.830000000000000000e+02 3.840000000000000000e+02 3.850000000000000000e+02 3.860000000000000000e+02 3.870000000000000000e+02 3.880000000000000000e+02 3.890000000000000000e+02 3.900000000000000000e+02 3.910000000000000000e+02 3.920000000000000000e+02 3.930000000000000000e+02 3.940000000000000000e+02 3.950000000000000000e+02 3.960000000000000000e+02 3.970000000000000000e+02 3.980000000000000000e+02 3.990000000000000000e+02 4.000000000000000000e+02 4.010000000000000000e+02 4.020000000000000000e+02 4.030000000000000000e+02 4.040000000000000000e+02 4.050000000000000000e+02 4.060000000000000000e+02 4.070000000000000000e+02 4.080000000000000000e+02 4.090000000000000000e+02 4.100000000000000000e+02 4.110000000000000000e+02 4.120000000000000000e+02 4.130000000000000000e+02 4.140000000000000000e+02 4.150000000000000000e+02 4.160000000000000000e+02 4.170000000000000000e+02 4.180000000000000000e+02 4.190000000000000000e+02 4.200000000000000000e+02 4.210000000000000000e+02 4.220000000000000000e+02 4.230000000000000000e+02 4.240000000000000000e+02 4.250000000000000000e+02 4.260000000000000000e+02 4.270000000000000000e+02 4.280000000000000000e+02 4.290000000000000000e+02 4.300000000000000000e+02 4.310000000000000000e+02 4.320000000000000000e+02 4.330000000000000000e+02 4.340000000000000000e+02 4.350000000000000000e+02 4.360000000000000000e+02 4.370000000000000000e+02 4.380000000000000000e+02 4.390000000000000000e+02 4.400000000000000000e+02 4.410000000000000000e+02 4.420000000000000000e+02 4.430000000000000000e+02 4.440000000000000000e+02 4.450000000000000000e+02 4.460000000000000000e+02 4.470000000000000000e+02 4.480000000000000000e+02 4.490000000000000000e+02 4.500000000000000000e+02 4.510000000000000000e+02 4.520000000000000000e+02 4.530000000000000000e+02 4.540000000000000000e+02 4.550000000000000000e+02 4.560000000000000000e+02 4.570000000000000000e+02 4.580000000000000000e+02 4.590000000000000000e+02 4.600000000000000000e+02 4.610000000000000000e+02 4.620000000000000000e+02 4.630000000000000000e+02 4.640000000000000000e+02 4.650000000000000000e+02 4.660000000000000000e+02 4.670000000000000000e+02 4.680000000000000000e+02 4.690000000000000000e+02 4.700000000000000000e+02 4.710000000000000000e+02 4.720000000000000000e+02 4.730000000000000000e+02 4.740000000000000000e+02 4.750000000000000000e+02 4.760000000000000000e+02 4.770000000000000000e+02 4.780000000000000000e+02 4.790000000000000000e+02 4.800000000000000000e+02 4.810000000000000000e+02 4.820000000000000000e+02 4.830000000000000000e+02 4.840000000000000000e+02 4.850000000000000000e+02 4.860000000000000000e+02 4.870000000000000000e+02 4.880000000000000000e+02 4.890000000000000000e+02 4.900000000000000000e+02 4.910000000000000000e+02 4.920000000000000000e+02 4.930000000000000000e+02 4.940000000000000000e+02 4.950000000000000000e+02 4.960000000000000000e+02 4.970000000000000000e+02 4.980000000000000000e+02 4.990000000000000000e+02 5.000000000000000000e+02 5.010000000000000000e+02 5.020000000000000000e+02 5.030000000000000000e+02 5.040000000000000000e+02 5.050000000000000000e+02 5.060000000000000000e+02 5.070000000000000000e+02 5.080000000000000000e+02 5.090000000000000000e+02 5.100000000000000000e+02 5.110000000000000000e+02 5.120000000000000000e+02 5.130000000000000000e+02 5.140000000000000000e+02 5.150000000000000000e+02 5.160000000000000000e+02 5.170000000000000000e+02 5.180000000000000000e+02 5.190000000000000000e+02 5.200000000000000000e+02 5.210000000000000000e+02 5.220000000000000000e+02 5.230000000000000000e+02 5.240000000000000000e+02 5.250000000000000000e+02 5.260000000000000000e+02 5.270000000000000000e+02 5.280000000000000000e+02 5.290000000000000000e+02 5.300000000000000000e+02 5.310000000000000000e+02 5.320000000000000000e+02 5.330000000000000000e+02 5.340000000000000000e+02 5.350000000000000000e+02 5.360000000000000000e+02 5.370000000000000000e+02 5.380000000000000000e+02 5.390000000000000000e+02 5.400000000000000000e+02 5.410000000000000000e+02 5.420000000000000000e+02 5.430000000000000000e+02 5.440000000000000000e+02 5.450000000000000000e+02 5.460000000000000000e+02 5.470000000000000000e+02 5.480000000000000000e+02 5.490000000000000000e+02 5.500000000000000000e+02 5.510000000000000000e+02 5.520000000000000000e+02 5.530000000000000000e+02 5.540000000000000000e+02 5.550000000000000000e+02 5.560000000000000000e+02 5.570000000000000000e+02 5.580000000000000000e+02 5.590000000000000000e+02 5.600000000000000000e+02 5.610000000000000000e+02 5.620000000000000000e+02 5.630000000000000000e+02 5.640000000000000000e+02 5.650000000000000000e+02 5.660000000000000000e+02 5.670000000000000000e+02 5.680000000000000000e+02 5.690000000000000000e+02 5.700000000000000000e+02 5.710000000000000000e+02 5.720000000000000000e+02 5.730000000000000000e+02 5.740000000000000000e+02 5.750000000000000000e+02 5.760000000000000000e+02 5.770000000000000000e+02 5.780000000000000000e+02 5.790000000000000000e+02 5.800000000000000000e+02 5.810000000000000000e+02 5.820000000000000000e+02 5.830000000000000000e+02 5.840000000000000000e+02 5.850000000000000000e+02 5.860000000000000000e+02 5.870000000000000000e+02 5.880000000000000000e+02 5.890000000000000000e+02 5.900000000000000000e+02 5.910000000000000000e+02 5.920000000000000000e+02 5.930000000000000000e+02 5.940000000000000000e+02 5.950000000000000000e+02 5.960000000000000000e+02 5.970000000000000000e+02 5.980000000000000000e+02 5.990000000000000000e+02 6.000000000000000000e+02 6.010000000000000000e+02 6.020000000000000000e+02 6.030000000000000000e+02 6.040000000000000000e+02 6.050000000000000000e+02 6.060000000000000000e+02 6.070000000000000000e+02 6.080000000000000000e+02 6.090000000000000000e+02 6.100000000000000000e+02 6.110000000000000000e+02 6.120000000000000000e+02 6.130000000000000000e+02 6.140000000000000000e+02 6.150000000000000000e+02 6.160000000000000000e+02 6.170000000000000000e+02 6.180000000000000000e+02 6.190000000000000000e+02 6.200000000000000000e+02 6.210000000000000000e+02 6.220000000000000000e+02 6.230000000000000000e+02 6.240000000000000000e+02 6.250000000000000000e+02 6.260000000000000000e+02 6.270000000000000000e+02 6.280000000000000000e+02 6.290000000000000000e+02 6.300000000000000000e+02 6.310000000000000000e+02 6.320000000000000000e+02 6.330000000000000000e+02 6.340000000000000000e+02 6.350000000000000000e+02 6.360000000000000000e+02 6.370000000000000000e+02 6.380000000000000000e+02 6.390000000000000000e+02 6.400000000000000000e+02 6.410000000000000000e+02 6.420000000000000000e+02 6.430000000000000000e+02 6.440000000000000000e+02 6.450000000000000000e+02 6.460000000000000000e+02 6.470000000000000000e+02 6.480000000000000000e+02 6.490000000000000000e+02 6.500000000000000000e+02 6.510000000000000000e+02 6.520000000000000000e+02 6.530000000000000000e+02 6.540000000000000000e+02 6.550000000000000000e+02 6.560000000000000000e+02 6.570000000000000000e+02 6.580000000000000000e+02 6.590000000000000000e+02 6.600000000000000000e+02 6.610000000000000000e+02 6.620000000000000000e+02 6.630000000000000000e+02 6.640000000000000000e+02 6.650000000000000000e+02 6.660000000000000000e+02 6.670000000000000000e+02 6.680000000000000000e+02 6.690000000000000000e+02 6.700000000000000000e+02 6.710000000000000000e+02 6.720000000000000000e+02 6.730000000000000000e+02 6.740000000000000000e+02 6.750000000000000000e+02 6.760000000000000000e+02 6.770000000000000000e+02 6.780000000000000000e+02 6.790000000000000000e+02 6.800000000000000000e+02 6.810000000000000000e+02 6.820000000000000000e+02 6.830000000000000000e+02 6.840000000000000000e+02 6.850000000000000000e+02 6.860000000000000000e+02 6.870000000000000000e+02 6.880000000000000000e+02 6.890000000000000000e+02 6.900000000000000000e+02 6.910000000000000000e+02 6.920000000000000000e+02 6.930000000000000000e+02 6.940000000000000000e+02 6.950000000000000000e+02 6.960000000000000000e+02 6.970000000000000000e+02 6.980000000000000000e+02 6.990000000000000000e+02 7.000000000000000000e+02 7.010000000000000000e+02 7.020000000000000000e+02 7.030000000000000000e+02 7.040000000000000000e+02 7.050000000000000000e+02 7.060000000000000000e+02 7.070000000000000000e+02 7.080000000000000000e+02 7.090000000000000000e+02 7.100000000000000000e+02 7.110000000000000000e+02 7.120000000000000000e+02 7.130000000000000000e+02 7.140000000000000000e+02 7.150000000000000000e+02 7.160000000000000000e+02 7.170000000000000000e+02 7.180000000000000000e+02 7.190000000000000000e+02 7.200000000000000000e+02 7.210000000000000000e+02 7.220000000000000000e+02 7.230000000000000000e+02 7.240000000000000000e+02 7.250000000000000000e+02 7.260000000000000000e+02 7.270000000000000000e+02 7.280000000000000000e+02 7.290000000000000000e+02 7.300000000000000000e+02 7.310000000000000000e+02 7.320000000000000000e+02 7.330000000000000000e+02 7.340000000000000000e+02 7.350000000000000000e+02 7.360000000000000000e+02 7.370000000000000000e+02 7.380000000000000000e+02 7.390000000000000000e+02 7.400000000000000000e+02 7.410000000000000000e+02 7.420000000000000000e+02 7.430000000000000000e+02 7.440000000000000000e+02 7.450000000000000000e+02 7.460000000000000000e+02 7.470000000000000000e+02 7.480000000000000000e+02 7.490000000000000000e+02 7.500000000000000000e+02 7.510000000000000000e+02 7.520000000000000000e+02 7.530000000000000000e+02 7.540000000000000000e+02 7.550000000000000000e+02 7.560000000000000000e+02 7.570000000000000000e+02 7.580000000000000000e+02 7.590000000000000000e+02 7.600000000000000000e+02 7.610000000000000000e+02 7.620000000000000000e+02 7.630000000000000000e+02 7.640000000000000000e+02 7.650000000000000000e+02 7.660000000000000000e+02 7.670000000000000000e+02 7.680000000000000000e+02 7.690000000000000000e+02 7.700000000000000000e+02 7.710000000000000000e+02 7.720000000000000000e+02 7.730000000000000000e+02 7.740000000000000000e+02 7.750000000000000000e+02 7.760000000000000000e+02 7.770000000000000000e+02 7.780000000000000000e+02 7.790000000000000000e+02 7.800000000000000000e+02 7.810000000000000000e+02 7.820000000000000000e+02 7.830000000000000000e+02 7.840000000000000000e+02 7.850000000000000000e+02 7.860000000000000000e+02 7.870000000000000000e+02 7.880000000000000000e+02 7.890000000000000000e+02 7.900000000000000000e+02 7.910000000000000000e+02 7.920000000000000000e+02 7.930000000000000000e+02 7.940000000000000000e+02 7.950000000000000000e+02 7.960000000000000000e+02 7.970000000000000000e+02 7.980000000000000000e+02 7.990000000000000000e+02 8.000000000000000000e+02 8.010000000000000000e+02 8.020000000000000000e+02 8.030000000000000000e+02 8.040000000000000000e+02 8.050000000000000000e+02 8.060000000000000000e+02 8.070000000000000000e+02 8.080000000000000000e+02 8.090000000000000000e+02 8.100000000000000000e+02 8.110000000000000000e+02 8.120000000000000000e+02 8.130000000000000000e+02 8.140000000000000000e+02 8.150000000000000000e+02 8.160000000000000000e+02 8.170000000000000000e+02 8.180000000000000000e+02 8.190000000000000000e+02 8.200000000000000000e+02 8.210000000000000000e+02 8.220000000000000000e+02 8.230000000000000000e+02 8.240000000000000000e+02 8.250000000000000000e+02 8.260000000000000000e+02 8.270000000000000000e+02 8.280000000000000000e+02 8.290000000000000000e+02 8.300000000000000000e+02 8.310000000000000000e+02 8.320000000000000000e+02 8.330000000000000000e+02 8.340000000000000000e+02 8.350000000000000000e+02 8.360000000000000000e+02 8.370000000000000000e+02 8.380000000000000000e+02 8.390000000000000000e+02 8.400000000000000000e+02 8.410000000000000000e+02 8.420000000000000000e+02 8.430000000000000000e+02 8.440000000000000000e+02 8.450000000000000000e+02 8.460000000000000000e+02 8.470000000000000000e+02 8.480000000000000000e+02 8.490000000000000000e+02 8.500000000000000000e+02 8.510000000000000000e+02 8.520000000000000000e+02 8.530000000000000000e+02 8.540000000000000000e+02 8.550000000000000000e+02 8.560000000000000000e+02 8.570000000000000000e+02 8.580000000000000000e+02 8.590000000000000000e+02 8.600000000000000000e+02 8.610000000000000000e+02 8.620000000000000000e+02 8.630000000000000000e+02 8.640000000000000000e+02 8.650000000000000000e+02 8.660000000000000000e+02 8.670000000000000000e+02 8.680000000000000000e+02 8.690000000000000000e+02 8.700000000000000000e+02 8.710000000000000000e+02 8.720000000000000000e+02 8.730000000000000000e+02 8.740000000000000000e+02 8.750000000000000000e+02 8.760000000000000000e+02 8.770000000000000000e+02 8.780000000000000000e+02 8.790000000000000000e+02 8.800000000000000000e+02 8.810000000000000000e+02 8.820000000000000000e+02 8.830000000000000000e+02 8.840000000000000000e+02 8.850000000000000000e+02 8.860000000000000000e+02 8.870000000000000000e+02 8.880000000000000000e+02 8.890000000000000000e+02 8.900000000000000000e+02 8.910000000000000000e+02 8.920000000000000000e+02 8.930000000000000000e+02 8.940000000000000000e+02 8.950000000000000000e+02 8.960000000000000000e+02 8.970000000000000000e+02 8.980000000000000000e+02 8.990000000000000000e+02 9.000000000000000000e+02 9.010000000000000000e+02 9.020000000000000000e+02 9.030000000000000000e+02 9.040000000000000000e+02 9.050000000000000000e+02 9.060000000000000000e+02 9.070000000000000000e+02 9.080000000000000000e+02 9.090000000000000000e+02 9.100000000000000000e+02 9.110000000000000000e+02 9.120000000000000000e+02 9.130000000000000000e+02 9.140000000000000000e+02 9.150000000000000000e+02 9.160000000000000000e+02 9.170000000000000000e+02 9.180000000000000000e+02 9.190000000000000000e+02 9.200000000000000000e+02 9.210000000000000000e+02 9.220000000000000000e+02 9.230000000000000000e+02 9.240000000000000000e+02 9.250000000000000000e+02 9.260000000000000000e+02 9.270000000000000000e+02 9.280000000000000000e+02 9.290000000000000000e+02 9.300000000000000000e+02 9.310000000000000000e+02 9.320000000000000000e+02 9.330000000000000000e+02 9.340000000000000000e+02 9.350000000000000000e+02 9.360000000000000000e+02 9.370000000000000000e+02 9.380000000000000000e+02 9.390000000000000000e+02 9.400000000000000000e+02 9.410000000000000000e+02 9.420000000000000000e+02 9.430000000000000000e+02 9.440000000000000000e+02 9.450000000000000000e+02 9.460000000000000000e+02 9.470000000000000000e+02 9.480000000000000000e+02 9.490000000000000000e+02 9.500000000000000000e+02 9.510000000000000000e+02 9.520000000000000000e+02 9.530000000000000000e+02 9.540000000000000000e+02 9.550000000000000000e+02 9.560000000000000000e+02 9.570000000000000000e+02 9.580000000000000000e+02 9.590000000000000000e+02 9.600000000000000000e+02 9.610000000000000000e+02 9.620000000000000000e+02 9.630000000000000000e+02 9.640000000000000000e+02 9.650000000000000000e+02 9.660000000000000000e+02 9.670000000000000000e+02 9.680000000000000000e+02 9.690000000000000000e+02 9.700000000000000000e+02 9.710000000000000000e+02 9.720000000000000000e+02 9.730000000000000000e+02 9.740000000000000000e+02 9.750000000000000000e+02 9.760000000000000000e+02 9.770000000000000000e+02 9.780000000000000000e+02 9.790000000000000000e+02 9.800000000000000000e+02 9.810000000000000000e+02 9.820000000000000000e+02 9.830000000000000000e+02 9.840000000000000000e+02 9.850000000000000000e+02 9.860000000000000000e+02 9.870000000000000000e+02 9.880000000000000000e+02 9.890000000000000000e+02 9.900000000000000000e+02 9.910000000000000000e+02 9.920000000000000000e+02 9.930000000000000000e+02 9.940000000000000000e+02 9.950000000000000000e+02 9.960000000000000000e+02 9.970000000000000000e+02 9.980000000000000000e+02 9.990000000000000000e+02
1.000000000000000000e+00 1.000000000000000000e+00 1.000000000000000000e+00 1.000000000000000000e+00 1.000000000000000000e+00 1.000000000000000000e+00 1.000000000000000000e+00 1.000000000000000000e+00 1.000000000000000000e+00 1.000000000000000000e+00 1.000000000000000000e+00 1.000000000000000000e+00 1.000000000000000000e+00 1.000000000000000000e+00 1.000000000000000000e+00 1.000000000000000000e+00 1.000000000000000000e+00 1.000000000000000000e+00 1.000000000000000000e+00 1.000000000000000000e+00 1.000000000000000000e+00 1.000000000000000000e+00 1.000000000000000000e+00 1.000000000000000000e+00 1.000000000000000000e+00 1.000000000000000000e+00 1.000000000000000000e+00 1.000000000000000000e+00 1.000000000000000000e+00 1.000000000000000000e+00 1.000000000000000000e+00 1.000000000000000000e+00 1.000000000000000000e+00 1.000000000000000000e+00 1.000000000000000000e+00 1.000000000000000000e+00 1.000000000000000000e+00 1.000000000000000000e+00 1.000000000000000000e+00 1.000000000000000000e+00 1.000000000000000000e+00 1.000000000000000000e+00 1.000000000000000000e+00 1.000000000000000000e+00 1.000000000000000000e+00 1.000000000000000000e+00 1.000000000000000000e+00 1.000000000000000000e+00 1.000000000000000000e+00 1.000000000000000000e+00 1.000000000000000000e+00 1.000000000000000000e+00 1.000000000000000000e+00 1.000000000000000000e+00 1.000000000000000000e+00 1.000000000000000000e+00 1.000000000000000000e+00 1.000000000000000000e+00 1.000000000000000000e+00 1.000000000000000000e+00 1.000000000000000000e+00 1.000000000000000000e+00 1.000000000000000000e+00 1.000000000000000000e+00 1.000000000000000000e+00 1.000000000000000000e+00 1.000000000000000000e+00 1.000000000000000000e+00 1.000000000000000000e+00 1.000000000000000000e+00 1.000000000000000000e+00 1.000000000000000000e+00 1.000000000000000000e+00 1.000000000000000000e+00 1.000000000000000000e+00 1.000000000000000000e+00 1.000000000000000000e+00 1.000000000000000000e+00 1.000000000000000000e+00 1.000000000000000000e+00 1.000000000000000000e+00 1.000000000000000000e+00 1.000000000000000000e+00 1.000000000000000000e+00 1.000000000000000000e+00 1.000000000000000000e+00 1.000000000000000000e+00 1.000000000000000000e+00 1.000000000000000000e+00 1.000000000000000000e+00 1.000000000000000000e+00 1.000000000000000000e+00 1.000000000000000000e+00 1.000000000000000000e+00 1.000000000000000000e+00 1.000000000000000000e+00 1.000000000000000000e+00 1.000000000000000000e+00 1.000000000000000000e+00 1.000000000000000000e+00 1.000000000000000000e+00 1.000000000000000000e+00 1.000000000000000000e+00 1.000000000000000000e+00 1.000000000000000000e+00 1.000000000000000000e+00 1.000000000000000000e+00 1.000000000000000000e+00 1.000000000000000000e+00 1.000000000000000000e+00 1.000000000000000000e+00 1.000000000000000000e+00 1.000000000000000000e+00 1.000000000000000000e+00 1.000000000000000000e+00 1.000000000000000000e+00 1.000000000000000000e+00 1.000000000000000000e+00 1.000000000000000000e+00 1.000000000000000000e+00 1.000000000000000000e+00 1.000000000000000000e+00 1.000000000000000000e+00 1.000000000000000000e+00 1.000000000000000000e+00 1.000000000000000000e+00 1.000000000000000000e+00 1.000000000000000000e+00 1.000000000000000000e+00 1.000000000000000000e+00 1.000000000000000000e+00 1.000000000000000000e+00 1.000000000000000000e+00 1.000000000000000000e+00 1.000000000000000000e+00 1.000000000000000000e+00 1.000000000000000000e+00 1.000000000000000000e+00 1.000000000000000000e+00 1.000000000000000000e+00 1.000000000000000000e+00 1.000000000000000000e+00 1.000000000000000000e+00 1.000000000000000000e+00 1.000000000000000000e+00 1.000000000000000000e+00 1.000000000000000000e+00 1.000000000000000000e+00 1.000000000000000000e+00 1.000000000000000000e+00 1.000000000000000000e+00 1.000000000000000000e+00 1.000000000000000000e+00 1.000000000000000000e+00 1.000000000000000000e+00 1.000000000000000000e+00 1.000000000000000000e+00 1.000000000000000000e+00 1.000000000000000000e+00 1.000000000000000000e+00 1.000000000000000000e+00 1.000000000000000000e+00 1.000000000000000000e+00 1.000000000000000000e+00 1.000000000000000000e+00 1.000000000000000000e+00 1.000000000000000000e+00 1.000000000000000000e+00 1.000000000000000000e+00 1.000000000000000000e+00 1.000000000000000000e+00 1.000000000000000000e+00 1.000000000000000000e+00 1.000000000000000000e+00 1.000000000000000000e+00 1.000000000000000000e+00 1.000000000000000000e+00 1.000000000000000000e+00 1.000000000000000000e+00 1.000000000000000000e+00 1.000000000000000000e+00 1.000000000000000000e+00 1.000000000000000000e+00 1.000000000000000000e+00 1.000000000000000000e+00 1.000000000000000000e+00 1.000000000000000000e+00 1.000000000000000000e+00 1.000000000000000000e+00 1.000000000000000000e+00 1.000000000000000000e+00 1.000000000000000000e+00 1.000000000000000000e+00 1.000000000000000000e+00 1.000000000000000000e+00 1.000000000000000000e+00 1.000000000000000000e+00 1.000000000000000000e+00 1.000000000000000000e+00 1.000000000000000000e+00 1.000000000000000000e+00 1.000000000000000000e+00 1.000000000000000000e+00 1.000000000000000000e+00 1.000000000000000000e+00 1.000000000000000000e+00 1.000000000000000000e+00 1.000000000000000000e+00 1.000000000000000000e+00 1.000000000000000000e+00 1.000000000000000000e+00 1.000000000000000000e+00 1.000000000000000000e+00 1.000000000000000000e+00 1.000000000000000000e+00 1.000000000000000000e+00 1.000000000000000000e+00 1.000000000000000000e+00 1.000000000000000000e+00 1.000000000000000000e+00 1.000000000000000000e+00 1.000000000000000000e+00 1.000000000000000000e+00 1.000000000000000000e+00 1.000000000000000000e+00 1.000000000000000000e+00 1.000000000000000000e+00 1.000000000000000000e+00 1.000000000000000000e+00 1.000000000000000000e+00 1.000000000000000000e+00 1.000000000000000000e+00 1.000000000000000000e+00 1.000000000000000000e+00 1.000000000000000000e+00 1.000000000000000000e+00 1.000000000000000000e+00 1.000000000000000000e+00 1.000000000000000000e+00 1.000000000000000000e+00 1.000000000000000000e+00 1.000000000000000000e+00 1.000000000000000000e+00 1.000000000000000000e+00 1.000000000000000000e+00 1.000000000000000000e+00 1.000000000000000000e+00 1.000000000000000000e+00 1.000000000000000000e+00 1.000000000000000000e+00 1.000000000000000000e+00 1.000000000000000000e+00 1.000000000000000000e+00 1.000000000000000000e+00 1.000000000000000000e+00 1.000000000000000000e+00 1.000000000000000000e+00 1.000000000000000000e+00 1.000000000000000000e+00 1.000000000000000000e+00 1.000000000000000000e+00 1.000000000000000000e+00 1.000000000000000000e+00 1.000000000000000000e+00 1.000000000000000000e+00 1.000000000000000000e+00 1.000000000000000000e+00 1.000000000000000000e+00 1.000000000000000000e+00 1.000000000000000000e+00 1.000000000000000000e+00 1.000000000000000000e+00 1.000000000000000000e+00 1.000000000000000000e+00 1.000000000000000000e+00 1.000000000000000000e+00 1.000000000000000000e+00 1.000000000000000000e+00 1.000000000000000000e+00 1.000000000000000000e+00 1.000000000000000000e+00 1.000000000000000000e+00 1.000000000000000000e+00 1.000000000000000000e+00 1.000000000000000000e+00 1.000000000000000000e+00 1.000000000000000000e+00 1.000000000000000000e+00 1.000000000000000000e+00 1.000000000000000000e+00 1.000000000000000000e+00 1.000000000000000000e+00 1.000000000000000000e+00 1.000000000000000000e+00 1.000000000000000000e+00 1.000000000000000000e+00 1.000000000000000000e+00 1.000000000000000000e+00 1.000000000000000000e+00 1.000000000000000000e+00 1.000000000000000000e+00 1.000000000000000000e+00 1.000000000000000000e+00 1.000000000000000000e+00 1.000000000000000000e+00 1.000000000000000000e+00 1.000000000000000000e+00 1.000000000000000000e+00 1.000000000000000000e+00 1.000000000000000000e+00 1.000000000000000000e+00 1.000000000000000000e+00 1.000000000000000000e+00 1.000000000000000000e+00 1.000000000000000000e+00 1.000000000000000000e+00 1.000000000000000000e+00 1.000000000000000000e+00 1.000000000000000000e+00 1.000000000000000000e+00 1.000000000000000000e+00 1.000000000000000000e+00 1.000000000000000000e+00 1.000000000000000000e+00 1.000000000000000000e+00 1.000000000000000000e+00 1.000000000000000000e+00 1.000000000000000000e+00 1.000000000000000000e+00 1.000000000000000000e+00 1.000000000000000000e+00 1.000000000000000000e+00 1.000000000000000000e+00 1.000000000000000000e+00 1.000000000000000000e+00 1.000000000000000000e+00 1.000000000000000000e+00 1.000000000000000000e+00 1.000000000000000000e+00 1.000000000000000000e+00 1.000000000000000000e+00 1.000000000000000000e+00 1.000000000000000000e+00 1.000000000000000000e+00 1.000000000000000000e+00 1.000000000000000000e+00 1.000000000000000000e+00 1.000000000000000000e+00 1.000000000000000000e+00 1.000000000000000000e+00 1.000000000000000000e+00 1.000000000000000000e+00 1.000000000000000000e+00 1.000000000000000000e+00 1.000000000000000000e+00 1.000000000000000000e+00 1.000000000000000000e+00 1.000000000000000000e+00 1.000000000000000000e+00 1.000000000000000000e+00 1.000000000000000000e+00 1.000000000000000000e+00 1.000000000000000000e+00 1.000000000000000000e+00 1.000000000000000000e+00 1.000000000000000000e+00 1.000000000000000000e+00 1.000000000000000000e+00 1.000000000000000000e+00 1.000000000000000000e+00 1.000000000000000000e+00 1.000000000000000000e+00 1.000000000000000000e+00 1.000000000000000000e+00 1.000000000000000000e+00 1.000000000000000000e+00 1.000000000000000000e+00 1.000000000000000000e+00 1.000000000000000000e+00 1.000000000000000000e+00 1.000000000000000000e+00 1.000000000000000000e+00 1.000000000000000000e+00 1.000000000000000000e+00 1.000000000000000000e+00 1.000000000000000000e+00 1.000000000000000000e+00 1.000000000000000000e+00 1.000000000000000000e+00 1.000000000000000000e+00 1.000000000000000000e+00 1.000000000000000000e+00 1.000000000000000000e+00 1.000000000000000000e+00 1.000000000000000000e+00 1.000000000000000000e+00 1.000000000000000000e+00 1.000000000000000000e+00 1.000000000000000000e+00 1.000000000000000000e+00 1.000000000000000000e+00 1.000000000000000000e+00 1.000000000000000000e+00 1.000000000000000000e+00 1.000000000000000000e+00 1.000000000000000000e+00 1.000000000000000000e+00 1.000000000000000000e+00 1.000000000000000000e+00 1.000000000000000000e+00 1.000000000000000000e+00 1.000000000000000000e+00 1.000000000000000000e+00 1.000000000000000000e+00 1.000000000000000000e+00 1.000000000000000000e+00 1.000000000000000000e+00 1.000000000000000000e+00 1.000000000000000000e+00 1.000000000000000000e+00 1.000000000000000000e+00 1.000000000000000000e+00 1.000000000000000000e+00 1.000000000000000000e+00 1.000000000000000000e+00 1.000000000000000000e+00 1.000000000000000000e+00 1.000000000000000000e+00 1.000000000000000000e+00 1.000000000000000000e+00 1.000000000000000000e+00 1.000000000000000000e+00 1.000000000000000000e+00 1.000000000000000000e+00 1.000000000000000000e+00 1.000000000000000000e+00 1.000000000000000000e+00 1.000000000000000000e+00 1.000000000000000000e+00 1.000000000000000000e+00 1.000000000000000000e+00 1.000000000000000000e+00 1.000000000000000000e+00 1.000000000000000000e+00 1.000000000000000000e+00 1.000000000000000000e+00 1.000000000000000000e+00 1.000000000000000000e+00 1.000000000000000000e+00 1.000000000000000000e+00 1.000000000000000000e+00 1.000000000000000000e+00 1.000000000000000000e+00 1.000000000000000000e+00 1.000000000000000000e+00 1.000000000000000000e+00 1.000000000000000000e+00 1.000000000000000000e+00 1.000000000000000000e+00 1.000000000000000000e+00 1.000000000000000000e+00 1.000000000000000000e+00 1.000000000000000000e+00 1.000000000000000000e+00 1.000000000000000000e+00 1.000000000000000000e+00 1.000000000000000000e+00 1.000000000000000000e+00 1.000000000000000000e+00 1.000000000000000000e+00 1.000000000000000000e+00 1.000000000000000000e+00 1.000000000000000000e+00 1.000000000000000000e+00 1.000000000000000000e+00 1.000000000000000000e+00 1.000000000000000000e+00 1.000000000000000000e+00 1.000000000000000000e+00 1.000000000000000000e+00 1.000000000000000000e+00 1.000000000000000000e+00 1.000000000000000000e+00 1.000000000000000000e+00 1.000000000000000000e+00 1.000000000000000000e+00 1.000000000000000000e+00 1.000000000000000000e+00 1.000000000000000000e+00 1.000000000000000000e+00 1.000000000000000000e+00 1.000000000000000000e+00 1.000000000000000000e+00 1.000000000000000000e+00 1.000000000000000000e+00 1.000000000000000000e+00 1.000000000000000000e+00 1.000000000000000000e+00 1.000000000000000000e+00 1.000000000000000000e+00 1.000000000000000000e+00 1.000000000000000000e+00 1.000000000000000000e+00 1.000000000000000000e+00 1.000000000000000000e+00 1.000000000000000000e+00 1.000000000000000000e+00 1.000000000000000000e+00 1.000000000000000000e+00 1.000000000000000000e+00 1.000000000000000000e+00 1.000000000000000000e+00 1.000000000000000000e+00 1.000000000000000000e+00 1.000000000000000000e+00 1.000000000000000000e+00 1.000000000000000000e+00 1.000000000000000000e+00 1.000000000000000000e+00 1.000000000000000000e+00 1.000000000000000000e+00 1.000000000000000000e+00 1.000000000000000000e+00 1.000000000000000000e+00 1.000000000000000000e+00 1.000000000000000000e+00 1.000000000000000000e+00 1.000000000000000000e+00 1.000000000000000000e+00 1.000000000000000000e+00 1.000000000000000000e+00 1.000000000000000000e+00 1.000000000000000000e+00 1.000000000000000000e+00 1.000000000000000000e+00 1.000000000000000000e+00 1.000000000000000000e+00 1.000000000000000000e+00 1.000000000000000000e+00 1.000000000000000000e+00 1.000000000000000000e+00 1.000000000000000000e+00 1.000000000000000000e+00 1.000000000000000000e+00 1.000000000000000000e+00 1.000000000000000000e+00 1.000000000000000000e+00 1.000000000000000000e+00 1.000000000000000000e+00 1.000000000000000000e+00 1.000000000000000000e+00 1.000000000000000000e+00 1.000000000000000000e+00 1.000000000000000000e+00 1.000000000000000000e+00 1.000000000000000000e+00 1.000000000000000000e+00 1.000000000000000000e+00 1.000000000000000000e+00 1.000000000000000000e+00 1.000000000000000000e+00 1.000000000000000000e+00 1.000000000000000000e+00 1.000000000000000000e+00 1.000000000000000000e+00 1.000000000000000000e+00 1.000000000000000000e+00 1.000000000000000000e+00 1.000000000000000000e+00 1.000000000000000000e+00 1.000000000000000000e+00 1.000000000000000000e+00 1.000000000000000000e+00 1.000000000000000000e+00 1.000000000000000000e+00 1.000000000000000000e+00 1.000000000000000000e+00 1.000000000000000000e+00 1.000000000000000000e+00 1.000000000000000000e+00 1.000000000000000000e+00 1.000000000000000000e+00 1.000000000000000000e+00 1.000000000000000000e+00 1.000000000000000000e+00 1.000000000000000000e+00 1.000000000000000000e+00 1.000000000000000000e+00 1.000000000000000000e+00 1.000000000000000000e+00 1.000000000000000000e+00 1.000000000000000000e+00 1.000000000000000000e+00 1.000000000000000000e+00 1.000000000000000000e+00 1.000000000000000000e+00 1.000000000000000000e+00 1.000000000000000000e+00 1.000000000000000000e+00 1.000000000000000000e+00 1.000000000000000000e+00 1.000000000000000000e+00 1.000000000000000000e+00 1.000000000000000000e+00 1.000000000000000000e+00 1.000000000000000000e+00 1.000000000000000000e+00 1.000000000000000000e+00 1.000000000000000000e+00 1.000000000000000000e+00 1.000000000000000000e+00 1.000000000000000000e+00 1.000000000000000000e+00 1.000000000000000000e+00 1.000000000000000000e+00 1.000000000000000000e+00 1.000000000000000000e+00 1.000000000000000000e+00 1.000000000000000000e+00 1.000000000000000000e+00 1.000000000000000000e+00 1.000000000000000000e+00 1.000000000000000000e+00 1.000000000000000000e+00 1.000000000000000000e+00 1.000000000000000000e+00 1.000000000000000000e+00 1.000000000000000000e+00 1.000000000000000000e+00 1.000000000000000000e+00 1.000000000000000000e+00 1.000000000000000000e+00 1.000000000000000000e+00 1.000000000000000000e+00 1.000000000000000000e+00 1.000000000000000000e+00 1.000000000000000000e+00 1.000000000000000000e+00 1.000000000000000000e+00 1.000000000000000000e+00 1.000000000000000000e+00 1.000000000000000000e+00 1.000000000000000000e+00 1.000000000000000000e+00 1.000000000000000000e+00 1.000000000000000000e+00 1.000000000000000000e+00 1.000000000000000000e+00 1.000000000000000000e+00 1.000000000000000000e+00 1.000000000000000000e+00 1.000000000000000000e+00 1.000000000000000000e+00 1.000000000000000000e+00 1.000000000000000000e+00 1.000000000000000000e+00 1.000000000000000000e+00 1.000000000000000000e+00 1.000000000000000000e+00 1.000000000000000000e+00 1.000000000000000000e+00 1.000000000000000000e+00 1.000000000000000000e+00 1.000000000000000000e+00 1.000000000000000000e+00 1.000000000000000000e+00 1.000000000000000000e+00 1.000000000000000000e+00 1.000000000000000000e+00 1.000000000000000000e+00 1.000000000000000000e+00 1.000000000000000000e+00 1.000000000000000000e+00 1.000000000000000000e+00 1.000000000000000000e+00 1.000000000000000000e+00 1.000000000000000000e+00 1.000000000000000000e+00 1.000000000000000000e+00 1.000000000000000000e+00 1.000000000000000000e+00 1.000000000000000000e+00 1.000000000000000000e+00 1.000000000000000000e+00 1.000000000000000000e+00 1.000000000000000000e+00 1.000000000000000000e+00 1.000000000000000000e+00 1.000000000000000000e+00 1.000000000000000000e+00 1.000000000000000000e+00 1.000000000000000000e+00 1.000000000000000000e+00 1.000000000000000000e+00 1.000000000000000000e+00 1.000000000000000000e+00 1.000000000000000000e+00 1.000000000000000000e+00 1.000000000000000000e+00 1.000000000000000000e+00 1.000000000000000000e+00 1.000000000000000000e+00 1.000000000000000000e+00 1.000000000000000000e+00 1.000000000000000000e+00 1.000000000000000000e+00 1.000000000000000000e+00 1.000000000000000000e+00 1.000000000000000000e+00 1.000000000000000000e+00 1.000000000000000000e+00 1.000000000000000000e+00 1.000000000000000000e+00 1.000000000000000000e+00 1.000000000000000000e+00 1.000000000000000000e+00 1.000000000000000000e+00 1.000000000000000000e+00 1.000000000000000000e+00 1.000000000000000000e+00 1.000000000000000000e+00 1.000000000000000000e+00 1.000000000000000000e+00 1.000000000000000000e+00 1.000000000000000000e+00 1.000000000000000000e+00 1.000000000000000000e+00 1.000000000000000000e+00 1.000000000000000000e+00 1.000000000000000000e+00 1.000000000000000000e+00 1.000000000000000000e+00 1.000000000000000000e+00 1.000000000000000000e+00 1.000000000000000000e+00 1.000000000000000000e+00 1.000000000000000000e+00 1.000000000000000000e+00 1.000000000000000000e+00 1.000000000000000000e+00 1.000000000000000000e+00 1.000000000000000000e+00 1.000000000000000000e+00 1.000000000000000000e+00 1.000000000000000000e+00 1.000000000000000000e+00 1.000000000000000000e+00 1.000000000000000000e+00 1.000000000000000000e+00 1.000000000000000000e+00 1.000000000000000000e+00 1.000000000000000000e+00 1.000000000000000000e+00 1.000000000000000000e+00 1.000000000000000000e+00 1.000000000000000000e+00 1.000000000000000000e+00 1.000000000000000000e+00 1.000000000000000000e+00 1.000000000000000000e+00 1.000000000000000000e+00 1.000000000000000000e+00 1.000000000000000000e+00 1.000000000000000000e+00 1.000000000000000000e+00 1.000000000000000000e+00 1.000000000000000000e+00 1.000000000000000000e+00 1.000000000000000000e+00 1.000000000000000000e+00 1.000000000000000000e+00 1.000000000000000000e+00 1.000000000000000000e+00 1.000000000000000000e+00 1.000000000000000000e+00 1.000000000000000000e+00 1.000000000000000000e+00 1.000000000000000000e+00 1.000000000000000000e+00 1.000000000000000000e+00 1.000000000000000000e+00 1.000000000000000000e+00 1.000000000000000000e+00 1.000000000000000000e+00 1.000000000000000000e+00 1.000000000000000000e+00 1.000000000000000000e+00 1.000000000000000000e+00 1.000000000000000000e+00 1.000000000000000000e+00 1.000000000000000000e+00 1.000000000000000000e+00 1.000000000000000000e+00 1.000000000000000000e+00 1.000000000000000000e+00 1.000000000000000000e+00 1.000000000000000000e+00 1.000000000000000000e+00 1.000000000000000000e+00 1.000000000000000000e+00 1.000000000000000000e+00 1.000000000000000000e+00 1.000000000000000000e+00 1.000000000000000000e+00 1.000000000000000000e+00 1.000000000000000000e+00 1.000000000000000000e+00 1.000000000000000000e+00 1.000000000000000000e+00 1.000000000000000000e+00 1.000000000000000000e+00 1.000000000000000000e+00 1.000000000000000000e+00 1.000000000000000000e+00 1.000000000000000000e+00 1.000000000000000000e+00 1.000000000000000000e+00 1.000000000000000000e+00 1.000000000000000000e+00 1.000000000000000000e+00 1.000000000000000000e+00 1.000000000000000000e+00 1.000000000000000000e+00 1.000000000000000000e+00 1.000000000000000000e+00 1.000000000000000000e+00 1.000000000000000000e+00 1.000000000000000000e+00 1.000000000000000000e+00 1.000000000000000000e+00 1.000000000000000000e+00 1.000000000000000000e+00 1.000000000000000000e+00 1.000000000000000000e+00 1.000000000000000000e+00 1.000000000000000000e+00 1.000000000000000000e+00 1.000000000000000000e+00 1.000000000000000000e+00 1.000000000000000000e+00 1.000000000000000000e+00 1.000000000000000000e+00 1.000000000000000000e+00 1.000000000000000000e+00 1.000000000000000000e+00 1.000000000000000000e+00 1.000000000000000000e+00 1.000000000000000000e+00 1.000000000000000000e+00 1.000000000000000000e+00 1.000000000000000000e+00 1.000000000000000000e+00 1.000000000000000000e+00 1.000000000000000000e+00 1.000000000000000000e+00 1.000000000000000000e+00 1.000000000000000000e+00 1.000000000000000000e+00 1.000000000000000000e+00 1.000000000000000000e+00 1.000000000000000000e+00 1.000000000000000000e+00 1.000000000000000000e+00 1.000000000000000000e+00 1.000000000000000000e+00 1.000000000000000000e+00 1.000000000000000000e+00 1.000000000000000000e+00 1.000000000000000000e+00 1.000000000000000000e+00 1.000000000000000000e+00 1.000000000000000000e+00 1.000000000000000000e+00 1.000000000000000000e+00 1.000000000000000000e+00 1.000000000000000000e+00 1.000000000000000000e+00 1.000000000000000000e+00 1.000000000000000000e+00 1.000000000000000000e+00 1.000000000000000000e+00 1.000000000000000000e+00 1.000000000000000000e+00 1.000000000000000000e+00 1.000000000000000000e+00 1.000000000000000000e+00 1.000000000000000000e+00 1.000000000000000000e+00 1.000000000000000000e+00 1.000000000000000000e+00 1.000000000000000000e+00 1.000000000000000000e+00 1.000000000000000000e+00 1.000000000000000000e+00 1.000000000000000000e+00 1.000000000000000000e+00 1.000000000000000000e+00 1.000000000000000000e+00 1.000000000000000000e+00 1.000000000000000000e+00 1.000000000000000000e+00 1.000000000000000000e+00 1.000000000000000000e+00 1.000000000000000000e+00 1.000000000000000000e+00 1.000000000000000000e+00 1.000000000000000000e+00 1.000000000000000000e+00 1.000000000000000000e+00 1.000000000000000000e+00 1.000000000000000000e+00 1.000000000000000000e+00 1.000000000000000000e+00 1.000000000000000000e+00 1.000000000000000000e+00 1.000000000000000000e+00 1.000000000000000000e+00 1.000000000000000000e+00 1.000000000000000000e+00 1.000000000000000000e+00 1.000000000000000000e+00 1.000000000000000000e+00 1.000000000000000000e+00 1.000000000000000000e+00 1.000000000000000000e+00 1.000000000000000000e+00 1.000000000000000000e+00 1.000000000000000000e+00 1.000000000000000000e+00 1.000000000000000000e+00 1.000000000000000000e+00 1.000000000000000000e+00 1.000000000000000000e+00 1.000000000000000000e+00 1.000000000000000000e+00 1.000000000000000000e+00 1.000000000000000000e+00 1.000000000000000000e+00 1.000000000000000000e+00 1.000000000000000000e+00 1.000000000000000000e+00 1.000000000000000000e+00 1.000000000000000000e+00 1.000000000000000000e+00 1.000000000000000000e+00 1.000000000000000000e+00 1.000000000000000000e+00 1.000000000000000000e+00 1.000000000000000000e+00 1.000000000000000000e+00 1.000000000000000000e+00 1.000000000000000000e+00 1.000000000000000000e+00 1.000000000000000000e+00 1.000000000000000000e+00 1.000000000000000000e+00 1.000000000000000000e+00 1.000000000000000000e+00 1.000000000000000000e+00 1.000000000000000000e+00 1.000000000000000000e+00 1.000000000000000000e+00 1.000000000000000000e+00 1.000000000000000000e+00 1.000000000000000000e+00 1.000000000000000000e+00 1.000000000000000000e+00 1.000000000000000000e+00 1.000000000000000000e+00 1.000000000000000000e+00 1.000000000000000000e+00 1.000000000000000000e+00 1.000000000000000000e+00 1.000000000000000000e+00 1.000000000000000000e+00 1.000000000000000000e+00 1.000000000000000000e+00 1.000000000000000000e+00 1.000000000000000000e+00 1.000000000000000000e+00 1.000000000000000000e+00 1.000000000000000000e+00 1.000000000000000000e+00 1.000000000000000000e+00 1.000000000000000000e+00 1.000000000000000000e+00 1.000000000000000000e+00 1.000000000000000000e+00 1.000000000000000000e+00 1.000000000000000000e+00 1.000000000000000000e+00 1.000000000000000000e+00 1.000000000000000000e+00 1.000000000000000000e+00 1.000000000000000000e+00 1.000000000000000000e+00 1.000000000000000000e+00 1.000000000000000000e+00 1.000000000000000000e+00 1.000000000000000000e+00
1.303087456318209429e-02 5.176866645917782561e-01 3.762622635371519753e-01 4.629547018351202747e-01 5.050023118956711299e-01 5.167070431136365771e-01 7.770802450384752813e-01 1.881556178267337343e-01 4.938157836537741541e-01 4.946783878318349870e-01 1.040018561872846359e+00 -4.533906108560352144e-01 1.262984700688624340e+00 5.100390608402686210e-01 5.216603163213791028e-01 7.908957467783588324e-01 1.009393354285780697e+00 7.563897333365456888e-01 1.894006907126586647e-01 4.972978172632696592e-01 4.384405405956558477e-01 9.119799361084585110e-01 6.174676902785387611e-01 4.545874053523873970e-01 5.023690524837496341e-01 7.663814075871353548e-01 3.852200461898968586e-01 6.403882230785246099e-01 4.936840545635825528e-01 1.197385588407334334e+00 5.493982244413726512e-01 3.297371532210444101e-01 7.702120801393502747e-01 4.982882466040635117e-01 7.561479703133445751e-01 4.974523421993802819e-01 5.593351171940053046e-01 1.295646335850194397e+00 3.739181978436656451e-02 5.003976634326139372e-01 1.920326235381837054e-01 -4.899903459977752451e-01 7.568751459595002284e-01 1.944363690431953062e-01 2.279567681737084961e-01 6.090357356984414938e-01 4.629605730976850131e-01 4.998574333120247015e-01 5.104690002632599199e-01 1.157557265290776530e-02 7.915363238672212115e-03 5.935199302634304175e-01 5.855974542696545937e-01 4.364485191115993201e-01 5.090420823006640560e-01 -1.912291306596267809e-02 5.522397448315762292e-01 4.869826967557630559e-01 1.560369594531041681e-01 5.015569304922595784e-01 8.319374144099839219e-01 4.924758999239872148e-01 5.151740241037684465e-01 6.174671403133307201e-01 6.622170575244707980e-01 5.334847214890694467e-01 5.045194906079916164e-01 6.304815596453844373e-01 5.786163413790277321e-01 -7.670692721183144241e-04 5.788775884704918662e-01 4.794431903211212043e-01 5.129611183194893176e-01 8.667540818886189380e-03 1.367496130554296530e+00 5.245691953987162703e-01 6.091461538325644298e-01 7.884663909601128395e-01 5.031734734380489682e-01 1.328042784644349883e+00 5.457155668969825291e-01 1.569001374562832007e-01 1.083295931896729014e+00 4.517860037363352066e-01 4.362734098815244654e-01 7.515780817286631388e-01 8.493542721094484715e-01 5.172095073520568409e-01 3.386254737168407081e-01 5.699363166028960093e-01 2.361204701597335864e-01 1.775013155468026627e+00 4.757116305393842004e-01 -6.069990734503802332e-02 4.698835310308898117e-01 5.275951880818325890e-01 4.872810255144458536e-01 4.462873332862992704e-01 2.084358754805328284e-01 7.571137112457189122e-01 1.261768907008222085e+00 6.036131246936597972e-01 4.849715902896469255e-01 1.057954611828490599e+00 3.675025473450281854e-01 -1.522170460811111070e+00 -9.836978199010939505e-01 5.649894334696895504e-01 5.125747203448051126e-01 9.582024895173980594e-01 5.267387072579567953e-01 4.729221578809906235e-01 5.685705005904357900e-01 5.507297563112281136e-01 4.785805015504888682e-01 7.005975448840551234e-01 3.792628512220470594e-01 6.553352343560815418e-01 4.875767990587694389e-01 4.825760882103727334e-01 1.190538846538959694e+00 3.887270827465474365e-01 4.612490734841340756e-01 3.596952515152528340e-01 5.059229436154814019e-01 1.724084324706929516e+00 5.241657849098202426e-01 4.444336422382623164e-01 5.643413448693509471e-01 5.059554841289416460e-01 5.021240956709148717e-01 5.150804987227474152e-01 3.988539734871702769e-01 9.022652051794648187e-02 5.792475225547693007e-01 -9.154945363243865986e-02 5.267789284043679077e-01 2.604626145898893824e-02 9.230013785700652562e-01 5.017131010231017374e-01 4.965537803997892574e-01 7.732724121982327281e-01 4.919385944544246159e-01 3.981302862986304536e-01 5.017435797036755574e-01 4.142014399312551193e-02 4.626588997159999384e-01 4.995428690901588253e-01 5.159855227018095292e-01 -6.288024118560477937e-01 7.338767714616257765e-01 -2.412437673608900934e-01 6.090309944664522579e-01 5.216748533190437298e-01 7.879800080639526305e-01 4.922817551289241922e-01 1.284155697864075574e+00 3.399194322079691633e-01 8.110024530506295681e-01 7.770796056866234869e-01 5.260270698821818414e-01 5.936230115356014858e-01 5.246287156566415977e-01 5.034191728519613607e-01 1.139209057370083933e+00 -7.208602748726439247e-02 7.653291201194547533e-01 4.793192197665778753e-01 5.212794179720492416e-01 6.030680487083296404e-01 4.239542244599761034e-01 4.622160375178192004e-01 6.087999003163344636e-01 5.000369032042482065e-01 4.196538101851072233e-01 5.422381748268175622e-02 1.311361746176190890e-01 3.284971285485625142e-02 6.635850516062946625e-01 1.100091672840501245e+00 6.596856479068073931e-01 4.904228838283519187e-01 -2.326724842999180476e-01 3.364049596924745256e-01 5.543212116219944363e-01 4.831819294643777130e-01 4.976072789004952202e-01 4.958504617350948940e-01 2.215282658699939233e+00 7.969381258522816314e-01 5.651645962609144203e-01 -5.891182198058789732e-01 5.067898699406921947e-01 5.593289356716971694e-01 1.228437240335369385e-01 5.257689321736966903e-01 8.484581833358399994e-01 5.003758003275062816e-01 6.687682585976535421e-01 5.236753335212486204e-01 3.542052007430000482e-01 4.955872879430856526e-01 1.082989075169376036e+00 5.823533929677412457e-01 5.427638579305934519e-01 6.687683083637210313e-01 4.946386303261743334e-01 1.185800802633626638e+00 5.048709653608529635e-01 5.657443010618448120e-01 4.246850495315957486e-01 4.760320201806281931e-02 5.116346115044264620e-01 2.522734873703652569e-01 4.973387921823503866e-01 5.099728326072403561e-01 4.938974996172316723e-01 5.018358823971340588e-01 5.190083497307795835e-01 4.879821124043672298e-01 5.232861907795920420e-01 3.081414449515704757e-01 -5.482109624670667980e-01 4.210090734011152636e-01 2.451207232980982254e-01 5.704038362958635533e-01 5.661929370748038925e-01 9.904267628846633587e-01 8.609573301342030582e-01 7.305005234141251913e-01 -1.110643857494637149e-01 9.636846458444450203e-01 5.034848203983143256e-01 6.494544917595680422e-01 2.876274807904911218e-04 4.640618656986795765e-01 4.871461935817363864e-01 3.283028709081909358e-01 -6.918732655777193319e-02 -1.981588999190067313e-01 2.975763085981527056e-01 5.322510825045024818e-01 -1.689468510671857104e-02 4.717218938520084115e-01 5.176162156653802970e-01 9.426959182399052839e-01 -1.216090807786875255e-01 5.862006190892753432e-01 -1.572760792478611114e+00 5.760315417498116375e-01 -5.912184875494080200e-02 5.676744883927967722e-01 4.728088851362169387e-01 6.174661395089015015e-01 5.461302459394725695e-01 5.122104133118055014e-01 4.996082814471328737e-01 4.957943569547972884e-01 6.128419552724051478e-01 1.571598857561574913e+00 5.343422791425155305e-01 5.877627652705068595e-01 5.607811551962087471e-01 8.039626707871814215e-01 8.319280751610683700e-01 3.974934870324591807e-01 2.185838939211869114e+00 4.673147558883030683e-01 3.240548637407127952e-01 6.197530388327321393e-01 4.911473098056269304e-01 8.297963382670067167e-01 4.937197091750396560e-01 5.188262389886020287e-01 4.916788781926234031e-01 6.842700506742568356e-01 3.370558454044076946e-01 8.873266873325532655e-01 8.427879356143275213e-01 -3.379934673371728232e-02 6.345140362107690724e-01 4.766456473487891699e-01 5.028738373763618208e-01 -5.100024430571284961e-01 3.558845668180191657e-01 8.761014994303216730e-01 6.071592589128674833e-01 5.113484970556936293e-01 7.005975058998197280e-01 6.246500094687402749e-01 5.201462089904833608e-01 -1.643948335150962059e-01 4.265095397634821595e-01 5.174416714738775402e-01 1.199982717647738589e-03 4.913040422714665678e-01 1.736249735135442673e+00 6.828149559283033243e-01 4.935334840609577611e-01 5.160055759934510933e-01 -2.711719640071077908e+00 5.382905569165078452e-01 1.809938494209724080e+00 4.629709398583366498e-01 4.703680358994041244e-01 -5.866565223073483271e-01 4.982358032208933918e-01 5.190256986303843911e-01 8.039888766255430808e-01 5.462953773357485110e-01 6.069836158720307573e-01 5.826759787094454301e-01 3.227617774686351582e-01 4.820834943182906729e-01 4.943623518774156733e-01 4.781179963604525462e-01 5.050176411414680766e-01 4.618788098929607622e-01 4.988703124190270177e-01 1.088941340285276338e+00 1.821105096540924853e-02 2.036853137305553840e+00 2.267125860334605392e+00 3.424745850706337191e-01 -4.463163100481870593e-02 4.624551418615651110e-01 5.298019329402658961e-01 6.202017515779078005e-01 1.217812822077771751e+00 5.612867464854766064e-01 1.041953433389357864e+00 5.097919516189517442e-01 2.259971389229834815e-01 1.195954260848978601e+00 6.693726869023978177e-01 5.235185106113174891e-01 4.797731490743881722e-01 3.696211695867639979e-01 -2.733419895934314336e+00 1.424129639390093516e+00 5.105739228244349226e-01 6.534909934589387959e-01 4.902936930373135160e-01 1.295646335322054865e+00 3.749011275046009728e-01 4.667550282841678166e-01 2.572808833205409984e-01 6.132056806633241486e-01 1.393245148996330451e+00 6.604407966559180387e-01 6.687682316702281415e-01 4.717262277163337680e-01 5.823533871961094066e-01 6.203768309765059774e-01 4.886342330225575403e-01 7.814531937102796588e-01 5.035197921391011411e-01 5.279549482262053672e-01 5.825665658102860966e-01 4.684605692223798856e-01 4.970632969704392168e-01 4.448282875000706960e-01 4.667552840244125756e-01 4.082561489543541922e-01 5.023230356539328811e-01 4.502989886807007291e-01 1.094852300036311732e+00 9.605408599369714695e-01 5.041601239534766465e-01 5.466165451181846935e-01 8.338460182427359646e-01 -9.780332430036360603e-02 8.954640879441913004e-01 5.671584227426671454e-01 1.256924257568728040e-02 5.788159383538142855e-01 1.145140941050040384e+00 5.185841257101934110e-01 5.887672102308724176e-01 2.359301478267598895e-01 -2.737427301718039496e-01 -1.983945430110262587e+00 5.389536513058900136e-01 5.823533929675436260e-01 5.823533929677412457e-01 5.126560279326410896e-01 6.023062837228592148e-01 -7.183581832501004238e-02 5.096591457956156646e-01 5.048387890825585256e-01 1.756408318574916028e-01 4.979161455394197078e-01 1.146972718046559203e+00 6.687683262489663161e-01 4.959505051452018920e-01 5.080594404830250932e-01 5.462032434819954485e-01 5.674266124038249703e-01 5.241856143831044035e-01 4.911103777839061491e-01 4.027110346845073630e-01 2.912344832514351389e-01 2.206864050503897293e-03 5.823533929108528628e-01 6.072510011326988089e-01 4.962561399999023126e-01 8.157254097078133759e-01 8.189910399437819732e-01 5.664052804174808387e-01 5.560592684184353374e-01 1.371613283525257465e+00 5.014899709660434191e-01 -2.101056890377785979e+00 4.619974747217384103e-01 1.334103344229565336e+00 5.419884140923654225e-01 -7.278470238429423089e-01 4.776257415932452788e-01 4.310244892540019412e-01 4.129361220604035876e-01 4.990520344645655859e-01 4.915065731944975869e-01 5.236336455787961031e-01 1.007520474874056493e+00 5.918320288317309164e-01 4.318692231442558538e-02 5.211646518037967857e-01 5.112838123387319911e-01 7.136452472834362570e-01 4.900556063289918662e-01 7.685004623944651225e-01 -2.565623468552148401e-01 4.752462909789405554e-01 4.974311456021193179e-01 3.772516946236862401e-01 5.055245540693509287e-01 7.384316295622553872e-01 4.996019152747066538e-01 4.211454194702871079e-01 9.521199349579423377e-01 5.231382935577973958e-01 4.640939057634169140e-01 1.065890376031406045e-01 1.357471711124013658e-01 8.752398803593662846e-01 5.037400548232288111e-01 2.730686702142959721e+00 6.302117368530821828e-01 3.535549646440637184e-01 5.939024681213657120e-01 7.795129440668672194e-01 1.681198045698444749e-02 5.099194939142632776e-01 4.285496313072878483e-01 5.121885462319446525e-01 1.138082062648715587e+00 7.382856349130829665e-01 4.962230202861608319e-01 5.437537237049581140e-01 1.033086300999328522e+00 4.900951617222281120e-01 5.202832714664543667e-01 5.009681958423169990e-01 5.294007179513497974e-01 4.982339801527982392e-01 7.962601507174347226e-01 5.174304732335364143e-01 4.955759141557707359e-01 1.556015468941321714e-02 4.986117151914107315e-01 -1.257523445114862477e-03 5.383280079195870149e-01 5.084211725600265019e-01 5.007048843738189925e-01 7.168478834610377826e-01 5.294980074175165141e-01 5.859409358779508192e-01 9.454248849445658076e-04 4.824989470109569134e-01 5.008413697251223873e-01 3.861920833284016030e-01 8.552665429489078944e-03 4.925956482268162850e-01 6.000088268168274341e-01 4.940293621195520624e-01 6.224552669127326743e-01 1.058629979088550055e+00 5.563499059794076995e-01 4.907152511050264510e-01 5.832040641845788187e-01 3.798540822018968144e-01 4.606816704086800218e-01 9.152121785202286253e-01 3.267080586021222088e-01 6.370810496045450355e-01 6.080769710835621789e-01 1.710337104178328405e+00 6.027461843606605196e-01 5.939920528885654916e-01 4.830673716499619963e-01 4.264091749425483746e-01 5.375390870110933195e-01 6.043629428871311049e-01 -4.558886166935482986e-01 6.081401912951128752e-01 6.427512424911814293e-01 5.798803879669983674e-01 5.474015073867897208e-01 -3.861282978209480410e-01 4.115352099898211269e-01 5.069727883176362582e-01 5.612215031299898627e-01 6.241587662246057544e-01 7.545253875213637773e-01 5.038985595784235549e-01 5.329094902892250740e-01 -4.220633815579148962e-01 5.218039507991266701e-01 1.002766358970638594e+00 5.081990312687353351e-01 1.297625448271015614e-01 5.457404332203991126e-01 -4.544461617947362919e-01 5.465143189812508018e-01 6.865089257878690399e-01 1.013085900602863632e+00 8.273045892234658361e-01 5.033782005306626228e-01 4.607453151459358076e-01 1.898892831892163291e-01 4.626981901600035751e-01 4.840201451447719294e-01 6.320173799417854177e-01 2.215679650989351573e-02 5.659715236597060439e-01 3.827220736783302213e-01 6.516175049768171412e-01 5.985361489182909889e-01 5.194040500559048423e-01 7.243182589367829216e-01 -1.344334787524715524e-01 -1.460569136311407612e-01 5.223685945508472761e-01 5.207935815849447092e-01 6.057531824970964207e-01 5.090561613713345812e-01 -6.024755449576764121e-01 2.679158243632681291e+00 2.460184805121384821e-01 4.109901301533591123e-01 8.905065336368872542e-01 4.899726079738270235e-01 5.325778645985274062e-01 5.482345178746510506e-01 5.600809212247167546e-01 4.489665725330920787e-01 4.996147914957761449e-01 5.515720291014145626e-01 5.129075960859733607e-01 4.564769894363602254e-01 5.106269922574656617e-01 4.114555490502952995e-01 5.370559699560194522e-01 5.124641974205697004e-01 4.803607075373487190e-01 8.733743020504932675e-01 2.041877224922692857e+00 4.050074829058161741e-01 4.804243380283222953e-01 5.719721892493734305e-01 5.264864161180285995e-01 5.974798193399014634e-01 4.938709026298258586e-01 4.962578618786503415e-01 2.515132326334875712e-01 5.425644672174123606e-01 5.322539880693673009e-01 4.624174595823323242e-01 5.208469783787825769e-01 4.976609721379000595e-01 9.019037941483114551e-01 8.555789515591435412e-01 2.090196414500458955e-01 8.318934436575695646e-01 5.112676539735652170e-01 5.347802864633771636e-01 1.828773784596074981e+00 2.352353612649875358e-01 4.772906934308095428e-01 5.355425977765611023e-01 4.179322062200876986e-02 4.690438011160248388e-01 1.336957850894017197e+00 5.344625505934972320e-01 9.459356117981279066e-01 5.080839200902154129e-01 5.185541443596023425e-01 5.723186165780013157e-01 6.031221763122354140e-01 4.969623121322276349e-01 5.020805115911183281e-01 5.988138750823627232e-01 2.946408293102708020e-01 -4.284585203330225633e-01 5.195698349471340460e-01 5.538493606552247206e-01 5.116279662112410698e-01 5.160655820494248758e-01 8.318913560899678927e-01 4.954372385016153624e-01 4.061218284714087634e-01 1.039882697313460502e+00 -3.293368784904952551e-01 5.026258673203398697e-01 9.146149756035613088e-01 1.106561246691656342e+00 5.746197183035635092e-01 4.986385884217068298e-01 4.093774184255803000e-02 -1.299265192192887053e+00 3.453230592302145574e-01 5.083002840632032671e-01 4.745619707466880999e-01 4.941656120068257940e-01 5.127892443142105794e-01 5.200173117618668295e-01 -2.307704215084963595e-01 7.672014802819431267e-01 7.005974514166224409e-01 6.757665755098269944e-01 5.249451112839131905e-01 -1.140622004526152949e-01 -1.893230243484089470e-01 1.409641702372407490e+00 4.466692449350788130e-01 5.085196418758667347e-01 5.037886402045278489e-01 3.810692601944331015e-01 4.973373291284727826e-01 5.875625466900156191e-01 4.405406906122407151e-01 5.040380072794190536e-01 5.823657127799906075e-01 4.342703844408135616e-01 5.013943544539096742e-01 5.121709777921561457e-01 4.751744388116111995e-01 5.072940962462005876e-01 4.652431054436421132e-01 9.408359394766293571e-01 4.988021083978531611e-01 5.109891155410635211e-01 5.786176620633060041e-01 4.394571742108109302e-01 4.912977948016421514e-01 -1.460157858995325686e-02 4.667550161399908193e-01 7.590756656022291660e-01 5.125808175413599788e-01 4.640442827037944973e-01 1.194699335090363634e+00 6.043238922772732336e-01 -1.470468730415380731e-01 5.224023647494808742e-01 5.547232556636053635e-01 5.066426736927349683e-01 5.529497255199714578e-01 5.929934525020077452e-01 5.117493170899207744e-01 5.108260961216832818e-01 5.143844578410187163e-01 -5.857396611562754041e-01 1.838162078844200131e+00 4.649896651782230994e-01 8.142046339383484099e-01 7.172086292768570237e-01 4.898270407135964510e-01 2.788968028812044975e-01 1.496504936215302395e-01 4.853735829456776174e-01 5.179576476081206859e-01 -3.438910977691007030e-03 5.097020831089457138e-01 5.707451360205979540e-01 5.028918992438534685e-01 1.047627920684026659e+00 5.000113000520600703e-01 4.096289629733302906e-01 2.599726712140386642e-01 4.818989912593977798e-01 1.434802260819475761e-01 5.014669395111389649e-01 6.505459257401233764e-01 5.086557382153520379e-01 -4.206896011527017643e-01 4.657193819976371274e-01 6.111097902033184592e-01 5.356794149552900342e-01 4.612925094366627232e-01 8.304929551407248534e-01 7.561526822308308748e-01 -4.279227131910102733e-01 1.022409839370386431e+00 1.295646335651896575e+00 5.724601926425459952e-01 4.644333396161136607e-01 9.840432720883099948e-01 5.135754872698736762e-01 4.618054033951344839e-01 5.007261772254500976e-01 1.353754909982162635e+00 4.927343869114613750e-01 4.717241372659198295e-01 1.186072148953976502e+00 -1.717982471189351962e-02 6.725176373081355186e-01 -6.874709087435360022e-02 -7.096473955269148037e-01 -1.892912287023899298e-01 7.246955401798934604e-01 5.168891808332537474e-01 5.471237022604980016e-01 -3.474927558690125151e-01 4.911050742614059827e-01 3.709118573916425632e-02 -3.179451052749093093e-03 5.909547028639661193e-01 4.965979538169416063e-01 4.928563591725049209e-01 5.103630218968410182e-01 4.608573600035497098e-01 8.279381584961577056e-01 -1.111424018061543117e-01 4.995337304190982097e-01 5.167352172572747815e-01 6.449129850600872071e-01 1.082005077492929512e+00 4.298861568808363676e-01 5.542392205875477096e-01 5.014164080654879285e-01 4.050297037856129267e-02 4.905014006528150561e-01 5.133808392576488799e-01 4.666438946611783378e-01 5.210670518063799106e-01 5.621452698720762475e-01 5.115387391378508619e-01 4.979937141879204887e-01 5.043857962288085250e-01 2.410744417353602731e-01 3.064473030253710428e-01 8.090623400234249196e-01 2.179840971946964689e+00 -1.652575313753824326e-01 6.600833231437784887e-01 5.148910506146854305e-01 5.282153802013130894e-01 7.384693325007289921e-01 5.483598146642106042e-02 -1.025097066680916047e+00 4.787641370054582235e-01 2.239893113751466824e+00 5.031406788422257970e-01 1.349431244058561519e-01 2.905919905375538015e-01 7.005975444297237731e-01 6.160929248742633701e-01 1.310953740708341142e+00 5.804177451073202487e-01 1.055740728507279652e-01 6.731119050116649571e-01 1.301755323621896387e+00 5.083464681187691570e-01 5.270725896358312568e-01 4.854654042816098913e-01 8.115572891359887908e-01 5.253443953814747047e-01 4.842600535821400820e-01 -2.154200814593743366e-02 5.116864990486225118e-01 4.845637455321518683e-01 -4.552795302032290881e-01 4.764357235686524916e-01 1.083829586887893104e+00 2.321369407221010039e-01 3.680962055861079496e-01 6.894766624987150871e-01 5.224776352669779911e-01 1.821545491991164667e+00 5.809552308939928134e-01 1.860084032137931248e-02 5.455495571415706069e-01 5.048970894239196427e-01 8.236267111208432912e-01 4.829714894267965186e-01 7.179405812845766899e-02 5.002484302926940574e-01 -7.168202956738403686e-02 4.936182873106430002e-01 5.012400245458481507e-01 -2.622027951656792297e-02 -1.233824305665436050e-01 6.039406432503994226e-01 6.347263613448344000e-01 4.941860197341687577e-01 5.877151988088756829e-01 5.525146631263199160e-01 5.067806072722336186e-01 5.277838741300676650e-01 6.545680082660904064e-01 5.202585819443563686e-01 7.489028627399400007e-01 9.755108361457235366e-01 2.694005818082567671e+00 3.263995208224620970e-01 5.132159631797926780e-01 4.932604229187053102e-01 1.764080201106676959e-01 5.022836262448940881e-01 6.556333214110179330e-01 4.854436133545526610e-01 1.295028020158838888e+00 6.134273944707675508e-01 -4.354500421796618781e-01 4.136199066466286073e-02 3.867137533121103865e-01 5.906974992044136119e-01 5.092722461240635212e-01 5.180029987162424465e-01 -1.519847145444646469e-02 5.003279784715445322e-01 4.319563307638052407e-01 -2.372107485723819131e+00 5.453919634111360493e-01 5.196081949461103244e-01 1.022211555344394007e+00 5.060136034327540333e-01 3.818020145695647516e-01 7.731828296938034750e-01 -6.430714534344890154e-01 -4.911119337416508523e-01 4.866109936751435855e-02 5.276026206376515093e-01 5.177779638683425167e-01 7.094420637795226803e-01 5.129468312915217432e-01 -2.339808707880104699e-01 8.702518524186655391e-01 5.090026689486053524e-01 6.731347540017048603e-01 5.265555024398306250e-01 4.787367845757217188e-01 2.492144545937280409e-01 -4.999769340645444093e-01 2.931157051916850609e-01 5.096997644758951562e-01 2.223620027687450151e-01 5.008830682321757655e-01 4.627037877304641111e-01 5.108037759337179518e-01 5.316693221065686981e-01 5.150771568295520186e-01 4.767883048217658737e-01 4.822604753106895514e-01 1.295646370409633708e+00 4.734106616652227761e-01 4.841154613509000004e-01 2.777377325115434198e-02 5.150476815798442631e-01 5.628891240511550986e-01 4.995634082907929319e-01 5.513711577276291242e-01 5.329122716744680854e-01 7.153274177359897346e-01 6.990134030328786219e-01 5.550823416067577343e-01 5.255798988971492891e-01 5.660569589528876566e-01 4.686058222130977113e-01 4.666673499342645082e-01 5.051723492393525028e-01 1.022496100514620032e+00 6.164001808076196021e-01 -3.582909032258215776e-01 3.709339595458486238e-01 8.899491452620801324e-01 5.232560621626967112e-01 1.478369243589446325e-01 5.139684112716612630e-01 2.500813843888742838e-01 -7.595997981590416059e-02 7.302036193851794144e-01 3.276961673179997758e-01 4.636762183744322363e-01 4.616092953985093117e-01 4.942265227804455430e-01 3.637277000271012528e-01 1.292407881645980527e+00 6.073833871325026168e-01 5.564942904237708543e-01 -1.768669945906661267e-01 5.677274248563678460e-01 1.054458639022504363e+00 4.306059979346778532e-01 6.282022191371731124e-01 4.922550725385385073e-01 -1.921218409294457030e-01 4.699265315228653983e-01 1.264182775403582815e+00 -7.505196432860989919e-01 5.043695329845091502e-01 5.031141504135083764e-01 -2.481367855812957046e-01 5.269159992698368988e-01 5.718184285687870627e-01 5.224337808029486663e-01 4.956240335027528032e-01 5.901385821188824821e-01 2.839962752625355691e-01 5.643323131272304227e-01 5.211024263422345815e-01 5.055395671984433958e-01 3.115349882177580534e-02 7.503538483678431348e-01 4.969848829312171201e-01 1.010869195146510746e+00 3.316472018623208284e-01 -4.534621637391881843e-01 6.637273526683811209e-01 5.054983532285558523e-01 3.344098947320899295e-01 2.384004868000653976e-02 5.322591819902791066e-01 5.016234179351630740e-01 5.135542656296796515e-01 5.219254695664564681e-01 1.561301477890746428e-02 5.158807473076870709e-01 3.982191881428810420e-01 4.649339024448407298e-01 1.872180915560214709e+00 2.834267282126944343e-01 3.530014956683727445e-01 4.977776695119680572e-01 1.603597189815308743e+00 2.244102033453809486e-01 4.993260111213534413e-01 2.192158791308035370e-01 4.667600055021550176e-01 5.077259132886600135e-01 4.721578081129456095e-01 5.229451783931869935e-01 4.867920581684726522e-01 4.929442602531379225e-01 4.328987312403879129e-01 -2.497850511525803729e-01 5.101977906568279097e-01 4.138761788099737937e-01 4.946245114467211490e-01 3.690759464401671130e-01 5.087434618437004508e-01 -1.552209842043903720e-01 6.529016397858409260e-01 -8.115573423122827146e-01 -3.337451379692824016e-01 5.270523793322600126e-01 5.077210383662097426e-01 6.189349522268713377e-01 5.154594830462153610e-01 2.916115364108357033e-01 6.092687957531587317e-01 4.667550315916786374e-01 5.042652119700781199e-01 4.915125564594400309e-01 4.322746746619899882e-01 4.930907289733986731e-01 6.647292971993832289e-01 4.857821330594157549e-01 4.978208964281837789e-01 2.138615397860899880e-01 5.037852662024371320e-01 5.029256270074893287e-01 5.165249974200356586e-01 4.428982879987016230e-01 5.163443900837203504e-01 5.451900793393795741e-01 5.303597430489869202e-01 4.907725079286948122e-01 5.733912635643299005e-01 1.358411064131717638e-01 6.615916546009755761e-01 1.895150677983933551e+00 4.922237134597786112e-01 3.200627628859583629e-01 7.014071434895100543e-01 5.428621072317076912e-01 1.043199652709904335e+00 5.226669738287279543e-01 7.803478382008721681e-01 4.963419048145010226e-01
7.787940718285629726e-01 2.592379963702289292e-01 2.281840647660210997e-01 4.354370286069556006e-01 3.154431360489500236e-01 2.940802575421234133e-01 4.047858682935965291e-01 5.363695924641540547e-01 2.614979932362863080e-01 3.294995498483521690e-01 1.785398294594528368e+00 1.525593115012404688e+00 -1.137314556117674069e+00 3.095046443713586060e-01 3.449686853584958968e-01 2.502532765235911394e-01 1.672171985179380094e-01 3.793843408812794249e-01 2.343371563207675423e-01 3.251016253711560555e-01 2.818841527277953785e-01 1.775228782469373767e+00 1.984006638639012887e-01 3.987844867636676782e-01 3.559850139344934994e-01 -5.086088519969607091e-01 4.471342432725571303e-01 1.808157076932399576e-01 3.737668506378877820e-01 -4.503805586539362249e-01 2.635041096741701505e-01 4.600282282455772642e-01 3.340449596561377299e-01 3.290675819767766574e-01 -3.619145359630084324e-01 3.155570407870035288e-01 4.100883546799624080e-01 -4.483773546237476704e-02 -2.627370094490026009e+00 3.255153403138453805e-01 7.129297074552164437e-01 1.216415051644593182e-01 -1.184018948595927934e-01 7.392936478499870789e-01 8.593086159506215793e-01 1.765401810459372445e-01 4.368916250838162374e-01 3.296464361594154124e-01 3.906202968577786594e-01 7.359757798156942865e-01 7.372938767593236742e-01 1.312677367595888323e-01 -5.980543254137167253e-01 3.667909395698635833e-01 3.114598516722920096e-01 6.951787380158653828e-01 2.560081770757988706e-01 4.904163820883794545e-01 3.631596124202852161e-01 3.264932984806021010e-01 3.720706345718566843e-01 2.760050704212403949e-01 3.098435618588877838e-01 1.984006025903310988e-01 -1.877278012594903178e-01 3.944056339156699065e-01 3.281437943152480385e-01 3.057726545735290347e-01 2.088206141458631149e-01 7.737480286831353027e-01 3.040618732008605329e-01 3.547328804487700493e-01 2.821071270371590667e-01 7.913745503386244717e-01 1.657044058907686468e+00 2.845267419082431193e-01 4.195209870881765335e-01 4.318686472553140421e-01 3.261860443675760335e-01 -1.112968465960811670e+00 2.705307505118531020e-01 8.886186280918140223e-01 1.627935212552519051e+00 4.600740407970349000e-01 3.678408710975173412e-01 -6.277433163475878430e-01 2.443579860191399944e-02 2.888784562558804891e-01 -4.822584076383521490e-01 -6.389322404059272209e-01 8.585126657335500067e-01 1.255765008329463361e+00 2.923492935906042423e-01 8.122983811737707338e-01 3.517130060841152650e-01 2.833139605259319405e-01 3.530978138881518125e-01 3.830472784862145597e-01 7.711263180377457838e-01 -5.134259142619275185e-01 -6.709720517961204056e-02 1.358673334684608325e-01 3.425619880032667597e-01 2.605717851946209862e-01 3.658315186216828385e-01 2.498136665768044384e+00 -2.026799658628182232e-01 -4.365998268256990889e-01 2.662805352979209506e-01 7.517245345690088953e-01 1.840324516439995617e-01 4.134918633066019811e-01 3.666663487634135854e-01 2.347245361175386291e-01 -5.502897091023380982e-01 1.994482932264642072e-01 5.841820402364670262e-01 1.541489816544013292e-01 -2.533685054163381523e-02 3.060306944185917644e-01 -1.218549746120666244e+00 3.348138847624143599e-01 3.618636007032891566e-01 4.888523182904822573e-01 3.219412971321559125e-01 1.823098465395158518e+00 3.372341306167053188e-01 2.857367573054950816e-01 3.066525220870718882e-01 3.315896145081027035e-01 3.483020607012812242e-01 2.934282954666926346e-01 4.791940020719265836e-01 2.012678490415513999e-01 3.163582372057791581e-01 9.119646278809258044e-01 2.154957144327875329e-01 7.441452525022478337e-01 -2.696995201770058803e-01 3.454937215048152765e-01 3.359305815659364702e-01 3.185072462730617615e-01 3.973263700583445357e-01 3.235141047647799861e-01 3.352638568589290657e-01 7.577036573240214512e-01 5.548788996392884920e-01 3.731307721101315700e-01 1.056166355462951900e-01 3.591275555835647393e-01 -4.835995930976189627e-01 3.017185426306622648e-02 1.765153740520958026e-01 2.838702265022204907e-01 5.077299479560490880e-01 2.995695359460450180e-01 -1.126212191094408732e+00 3.513309875845848085e-01 -5.080034863352322905e-01 -5.089169155410083745e-01 3.484161859251336257e-01 4.224158187404501441e-01 2.889245681038246638e-01 3.293252143082205374e-01 3.575366741156646433e-02 -8.929174460721278628e-02 3.664644030713283263e-01 3.190767057931451212e-01 2.645351160983873129e-01 3.543788766596704387e-01 6.380646204116756648e-01 4.363494869869123383e-01 1.768127272784364989e-01 3.341688629852221926e-01 -2.115861526067187803e+00 6.854175034638061437e-01 7.896508027392175055e-01 1.057541627927516936e+00 -3.911119623716055038e-01 1.107915789581764621e+00 7.442854227016273971e-02 3.784599035352389507e-01 1.104343744385941628e+00 4.090544137087647192e-01 3.511182972730367280e-01 3.723965969252449049e-01 3.498974535914783912e-01 3.380659823179260615e-01 -2.655389515196219241e-01 1.783746069822328972e-01 3.966945589143838768e-01 6.887508227441293540e-01 3.134092310021144301e-01 2.543472903752677095e-01 1.250212615226933277e-01 2.864674706404619076e-01 -1.217752338655427646e+00 3.335527650199491823e-01 7.167336123576815987e-02 2.784669341594499525e-01 4.549033241033815234e-01 3.075344183142875165e-01 2.694572292889259035e-01 6.093381041033300860e-02 -9.197000111578347292e-01 7.167343094595034214e-02 3.317974232529575795e-01 -4.066794782443328704e-01 3.213631773406674941e-01 4.268812170073689738e-01 3.534880884238829624e-01 -2.621421950101263665e+00 2.945872506793127954e-01 9.228545582505205402e-01 3.177623153587229021e-01 2.758517444509165362e-01 3.490090423294692767e-01 3.139620081605917767e-01 2.523413184570320600e-01 3.336046044026297897e-01 2.738232411854212289e-01 2.572900573798919677e-01 5.839264849455790829e-01 5.207169670755538160e-01 4.301544317916865534e-01 2.393190186571649281e-01 2.817723424581635161e-01 -2.696839545394414395e-01 1.800950652067453861e+00 -6.419130481629675700e-03 1.115214227322881779e+00 -1.252871864882324271e+00 3.328687517519127170e-01 2.818510610255743343e-01 2.823807945158896548e-01 7.890698789247184708e-01 -1.656290499462296784e-01 6.055234054152869305e-01 2.368067659351059950e-01 6.257805957190881729e-01 6.030232441226681672e-01 3.191860981168273548e-01 -9.641844647454914652e-01 3.304492042874448421e-01 2.940329615665415730e-01 6.713010534941267482e-02 1.043374453172633665e+00 1.206755228784280043e-03 2.418162026043503943e+00 3.602443431724275391e-01 7.850325841254445214e-01 2.566320504112151735e-01 2.997969585161077699e-01 1.984014867377854596e-01 2.674744548484443429e-01 2.851898336660109168e-01 2.712789996467553921e-01 3.713184297366343700e-01 4.120064011269182758e-01 5.433170587723770151e-01 4.040664266431852614e-01 2.235650697349413352e-01 1.540886311224949623e-01 3.362042407157550539e-01 3.720629006404385097e-01 3.756019275941637758e-01 2.548488818611744922e+00 3.267476923047696324e-01 6.690515381682781149e-01 4.196084362779509830e-02 3.401065549644392005e-01 3.729740437058051139e-01 3.742830036549364969e-01 2.808930333015237091e-01 3.396887111734566700e-01 4.128118634018879129e-02 3.411998421305083018e-01 2.846382924735568754e-01 1.843920950226389174e-02 9.723220280421526751e-02 1.323150518976498935e+00 3.484552310413447929e-01 1.123561857614161358e-01 1.818373395253383817e+00 4.061176575418268819e-01 6.668233501583168410e-01 1.249872231530648331e-01 3.415572774378892729e-01 1.994483672571805699e-01 -1.825290770752384439e+00 2.889366042930734402e-01 9.034587697570497511e-01 4.171253960073008082e-01 -2.982608895172928487e-01 7.987812517777739263e-01 3.381217849511285456e-01 -6.003273937451278908e-01 1.891870731056922161e-01 3.159888034420328951e-01 1.058654486713354881e-01 -2.633729553228433273e-01 2.464088237798421066e-01 -1.100814709045063733e+00 4.359329181788054175e-01 4.176152558584999008e-01 6.391084499916499517e-01 3.183351447125502554e-01 2.725176321998253326e-01 2.182978158525324675e-01 2.454939373634191235e-01 -1.060398144786580399e-01 -6.368904498782919088e-01 5.048995998179371669e-02 3.502848386390121083e-01 3.236484917855481092e-01 3.417464573713252518e-01 3.199265597219316248e-01 4.367886043945501950e-01 3.089785704431797231e-01 2.050139205079752891e+00 7.498285387715626360e-01 2.436688590852916503e-01 -8.984117195559074842e-01 4.528778067818997055e-01 3.664869154332939249e+00 3.604504537510394568e-01 3.838491465450167839e-01 5.406956961780692295e-01 -4.490792678257318649e+00 3.594638352070255172e-01 1.243243427119850919e+00 3.070159744460287943e-01 5.839613877944500597e-01 -3.890785351285812599e-01 3.772051919274888032e-01 2.537503522054030958e-01 3.226946073849298879e-01 2.897937502110012886e-01 2.304464407587656360e+00 -2.726620516032378094e-01 2.894102442366928152e-01 -1.693838146495296515e+00 3.117615501812771028e-01 -4.483773207824466589e-02 6.310891597709812340e-01 3.544443184236422684e-01 4.650134525527291340e-01 2.593183376757452474e-01 1.339975051088047708e+00 2.453539481623417118e-01 7.167330664761399628e-02 3.304449063939676745e-01 6.093375594912733145e-02 1.281674192484074659e-01 4.183220035208956022e-01 -4.977010549141533402e-01 3.225593293557680319e-01 2.741235357974852738e-01 3.223867997658487750e-01 4.956244286954057943e-01 3.217380262293519366e-01 7.104280959767828030e-02 3.544441881091052737e-01 2.774785512137131760e-01 3.320218232784089007e-01 3.321512523135221606e-01 6.719315395191471918e-01 2.435668326853720256e+00 3.177409425981317925e-01 4.572740979890849156e-01 3.733261307366300130e-01 9.497099934273244282e-01 4.051671726120297801e-01 2.995588977431444533e-02 7.398908615741938144e-01 1.824589066452799169e-01 1.279842807532395321e-01 3.224506909350700057e-01 2.438107998301057566e-01 8.638544926138201907e-01 6.655783373304365869e-01 7.381936909782442768e-01 2.967792188871274939e-01 6.093381041366630058e-02 6.093381041033944095e-02 2.792548888322055056e-01 4.515809516441371407e-01 1.111406632759587287e+00 -4.848615857265664575e-02 3.476499365637572558e-01 4.678815726039824985e-01 3.480854987375747722e-01 8.833460963574120139e-01 7.167345681878728447e-02 3.136504331671242651e-01 2.827587587502959909e-01 4.785680795728602943e-01 -5.227378363050451116e-01 4.417331988195786763e-01 3.155728535589212291e-01 2.852305009660398016e-01 5.633383097183950472e-01 7.866638511579768789e-01 6.093381056418654962e-02 -2.350808724711170028e-01 3.185663103339911317e-01 -3.935693631883109556e-02 -5.091800072134728961e-01 4.317039375032801218e-01 -2.845677239221278576e+00 1.372795648304500737e+00 2.423992916862223179e-01 -2.487449735942862949e-01 4.368615487960366139e-01 1.705418955466630360e+00 2.640494864084760307e-01 5.424712671093419036e-01 7.608863506186553938e-01 5.136018132371976685e-01 3.946462488946200220e-01 3.315186096953975925e-01 2.604716922834961479e-01 2.730409559388771723e-01 1.726271210477031470e+00 3.712615765389652989e-01 -9.289133118659610722e-02 2.889807198602968863e-01 2.948181930053474509e-01 -1.235193297932842382e+00 3.431376574961140236e-01 1.510462132760017132e-02 3.965339183916937182e-01 2.161466569335548371e-01 3.170869678725804497e-01 4.030262253103179537e-01 3.477746773720742368e-01 -1.468064309487513708e-01 3.219919231051483477e-01 5.206665489963860916e-01 3.588602712683929830e-01 2.682164391826639127e-01 6.332868469280984458e-01 6.529045110664090101e-01 8.322430730405645516e-01 -1.045224537838042478e+00 4.218388779081370110e-01 -4.264382464329904976e-02 -2.415690745292838060e-01 4.363762057731592758e-01 3.720379632531591874e-01 3.413835464161397715e-01 7.839420895464400685e-01 2.933418223581904516e-01 1.796357474767081852e-01 3.071277824971485049e-01 9.509178842313632807e-02 -1.471079338163539252e-01 3.285695681601437101e-01 2.624598114592686104e-01 4.553505629225435003e-01 3.253989162837490068e-01 2.810764803374666831e-01 3.305540060204819608e-01 4.663540533016178324e-01 3.192180933032716661e-01 5.081546970237990068e-01 2.788297596987571736e-01 3.146730486916639036e-01 7.408655876131508000e-01 3.330485987199650055e-01 7.868642344525406118e-01 2.360983341959916604e-01 2.888591256750810965e-01 3.580976851306075792e-01 -1.251897920960495680e+00 2.466653780009762653e-01 1.405904794043260908e-01 5.115851812729254044e-01 4.450153212556316462e-01 3.474783685161308977e-01 5.798486666752790120e-01 7.662688872842978727e-01 3.373311294822012862e-01 1.617008853746532693e-01 3.523658556097768457e-01 4.055394029983025103e-03 3.835410456886126918e-01 3.754913671674043885e-01 3.361122281405097834e-01 3.776904371361957113e-01 3.782699001453761478e-01 5.238859787960534892e-02 1.343056071334592705e+00 4.971181450770141841e-01 2.822882637369972247e-01 3.077395303833518336e-01 -6.295761233851819849e-01 3.067664793312774862e-01 2.063247826485617165e-01 4.087474747578951906e-01 4.175697074704395328e-01 1.419148555825154590e-01 6.026907366798163190e-01 8.393482123371418524e-01 1.956967961286462110e-01 2.046955110797280819e-01 7.736231210808626468e-02 2.896672772810229834e-01 7.777080493622187118e-01 2.518171700169353766e+00 3.121564188618882740e-01 3.472981677558680813e-01 6.052700878013068664e-01 2.004655445162668304e-01 3.240954289907307939e-01 2.420316043747321177e-01 8.781162422395550893e-01 2.908458504798635547e-01 -1.420577998582676083e-01 3.286884857244635749e-01 4.839925745716232297e-02 5.104232717224037597e-01 9.474050873868540279e-01 2.380196875074244711e-01 3.624383024335983139e-01 1.498230316990688982e+00 4.744986129924590457e-01 3.176027018581654149e-01 1.148526816030595032e-01 4.330453317204789876e-01 4.352031385062991586e-01 3.247718375259604495e-01 2.053274723175397831e-01 7.825844269848224455e-01 1.351833787150109600e-01 2.443721219680081991e-01 3.120087878738467824e-01 2.326948305657129956e-01 3.873125316423373654e-01 2.390425837005730747e-01 9.869272891233125122e-01 4.330401647653440156e-01 3.582845070490425776e-01 2.883152926511226566e-01 2.834487415459032711e-01 3.466370753321518783e-01 5.444609182453846730e-01 6.559690811511437181e-01 2.842840546232076049e-01 3.357174730801562035e-01 3.106286890294066017e-01 3.205109959614293458e-01 6.314827029232612521e-01 2.673819930042975468e-01 2.684091101229885146e-01 -1.374646039430310329e-01 3.128702463759466812e-01 4.345896974081922548e-01 4.837186326305626949e-01 3.707098373835485683e-01 3.018812804031419383e-01 1.402847657226092393e+00 5.146226160054447885e-01 2.744494345383483025e-01 3.946813721219863402e-01 1.184329881298015419e+00 1.021057303582226794e+00 3.153869363398173475e-01 -3.879474851155184090e-01 -1.723874923784318169e-01 2.391737067354980373e-01 3.288572808905749767e-01 3.265358045580015744e-01 3.744053567814549233e-01 4.513244241166179949e-01 2.873350299698620436e-01 2.856662071958396276e-01 4.356744687651904480e-01 3.478214782003336558e-01 2.220492287620285110e-01 7.186113834477378948e-01 3.347755938976288564e-02 7.445057854282081111e-01 3.720808336492093527e-01 2.912076416472562657e-01 3.375721994530300751e-01 4.728230130268308296e-01 8.571276873685363951e-01 2.002182871723532653e-01 6.274982245511981915e-01 1.337592385169360076e+00 4.242946957670159502e-01 1.715387150405282446e+00 5.590966488823428948e-01 1.004397268763454060e-01 3.352791401567859486e-01 2.873781739637696342e-01 2.516195906588441500e-01 3.543917132228232569e-01 3.197194161495363618e-01 3.206347736652008784e-01 2.857034204364955476e-01 3.779695576865974571e-01 2.992486318860306319e-02 2.807599210443310622e-01 4.341564029567308580e-01 2.723880907116550398e-01 1.062743174901053383e-01 3.720815776427624511e-01 1.901543879415518723e-01 3.197159326932306755e-01 -6.934767393502917487e-01 1.658268647014155439e+00 3.454198187711414181e-01 -3.516242058387105685e-01 3.035069529565557200e-01 2.433510592295423658e-01 3.089527003398878091e-01 -3.864177475414676710e+00 2.953288554079554373e+00 5.509888815796827322e-01 3.567347008309022516e-01 4.295046903195419707e-01 3.227290322950551182e-01 4.040762521323514322e-01 2.176177781786652776e+00 5.440717143636332187e-01 3.519384709878478068e-01 1.994484384100143892e-01 5.673988758736451254e-01 2.777111263506459871e-01 9.335730907986261595e-01 -3.719478089727967229e-01 -7.374028744744822728e-01 -9.051172012663383226e-01 1.393691680689444212e-01 3.189720570773637021e-01 5.516636797539459236e-01 4.051626967892302256e-01 2.248903396013271494e-01 3.341528239971727765e-01 3.489890377542288480e-01 1.971000497028540244e-01 2.539944494925399088e-01 3.871883956397545457e-01 2.831631805917695921e-01 5.790365095539597995e-01 3.123874004814742311e-01 1.386061794726878293e-01 1.456007599544459907e-01 3.283508618099567067e-01 2.830100836147206311e-01 1.867311078333445118e-01 3.541015055156063740e-01 3.023996881445616958e-01 7.307298497193360776e-01 3.544443241297173253e-01 4.520518482794684267e-01 2.697323164488820701e-01 3.504200741183247647e-01 2.026841388766546237e-01 6.027022267752168982e-01 1.335871020917957841e+00 2.770044630441667599e-01 2.864861751528989808e-01 3.259446018064781070e-01 2.581767492720085100e-01 3.432759843330244753e-01 3.463904103512466248e-01 3.200168766785518315e-01 3.169467883532028352e-01 6.943124498488256746e-01 7.230415630230166979e-01 5.292214281295076761e-01 1.578137497358111929e+00 2.681531037419070951e-01 3.978316843554967064e-01 -8.337791706120709079e-02 -3.812393957030563718e-01 3.395249282417354686e-01 2.908675910496998918e-01 7.711812863757603331e-01 3.263461105505037763e-01 2.324599010808091615e-01 3.242395444158521212e-01 3.208521855675012247e-01 3.316544055545203040e-01 5.881553881127863370e-01 8.993981720353473319e-01 3.918915003848105760e-01 5.847077366593699255e-01 3.247250474743026971e-01 -3.975612960202268981e-02 3.276896871448430892e-01 3.562130865922599754e-01 -2.521010277004422928e-01 2.249955183406878445e-01 2.785893729633593385e-01 4.360103258663699521e-01 3.719282266940520110e-01 1.169403865613336535e+00 8.175365982145161858e-01 -7.549389306325099414e-01 -4.483773727675403886e-02 2.782729764083035628e-01 -2.706498630838247266e+00 1.424211736493681491e+00 2.871057128780462597e-01 4.350713407225537122e-01 3.260138676552705728e-01 7.057157724879534744e-01 3.203793271418987620e-01 3.304478416398812235e-01 -3.551494451719235390e-01 6.660664115913609296e-01 8.979862241825667390e-02 9.154743931451325700e-01 1.808642307727486020e+00 -3.716022005987800747e-01 -1.246861751092482873e+00 2.862832378694512570e-01 2.487044741240410639e-01 8.881376263079778788e-01 3.093137561463853991e-01 7.916683582130009666e-01 4.570886207099231213e-01 3.876013246998402662e-01 3.140747573726516140e-01 3.505335694374772659e-01 2.797359475415879815e-01 4.090848600049035722e-01 1.117205570494271827e+00 1.217312393689901295e+00 3.398223619716476684e-01 2.558320036018968957e-01 -2.173026152608402151e-01 -1.291288870223674390e-01 3.941075231041070159e-01 3.771127006749626087e-01 3.494404568878928807e-01 7.136599232493525680e-01 2.607209602319336961e-01 2.898855434436833911e-01 3.161105157874595784e-01 2.751026826714235152e-01 3.456353928053561564e-01 5.421787324964036925e-01 3.300787495802425253e-01 3.455257256965635904e-01 -5.894502548618244658e-02 4.499596911474122440e-01 4.698389823418750444e-01 9.567771682992913806e-01 1.026224711063736139e+00 8.604861657972930900e-01 3.402433387094232486e-01 2.744754270062262913e-01 -4.185273498081236616e-03 2.505931989098321711e-01 -1.501999534068741537e+00 3.192622230719451837e-01 5.967404152247585136e-01 3.034400895051523883e-01 8.637417158417508567e-01 1.205301092666158258e+00 1.994482822773451236e-01 4.822649506372346517e-02 3.536257259160875410e-01 2.975427291741344349e-01 6.308629658617317393e-01 1.523213787534020147e-01 -4.093732460285359753e-01 5.130884330208971278e-01 4.550144467023106154e-01 3.365762610924546983e-01 3.367212766930212098e-01 2.707811811221360609e-01 3.918320638278718349e-01 2.927251377387666276e-01 3.144964635419953969e-01 3.904759547297180222e-01 8.412735618566912210e-01 3.305646939314450528e-01 -1.565250448372510206e-01 8.222133503621817940e-01 4.307836573243426503e-01 1.967260472757515755e-01 2.772566858390763112e-01 1.159938514100320894e+00 1.075166936041686838e-01 7.847972194743932928e-01 2.788678607523943920e-01 2.794363604896988318e-01 -9.815579355828907282e-02 1.376841375285511870e-01 6.594232237716877165e-01 3.307009026019577247e-01 7.965522139649374722e-01 3.429932205259434985e-01 3.450309213143813447e-01 7.710701205399193015e-01 2.194161159414481643e-03 -1.764039982415943619e+00 2.867360425957165559e-01 3.735323335437810144e-01 1.829221573416722202e-01 4.218477013997323777e-01 3.071390481708657916e-01 2.797809288644445558e-01 2.132211782842491632e-01 2.952331976039638262e-01 -2.047369632360025726e-02 -1.468809074919932511e+00 6.952426556478353836e-01 3.553392446991339160e-01 2.888166388883028901e-01 3.741436834412188439e-01 7.768029357091942311e-01 3.131669837123614020e-01 8.395846745045769388e-02 3.438803635642826428e-01 1.046916601875844455e+00 3.156618471048754371e-01 4.065151695853390645e-01 1.082833887417041341e+00 3.470120045462254943e-01 2.097449749399963093e+00 3.120712236939985895e-01 2.957334842616975434e-01 7.680109882976515756e-01 3.228698815470229522e-01 3.316296736987601190e-01 -1.340421544275868682e+00 3.061124726944856045e-01 2.879933453423966228e-01 4.783652199666312277e-01 2.967176284596080293e-01 3.580245218572815635e-01 -4.983764481600416740e-01 1.730753479117883131e+00 -4.917149241464038867e-01 6.485829223264970578e-01 3.046197397272585872e-01 9.487743940712585478e-02 2.846082328632036362e-01 3.019886815758754395e-01 1.138077029903172388e+00 -4.017665296721725787e-02 2.835353634449988558e-01 -7.656033439229887883e-01 4.471579518813426635e-01 4.719586307264844183e-01 -2.733704407160601146e+00 2.403895577272634032e+00 3.781897341208142471e-01 3.288087245489610955e-01 -1.187134282165767107e+00 3.462940664344236197e-01 -4.188598508067659792e-02 3.130466649193140993e-01 1.645252624281509646e-01 6.048550850949906410e-01 4.990441593326021552e-01 3.524795852817601549e-01 -4.483774800979581365e-02 -4.963917277946609807e-02 3.415910021228524274e-01 -1.019709043066059140e+00 2.775489770585374827e-01 -5.505694818899751208e-01 3.134203922179860102e-01 4.596583091233671370e-01 1.657798508013791361e-01 2.960204871196461252e-01 3.022982315167410672e-01 -1.072854094605956987e-01 2.726702750752980076e-01 3.673740380682866680e-01 3.679654208812304095e-01 3.163306575902869455e-01 3.171639572564711185e-01 -7.553084605918610750e-01 5.964308957433807068e-01 1.401213457441882637e+00 2.113530816289309333e-03 2.668574829113585234e-01 2.788123896002301927e-01 1.229989529140006033e+00 2.890946821355431240e-01 2.764251417659712717e-01 9.109497379943084505e-01 1.818511616866148040e-01 1.523463622383116611e+00 2.743648177721071391e-01 2.301088981244153453e-01 3.729331402102386561e-01 6.737766993213815114e-01 1.259791278980112894e+00 3.176585792660272523e-01 2.412376303957939894e-01 6.919898954935241875e-01 2.784636733577719458e-01 2.698421806939833162e-02 -1.604933110247300510e-01 3.059872660154801527e-01 2.830528385041820583e-01 1.478286727023537528e-01 5.075785890788370169e-01 -1.637141193629543801e-01 1.275948128117286640e+00 3.004576398388135727e-01 3.281958383328488216e-01 -2.354130978430300392e+00 1.907434002143917617e-01 3.256867605172509839e-01 3.139927106285272940e-01 -9.994257252540117431e-02 3.222877613591439427e-01 -6.138380551684486930e-01 1.996367351046327288e-01 2.936830154603382037e-01 3.448015376392697950e-01 1.125223576913971346e+00 2.765429778214693046e-01 3.123568991691344499e-01 -1.202013881706454956e+00 4.537811479526779879e-01 8.418185866580958354e-01 5.264936528077537314e-01 3.121554482524879215e-01 -1.035182070194847620e-01 7.992680296435289433e-01 -1.906875786810275156e-02 3.382279103765426509e-01 3.116098683624002330e-01 2.397768628855014572e-01 7.582995847766960118e-01 3.135011117746263065e-01 7.405725205799996713e-01 4.639940669072002977e-01 6.425750874991698058e-01 8.614070011420443818e-02 -1.412813181763878712e+00 3.417345318350915040e-01 1.627522103435372416e-02 4.002892316999442368e-01 3.489707389325590881e-01 1.896739257573612503e-01 3.544416312431937777e-01 3.294329655024251235e-01 2.723969417358442779e-01 2.817404139965236087e-01 3.391174664915885817e-01 2.661047850621917621e-01 3.683189445394952632e-01 -5.152218881125147920e-01 2.757973007792638986e-01 3.254810255271612385e-01 3.495475449650776723e-01 3.998917250484387842e-01 3.193824333835158513e-01 5.798935631400369273e-01 1.277725845852752951e-01 8.747545339991568136e-01 5.194822015263688142e-01 2.580662797929519359e-01 3.322099267159240865e-01 -1.779816242656295122e+00 2.786983772872540510e-01 2.999853851085448331e-01 2.496782746853470347e-01 3.544443169417332284e-01 3.148452070457427032e-01 4.347186588177342492e-01 4.308412037344260814e-01 3.310815172176764243e-01 2.716317651921962284e-01 4.358619027562730674e-01 3.299106918170590097e-01 3.994058508774578353e-01 3.134225365797081997e-01 2.880759489325712686e-01 2.832386023268747555e-01 -1.535179258850229850e-02 2.854848599280895294e-01 1.492483222922889874e-01 3.331036598098536805e-01 3.482085617748763573e-01 6.773361638073023550e-02 -2.673044856838524552e-02 -2.344765215796031088e-01 3.302376006942045805e+00 3.024666747062716432e-01 5.538009717709987401e-01 1.440350530817222641e-01 2.742888458214423064e-01 1.337568391597687478e+00 3.207017253128257028e-01 7.375756721353862178e-01 3.221506916436202572e-01
