# 
#                 ----------------------------------------------------
#                 Data from a 3D direct N-body simulation. 
# 
#                 rows are i-particle; 
#                 coumns are :mass, tag, x ,y, z, vx, vy, vz, ax, ay, az
# 
#                 NTHU, Computational Physics 
# 
#                 ----------------------------------------------------
#                 Time = 0.0
0.000000000000000000e+00 1.000000000000000000e+00 2.000000000000000000e+00 3.000000000000000000e+00 4.000000000000000000e+00 5.000000000000000000e+00 6.000000000000000000e+00 7.000000000000000000e+00 8.000000000000000000e+00 9.000000000000000000e+00 1.000000000000000000e+01 1.100000000000000000e+01 1.200000000000000000e+01 1.300000000000000000e+01 1.400000000000000000e+01 1.500000000000000000e+01 1.600000000000000000e+01 1.700000000000000000e+01 1.800000000000000000e+01 1.900000000000000000e+01 2.000000000000000000e+01 2.100000000000000000e+01 2.200000000000000000e+01 2.300000000000000000e+01 2.400000000000000000e+01 2.500000000000000000e+01 2.600000000000000000e+01 2.700000000000000000e+01 2.800000000000000000e+01 2.900000000000000000e+01 3.000000000000000000e+01 3.100000000000000000e+01 3.200000000000000000e+01 3.300000000000000000e+01 3.400000000000000000e+01 3.500000000000000000e+01 3.600000000000000000e+01 3.700000000000000000e+01 3.800000000000000000e+01 3.900000000000000000e+01 4.000000000000000000e+01 4.100000000000000000e+01 4.200000000000000000e+01 4.300000000000000000e+01 4.400000000000000000e+01 4.500000000000000000e+01 4.600000000000000000e+01 4.700000000000000000e+01 4.800000000000000000e+01 4.900000000000000000e+01 5.000000000000000000e+01 5.100000000000000000e+01 5.200000000000000000e+01 5.300000000000000000e+01 5.400000000000000000e+01 5.500000000000000000e+01 5.600000000000000000e+01 5.700000000000000000e+01 5.800000000000000000e+01 5.900000000000000000e+01 6.000000000000000000e+01 6.100000000000000000e+01 6.200000000000000000e+01 6.300000000000000000e+01 6.400000000000000000e+01 6.500000000000000000e+01 6.600000000000000000e+01 6.700000000000000000e+01 6.800000000000000000e+01 6.900000000000000000e+01 7.000000000000000000e+01 7.100000000000000000e+01 7.200000000000000000e+01 7.300000000000000000e+01 7.400000000000000000e+01 7.500000000000000000e+01 7.600000000000000000e+01 7.700000000000000000e+01 7.800000000000000000e+01 7.900000000000000000e+01 8.000000000000000000e+01 8.100000000000000000e+01 8.200000000000000000e+01 8.300000000000000000e+01 8.400000000000000000e+01 8.500000000000000000e+01 8.600000000000000000e+01 8.700000000000000000e+01 8.800000000000000000e+01 8.900000000000000000e+01 9.000000000000000000e+01 9.100000000000000000e+01 9.200000000000000000e+01 9.300000000000000000e+01 9.400000000000000000e+01 9.500000000000000000e+01 9.600000000000000000e+01 9.700000000000000000e+01 9.800000000000000000e+01 9.900000000000000000e+01 1.000000000000000000e+02 1.010000000000000000e+02 1.020000000000000000e+02 1.030000000000000000e+02 1.040000000000000000e+02 1.050000000000000000e+02 1.060000000000000000e+02 1.070000000000000000e+02 1.080000000000000000e+02 1.090000000000000000e+02 1.100000000000000000e+02 1.110000000000000000e+02 1.120000000000000000e+02 1.130000000000000000e+02 1.140000000000000000e+02 1.150000000000000000e+02 1.160000000000000000e+02 1.170000000000000000e+02 1.180000000000000000e+02 1.190000000000000000e+02 1.200000000000000000e+02 1.210000000000000000e+02 1.220000000000000000e+02 1.230000000000000000e+02 1.240000000000000000e+02 1.250000000000000000e+02 1.260000000000000000e+02 1.270000000000000000e+02 1.280000000000000000e+02 1.290000000000000000e+02 1.300000000000000000e+02 1.310000000000000000e+02 1.320000000000000000e+02 1.330000000000000000e+02 1.340000000000000000e+02 1.350000000000000000e+02 1.360000000000000000e+02 1.370000000000000000e+02 1.380000000000000000e+02 1.390000000000000000e+02 1.400000000000000000e+02 1.410000000000000000e+02 1.420000000000000000e+02 1.430000000000000000e+02 1.440000000000000000e+02 1.450000000000000000e+02 1.460000000000000000e+02 1.470000000000000000e+02 1.480000000000000000e+02 1.490000000000000000e+02 1.500000000000000000e+02 1.510000000000000000e+02 1.520000000000000000e+02 1.530000000000000000e+02 1.540000000000000000e+02 1.550000000000000000e+02 1.560000000000000000e+02 1.570000000000000000e+02 1.580000000000000000e+02 1.590000000000000000e+02 1.600000000000000000e+02 1.610000000000000000e+02 1.620000000000000000e+02 1.630000000000000000e+02 1.640000000000000000e+02 1.650000000000000000e+02 1.660000000000000000e+02 1.670000000000000000e+02 1.680000000000000000e+02 1.690000000000000000e+02 1.700000000000000000e+02 1.710000000000000000e+02 1.720000000000000000e+02 1.730000000000000000e+02 1.740000000000000000e+02 1.750000000000000000e+02 1.760000000000000000e+02 1.770000000000000000e+02 1.780000000000000000e+02 1.790000000000000000e+02 1.800000000000000000e+02 1.810000000000000000e+02 1.820000000000000000e+02 1.830000000000000000e+02 1.840000000000000000e+02 1.850000000000000000e+02 1.860000000000000000e+02 1.870000000000000000e+02 1.880000000000000000e+02 1.890000000000000000e+02 1.900000000000000000e+02 1.910000000000000000e+02 1.920000000000000000e+02 1.930000000000000000e+02 1.940000000000000000e+02 1.950000000000000000e+02 1.960000000000000000e+02 1.970000000000000000e+02 1.980000000000000000e+02 1.990000000000000000e+02 2.000000000000000000e+02 2.010000000000000000e+02 2.020000000000000000e+02 2.030000000000000000e+02 2.040000000000000000e+02 2.050000000000000000e+02 2.060000000000000000e+02 2.070000000000000000e+02 2.080000000000000000e+02 2.090000000000000000e+02 2.100000000000000000e+02 2.110000000000000000e+02 2.120000000000000000e+02 2.130000000000000000e+02 2.140000000000000000e+02 2.150000000000000000e+02 2.160000000000000000e+02 2.170000000000000000e+02 2.180000000000000000e+02 2.190000000000000000e+02 2.200000000000000000e+02 2.210000000000000000e+02 2.220000000000000000e+02 2.230000000000000000e+02 2.240000000000000000e+02 2.250000000000000000e+02 2.260000000000000000e+02 2.270000000000000000e+02 2.280000000000000000e+02 2.290000000000000000e+02 2.300000000000000000e+02 2.310000000000000000e+02 2.320000000000000000e+02 2.330000000000000000e+02 2.340000000000000000e+02 2.350000000000000000e+02 2.360000000000000000e+02 2.370000000000000000e+02 2.380000000000000000e+02 2.390000000000000000e+02 2.400000000000000000e+02 2.410000000000000000e+02 2.420000000000000000e+02 2.430000000000000000e+02 2.440000000000000000e+02 2.450000000000000000e+02 2.460000000000000000e+02 2.470000000000000000e+02 2.480000000000000000e+02 2.490000000000000000e+02 2.500000000000000000e+02 2.510000000000000000e+02 2.520000000000000000e+02 2.530000000000000000e+02 2.540000000000000000e+02 2.550000000000000000e+02 2.560000000000000000e+02 2.570000000000000000e+02 2.580000000000000000e+02 2.590000000000000000e+02 2.600000000000000000e+02 2.610000000000000000e+02 2.620000000000000000e+02 2.630000000000000000e+02 2.640000000000000000e+02 2.650000000000000000e+02 2.660000000000000000e+02 2.670000000000000000e+02 2.680000000000000000e+02 2.690000000000000000e+02 2.700000000000000000e+02 2.710000000000000000e+02 2.720000000000000000e+02 2.730000000000000000e+02 2.740000000000000000e+02 2.750000000000000000e+02 2.760000000000000000e+02 2.770000000000000000e+02 2.780000000000000000e+02 2.790000000000000000e+02 2.800000000000000000e+02 2.810000000000000000e+02 2.820000000000000000e+02 2.830000000000000000e+02 2.840000000000000000e+02 2.850000000000000000e+02 2.860000000000000000e+02 2.870000000000000000e+02 2.880000000000000000e+02 2.890000000000000000e+02 2.900000000000000000e+02 2.910000000000000000e+02 2.920000000000000000e+02 2.930000000000000000e+02 2.940000000000000000e+02 2.950000000000000000e+02 2.960000000000000000e+02 2.970000000000000000e+02 2.980000000000000000e+02 2.990000000000000000e+02 3.000000000000000000e+02 3.010000000000000000e+02 3.020000000000000000e+02 3.030000000000000000e+02 3.040000000000000000e+02 3.050000000000000000e+02 3.060000000000000000e+02 3.070000000000000000e+02 3.080000000000000000e+02 3.090000000000000000e+02 3.100000000000000000e+02 3.110000000000000000e+02 3.120000000000000000e+02 3.130000000000000000e+02 3.140000000000000000e+02 3.150000000000000000e+02 3.160000000000000000e+02 3.170000000000000000e+02 3.180000000000000000e+02 3.190000000000000000e+02 3.200000000000000000e+02 3.210000000000000000e+02 3.220000000000000000e+02 3.230000000000000000e+02 3.240000000000000000e+02 3.250000000000000000e+02 3.260000000000000000e+02 3.270000000000000000e+02 3.280000000000000000e+02 3.290000000000000000e+02 3.300000000000000000e+02 3.310000000000000000e+02 3.320000000000000000e+02 3.330000000000000000e+02 3.340000000000000000e+02 3.350000000000000000e+02 3.360000000000000000e+02 3.370000000000000000e+02 3.380000000000000000e+02 3.390000000000000000e+02 3.400000000000000000e+02 3.410000000000000000e+02 3.420000000000000000e+02 3.430000000000000000e+02 3.440000000000000000e+02 3.450000000000000000e+02 3.460000000000000000e+02 3.470000000000000000e+02 3.480000000000000000e+02 3.490000000000000000e+02 3.500000000000000000e+02 3.510000000000000000e+02 3.520000000000000000e+02 3.530000000000000000e+02 3.540000000000000000e+02 3.550000000000000000e+02 3.560000000000000000e+02 3.570000000000000000e+02 3.580000000000000000e+02 3.590000000000000000e+02 3.600000000000000000e+02 3.610000000000000000e+02 3.620000000000000000e+02 3.630000000000000000e+02 3.640000000000000000e+02 3.650000000000000000e+02 3.660000000000000000e+02 3.670000000000000000e+02 3.680000000000000000e+02 3.690000000000000000e+02 3.700000000000000000e+02 3.710000000000000000e+02 3.720000000000000000e+02 3.730000000000000000e+02 3.740000000000000000e+02 3.750000000000000000e+02 3.760000000000000000e+02 3.770000000000000000e+02 3.780000000000000000e+02 3.790000000000000000e+02 3.800000000000000000e+02 3.810000000000000000e+02 3.820000000000000000e+02 3.830000000000000000e+02 3.840000000000000000e+02 3.850000000000000000e+02 3.860000000000000000e+02 3.870000000000000000e+02 3.880000000000000000e+02 3.890000000000000000e+02 3.900000000000000000e+02 3.910000000000000000e+02 3.920000000000000000e+02 3.930000000000000000e+02 3.940000000000000000e+02 3.950000000000000000e+02 3.960000000000000000e+02 3.970000000000000000e+02 3.980000000000000000e+02 3.990000000000000000e+02 4.000000000000000000e+02 4.010000000000000000e+02 4.020000000000000000e+02 4.030000000000000000e+02 4.040000000000000000e+02 4.050000000000000000e+02 4.060000000000000000e+02 4.070000000000000000e+02 4.080000000000000000e+02 4.090000000000000000e+02 4.100000000000000000e+02 4.110000000000000000e+02 4.120000000000000000e+02 4.130000000000000000e+02 4.140000000000000000e+02 4.150000000000000000e+02 4.160000000000000000e+02 4.170000000000000000e+02 4.180000000000000000e+02 4.190000000000000000e+02 4.200000000000000000e+02 4.210000000000000000e+02 4.220000000000000000e+02 4.230000000000000000e+02 4.240000000000000000e+02 4.250000000000000000e+02 4.260000000000000000e+02 4.270000000000000000e+02 4.280000000000000000e+02 4.290000000000000000e+02 4.300000000000000000e+02 4.310000000000000000e+02 4.320000000000000000e+02 4.330000000000000000e+02 4.340000000000000000e+02 4.350000000000000000e+02 4.360000000000000000e+02 4.370000000000000000e+02 4.380000000000000000e+02 4.390000000000000000e+02 4.400000000000000000e+02 4.410000000000000000e+02 4.420000000000000000e+02 4.430000000000000000e+02 4.440000000000000000e+02 4.450000000000000000e+02 4.460000000000000000e+02 4.470000000000000000e+02 4.480000000000000000e+02 4.490000000000000000e+02 4.500000000000000000e+02 4.510000000000000000e+02 4.520000000000000000e+02 4.530000000000000000e+02 4.540000000000000000e+02 4.550000000000000000e+02 4.560000000000000000e+02 4.570000000000000000e+02 4.580000000000000000e+02 4.590000000000000000e+02 4.600000000000000000e+02 4.610000000000000000e+02 4.620000000000000000e+02 4.630000000000000000e+02 4.640000000000000000e+02 4.650000000000000000e+02 4.660000000000000000e+02 4.670000000000000000e+02 4.680000000000000000e+02 4.690000000000000000e+02 4.700000000000000000e+02 4.710000000000000000e+02 4.720000000000000000e+02 4.730000000000000000e+02 4.740000000000000000e+02 4.750000000000000000e+02 4.760000000000000000e+02 4.770000000000000000e+02 4.780000000000000000e+02 4.790000000000000000e+02 4.800000000000000000e+02 4.810000000000000000e+02 4.820000000000000000e+02 4.830000000000000000e+02 4.840000000000000000e+02 4.850000000000000000e+02 4.860000000000000000e+02 4.870000000000000000e+02 4.880000000000000000e+02 4.890000000000000000e+02 4.900000000000000000e+02 4.910000000000000000e+02 4.920000000000000000e+02 4.930000000000000000e+02 4.940000000000000000e+02 4.950000000000000000e+02 4.960000000000000000e+02 4.970000000000000000e+02 4.980000000000000000e+02 4.990000000000000000e+02 5.000000000000000000e+02 5.010000000000000000e+02 5.020000000000000000e+02 5.030000000000000000e+02 5.040000000000000000e+02 5.050000000000000000e+02 5.060000000000000000e+02 5.070000000000000000e+02 5.080000000000000000e+02 5.090000000000000000e+02 5.100000000000000000e+02 5.110000000000000000e+02 5.120000000000000000e+02 5.130000000000000000e+02 5.140000000000000000e+02 5.150000000000000000e+02 5.160000000000000000e+02 5.170000000000000000e+02 5.180000000000000000e+02 5.190000000000000000e+02 5.200000000000000000e+02 5.210000000000000000e+02 5.220000000000000000e+02 5.230000000000000000e+02 5.240000000000000000e+02 5.250000000000000000e+02 5.260000000000000000e+02 5.270000000000000000e+02 5.280000000000000000e+02 5.290000000000000000e+02 5.300000000000000000e+02 5.310000000000000000e+02 5.320000000000000000e+02 5.330000000000000000e+02 5.340000000000000000e+02 5.350000000000000000e+02 5.360000000000000000e+02 5.370000000000000000e+02 5.380000000000000000e+02 5.390000000000000000e+02 5.400000000000000000e+02 5.410000000000000000e+02 5.420000000000000000e+02 5.430000000000000000e+02 5.440000000000000000e+02 5.450000000000000000e+02 5.460000000000000000e+02 5.470000000000000000e+02 5.480000000000000000e+02 5.490000000000000000e+02 5.500000000000000000e+02 5.510000000000000000e+02 5.520000000000000000e+02 5.530000000000000000e+02 5.540000000000000000e+02 5.550000000000000000e+02 5.560000000000000000e+02 5.570000000000000000e+02 5.580000000000000000e+02 5.590000000000000000e+02 5.600000000000000000e+02 5.610000000000000000e+02 5.620000000000000000e+02 5.630000000000000000e+02 5.640000000000000000e+02 5.650000000000000000e+02 5.660000000000000000e+02 5.670000000000000000e+02 5.680000000000000000e+02 5.690000000000000000e+02 5.700000000000000000e+02 5.710000000000000000e+02 5.720000000000000000e+02 5.730000000000000000e+02 5.740000000000000000e+02 5.750000000000000000e+02 5.760000000000000000e+02 5.770000000000000000e+02 5.780000000000000000e+02 5.790000000000000000e+02 5.800000000000000000e+02 5.810000000000000000e+02 5.820000000000000000e+02 5.830000000000000000e+02 5.840000000000000000e+02 5.850000000000000000e+02 5.860000000000000000e+02 5.870000000000000000e+02 5.880000000000000000e+02 5.890000000000000000e+02 5.900000000000000000e+02 5.910000000000000000e+02 5.920000000000000000e+02 5.930000000000000000e+02 5.940000000000000000e+02 5.950000000000000000e+02 5.960000000000000000e+02 5.970000000000000000e+02 5.980000000000000000e+02 5.990000000000000000e+02 6.000000000000000000e+02 6.010000000000000000e+02 6.020000000000000000e+02 6.030000000000000000e+02 6.040000000000000000e+02 6.050000000000000000e+02 6.060000000000000000e+02 6.070000000000000000e+02 6.080000000000000000e+02 6.090000000000000000e+02 6.100000000000000000e+02 6.110000000000000000e+02 6.120000000000000000e+02 6.130000000000000000e+02 6.140000000000000000e+02 6.150000000000000000e+02 6.160000000000000000e+02 6.170000000000000000e+02 6.180000000000000000e+02 6.190000000000000000e+02 6.200000000000000000e+02 6.210000000000000000e+02 6.220000000000000000e+02 6.230000000000000000e+02 6.240000000000000000e+02 6.250000000000000000e+02 6.260000000000000000e+02 6.270000000000000000e+02 6.280000000000000000e+02 6.290000000000000000e+02 6.300000000000000000e+02 6.310000000000000000e+02 6.320000000000000000e+02 6.330000000000000000e+02 6.340000000000000000e+02 6.350000000000000000e+02 6.360000000000000000e+02 6.370000000000000000e+02 6.380000000000000000e+02 6.390000000000000000e+02 6.400000000000000000e+02 6.410000000000000000e+02 6.420000000000000000e+02 6.430000000000000000e+02 6.440000000000000000e+02 6.450000000000000000e+02 6.460000000000000000e+02 6.470000000000000000e+02 6.480000000000000000e+02 6.490000000000000000e+02 6.500000000000000000e+02 6.510000000000000000e+02 6.520000000000000000e+02 6.530000000000000000e+02 6.540000000000000000e+02 6.550000000000000000e+02 6.560000000000000000e+02 6.570000000000000000e+02 6.580000000000000000e+02 6.590000000000000000e+02 6.600000000000000000e+02 6.610000000000000000e+02 6.620000000000000000e+02 6.630000000000000000e+02 6.640000000000000000e+02 6.650000000000000000e+02 6.660000000000000000e+02 6.670000000000000000e+02 6.680000000000000000e+02 6.690000000000000000e+02 6.700000000000000000e+02 6.710000000000000000e+02 6.720000000000000000e+02 6.730000000000000000e+02 6.740000000000000000e+02 6.750000000000000000e+02 6.760000000000000000e+02 6.770000000000000000e+02 6.780000000000000000e+02 6.790000000000000000e+02 6.800000000000000000e+02 6.810000000000000000e+02 6.820000000000000000e+02 6.830000000000000000e+02 6.840000000000000000e+02 6.850000000000000000e+02 6.860000000000000000e+02 6.870000000000000000e+02 6.880000000000000000e+02 6.890000000000000000e+02 6.900000000000000000e+02 6.910000000000000000e+02 6.920000000000000000e+02 6.930000000000000000e+02 6.940000000000000000e+02 6.950000000000000000e+02 6.960000000000000000e+02 6.970000000000000000e+02 6.980000000000000000e+02 6.990000000000000000e+02 7.000000000000000000e+02 7.010000000000000000e+02 7.020000000000000000e+02 7.030000000000000000e+02 7.040000000000000000e+02 7.050000000000000000e+02 7.060000000000000000e+02 7.070000000000000000e+02 7.080000000000000000e+02 7.090000000000000000e+02 7.100000000000000000e+02 7.110000000000000000e+02 7.120000000000000000e+02 7.130000000000000000e+02 7.140000000000000000e+02 7.150000000000000000e+02 7.160000000000000000e+02 7.170000000000000000e+02 7.180000000000000000e+02 7.190000000000000000e+02 7.200000000000000000e+02 7.210000000000000000e+02 7.220000000000000000e+02 7.230000000000000000e+02 7.240000000000000000e+02 7.250000000000000000e+02 7.260000000000000000e+02 7.270000000000000000e+02 7.280000000000000000e+02 7.290000000000000000e+02 7.300000000000000000e+02 7.310000000000000000e+02 7.320000000000000000e+02 7.330000000000000000e+02 7.340000000000000000e+02 7.350000000000000000e+02 7.360000000000000000e+02 7.370000000000000000e+02 7.380000000000000000e+02 7.390000000000000000e+02 7.400000000000000000e+02 7.410000000000000000e+02 7.420000000000000000e+02 7.430000000000000000e+02 7.440000000000000000e+02 7.450000000000000000e+02 7.460000000000000000e+02 7.470000000000000000e+02 7.480000000000000000e+02 7.490000000000000000e+02 7.500000000000000000e+02 7.510000000000000000e+02 7.520000000000000000e+02 7.530000000000000000e+02 7.540000000000000000e+02 7.550000000000000000e+02 7.560000000000000000e+02 7.570000000000000000e+02 7.580000000000000000e+02 7.590000000000000000e+02 7.600000000000000000e+02 7.610000000000000000e+02 7.620000000000000000e+02 7.630000000000000000e+02 7.640000000000000000e+02 7.650000000000000000e+02 7.660000000000000000e+02 7.670000000000000000e+02 7.680000000000000000e+02 7.690000000000000000e+02 7.700000000000000000e+02 7.710000000000000000e+02 7.720000000000000000e+02 7.730000000000000000e+02 7.740000000000000000e+02 7.750000000000000000e+02 7.760000000000000000e+02 7.770000000000000000e+02 7.780000000000000000e+02 7.790000000000000000e+02 7.800000000000000000e+02 7.810000000000000000e+02 7.820000000000000000e+02 7.830000000000000000e+02 7.840000000000000000e+02 7.850000000000000000e+02 7.860000000000000000e+02 7.870000000000000000e+02 7.880000000000000000e+02 7.890000000000000000e+02 7.900000000000000000e+02 7.910000000000000000e+02 7.920000000000000000e+02 7.930000000000000000e+02 7.940000000000000000e+02 7.950000000000000000e+02 7.960000000000000000e+02 7.970000000000000000e+02 7.980000000000000000e+02 7.990000000000000000e+02 8.000000000000000000e+02 8.010000000000000000e+02 8.020000000000000000e+02 8.030000000000000000e+02 8.040000000000000000e+02 8.050000000000000000e+02 8.060000000000000000e+02 8.070000000000000000e+02 8.080000000000000000e+02 8.090000000000000000e+02 8.100000000000000000e+02 8.110000000000000000e+02 8.120000000000000000e+02 8.130000000000000000e+02 8.140000000000000000e+02 8.150000000000000000e+02 8.160000000000000000e+02 8.170000000000000000e+02 8.180000000000000000e+02 8.190000000000000000e+02 8.200000000000000000e+02 8.210000000000000000e+02 8.220000000000000000e+02 8.230000000000000000e+02 8.240000000000000000e+02 8.250000000000000000e+02 8.260000000000000000e+02 8.270000000000000000e+02 8.280000000000000000e+02 8.290000000000000000e+02 8.300000000000000000e+02 8.310000000000000000e+02 8.320000000000000000e+02 8.330000000000000000e+02 8.340000000000000000e+02 8.350000000000000000e+02 8.360000000000000000e+02 8.370000000000000000e+02 8.380000000000000000e+02 8.390000000000000000e+02 8.400000000000000000e+02 8.410000000000000000e+02 8.420000000000000000e+02 8.430000000000000000e+02 8.440000000000000000e+02 8.450000000000000000e+02 8.460000000000000000e+02 8.470000000000000000e+02 8.480000000000000000e+02 8.490000000000000000e+02 8.500000000000000000e+02 8.510000000000000000e+02 8.520000000000000000e+02 8.530000000000000000e+02 8.540000000000000000e+02 8.550000000000000000e+02 8.560000000000000000e+02 8.570000000000000000e+02 8.580000000000000000e+02 8.590000000000000000e+02 8.600000000000000000e+02 8.610000000000000000e+02 8.620000000000000000e+02 8.630000000000000000e+02 8.640000000000000000e+02 8.650000000000000000e+02 8.660000000000000000e+02 8.670000000000000000e+02 8.680000000000000000e+02 8.690000000000000000e+02 8.700000000000000000e+02 8.710000000000000000e+02 8.720000000000000000e+02 8.730000000000000000e+02 8.740000000000000000e+02 8.750000000000000000e+02 8.760000000000000000e+02 8.770000000000000000e+02 8.780000000000000000e+02 8.790000000000000000e+02 8.800000000000000000e+02 8.810000000000000000e+02 8.820000000000000000e+02 8.830000000000000000e+02 8.840000000000000000e+02 8.850000000000000000e+02 8.860000000000000000e+02 8.870000000000000000e+02 8.880000000000000000e+02 8.890000000000000000e+02 8.900000000000000000e+02 8.910000000000000000e+02 8.920000000000000000e+02 8.930000000000000000e+02 8.940000000000000000e+02 8.950000000000000000e+02 8.960000000000000000e+02 8.970000000000000000e+02 8.980000000000000000e+02 8.990000000000000000e+02 9.000000000000000000e+02 9.010000000000000000e+02 9.020000000000000000e+02 9.030000000000000000e+02 9.040000000000000000e+02 9.050000000000000000e+02 9.060000000000000000e+02 9.070000000000000000e+02 9.080000000000000000e+02 9.090000000000000000e+02 9.100000000000000000e+02 9.110000000000000000e+02 9.120000000000000000e+02 9.130000000000000000e+02 9.140000000000000000e+02 9.150000000000000000e+02 9.160000000000000000e+02 9.170000000000000000e+02 9.180000000000000000e+02 9.190000000000000000e+02 9.200000000000000000e+02 9.210000000000000000e+02 9.220000000000000000e+02 9.230000000000000000e+02 9.240000000000000000e+02 9.250000000000000000e+02 9.260000000000000000e+02 9.270000000000000000e+02 9.280000000000000000e+02 9.290000000000000000e+02 9.300000000000000000e+02 9.310000000000000000e+02 9.320000000000000000e+02 9.330000000000000000e+02 9.340000000000000000e+02 9.350000000000000000e+02 9.360000000000000000e+02 9.370000000000000000e+02 9.380000000000000000e+02 9.390000000000000000e+02 9.400000000000000000e+02 9.410000000000000000e+02 9.420000000000000000e+02 9.430000000000000000e+02 9.440000000000000000e+02 9.450000000000000000e+02 9.460000000000000000e+02 9.470000000000000000e+02 9.480000000000000000e+02 9.490000000000000000e+02 9.500000000000000000e+02 9.510000000000000000e+02 9.520000000000000000e+02 9.530000000000000000e+02 9.540000000000000000e+02 9.550000000000000000e+02 9.560000000000000000e+02 9.570000000000000000e+02 9.580000000000000000e+02 9.590000000000000000e+02 9.600000000000000000e+02 9.610000000000000000e+02 9.620000000000000000e+02 9.630000000000000000e+02 9.640000000000000000e+02 9.650000000000000000e+02 9.660000000000000000e+02 9.670000000000000000e+02 9.680000000000000000e+02 9.690000000000000000e+02 9.700000000000000000e+02 9.710000000000000000e+02 9.720000000000000000e+02 9.730000000000000000e+02 9.740000000000000000e+02 9.750000000000000000e+02 9.760000000000000000e+02 9.770000000000000000e+02 9.780000000000000000e+02 9.790000000000000000e+02 9.800000000000000000e+02 9.810000000000000000e+02 9.820000000000000000e+02 9.830000000000000000e+02 9.840000000000000000e+02 9.850000000000000000e+02 9.860000000000000000e+02 9.870000000000000000e+02 9.880000000000000000e+02 9.890000000000000000e+02 9.900000000000000000e+02 9.910000000000000000e+02 9.920000000000000000e+02 9.930000000000000000e+02 9.940000000000000000e+02 9.950000000000000000e+02 9.960000000000000000e+02 9.970000000000000000e+02 9.980000000000000000e+02 9.990000000000000000e+02
1.000000000000000000e+00 1.000000000000000000e+00 1.000000000000000000e+00 1.000000000000000000e+00 1.000000000000000000e+00 1.000000000000000000e+00 1.000000000000000000e+00 1.000000000000000000e+00 1.000000000000000000e+00 1.000000000000000000e+00 1.000000000000000000e+00 1.000000000000000000e+00 1.000000000000000000e+00 1.000000000000000000e+00 1.000000000000000000e+00 1.000000000000000000e+00 1.000000000000000000e+00 1.000000000000000000e+00 1.000000000000000000e+00 1.000000000000000000e+00 1.000000000000000000e+00 1.000000000000000000e+00 1.000000000000000000e+00 1.000000000000000000e+00 1.000000000000000000e+00 1.000000000000000000e+00 1.000000000000000000e+00 1.000000000000000000e+00 1.000000000000000000e+00 1.000000000000000000e+00 1.000000000000000000e+00 1.000000000000000000e+00 1.000000000000000000e+00 1.000000000000000000e+00 1.000000000000000000e+00 1.000000000000000000e+00 1.000000000000000000e+00 1.000000000000000000e+00 1.000000000000000000e+00 1.000000000000000000e+00 1.000000000000000000e+00 1.000000000000000000e+00 1.000000000000000000e+00 1.000000000000000000e+00 1.000000000000000000e+00 1.000000000000000000e+00 1.000000000000000000e+00 1.000000000000000000e+00 1.000000000000000000e+00 1.000000000000000000e+00 1.000000000000000000e+00 1.000000000000000000e+00 1.000000000000000000e+00 1.000000000000000000e+00 1.000000000000000000e+00 1.000000000000000000e+00 1.000000000000000000e+00 1.000000000000000000e+00 1.000000000000000000e+00 1.000000000000000000e+00 1.000000000000000000e+00 1.000000000000000000e+00 1.000000000000000000e+00 1.000000000000000000e+00 1.000000000000000000e+00 1.000000000000000000e+00 1.000000000000000000e+00 1.000000000000000000e+00 1.000000000000000000e+00 1.000000000000000000e+00 1.000000000000000000e+00 1.000000000000000000e+00 1.000000000000000000e+00 1.000000000000000000e+00 1.000000000000000000e+00 1.000000000000000000e+00 1.000000000000000000e+00 1.000000000000000000e+00 1.000000000000000000e+00 1.000000000000000000e+00 1.000000000000000000e+00 1.000000000000000000e+00 1.000000000000000000e+00 1.000000000000000000e+00 1.000000000000000000e+00 1.000000000000000000e+00 1.000000000000000000e+00 1.000000000000000000e+00 1.000000000000000000e+00 1.000000000000000000e+00 1.000000000000000000e+00 1.000000000000000000e+00 1.000000000000000000e+00 1.000000000000000000e+00 1.000000000000000000e+00 1.000000000000000000e+00 1.000000000000000000e+00 1.000000000000000000e+00 1.000000000000000000e+00 1.000000000000000000e+00 1.000000000000000000e+00 1.000000000000000000e+00 1.000000000000000000e+00 1.000000000000000000e+00 1.000000000000000000e+00 1.000000000000000000e+00 1.000000000000000000e+00 1.000000000000000000e+00 1.000000000000000000e+00 1.000000000000000000e+00 1.000000000000000000e+00 1.000000000000000000e+00 1.000000000000000000e+00 1.000000000000000000e+00 1.000000000000000000e+00 1.000000000000000000e+00 1.000000000000000000e+00 1.000000000000000000e+00 1.000000000000000000e+00 1.000000000000000000e+00 1.000000000000000000e+00 1.000000000000000000e+00 1.000000000000000000e+00 1.000000000000000000e+00 1.000000000000000000e+00 1.000000000000000000e+00 1.000000000000000000e+00 1.000000000000000000e+00 1.000000000000000000e+00 1.000000000000000000e+00 1.000000000000000000e+00 1.000000000000000000e+00 1.000000000000000000e+00 1.000000000000000000e+00 1.000000000000000000e+00 1.000000000000000000e+00 1.000000000000000000e+00 1.000000000000000000e+00 1.000000000000000000e+00 1.000000000000000000e+00 1.000000000000000000e+00 1.000000000000000000e+00 1.000000000000000000e+00 1.000000000000000000e+00 1.000000000000000000e+00 1.000000000000000000e+00 1.000000000000000000e+00 1.000000000000000000e+00 1.000000000000000000e+00 1.000000000000000000e+00 1.000000000000000000e+00 1.000000000000000000e+00 1.000000000000000000e+00 1.000000000000000000e+00 1.000000000000000000e+00 1.000000000000000000e+00 1.000000000000000000e+00 1.000000000000000000e+00 1.000000000000000000e+00 1.000000000000000000e+00 1.000000000000000000e+00 1.000000000000000000e+00 1.000000000000000000e+00 1.000000000000000000e+00 1.000000000000000000e+00 1.000000000000000000e+00 1.000000000000000000e+00 1.000000000000000000e+00 1.000000000000000000e+00 1.000000000000000000e+00 1.000000000000000000e+00 1.000000000000000000e+00 1.000000000000000000e+00 1.000000000000000000e+00 1.000000000000000000e+00 1.000000000000000000e+00 1.000000000000000000e+00 1.000000000000000000e+00 1.000000000000000000e+00 1.000000000000000000e+00 1.000000000000000000e+00 1.000000000000000000e+00 1.000000000000000000e+00 1.000000000000000000e+00 1.000000000000000000e+00 1.000000000000000000e+00 1.000000000000000000e+00 1.000000000000000000e+00 1.000000000000000000e+00 1.000000000000000000e+00 1.000000000000000000e+00 1.000000000000000000e+00 1.000000000000000000e+00 1.000000000000000000e+00 1.000000000000000000e+00 1.000000000000000000e+00 1.000000000000000000e+00 1.000000000000000000e+00 1.000000000000000000e+00 1.000000000000000000e+00 1.000000000000000000e+00 1.000000000000000000e+00 1.000000000000000000e+00 1.000000000000000000e+00 1.000000000000000000e+00 1.000000000000000000e+00 1.000000000000000000e+00 1.000000000000000000e+00 1.000000000000000000e+00 1.000000000000000000e+00 1.000000000000000000e+00 1.000000000000000000e+00 1.000000000000000000e+00 1.000000000000000000e+00 1.000000000000000000e+00 1.000000000000000000e+00 1.000000000000000000e+00 1.000000000000000000e+00 1.000000000000000000e+00 1.000000000000000000e+00 1.000000000000000000e+00 1.000000000000000000e+00 1.000000000000000000e+00 1.000000000000000000e+00 1.000000000000000000e+00 1.000000000000000000e+00 1.000000000000000000e+00 1.000000000000000000e+00 1.000000000000000000e+00 1.000000000000000000e+00 1.000000000000000000e+00 1.000000000000000000e+00 1.000000000000000000e+00 1.000000000000000000e+00 1.000000000000000000e+00 1.000000000000000000e+00 1.000000000000000000e+00 1.000000000000000000e+00 1.000000000000000000e+00 1.000000000000000000e+00 1.000000000000000000e+00 1.000000000000000000e+00 1.000000000000000000e+00 1.000000000000000000e+00 1.000000000000000000e+00 1.000000000000000000e+00 1.000000000000000000e+00 1.000000000000000000e+00 1.000000000000000000e+00 1.000000000000000000e+00 1.000000000000000000e+00 1.000000000000000000e+00 1.000000000000000000e+00 1.000000000000000000e+00 1.000000000000000000e+00 1.000000000000000000e+00 1.000000000000000000e+00 1.000000000000000000e+00 1.000000000000000000e+00 1.000000000000000000e+00 1.000000000000000000e+00 1.000000000000000000e+00 1.000000000000000000e+00 1.000000000000000000e+00 1.000000000000000000e+00 1.000000000000000000e+00 1.000000000000000000e+00 1.000000000000000000e+00 1.000000000000000000e+00 1.000000000000000000e+00 1.000000000000000000e+00 1.000000000000000000e+00 1.000000000000000000e+00 1.000000000000000000e+00 1.000000000000000000e+00 1.000000000000000000e+00 1.000000000000000000e+00 1.000000000000000000e+00 1.000000000000000000e+00 1.000000000000000000e+00 1.000000000000000000e+00 1.000000000000000000e+00 1.000000000000000000e+00 1.000000000000000000e+00 1.000000000000000000e+00 1.000000000000000000e+00 1.000000000000000000e+00 1.000000000000000000e+00 1.000000000000000000e+00 1.000000000000000000e+00 1.000000000000000000e+00 1.000000000000000000e+00 1.000000000000000000e+00 1.000000000000000000e+00 1.000000000000000000e+00 1.000000000000000000e+00 1.000000000000000000e+00 1.000000000000000000e+00 1.000000000000000000e+00 1.000000000000000000e+00 1.000000000000000000e+00 1.000000000000000000e+00 1.000000000000000000e+00 1.000000000000000000e+00 1.000000000000000000e+00 1.000000000000000000e+00 1.000000000000000000e+00 1.000000000000000000e+00 1.000000000000000000e+00 1.000000000000000000e+00 1.000000000000000000e+00 1.000000000000000000e+00 1.000000000000000000e+00 1.000000000000000000e+00 1.000000000000000000e+00 1.000000000000000000e+00 1.000000000000000000e+00 1.000000000000000000e+00 1.000000000000000000e+00 1.000000000000000000e+00 1.000000000000000000e+00 1.000000000000000000e+00 1.000000000000000000e+00 1.000000000000000000e+00 1.000000000000000000e+00 1.000000000000000000e+00 1.000000000000000000e+00 1.000000000000000000e+00 1.000000000000000000e+00 1.000000000000000000e+00 1.000000000000000000e+00 1.000000000000000000e+00 1.000000000000000000e+00 1.000000000000000000e+00 1.000000000000000000e+00 1.000000000000000000e+00 1.000000000000000000e+00 1.000000000000000000e+00 1.000000000000000000e+00 1.000000000000000000e+00 1.000000000000000000e+00 1.000000000000000000e+00 1.000000000000000000e+00 1.000000000000000000e+00 1.000000000000000000e+00 1.000000000000000000e+00 1.000000000000000000e+00 1.000000000000000000e+00 1.000000000000000000e+00 1.000000000000000000e+00 1.000000000000000000e+00 1.000000000000000000e+00 1.000000000000000000e+00 1.000000000000000000e+00 1.000000000000000000e+00 1.000000000000000000e+00 1.000000000000000000e+00 1.000000000000000000e+00 1.000000000000000000e+00 1.000000000000000000e+00 1.000000000000000000e+00 1.000000000000000000e+00 1.000000000000000000e+00 1.000000000000000000e+00 1.000000000000000000e+00 1.000000000000000000e+00 1.000000000000000000e+00 1.000000000000000000e+00 1.000000000000000000e+00 1.000000000000000000e+00 1.000000000000000000e+00 1.000000000000000000e+00 1.000000000000000000e+00 1.000000000000000000e+00 1.000000000000000000e+00 1.000000000000000000e+00 1.000000000000000000e+00 1.000000000000000000e+00 1.000000000000000000e+00 1.000000000000000000e+00 1.000000000000000000e+00 1.000000000000000000e+00 1.000000000000000000e+00 1.000000000000000000e+00 1.000000000000000000e+00 1.000000000000000000e+00 1.000000000000000000e+00 1.000000000000000000e+00 1.000000000000000000e+00 1.000000000000000000e+00 1.000000000000000000e+00 1.000000000000000000e+00 1.000000000000000000e+00 1.000000000000000000e+00 1.000000000000000000e+00 1.000000000000000000e+00 1.000000000000000000e+00 1.000000000000000000e+00 1.000000000000000000e+00 1.000000000000000000e+00 1.000000000000000000e+00 1.000000000000000000e+00 1.000000000000000000e+00 1.000000000000000000e+00 1.000000000000000000e+00 1.000000000000000000e+00 1.000000000000000000e+00 1.000000000000000000e+00 1.000000000000000000e+00 1.000000000000000000e+00 1.000000000000000000e+00 1.000000000000000000e+00 1.000000000000000000e+00 1.000000000000000000e+00 1.000000000000000000e+00 1.000000000000000000e+00 1.000000000000000000e+00 1.000000000000000000e+00 1.000000000000000000e+00 1.000000000000000000e+00 1.000000000000000000e+00 1.000000000000000000e+00 1.000000000000000000e+00 1.000000000000000000e+00 1.000000000000000000e+00 1.000000000000000000e+00 1.000000000000000000e+00 1.000000000000000000e+00 1.000000000000000000e+00 1.000000000000000000e+00 1.000000000000000000e+00 1.000000000000000000e+00 1.000000000000000000e+00 1.000000000000000000e+00 1.000000000000000000e+00 1.000000000000000000e+00 1.000000000000000000e+00 1.000000000000000000e+00 1.000000000000000000e+00 1.000000000000000000e+00 1.000000000000000000e+00 1.000000000000000000e+00 1.000000000000000000e+00 1.000000000000000000e+00 1.000000000000000000e+00 1.000000000000000000e+00 1.000000000000000000e+00 1.000000000000000000e+00 1.000000000000000000e+00 1.000000000000000000e+00 1.000000000000000000e+00 1.000000000000000000e+00 1.000000000000000000e+00 1.000000000000000000e+00 1.000000000000000000e+00 1.000000000000000000e+00 1.000000000000000000e+00 1.000000000000000000e+00 1.000000000000000000e+00 1.000000000000000000e+00 1.000000000000000000e+00 1.000000000000000000e+00 1.000000000000000000e+00 1.000000000000000000e+00 1.000000000000000000e+00 1.000000000000000000e+00 1.000000000000000000e+00 1.000000000000000000e+00 1.000000000000000000e+00 1.000000000000000000e+00 1.000000000000000000e+00 1.000000000000000000e+00 1.000000000000000000e+00 1.000000000000000000e+00 1.000000000000000000e+00 1.000000000000000000e+00 1.000000000000000000e+00 1.000000000000000000e+00 1.000000000000000000e+00 1.000000000000000000e+00 1.000000000000000000e+00 1.000000000000000000e+00 1.000000000000000000e+00 1.000000000000000000e+00 1.000000000000000000e+00 1.000000000000000000e+00 1.000000000000000000e+00 1.000000000000000000e+00 1.000000000000000000e+00 1.000000000000000000e+00 1.000000000000000000e+00 1.000000000000000000e+00 1.000000000000000000e+00 1.000000000000000000e+00 1.000000000000000000e+00 1.000000000000000000e+00 1.000000000000000000e+00 1.000000000000000000e+00 1.000000000000000000e+00 1.000000000000000000e+00 1.000000000000000000e+00 1.000000000000000000e+00 1.000000000000000000e+00 1.000000000000000000e+00 1.000000000000000000e+00 1.000000000000000000e+00 1.000000000000000000e+00 1.000000000000000000e+00 1.000000000000000000e+00 1.000000000000000000e+00 1.000000000000000000e+00 1.000000000000000000e+00 1.000000000000000000e+00 1.000000000000000000e+00 1.000000000000000000e+00 1.000000000000000000e+00 1.000000000000000000e+00 1.000000000000000000e+00 1.000000000000000000e+00 1.000000000000000000e+00 1.000000000000000000e+00 1.000000000000000000e+00 1.000000000000000000e+00 1.000000000000000000e+00 1.000000000000000000e+00 1.000000000000000000e+00 1.000000000000000000e+00 1.000000000000000000e+00 1.000000000000000000e+00 1.000000000000000000e+00 1.000000000000000000e+00 1.000000000000000000e+00 1.000000000000000000e+00 1.000000000000000000e+00 1.000000000000000000e+00 1.000000000000000000e+00 1.000000000000000000e+00 1.000000000000000000e+00 1.000000000000000000e+00 1.000000000000000000e+00 1.000000000000000000e+00 1.000000000000000000e+00 1.000000000000000000e+00 1.000000000000000000e+00 1.000000000000000000e+00 1.000000000000000000e+00 1.000000000000000000e+00 1.000000000000000000e+00 1.000000000000000000e+00 1.000000000000000000e+00 1.000000000000000000e+00 1.000000000000000000e+00 1.000000000000000000e+00 1.000000000000000000e+00 1.000000000000000000e+00 1.000000000000000000e+00 1.000000000000000000e+00 1.000000000000000000e+00 1.000000000000000000e+00 1.000000000000000000e+00 1.000000000000000000e+00 1.000000000000000000e+00 1.000000000000000000e+00 1.000000000000000000e+00 1.000000000000000000e+00 1.000000000000000000e+00 1.000000000000000000e+00 1.000000000000000000e+00 1.000000000000000000e+00 1.000000000000000000e+00 1.000000000000000000e+00 1.000000000000000000e+00 1.000000000000000000e+00 1.000000000000000000e+00 1.000000000000000000e+00 1.000000000000000000e+00 1.000000000000000000e+00 1.000000000000000000e+00 1.000000000000000000e+00 1.000000000000000000e+00 1.000000000000000000e+00 1.000000000000000000e+00 1.000000000000000000e+00 1.000000000000000000e+00 1.000000000000000000e+00 1.000000000000000000e+00 1.000000000000000000e+00 1.000000000000000000e+00 1.000000000000000000e+00 1.000000000000000000e+00 1.000000000000000000e+00 1.000000000000000000e+00 1.000000000000000000e+00 1.000000000000000000e+00 1.000000000000000000e+00 1.000000000000000000e+00 1.000000000000000000e+00 1.000000000000000000e+00 1.000000000000000000e+00 1.000000000000000000e+00 1.000000000000000000e+00 1.000000000000000000e+00 1.000000000000000000e+00 1.000000000000000000e+00 1.000000000000000000e+00 1.000000000000000000e+00 1.000000000000000000e+00 1.000000000000000000e+00 1.000000000000000000e+00 1.000000000000000000e+00 1.000000000000000000e+00 1.000000000000000000e+00 1.000000000000000000e+00 1.000000000000000000e+00 1.000000000000000000e+00 1.000000000000000000e+00 1.000000000000000000e+00 1.000000000000000000e+00 1.000000000000000000e+00 1.000000000000000000e+00 1.000000000000000000e+00 1.000000000000000000e+00 1.000000000000000000e+00 1.000000000000000000e+00 1.000000000000000000e+00 1.000000000000000000e+00 1.000000000000000000e+00 1.000000000000000000e+00 1.000000000000000000e+00 1.000000000000000000e+00 1.000000000000000000e+00 1.000000000000000000e+00 1.000000000000000000e+00 1.000000000000000000e+00 1.000000000000000000e+00 1.000000000000000000e+00 1.000000000000000000e+00 1.000000000000000000e+00 1.000000000000000000e+00 1.000000000000000000e+00 1.000000000000000000e+00 1.000000000000000000e+00 1.000000000000000000e+00 1.000000000000000000e+00 1.000000000000000000e+00 1.000000000000000000e+00 1.000000000000000000e+00 1.000000000000000000e+00 1.000000000000000000e+00 1.000000000000000000e+00 1.000000000000000000e+00 1.000000000000000000e+00 1.000000000000000000e+00 1.000000000000000000e+00 1.000000000000000000e+00 1.000000000000000000e+00 1.000000000000000000e+00 1.000000000000000000e+00 1.000000000000000000e+00 1.000000000000000000e+00 1.000000000000000000e+00 1.000000000000000000e+00 1.000000000000000000e+00 1.000000000000000000e+00 1.000000000000000000e+00 1.000000000000000000e+00 1.000000000000000000e+00 1.000000000000000000e+00 1.000000000000000000e+00 1.000000000000000000e+00 1.000000000000000000e+00 1.000000000000000000e+00 1.000000000000000000e+00 1.000000000000000000e+00 1.000000000000000000e+00 1.000000000000000000e+00 1.000000000000000000e+00 1.000000000000000000e+00 1.000000000000000000e+00 1.000000000000000000e+00 1.000000000000000000e+00 1.000000000000000000e+00 1.000000000000000000e+00 1.000000000000000000e+00 1.000000000000000000e+00 1.000000000000000000e+00 1.000000000000000000e+00 1.000000000000000000e+00 1.000000000000000000e+00 1.000000000000000000e+00 1.000000000000000000e+00 1.000000000000000000e+00 1.000000000000000000e+00 1.000000000000000000e+00 1.000000000000000000e+00 1.000000000000000000e+00 1.000000000000000000e+00 1.000000000000000000e+00 1.000000000000000000e+00 1.000000000000000000e+00 1.000000000000000000e+00 1.000000000000000000e+00 1.000000000000000000e+00 1.000000000000000000e+00 1.000000000000000000e+00 1.000000000000000000e+00 1.000000000000000000e+00 1.000000000000000000e+00 1.000000000000000000e+00 1.000000000000000000e+00 1.000000000000000000e+00 1.000000000000000000e+00 1.000000000000000000e+00 1.000000000000000000e+00 1.000000000000000000e+00 1.000000000000000000e+00 1.000000000000000000e+00 1.000000000000000000e+00 1.000000000000000000e+00 1.000000000000000000e+00 1.000000000000000000e+00 1.000000000000000000e+00 1.000000000000000000e+00 1.000000000000000000e+00 1.000000000000000000e+00 1.000000000000000000e+00 1.000000000000000000e+00 1.000000000000000000e+00 1.000000000000000000e+00 1.000000000000000000e+00 1.000000000000000000e+00 1.000000000000000000e+00 1.000000000000000000e+00 1.000000000000000000e+00 1.000000000000000000e+00 1.000000000000000000e+00 1.000000000000000000e+00 1.000000000000000000e+00 1.000000000000000000e+00 1.000000000000000000e+00 1.000000000000000000e+00 1.000000000000000000e+00 1.000000000000000000e+00 1.000000000000000000e+00 1.000000000000000000e+00 1.000000000000000000e+00 1.000000000000000000e+00 1.000000000000000000e+00 1.000000000000000000e+00 1.000000000000000000e+00 1.000000000000000000e+00 1.000000000000000000e+00 1.000000000000000000e+00 1.000000000000000000e+00 1.000000000000000000e+00 1.000000000000000000e+00 1.000000000000000000e+00 1.000000000000000000e+00 1.000000000000000000e+00 1.000000000000000000e+00 1.000000000000000000e+00 1.000000000000000000e+00 1.000000000000000000e+00 1.000000000000000000e+00 1.000000000000000000e+00 1.000000000000000000e+00 1.000000000000000000e+00 1.000000000000000000e+00 1.000000000000000000e+00 1.000000000000000000e+00 1.000000000000000000e+00 1.000000000000000000e+00 1.000000000000000000e+00 1.000000000000000000e+00 1.000000000000000000e+00 1.000000000000000000e+00 1.000000000000000000e+00 1.000000000000000000e+00 1.000000000000000000e+00 1.000000000000000000e+00 1.000000000000000000e+00 1.000000000000000000e+00 1.000000000000000000e+00 1.000000000000000000e+00 1.000000000000000000e+00 1.000000000000000000e+00 1.000000000000000000e+00 1.000000000000000000e+00 1.000000000000000000e+00 1.000000000000000000e+00 1.000000000000000000e+00 1.000000000000000000e+00 1.000000000000000000e+00 1.000000000000000000e+00 1.000000000000000000e+00 1.000000000000000000e+00 1.000000000000000000e+00 1.000000000000000000e+00 1.000000000000000000e+00 1.000000000000000000e+00 1.000000000000000000e+00 1.000000000000000000e+00 1.000000000000000000e+00 1.000000000000000000e+00 1.000000000000000000e+00 1.000000000000000000e+00 1.000000000000000000e+00 1.000000000000000000e+00 1.000000000000000000e+00 1.000000000000000000e+00 1.000000000000000000e+00 1.000000000000000000e+00 1.000000000000000000e+00 1.000000000000000000e+00 1.000000000000000000e+00 1.000000000000000000e+00 1.000000000000000000e+00 1.000000000000000000e+00 1.000000000000000000e+00 1.000000000000000000e+00 1.000000000000000000e+00 1.000000000000000000e+00 1.000000000000000000e+00 1.000000000000000000e+00 1.000000000000000000e+00 1.000000000000000000e+00 1.000000000000000000e+00 1.000000000000000000e+00 1.000000000000000000e+00 1.000000000000000000e+00 1.000000000000000000e+00 1.000000000000000000e+00 1.000000000000000000e+00 1.000000000000000000e+00 1.000000000000000000e+00 1.000000000000000000e+00 1.000000000000000000e+00 1.000000000000000000e+00 1.000000000000000000e+00 1.000000000000000000e+00 1.000000000000000000e+00 1.000000000000000000e+00 1.000000000000000000e+00 1.000000000000000000e+00 1.000000000000000000e+00 1.000000000000000000e+00 1.000000000000000000e+00 1.000000000000000000e+00 1.000000000000000000e+00 1.000000000000000000e+00 1.000000000000000000e+00 1.000000000000000000e+00 1.000000000000000000e+00 1.000000000000000000e+00 1.000000000000000000e+00 1.000000000000000000e+00 1.000000000000000000e+00 1.000000000000000000e+00 1.000000000000000000e+00 1.000000000000000000e+00 1.000000000000000000e+00 1.000000000000000000e+00 1.000000000000000000e+00 1.000000000000000000e+00 1.000000000000000000e+00 1.000000000000000000e+00 1.000000000000000000e+00 1.000000000000000000e+00 1.000000000000000000e+00 1.000000000000000000e+00 1.000000000000000000e+00 1.000000000000000000e+00 1.000000000000000000e+00 1.000000000000000000e+00 1.000000000000000000e+00 1.000000000000000000e+00 1.000000000000000000e+00 1.000000000000000000e+00 1.000000000000000000e+00 1.000000000000000000e+00 1.000000000000000000e+00 1.000000000000000000e+00 1.000000000000000000e+00 1.000000000000000000e+00 1.000000000000000000e+00 1.000000000000000000e+00 1.000000000000000000e+00 1.000000000000000000e+00 1.000000000000000000e+00 1.000000000000000000e+00 1.000000000000000000e+00 1.000000000000000000e+00 1.000000000000000000e+00 1.000000000000000000e+00 1.000000000000000000e+00 1.000000000000000000e+00 1.000000000000000000e+00 1.000000000000000000e+00 1.000000000000000000e+00 1.000000000000000000e+00 1.000000000000000000e+00 1.000000000000000000e+00 1.000000000000000000e+00 1.000000000000000000e+00 1.000000000000000000e+00 1.000000000000000000e+00 1.000000000000000000e+00 1.000000000000000000e+00 1.000000000000000000e+00 1.000000000000000000e+00 1.000000000000000000e+00 1.000000000000000000e+00 1.000000000000000000e+00 1.000000000000000000e+00 1.000000000000000000e+00 1.000000000000000000e+00 1.000000000000000000e+00 1.000000000000000000e+00 1.000000000000000000e+00 1.000000000000000000e+00 1.000000000000000000e+00 1.000000000000000000e+00 1.000000000000000000e+00 1.000000000000000000e+00 1.000000000000000000e+00 1.000000000000000000e+00 1.000000000000000000e+00 1.000000000000000000e+00 1.000000000000000000e+00 1.000000000000000000e+00 1.000000000000000000e+00 1.000000000000000000e+00 1.000000000000000000e+00 1.000000000000000000e+00 1.000000000000000000e+00 1.000000000000000000e+00 1.000000000000000000e+00 1.000000000000000000e+00 1.000000000000000000e+00 1.000000000000000000e+00 1.000000000000000000e+00 1.000000000000000000e+00 1.000000000000000000e+00 1.000000000000000000e+00 1.000000000000000000e+00 1.000000000000000000e+00 1.000000000000000000e+00 1.000000000000000000e+00 1.000000000000000000e+00 1.000000000000000000e+00 1.000000000000000000e+00 1.000000000000000000e+00 1.000000000000000000e+00 1.000000000000000000e+00 1.000000000000000000e+00 1.000000000000000000e+00 1.000000000000000000e+00 1.000000000000000000e+00 1.000000000000000000e+00 1.000000000000000000e+00 1.000000000000000000e+00 1.000000000000000000e+00 1.000000000000000000e+00 1.000000000000000000e+00 1.000000000000000000e+00 1.000000000000000000e+00 1.000000000000000000e+00 1.000000000000000000e+00 1.000000000000000000e+00 1.000000000000000000e+00 1.000000000000000000e+00 1.000000000000000000e+00 1.000000000000000000e+00 1.000000000000000000e+00 1.000000000000000000e+00 1.000000000000000000e+00 1.000000000000000000e+00 1.000000000000000000e+00 1.000000000000000000e+00 1.000000000000000000e+00 1.000000000000000000e+00 1.000000000000000000e+00 1.000000000000000000e+00 1.000000000000000000e+00 1.000000000000000000e+00 1.000000000000000000e+00 1.000000000000000000e+00 1.000000000000000000e+00 1.000000000000000000e+00 1.000000000000000000e+00 1.000000000000000000e+00 1.000000000000000000e+00 1.000000000000000000e+00 1.000000000000000000e+00 1.000000000000000000e+00 1.000000000000000000e+00 1.000000000000000000e+00 1.000000000000000000e+00 1.000000000000000000e+00 1.000000000000000000e+00
4.886971957313757109e-02 5.060319135167676841e-01 -2.676623787758647954e-01 7.677220426886248728e-01 5.209757683011644325e-01 5.230570441962131278e-01 5.892171198559369438e-01 3.467122989969310676e-01 5.567648102022628720e-01 5.174227967592331945e-01 1.084166616038866771e+00 -7.174452241170564681e-01 1.415918540541063253e+00 4.626284560260095491e-01 5.186802130420749002e-01 4.075018529391271627e-01 8.579615338778505684e-01 9.795428779895537508e-01 7.365295628916268544e-01 5.150155027324245793e-01 3.729250678165114685e-01 9.901689096465378093e-01 3.713264338702914613e-01 5.322084565360539754e-01 7.686263832419285014e-02 6.672319640660083762e-01 3.964481598515405270e-01 6.983368986320389604e-01 5.393982625505989725e-01 1.610976354391438381e+00 4.974523134289017268e-01 6.065746759090168139e-01 7.186899803239501505e-01 5.225141468578829995e-01 6.964939311459716897e-01 4.569128584988499386e-01 5.429406239426882719e-01 1.832175018912880038e+00 -8.317072147002281535e-02 5.212991126299549860e-01 -2.028196337462767618e-01 -5.621216060495957123e-01 7.473708223707267173e-01 2.292639612540027516e-01 3.082391413620274023e-01 4.929617264166202828e-01 7.678755409745622318e-01 5.110233079897948949e-01 6.552977894101772449e-01 1.105470339733406054e-02 2.861884591108772649e-02 7.855061370529065057e-01 6.805330302410069754e-01 4.256170026514700666e-01 4.617803648060722077e-01 1.956407352844804701e-02 5.413008334306372848e-01 5.137596849785101005e-01 1.965936383644154295e-01 5.150469020573539281e-01 9.227345161222471059e-01 4.824739309932788989e-01 5.111591488548848927e-01 3.713263954267344014e-01 6.776830361539553094e-01 6.295527401469803719e-01 5.126445735989639818e-01 3.716082856099445220e-01 5.653650025313877725e-01 2.964374340381772943e-02 4.442750945329637657e-01 5.940402614876405529e-01 5.244786454466275893e-01 9.359357971566827430e-03 1.519296931053150335e+00 5.418254211211517291e-01 6.371368029596046201e-01 7.230760822491120177e-01 5.213596737210959287e-01 1.386797502320047393e+00 5.426875132458860440e-01 3.402847087040129503e-01 1.431073808857606489e+00 7.488139985025197287e-01 5.091667385397156131e-01 7.532455916826029663e-01 7.988489391085360491e-01 5.418023290239629697e-01 4.204789845602313059e-01 5.764053329161936690e-01 3.062345470108714385e-01 2.213539178788940465e+00 7.728849597815811157e-01 3.008221248345490512e-02 4.789069951851696594e-01 4.885345667097028000e-01 5.645250052751120684e-01 4.815573606954607899e-01 1.898685750330401656e-01 6.577792437889885546e-01 1.630243445033315863e+00 6.888788944222909993e-01 5.423171514402220783e-01 6.354229905153974123e-01 8.575733567561272253e-01 -2.115595953924945150e+00 -1.238026187708439751e+00 5.305871447509977745e-01 6.133348326057451727e-01 9.693871078642399830e-01 5.851626094073105744e-01 4.259433837604973960e-01 1.757261700253640313e-01 5.011312656553802425e-01 5.257893349233574432e-01 4.959744815819450148e-01 4.649046517016238167e-01 5.128353840163695221e-01 9.716165605510994618e-01 5.081388382698063255e-01 1.312608869001879786e+00 5.429300827449148326e-01 6.234795362997128665e-01 -5.050815443890509515e-01 5.196172429909310386e-01 1.966129327097607238e+00 5.316915479026358415e-01 5.399627372601614184e-01 6.785756035868989455e-01 5.293095502583539114e-01 5.590559763136668803e-01 5.163970875497126967e-01 4.317324760426297647e-01 4.283469822514567871e-01 -3.468660715820833240e-01 -1.713817401495209003e-01 6.627996974209156011e-01 5.397916351243311345e-02 1.006719718867677527e+00 5.825036507473021485e-01 5.102237803116889125e-01 8.711440031204354950e-01 5.335605809160454127e-01 5.162149143050653866e-01 5.174962776050057167e-01 4.269341477895383791e-02 9.542058180383963251e-01 -1.070550810840886768e-01 4.309524207713825716e-01 -9.120549250033613831e-01 7.596614062707560677e-01 -2.887043480571005460e-01 4.929795575911738448e-01 5.577674337546203454e-01 4.837350875633278924e-01 5.138784403361148501e-01 2.004426369722802193e+00 -1.435211626110179939e-01 8.216763478749289362e-01 6.706970483361773816e-01 5.491120828261155662e-01 4.300673461889418792e-01 5.185934081446429422e-01 5.184202447730396068e-01 1.071898612094244863e+00 2.272931716991106466e-01 8.519469654706158801e-01 3.273654162377947485e-01 4.211460173899533865e-01 6.557899716590749328e-01 5.715547390868299660e-01 7.682381297903676520e-01 4.929132413452260719e-01 5.223937689135155216e-01 4.035451582244743429e-01 4.712188147344503059e-02 2.096684493046425402e-01 1.020350588641335543e-01 7.534438043431505028e-01 1.143488248139294949e+00 6.802682725741198144e-01 5.162630929173737115e-01 -1.708315144904546945e-01 4.380707465777862186e-01 5.373631652035445461e-01 5.559428957821681561e-01 5.151487223223306655e-01 5.302730235385676449e-01 2.840150132550931072e+00 5.005432364841587711e-01 5.581119835799746021e-01 -9.122807370521265335e-01 5.429790418058526580e-01 5.204793808058991722e-01 1.963252256775138982e-01 5.165324015925758516e-01 9.418597589268297154e-01 5.095508757584092940e-01 4.999904641453308818e-01 5.062812961536641287e-01 6.322660363317523791e-01 5.013941384605901108e-01 8.785050944614370971e-01 6.019302728649789103e-01 5.432141269538048878e-01 4.999905138012546990e-01 2.132833884476936503e-01 1.296554667938708327e+00 5.615165701695552514e-01 4.435137981003342000e-01 4.249237282680261574e-01 -9.190870742963103135e-02 4.920627346190097340e-01 1.557123169374192706e-01 5.212283739098446667e-01 5.221943800554748050e-01 5.227013000671266729e-01 5.196113614480162290e-01 5.195790513040151604e-01 5.231283281678938968e-01 4.379533525920248915e-01 5.719438890187638069e-01 -7.165518850765720815e-01 6.172378973906479382e-01 4.336895415225996975e-01 3.609968006137799779e-01 4.040425860742933445e-02 1.327201512848404930e+00 9.675247099564627806e-01 4.927605692207021049e-01 -1.025748005311110239e-01 1.063096656647430027e+00 5.178388993944881280e-01 4.570623025257604666e-01 6.390656833461882957e-01 4.089531922225262961e-01 2.794283864400862738e-01 1.721094930170058435e-01 -1.613439999424650662e-01 -7.830156938993840243e-02 4.584177742218970564e-01 5.123867799154585567e-01 -1.145290643663702118e-01 4.308606033092882703e-01 5.225377885969377800e-01 5.064210998154783372e-01 -9.575554711405025177e-02 7.591996550286043144e-01 -2.339353018300848408e+00 6.170049680852797147e-01 -6.436209326207864567e-01 4.988080249062749050e-01 5.219620934135902335e-01 3.713282020611406997e-01 4.802659926812590241e-01 5.643718158603733270e-01 5.360286074778152221e-01 7.774989959465408162e-01 5.650090269785215114e-01 1.698103342585467468e+00 6.821584751954505865e-01 6.842248076760598652e-01 4.604557838640749301e-01 3.807999600994788070e-01 9.227344770241460159e-01 4.471178977310518166e-01 2.718832312345490720e+00 4.674935137466736945e-01 2.249625799611702781e-01 7.543433393756197036e-01 5.052648370458826532e-01 9.233732028368085709e-01 5.173237354786601738e-01 5.774670555922157833e-01 5.205108529336409662e-01 1.132187929535983129e+00 7.691115757234967543e-01 8.589087573373352935e-01 8.047048258185741654e-01 5.592144961625322708e-01 6.828854696372629318e-01 5.120183370149140600e-01 3.775436688956192999e-01 -7.379972030372894398e-01 3.889619392127983688e-01 4.997530410615598218e-01 5.617209833787952800e-01 5.456350774651834712e-01 4.959745228414488283e-01 6.099772436918328156e-01 5.421956376464762695e-01 -8.916817709454619711e-01 7.479418451162844761e-01 5.340881470920405549e-01 -5.960932106530468857e-03 4.925184124064186375e-01 1.856320288631771787e+00 5.066269078311411711e-01 5.189275775165654858e-01 4.309605236851095644e-01 -3.471207884782569586e+00 5.203907064834975005e-01 2.895119157300004353e+00 7.677437197257493962e-01 4.970135608558311491e-01 -5.729895716614308299e-01 5.145061114171306516e-01 5.193327977983670518e-01 4.477058221290749485e-01 4.499063698458671268e-01 3.465568029934620875e-01 6.478654029151796889e-01 3.140182069517126195e-01 5.232471528018901585e-01 5.255920317441997724e-01 3.514916467595212701e-01 5.098721191593673652e-01 7.675145570575923060e-01 5.196280805092264865e-01 1.208337708105902575e+00 2.553091691025236032e-02 2.232505060372479200e+00 2.667153147723073658e+00 4.949368680750352856e-01 -2.275532465063677956e-01 3.945810337738465678e-01 4.002356784717386873e-01 7.381612209221446452e-01 1.389798389431432080e+00 5.328999527096822675e-01 1.132361097823570972e+00 5.191285647684098503e-01 1.205769504669125108e-01 1.258669368045935766e+00 5.168709217216517215e-01 5.548325583581703579e-01 5.176718208570373347e-01 9.055938782973272927e-01 -3.796832446348888279e+00 1.649759328571831718e+00 5.149188765850172267e-01 6.361593008132171434e-01 5.177640909947867076e-01 1.832175019515078107e+00 2.988561045498449031e-01 5.598074217610801151e-01 5.012362494627342624e-01 5.506459876800536835e-01 1.373368715462835787e+00 5.480269652558243942e-01 4.999907802012820146e-01 4.308575151664962299e-01 6.019302710815538360e-01 4.772521183902526665e-01 5.701749151423828321e-01 9.011403313862279552e-01 5.188580316500008838e-01 3.823671274656937902e-01 1.591252945199919944e-01 6.607896432567768041e-01 5.219668445624695563e-01 3.178893935739909860e-01 5.598073963336704928e-01 6.406460038671492052e-01 5.227704746602163111e-01 1.037513717575512251e+00 9.515313435544314746e-01 1.151122866692076752e+00 5.237633761837623414e-01 2.179462252394928079e-01 9.227337889657467596e-01 -1.096546677521012675e-01 9.336541861103813122e-01 6.301536191276866372e-01 2.671202660989801733e-02 5.145816906413156477e-01 9.198097934471928250e-01 3.854929486918213244e-01 4.922594044278938985e-01 3.009324167411318030e-01 -3.385724734707156736e-01 -2.503120354447443852e+00 5.107035405644875237e-01 6.019302687681535868e-01 6.019302636746636237e-01 5.036157619080920966e-01 3.764715538076360835e-01 -2.314078459161222345e-01 2.921009168419201329e-01 5.258755227544872346e-01 7.096420296828839236e-01 5.216258785110041707e-01 1.032179824799696943e+00 4.999900782068741334e-01 5.208745976106107234e-01 4.908683842710839240e-01 2.824771944602521012e-01 6.596353911756819288e-01 5.109555207033361635e-01 5.201366306596549860e-01 5.117393337095142991e-01 3.045900284681216097e-01 1.641654803518127759e-02 6.019302692275553257e-01 6.627387703681284492e-01 5.190503709263325494e-01 3.964945088736684942e-01 8.597763587951930964e-01 7.484189929630804539e-01 5.642750437911674410e-01 1.896045982535553787e+00 4.973661646476325582e-01 -3.148550535277292894e+00 7.681210391125151693e-01 1.537057613209882545e+00 5.887818279991462456e-01 -1.097391309860795028e+00 8.175660320650209867e-01 4.396319842486850482e-01 5.295455969929490081e-01 4.971500606657847099e-01 -4.014289192954985652e-01 5.104290722057895913e-01 1.075041708334091517e+00 4.646441601879964245e-01 -3.880810267941026126e-01 5.125466784651958596e-01 5.158969366206265228e-01 7.911139551851632534e-01 4.874873786987128366e-01 5.904180525238389432e-01 -5.384822818825200086e-01 5.611179320521130220e-01 5.155157195359029165e-01 5.884202914774475657e-01 5.135032750483997654e-01 7.693055637671502023e-01 5.179385650669663388e-01 6.173111568705812457e-01 5.101237929039136310e-01 5.075155448752430853e-01 2.566533485734642239e-01 3.170006512870346405e-01 3.511368539811929312e-01 9.690454093337212971e-01 5.555351116681834789e-01 3.235990256922917752e+00 6.572982031441229056e-01 6.551061508215203499e-01 5.483224363165732917e-01 5.673324509106505431e-01 2.176777429438280995e-02 4.913207738276425540e-01 5.041393615667041361e-01 5.218695174307759199e-01 1.159000630417564404e+00 7.691709518704360482e-01 5.179455913158601543e-01 4.394523895594302787e-01 1.119039424688580642e+00 5.289939417572523395e-01 5.702503799295457476e-01 4.943961776135527564e-01 8.274178750699394680e-01 5.154504286394347989e-01 9.411463229411760611e-01 5.325972818896256289e-01 5.199764686511337830e-01 2.586050007767162415e-02 5.339512817997886795e-01 8.993317464161036667e-03 3.039899778991818069e-01 4.022264650096257776e-01 5.784232997046045988e-01 7.855417847450278934e-01 5.057498358170210428e-01 3.856455684381211446e-01 1.020892762751238192e-01 5.030162297728690834e-01 5.391404120592228066e-01 4.468191403493814162e-01 1.837656767884434175e-02 5.184489530597405915e-01 2.552965150318888821e-01 5.214248988537399931e-01 4.108762501914900445e-01 1.261813471801190856e+00 7.648323236093129696e-01 5.072714953986088293e-01 2.511050061261735356e-01 7.710779599999827427e-01 4.400801867430323422e-01 9.995032143082583920e-01 5.928879238054207690e-01 6.167938877038730006e-01 7.025553862002221761e-01 2.015882511026880319e+00 4.791495331601933749e-01 5.168475417993618759e-01 5.103513566449259242e-01 7.476861641216573373e-01 5.938211055446723785e-01 8.596538974355188989e-01 -5.808693338274643070e-01 3.815389942026389258e-01 5.176617198219386484e-01 4.310336626108379754e-01 4.068519050058286846e-01 -6.307098554006312918e-01 3.862312020145145519e-01 5.227654579248363076e-01 7.297244863654985814e-01 6.688109937694450835e-01 1.525921394886103899e+00 5.208626170669611311e-01 5.236546502207760634e-01 -7.220005916045534322e-01 5.167356139566200435e-01 1.235276685593187374e+00 7.192554105876050041e-01 2.824494547665827304e-01 2.427774809934701294e-01 -1.784708878526539699e+00 5.544556175988936131e-01 1.878404283941905728e-01 1.106098702839338088e+00 8.236294824309617901e-01 5.283010226593101155e-01 5.428923085614090205e-01 5.882316809734333685e-01 7.681662252286961534e-01 4.280304283599511983e-01 5.557130780926141655e-01 2.155833037908571129e-02 5.624049103000116068e-01 5.570739752894384722e-01 4.451508677908059264e-01 5.121296251219689122e-01 4.551048851946442597e-01 1.227291399676704531e+00 -9.943716261805293777e-02 -2.420587980064754507e-01 4.126128633585749439e-01 5.437828309980057284e-01 5.325227941863580616e-01 5.128140983481181969e-01 -8.754653092276751813e-01 3.200543353127263568e+00 5.017840764416154897e-01 4.410226375702903101e-01 4.411335501670177739e-01 5.155434255068133131e-01 5.079780330268949262e-01 5.176279316593817015e-01 3.266810322219759755e-01 6.059142217110776718e-01 5.193620097774774846e-01 5.099834665415662327e-01 3.291528865626007216e-01 4.031454789382832860e-01 5.693176433195472619e-01 4.053719862891425052e-01 5.313564232303349399e-01 5.414065288838931789e-01 6.735849273144138838e-01 1.020203235311561984e+00 2.335832955999079363e+00 5.121013074150698730e-01 4.992757554205519699e-01 3.751122340465981586e-01 4.767012549496986162e-01 3.765710169865827406e-01 5.175479197002494924e-01 5.239651169767488570e-01 5.018728989566242360e-01 5.665245601060460157e-01 4.940630728864444099e-01 7.677715863751763958e-01 3.646444424449827859e-01 4.121290083322124431e-01 4.163082639329074852e-01 5.071258632240491782e-01 1.098168655101011415e-01 9.227344959249188516e-01 5.679376311077861672e-01 9.887229263746559471e-02 1.913313512300124586e+00 3.059435723403493013e-01 4.095608788642001730e-01 5.944933192485422069e-01 6.484164594860505892e-02 5.478601618558721631e-01 1.526441031974566931e+00 7.955535601084403607e-01 7.155304926102572516e-01 5.216186045187144460e-01 5.431698139664232761e-01 4.409691449958757503e-01 6.557985180141527870e-01 5.466313346458869793e-01 5.228895052185843495e-01 -2.493093854216625604e-01 5.006723528885556052e-01 -1.557065543349855030e+00 4.812416560699565582e-01 5.152700162932876138e-01 5.171507681045621752e-01 4.309743866546273949e-01 9.227344959925939394e-01 2.213225241503219420e-01 5.196264875448893816e-01 1.360085431243949206e+00 -5.727974829388935429e-01 5.233139898036711646e-01 1.149428330889321392e+00 1.544760996774845019e+00 5.609424654095810370e-01 5.209988307837825072e-01 -6.171984748807692739e-02 -1.705832909066717251e+00 2.712947361723900275e-01 8.254359733710611158e-01 5.233612571650871903e-01 5.177653031557863939e-01 6.149884330867677606e-01 4.819213077176546234e-01 -4.195695093812670251e-01 8.289560812278886637e-01 4.959736775739887471e-01 3.267966469327489021e-01 5.388079037981308161e-01 -3.460880464266382663e-03 -1.672403866851680521e-01 1.817429169217752438e+00 4.119700917659577799e-01 5.471765982587548649e-01 5.224393753217723146e-01 3.226504641232498249e-01 5.356433130979674218e-01 -1.152139964764225255e-01 -1.264055353093653133e+00 5.152141644887058280e-01 5.367272049050322291e-01 4.844604242160437391e-01 5.916338673539519588e-01 5.160421996971560343e-01 5.464726426933108616e-01 5.369990899071193091e-01 5.647108646303150570e-01 1.037169426743957956e+00 7.172411552744031304e-01 5.156688122511915440e-01 6.169245297976129194e-01 4.943338929176615548e-01 4.915731076073991956e-01 4.931707315302355510e-02 5.598074574063888198e-01 4.420737819605337626e-01 5.508083374441025137e-01 7.570334676985568390e-01 8.709945695475881378e-01 8.596321839124151376e-01 -5.297854560484406283e-01 5.175336457349212216e-01 4.517750646448236429e-01 5.221501782911573963e-01 5.936127190731536052e-01 9.124532619518629373e-01 5.301453517957533945e-01 5.290403762601419979e-01 -2.863806118161315029e-01 -8.888828525340198849e-01 2.326502249610519435e+00 5.045618073076522103e-01 9.018117767953635067e-01 4.158408323882668012e-01 5.753686658675034593e-01 3.918532372550329601e-01 1.516365578389236024e-01 5.212737713041247778e-01 5.433621387852924922e-01 -5.299741763009060622e-03 5.234151291141601048e-01 4.425234276271272083e-01 5.261125670141900690e-01 5.626052356482326156e-01 5.217504770958472093e-01 6.269890021280010162e-01 4.195769656457797869e-01 5.576327311274771326e-01 4.742144385970044063e-01 5.252555672498754324e-01 4.125525417405541129e-01 5.153023897084509919e-01 -2.585038742810618073e-01 5.151591731667968244e-01 6.420372552006773370e-01 5.463803743339967767e-01 7.676920372949771476e-01 9.227347747706121650e-01 7.275921767028750153e-01 -6.094692474146671257e-01 9.819197421810635928e-01 1.832175018922131748e+00 5.021963057695291166e-01 4.637773216866390436e-01 1.084552133175057165e+00 5.681330146891373500e-01 7.675642799842330444e-01 5.223901124122143358e-01 1.863695733845555536e+00 5.212985033685939573e-01 4.308606217059721133e-01 1.235491309070040344e+00 -6.553793165699031698e-02 5.052600567382454777e-01 -1.563749333367555616e-01 -9.778226844378191673e-01 -1.671912804424716681e-01 7.730442917550339743e-01 5.747794179402119230e-01 5.149833799169779569e-01 -3.223494724761974406e-01 5.284636526132289180e-01 5.470308428630228648e-02 -4.005316521142848751e-01 5.254612752117412411e-01 5.173509535653646463e-01 5.287265066123103541e-01 5.304274447586045937e-01 4.866108841423982256e-01 9.154410156930217202e-01 -4.314203127619664624e-01 5.208818928700812423e-01 5.018973562611857009e-01 5.974842116499824440e-01 1.172844671978498621e+00 4.881350116287183072e-01 6.738811678578229269e-01 5.230508437488754492e-01 4.865338088535330757e-02 -4.021205278318036314e-01 5.549156184580109619e-01 5.676071665490290963e-01 6.857148946603742745e-01 5.255065713575290953e-01 3.614580954227943344e-01 5.210322664402711190e-01 5.202961011693792992e-01 3.935793288388696465e-01 5.307259972983495722e-01 8.404610644972482225e-01 2.581656790617594677e+00 -2.478842209590729206e-01 6.595496484095757506e-01 3.360465354614377009e-01 2.035186224907414854e-01 6.601533737360005816e-01 -5.642011842329365534e-02 -1.570950588220336064e+00 4.991728765614931174e-01 2.643863933515496534e+00 5.701574500486943364e-01 1.641495350801906172e-01 1.603062359321823782e-01 4.959744814398727719e-01 5.881878963867933630e-01 1.576186532146134356e+00 5.088608166058372628e-01 1.260916454348658400e-01 4.206392313898521529e-01 1.726606415591370070e+00 6.035972915522088700e-01 7.803637999051541430e-01 5.199759708892562893e-01 7.383476307207303968e-01 4.627637533354136967e-01 5.773391121279786153e-01 2.271703175108305897e-02 5.232884070147220124e-01 5.468944664565138503e-01 -5.805252771458352390e-01 -8.940798552968143298e-02 1.180168919250655701e+00 2.389789881897002588e-01 4.811476425906944243e-01 7.136738351241672662e-01 5.400919870958894586e-01 2.016158540804131150e+00 6.736714213149912478e-01 1.992133144574404630e-02 3.396193527304364190e-01 3.955700049949772978e-01 1.134047134316706673e+00 5.028176971035324128e-01 -2.715342102986134307e-02 5.339767313373386948e-01 -1.071268221940290498e-02 5.412151942258442983e-01 5.233424728646307589e-01 2.142854715363182779e-03 -3.550338375711383637e-02 6.642590029695418785e-01 5.414645783333364992e-01 5.879170173602964455e-01 2.146075794527853020e-01 4.201613823415308313e-01 5.170902321322765616e-01 4.813264964680616376e-01 5.052673725796438253e-01 4.792484909777611768e-01 5.946754478955201817e-01 1.019566390905704889e+00 3.160987604247757599e+00 9.523081336513984363e-01 5.195783354575899127e-01 5.999818088321671183e-01 2.168192673840416973e-01 5.192676534920183107e-01 8.551663311294517289e-01 5.043007160218521134e-01 1.317038006589188237e+00 4.625872366981068629e-01 -5.872541493385791123e-01 -1.960776998887130140e-02 4.150526740654492674e-01 6.147800372405612945e-01 5.603307743586178891e-01 5.199668492611009274e-01 5.548804703378458492e-02 5.150272776962032673e-01 4.629035167651802118e-01 -3.776765313920475542e+00 4.790116996539476313e-01 5.176658688963025057e-01 1.135275032678668916e+00 5.204757546715306216e-01 4.561954203212099102e-01 6.787245161479813493e-01 -9.022477151276201424e-01 -5.010475463815213804e-01 3.169980433345774562e-02 5.177561358911489942e-01 5.191921924574454117e-01 2.130787596848855714e-01 5.251495249013589106e-01 -3.433150613647800165e-01 5.769815253206420635e-01 5.336241032913061622e-01 6.960480778327823304e-01 5.500499028873369056e-01 4.690347910101527740e-01 1.494356571843404591e-01 -7.732447343861961198e-01 6.557603350238720985e-01 5.535310404518412053e-01 1.573039910270981334e-01 5.202292565070036900e-01 5.422980444463973981e-01 5.239772689933087646e-01 6.699258604838135289e-01 5.776183956233760242e-01 5.473327134701926333e-01 5.028925080193862307e-01 1.832175015540259189e+00 3.548621558144109400e-01 5.396494322951733702e-01 -1.307018005925230653e-01 5.398741199397699697e-01 6.356922260816778580e-01 5.040398096628916358e-01 4.875379587966818251e-01 3.623379721241818952e-01 9.495386502626175229e-01 1.217801591042258380e+00 5.554007269676971559e-01 5.874084571841166058e-01 5.968363319435173731e-01 4.839036232179673713e-01 5.476377406591778074e-01 5.197048247794249232e-01 9.819646836138378188e-01 6.995624985124961892e-01 -4.616288196543497091e-01 4.602562261304615765e-01 9.072958647689957079e-01 5.218426851485502560e-01 -2.956490057207266514e-02 5.302726790113130306e-01 1.431237584378725725e+00 -1.387940609777638112e-01 6.299592642380353880e-01 2.388613804161324461e-01 4.754743305418062671e-01 8.567545887922309866e-01 5.179475843818693859e-01 3.720840512867973904e-01 1.406979014076274792e+00 4.693085471999353109e-01 5.244113285058732421e-01 -6.885386192929849880e-01 4.450509521968354365e-01 1.040477747331535863e+00 6.161196485495957775e-01 7.193584467938832216e-02 9.831923706798411100e-01 -2.881925982714510920e-02 6.990795009750406797e-01 1.641625238428155997e+00 -8.638243527932730759e-01 5.837066863042225107e-01 5.200130907772614330e-01 -4.704891109073932043e-01 3.047192925309720746e-01 5.974267017818113423e-01 5.002370310876308457e-01 4.913483489253828163e-01 4.013315892084327596e-01 2.629375084909564286e-01 3.457307063860014518e-01 5.796929784042577083e-01 5.229000446459479701e-01 8.147314779433865659e-03 -1.363959544222309861e-01 5.249048070039359359e-01 1.066578170357825206e+00 5.062946396650418457e-01 -5.807154013100056522e-01 4.796052738040138541e-01 5.190746643944675887e-01 5.567311643691240652e-01 4.482736206873522838e-02 3.268986241369917223e-01 5.226247498107476908e-01 5.140847598518512029e-01 4.519513807910232606e-01 -5.137366089355100557e-03 5.608889531455528710e-01 5.263990462482053267e-01 6.022339478017127989e-01 2.099445430214751163e+00 -4.794026875052845131e-03 3.874905624750677458e-01 5.649695675846241327e-01 1.846381589433540915e+00 5.336744148346906913e-01 5.323775491824968009e-01 2.182701298138347082e-02 5.598074095477553191e-01 5.260112302774218040e-01 4.773772695295658841e-01 3.895401912450063286e-01 5.042827352199460433e-01 4.339676036630277234e-01 5.208106760631381338e-01 -5.493542356699112617e-01 5.196379308143062037e-01 5.132082315427907160e-01 5.267768452620182895e-01 1.190032855581095284e+00 5.153448781970535464e-01 -2.472881738274440855e-01 1.109290145802972694e+00 -1.296928291278476308e+00 -5.353143511092551821e-01 5.356188792229682472e-01 5.218980391543942554e-01 6.596017424134316132e-01 5.234005991259158552e-01 4.586854976517824034e-01 5.514717830144916233e-01 5.598074138447559633e-01 5.211092970889130704e-01 4.807053116432381534e-01 5.967128854595326048e-01 5.181477898080956157e-01 3.092229671055935492e-01 5.105894379893876067e-01 5.400650213873882111e-01 3.971497077659182362e-01 5.076866268741708765e-01 5.204221459499202007e-01 5.418456392702247770e-01 6.533446194335428281e-01 5.184523864947115923e-01 7.079901686415717155e-01 5.046294723483806255e-01 5.173260358781939239e-01 5.395490442278769727e-01 3.983062122095292201e-01 3.785826683574177176e-01 2.451778165970622148e+00 4.801914699317357815e-01 6.141597619873837566e-01 2.984163639593581108e-01 5.814147496604378240e-01 1.117409201060773460e+00 4.217770047293415425e-01 6.960074851284835384e-01 5.189823235762355269e-01
7.126274925630511348e-01 3.095195387440315971e-01 4.408419303797790345e-01 -1.797838076014356828e-02 3.093560146062942495e-01 3.602178184610635436e-01 5.366963839132332659e-01 4.103018775361632065e-01 3.393928309670794508e-01 3.095383614145490458e-01 2.069706575319701702e+00 1.727805514432403600e+00 -1.461782000430960959e+00 6.031116475495109652e-01 3.137320195134954970e-01 4.517568263325744127e-01 1.332278519847525655e-01 4.421558680068473635e-01 4.214133549817098978e-01 2.994833229739909952e-01 4.364055497415644802e-01 2.137855751567962148e+00 3.682806615217697477e-01 3.565873984112601924e-01 7.433694835299877735e-01 -1.883195897686387177e-01 4.242113085121561600e-01 1.991826297287750958e-01 2.724972134411046687e-01 -9.090183895556283034e-01 4.204381151827805141e-01 -1.499217516725000199e-01 2.890538536398067904e-01 3.407244588508086536e-01 -4.162724061338563541e-01 4.940361129187401668e-01 3.323930288611552375e-01 -3.787097497372007293e-01 -3.277697608413394637e+00 2.886171556171121533e-01 1.179820176685199229e+00 1.445662828999605409e-01 -1.680575676356416692e-01 7.917249851162757590e-01 5.832421472346315250e-01 3.269775400439807744e-01 -1.805284552965157746e-02 3.090153878877890392e-01 1.659283488616894175e-01 6.540675731562362039e-01 6.846600911324269845e-01 4.959197754946160219e-01 -1.816287212312732713e-01 2.297389769631020817e-01 5.976102935072908906e-01 6.531925140857863799e-01 3.221900566212097528e-01 2.418045580518327076e-01 3.456603436409600993e-01 3.488878467220317137e-01 4.304932182436312371e-01 4.343260580684715766e-01 3.302409341586766134e-01 3.682806599262781755e-01 -3.443100149358069295e-01 1.343102404484285139e-01 3.159369731389373159e-01 3.151890158802139741e-01 2.157348455436235990e-01 7.137519194664809774e-01 1.414655775470884669e-01 2.445187420396036648e-01 3.275290006263320008e-01 7.279597428352104771e-01 1.934967832204724125e+00 4.444567200538039331e-01 4.757085309551111751e-01 4.821206803917247319e-01 3.112272844100120728e-01 -1.349767713753704745e+00 3.199593637684692293e-01 5.650548569112671116e-01 2.368677121655281326e+00 7.825511325586700928e-02 2.572291256356233347e-01 -3.708240560077623593e-01 1.347557597281592856e-01 2.677998125409695174e-01 -5.813973640157116263e-01 -9.017999367579193626e-01 5.833656485266660585e-01 1.598590858131780257e+00 6.129334575624387910e-02 6.817792970167760869e-01 3.433722501178647080e-01 3.369356850687416083e-01 2.658101540655992689e-01 7.724499594177461903e-01 7.370957609816678469e-01 -1.890193555257436986e-01 -1.786672307975599727e-01 5.510847173729533505e-02 2.755807583515728632e-01 2.147612086796433783e-01 -4.351070471583584620e-02 3.143466158523766207e+00 -2.914390562454464706e-01 2.671446311151204900e-01 9.598060629016751111e-02 8.112117269962652033e-01 2.601863217899916259e-01 5.080952764826101031e-01 1.623571795976052612e-01 4.022707446180222024e-01 -4.778842646522044046e-01 2.424093022220176752e-01 1.289124597677376027e-01 4.301358362358577714e-01 1.133023679763440095e+00 3.380010870803964451e-01 -1.465925106174014170e+00 1.583122270240436280e-01 9.915668799150656465e-02 1.438536928801307235e+00 3.064733331743931810e-01 2.190081563727007907e+00 3.379691348120831829e-01 2.223197087784168080e-01 3.081120272152583217e-01 3.098732362957616893e-01 3.415855853904247730e-01 3.075645114737574071e-01 6.745950872940241760e-01 4.208187521049966406e-01 1.655772890924971652e-01 8.597248272847809458e-01 7.221097980351395274e-01 7.136449687245211004e-01 -3.379063041808113566e-01 2.116401641793159705e-01 2.939119246891598869e-01 3.219460217370296862e-01 3.381770570187647706e-01 2.420203793587665797e-01 3.084687996340752525e-01 6.989332738075266782e-01 -1.679929886133079697e-01 3.191836714986299173e-01 4.337097144643287661e-01 4.016621156154122629e-01 -2.191326818678571708e-01 2.621020812739171396e-02 3.269621846790586317e-01 2.730538918107622837e-01 2.922496486998240606e-01 3.161188287110670569e-01 -2.439980959424798979e+00 4.636686486738435531e-01 -6.035917505599152078e-01 -1.947981708864586770e-01 1.705581435740886886e-01 3.352436718207905120e-01 3.128318546656596588e-01 3.097697082914404043e-01 1.249783629513172289e-01 1.037659172351442782e-01 3.181920916713948944e-01 4.730905499991344132e-01 4.226977373628205692e-01 3.006884882858938957e-01 2.029482276077335390e-01 -1.742893545335869737e-02 3.270674610341213762e-01 3.141939989711040604e-01 -2.521855591013609565e+00 6.770855438451041097e-01 5.890283813791331591e-01 9.465168729406578940e-01 -4.590085796199416257e-01 1.173568033920786124e+00 2.575159954328488585e-02 3.119222275678202316e-01 1.242384368314062515e+00 3.356302112589926723e-01 3.095861396416866862e-01 2.881729884802531894e-01 3.592871667947530878e-01 3.019495185949705451e-01 -4.909239250540521904e-01 2.941262978163084463e-01 3.010821111644047532e-01 8.198681648895166374e-01 2.825672437231757095e-01 3.433016368226035619e-01 2.429385326529363009e-01 3.130184620716080501e-01 -1.677010123027880883e+00 3.212119510278219625e-01 3.249562426382005542e-01 3.307869858165918275e-01 4.988944141205520905e-02 3.630209802057358104e-01 3.879905733658429723e-01 1.457021768410647622e-01 -7.689277888327060717e-01 3.249562133457905566e-01 4.831017294344208124e-01 -5.195015133050627787e-01 3.541921021097939604e-01 1.955105969913410735e-01 2.386706421587163618e-01 -3.281785713865049914e+00 4.412309037447481597e-01 9.198549137706989454e-01 3.004860743364632936e-01 3.134115605163242946e-01 3.101162558760692245e-01 3.006163383485129792e-01 3.145447369536815696e-01 3.083529152806799289e-01 3.631158585515397719e-01 1.019472363228713652e-01 6.689382977638951289e-01 1.055420452966871342e-01 4.753003266721234632e-01 5.076367568323809643e-01 4.027865450102572908e-01 -6.893414195320896054e-01 2.312044081970992426e+00 4.023200916753187917e-01 1.246783394577553272e+00 -1.396588421910767819e+00 3.091091577004136393e-01 2.477177175536490472e-01 3.527872733940004557e-01 1.183180431434183610e+00 5.197455060989037978e-01 8.242478223906609669e-01 2.860706777155824221e-01 6.680918995834072005e-01 2.508384430152551525e-01 3.146938645684505542e-01 -1.181180385913634723e+00 4.175257812056348827e-01 3.120345146746614784e-01 4.989165490308662965e-01 8.858358461310716914e-01 -3.726962276821009223e-01 3.189841436634373473e+00 5.005294471976584614e-01 1.284945689324208606e+00 -2.477273253633176797e-01 3.085079086727357534e-01 3.682842010024082180e-01 3.410003105540687640e-01 2.413362659937103305e-01 3.610602666960878171e-01 -1.430646988968738431e-01 1.052407740781741013e-01 5.623121694845599761e-01 2.506473694184433998e-01 9.839899656199396771e-02 2.411787081159710022e-01 4.513813594616257752e-01 4.304932545369724584e-01 2.568817633432663450e-01 3.268089798723758044e+00 3.579822093888607171e-01 6.522295699742722830e-01 5.304988347494778989e-01 2.229441744617446930e-01 4.299945488322122200e-01 3.124036173381652959e-01 2.989566616059668447e-01 3.113193968209885254e-01 -5.933703933608956982e-01 4.328152751341658444e-01 2.852527864681141945e-01 1.403549608282470273e-01 3.217449149589224344e-01 1.544592585798373996e+00 3.580899704356311219e-01 3.102656339025171572e-01 2.003819715279636871e+00 5.060403237213380034e-01 2.677022600263964103e-01 2.660514190846151594e-01 3.276437282811631713e-01 2.424097721377287684e-01 -2.068059162615917046e+00 2.738941022100324085e-01 1.565205172260667688e+00 -6.296872348576502965e-02 3.604276731120212851e-01 6.768795600451005257e-01 3.235528210343359690e-01 -7.270314226497150978e-01 3.900453531235404947e-01 3.130065270164674174e-01 4.337299731875481901e-01 -3.973405019740161026e-01 3.205855179652812303e-01 -2.297453500237757851e+00 -1.799544144676334251e-02 3.325533566617043246e-01 5.998205869553075997e-01 3.115681109666139093e-01 3.115491458336204778e-01 4.886796089623405281e-01 1.804684351599822323e-01 -9.405583579414551754e-02 -7.700862331945297345e-01 -1.382505454989101101e-03 6.880180034250403809e-01 3.113821401075522743e-01 5.020105679768009921e-01 3.318542208839099228e-01 -1.821760162133060496e-02 3.101761214206644746e-01 2.459742903087431376e+00 6.822059185525151115e-01 2.470322022372736237e-01 -1.170299798345429076e+00 2.317445580691200047e-01 4.733238256789661591e+00 3.857813100534393524e-01 -1.704047798470491037e-01 5.711587261461452680e-01 -5.635207035267799647e+00 5.241275311804587389e-01 1.563608282891810086e+00 3.083767447672841056e-01 5.293352322813289490e-01 -4.493006086943972521e-01 4.339217526865628005e-01 2.878025848124380337e-01 3.038939987372776264e-01 2.247101331171797445e-01 2.959843041318395596e+00 -3.775631292133309613e-01 3.040891920453277497e-01 -1.925974958872527676e+00 3.214206226253140675e-01 -3.787097525092841255e-01 7.540668883187624516e-01 5.155696235015041484e-01 2.634448025938960214e-01 2.841678554985473393e-01 1.270325532362908572e+00 1.496541210220385942e-01 3.249559429964565260e-01 4.175303216459839151e-01 1.457021719882935495e-01 3.352837703433889094e-01 3.899763577176030283e-01 -6.174654181565513156e-01 3.116828680896902570e-01 5.574333409221434721e-01 3.952964313792324824e-01 1.711895044920365150e-01 3.086024957010452541e-01 4.970344666187680449e-01 5.155695609091902609e-01 4.700464978038799146e-01 3.080879058203390697e-01 1.764439367723754648e-01 4.016060165204087817e-01 3.463595334887756838e+00 3.143674275267857587e-01 1.221793978790028379e-01 4.304943218744300415e-01 8.420925865681501143e-01 4.685291992552809703e-01 -1.943848358531610476e-01 6.833610198738837571e-01 3.511108270002215037e-01 1.218357155668290948e-01 4.135025333079309640e-01 6.751895170291554171e-01 5.703936196731951291e-01 7.902724763386442808e-01 8.183933103974694312e-01 3.343613417603533144e-01 1.457021767423621605e-01 1.457021866715161595e-01 2.291095113553850982e-01 1.824283288950037385e-01 1.119865951099955792e+00 3.958844880895612262e-01 3.215990802642421653e-01 3.029150689054798673e-01 3.114036685425121687e-01 7.584209005494570999e-01 3.249562736818755737e-01 3.110918738299417452e-01 4.370456606443519632e-01 2.307373660936457016e-01 -6.379438077641530480e-01 3.289134461499385043e-01 3.138857335783485913e-01 3.828540564878776253e-01 6.823128455076452603e-01 6.924834633959895402e-01 1.457021757988670452e-01 1.066571025896807801e-01 3.071019627446565092e-01 5.007416325263772672e-01 -5.934272019094791739e-01 1.816302237605557368e-01 -3.543710764433042559e+00 1.993479392692473651e+00 6.350610639870234442e-01 -4.713756886566507487e-01 -1.795759028268976640e-02 2.068467536832116593e+00 3.168076627189286287e-01 6.457753783575179707e-01 -3.123937550338612076e-02 3.671746892859543143e-01 4.170033798841428219e-01 3.118663484034207012e-01 -5.141579818974594263e-01 3.636603537139356801e-01 2.074152135131759778e+00 2.748420641881691995e-01 -4.435627900664337320e-01 3.083783435325793132e-01 3.133648484665597644e-01 -1.459100699368580223e+00 2.832191244660682283e-01 3.675799317752493911e-01 4.033185344522960403e-01 1.350329115807371028e-01 3.133816691681277633e-01 2.083263341158909931e-01 3.020126990369687570e-01 -1.611158599764648536e-01 3.175538170679599315e-01 1.055324152197829601e-01 3.075817995885855027e-01 3.077436048258020418e-01 1.256865994246913858e-02 3.961288847495235688e-01 5.430749788038384818e-01 -1.403253205022428896e+00 -6.174436973578713017e-01 -1.151669375763929859e-01 1.162546331956700735e-01 2.022885151756454725e-01 4.325976558628873425e-01 3.612083951226949807e-01 7.253350663412576615e-01 -1.335081826546912764e-01 3.222070033375999953e-01 3.275651446583875415e-01 9.448076196343224709e-02 -1.612289286540698197e-01 3.084386550020919437e-01 4.622045600592058490e-01 4.797901759490518225e-01 2.903584318539053633e-01 2.769631627832960241e-01 3.063148346614404938e-01 2.494371446350451271e-01 3.139300606520057380e-01 4.963447250486175966e-01 3.533812813772248540e-01 3.101214268248224104e-01 6.842736558808936165e-01 3.337915054985722274e-01 7.340484335689678730e-01 1.451677652822931652e-02 5.509796620615555751e-01 2.673214438396447901e-01 -1.460760375253860932e+00 3.063608856097612132e-01 6.408759972468343058e-01 3.611365285165691330e-01 3.366770089750680817e-01 2.579059676074140217e-01 1.851961320443545056e-01 6.846179753378685007e-01 3.118214719186113149e-01 4.102328371995579426e-01 3.123441581511644527e-01 2.775279206224268713e-01 1.908214874615520307e-01 4.943108215616360823e-01 3.178284892126940764e-01 1.975719083753826599e-01 7.869258664875440623e-02 8.098699184848996702e-02 1.651316349696136276e+00 1.954096948976145887e-01 3.553899694974180790e-01 3.856241476095037535e-01 -8.540349909393558647e-01 3.539329754925574778e-01 2.531634317120385336e-01 3.863308653536773885e-01 -6.326120171397223158e-02 2.845175662400519223e-01 1.638590113336268361e+00 8.925383011119818466e-01 4.528414794034787971e-01 3.318097402834307985e-01 3.372185557078312690e-01 3.437984809436940847e-01 9.268134651104621424e-01 3.061612041453735777e+00 3.116308893346260156e-01 2.388781734138088406e-02 5.883719018835730230e-01 -2.184165302401012698e-01 3.120095031293744769e-01 3.058952674833465002e-01 1.078023142090807740e+00 3.092234337847681869e-01 -3.343887033147448506e-01 3.846744976131270533e-01 1.312858337453789159e-01 6.328160522254292486e-01 1.809009111882811549e+00 2.530326160838687888e-01 2.678297151240017770e-01 1.665335759548635552e+00 3.971017118101263788e-01 2.632085073903659422e-01 1.710349768707159213e-01 2.228198415495253049e-01 -1.842209969525216914e-02 5.108188191225836450e-01 2.421926878415621709e-01 7.247366435123577810e-01 2.714088183752972339e-01 2.305971570762727907e-01 3.184847619727073642e-01 4.153433387325663473e-01 3.929789572024438016e-01 2.604800037739388729e-01 8.931941425272861279e-01 5.129895556524373124e-01 4.855409965522476390e-01 2.730810446209066544e-01 2.525208142618978746e-01 3.150093775196553536e-01 5.901992870639878319e-01 7.758619015394744300e-01 3.660205382092810988e-01 3.108674857567786387e-01 5.490947638645706785e-01 3.077542799456993716e-01 7.136675351079330154e-01 2.815254622869035050e-01 4.686322644573881480e-01 -3.109630748654212407e-01 3.138926967230127874e-01 3.292165357028792871e-01 4.393944779665813205e-01 2.454049407749633593e-01 3.189331571800101961e-01 1.802465162465591630e+00 3.810873708063676479e-02 2.696729719777255507e-01 -1.995211058190969333e-01 1.661062239902420412e+00 1.155914994307237320e+00 3.946230802419408573e-02 -4.492174051164662951e-01 4.290201898977112349e-01 3.132495371675410034e-01 5.031054530697292027e-01 3.103695957781028025e-01 3.081029272617830106e-01 2.114244816118098502e-01 3.387976517964053080e-01 3.406966485354348539e-01 -1.817281721158437585e-02 -2.185205603922988349e-01 3.414003427416192893e-01 2.616894815321585965e-01 2.328760881684635020e-01 8.748586493844000556e-01 4.304932367922852943e-01 2.787581995384478817e-01 8.502143024775100644e-01 4.756258370822914472e-01 5.838474700592419797e-01 4.631765356276132950e-01 6.953162355523853089e-01 1.476605374925717529e+00 3.742035202107827363e-01 2.099864824110758033e+00 -2.421911468361553563e-02 1.493455601275002209e-01 3.106605966658503304e-01 2.762314035116562594e-01 3.637842077106520078e-01 3.007106222811638530e-01 3.220792495205107575e-01 3.100924593782499183e-01 3.651865210630809155e-01 2.047093043156569259e-01 -3.333640757694663614e-01 2.531161577726111500e-01 -6.792950145399108408e-02 3.030711272385463451e-01 4.337634420076021402e-01 4.304932368197426640e-01 2.207637222505046126e-01 2.041515944505078728e-01 -1.265278101580396219e+00 1.968898716100012436e+00 3.116990170221922152e-01 -7.391956396258070328e-01 2.971711699616493285e-01 3.182373555494373840e-01 3.137574874872356423e-01 -4.805106781196608168e+00 3.551490323982475772e+00 6.300358538058756785e-01 4.501414841633123720e-02 3.259331389373185117e-01 3.152160176359201649e-01 2.725857251262133185e-01 2.632568476153790638e+00 6.262290306591749012e-01 3.192651198710376170e-01 2.424094999634710534e-01 2.873223546621239688e-01 2.859179951831785638e-01 8.614836435846472407e-01 -3.752126832539051104e-01 -1.203032321698581653e+00 -1.223137473311447287e+00 3.160539842298197843e-01 3.164998051898962328e-01 7.295900399328294483e-01 3.719232039920556954e-01 1.429550643102974972e+00 4.825330102928904741e-01 3.104776175230090085e-01 3.004096544302618521e-01 3.264158828707711679e-01 3.271930547127837596e-01 3.037880103102040819e-01 6.441926548168905864e-01 2.669544615190627135e-01 6.601806188537697739e-01 2.285450371142401793e-01 4.736268408206834729e-02 3.039795029444445906e-01 1.826160332927820318e-01 3.429870245156686481e-01 2.571663862942700218e-01 6.437203768438389817e-01 5.155696068501386398e-01 3.484334705729878467e-01 2.693412854677953994e-01 3.087944469473667963e-01 2.689128301779082353e-01 1.638594058183324709e+00 1.905280409853747692e+00 3.038164220223512624e-01 3.554341409808942087e-01 3.137002479945619760e-01 1.627968735533755207e-01 2.266338812737039021e-01 3.558528795225406882e-01 3.079972569284867290e-01 3.258207062992267145e-01 8.036187850907675623e-01 8.867159962334342227e-01 2.470260285893711438e-01 1.875404722533078328e+00 3.004071255236175353e-01 -2.396624525843134845e-01 -2.727341694017021978e-01 -3.099431036338388123e-01 3.110910895427204670e-01 2.742429638527907887e-01 7.107236152741027713e-01 3.076836224258168717e-01 4.563214045829479537e-01 3.347506274574720275e-01 3.530557054541431650e-01 3.278490275655904784e-01 -3.307319623687345750e-02 1.015147029769408293e+00 3.330600072218049545e-01 3.986418670599780056e-01 3.067835209760996773e-01 3.554451855928688064e-01 3.090483389239980228e-01 3.937270827798042827e-01 -9.208566127308706606e-02 2.225459167997735910e-01 2.996942293066925944e-01 -1.790441929910469021e-02 4.304929710267124676e-01 1.103494614138407881e+00 9.631098683062478960e-01 -7.259390571245408763e-01 -3.787097496823485510e-01 6.578169374558994198e-01 -3.341183731677323188e+00 1.574473690347075738e+00 2.752149648351341904e-01 -1.774493771733215430e-02 3.146930131706748845e-01 8.949022867131938286e-01 3.147457219724376087e-01 4.175260855357281198e-01 -4.373516116696682943e-01 8.212263751229006425e-01 3.202789312885658823e-01 8.711980050993930469e-01 2.096998939284943297e+00 -3.750195582342250589e-01 -1.469684810117810603e+00 2.375713117883581083e-01 3.148323351651706181e-01 7.582221912226366767e-01 2.974058557589053242e-01 7.039703060910093013e-01 4.691274941728416636e-01 2.525467228306634282e-01 3.044032664717178926e-01 3.137868746667942244e-01 2.557396272746582100e-01 3.048975295992724655e-01 1.417799969786861070e+00 1.642942033470864427e+00 3.150019751498375209e-01 3.344675002953457765e-01 1.606066971806212329e-01 -2.456359038899058878e-01 2.181375526483229355e-01 -3.717842134723525760e-02 3.119755837167200729e-01 7.038884735462116460e-01 -5.133310468181069286e-01 2.718043566406462830e-01 2.840276421588145417e-01 1.530120490116957388e-01 2.992047819571486134e-01 2.108765985916999652e-01 3.105518938730691958e-01 3.123953630448292884e-01 2.493440509805641692e-02 2.830198704209760385e-01 4.356921316552609946e-01 1.125356210314339078e+00 1.106766265565829244e+00 9.224933796839597244e-01 2.021063362535490682e-01 7.870844273288611914e-01 1.481276134956665269e-01 4.889205946424459714e-01 -2.145026241591437177e+00 3.089036353779072153e-01 6.591318458506716382e-01 2.874049522992126460e-01 9.510028709257490886e-01 1.373472097658624547e+00 2.424093012965795046e-01 2.555128345628527864e-01 3.748110901378197690e-01 3.599693989398424776e-01 5.500849371845530911e-01 9.141662026063060997e-01 -7.973475446367143116e-01 2.083684604720144606e-01 5.319935145425501444e-02 3.187993708553046313e-01 3.414480865006638832e-01 7.681170910029957444e-01 -2.365009925898115817e-01 4.039115104745587548e-01 3.056294665108728603e-01 3.593683565126447044e-01 8.927057696575896317e-01 4.303239444323628260e-01 -2.165374821946558503e-01 8.588567807801221754e-01 -4.290018432439182683e-02 5.676996485319530938e-01 2.745581746574593529e-01 1.290337299075502653e+00 5.873380649703279222e-01 7.259337438397994724e-01 4.377655655679440483e-01 4.867851854703687531e-01 -5.676684581706844535e-01 2.353643920530730793e-01 7.585352070278450487e-01 3.212334863080246738e-01 6.191496218983472133e-01 2.822313786076214859e-01 3.080365815999260293e-01 7.214961179597014773e-01 1.518494707622792816e-01 -2.057243750281630756e+00 2.051371353712045376e-01 2.564988779508355354e-01 8.751175526535930338e-01 3.677844451920235791e-01 3.905020848171129599e-01 3.739586427322614814e-01 3.163732473819635960e-01 3.928562448988741629e-01 8.008059517610020828e-02 -1.626373132744419303e+00 7.584884408687783131e-01 2.480850295395647664e-01 3.070602552918637596e-01 2.181783397859031748e-01 8.213660750859884674e-01 3.072097910456239034e-01 -1.491946160291385270e-01 3.396372927050215762e-01 1.122815044341525015e+00 2.660770582230979620e-01 4.159339642763080769e-01 1.048524922704615392e+00 3.987635193262519806e-01 2.807653112664538320e+00 3.360000245227452442e-01 3.041750133930608557e-01 7.036785459848237112e-01 3.405304967397587146e-01 3.321203603054911357e-01 -2.129711275589753150e+00 4.404695294217271240e-01 3.291042898089852620e-01 5.173204752414599650e-01 3.050517088492119555e-01 2.029174482583410710e-01 -1.946138037588601433e-01 2.064346506590517105e+00 -5.191410235196686207e-01 8.274706728021298252e-01 3.115419340144838234e-01 2.913215115210797679e-01 8.250882642715821058e-01 3.250114491065822508e-01 1.338033309576822427e+00 2.068248089792194266e-01 3.749286796586563941e-01 -8.851839227063130755e-01 -1.328710298337489881e-01 -5.022451683797646282e-01 -3.995149894437749705e+00 2.972275680782665130e+00 2.989757568193340473e-02 2.944296201783500599e-01 -1.642732765082254298e+00 3.107911105925373341e-01 3.761245231474809603e-01 3.064600525700538203e-01 1.695222613885955243e-01 6.415285197155916608e-01 6.009217122117338494e-01 1.065220274759613117e+00 -3.787097492111065056e-01 -2.308569879869846742e-01 2.317039979383261616e-01 -1.191318753541669828e+00 2.614157694930682174e-01 -6.508037100082908477e-01 3.279290696393337701e-01 4.545871026221344202e-01 8.944787666168727003e-02 4.511911437478778875e-01 2.654317329695434213e-01 -4.558585521911177191e-02 2.296775087610357369e-01 2.889506852138312709e-01 3.642601971278021100e-01 3.305195932910978129e-01 3.106175316755948601e-01 -7.261520805483482333e-01 5.040821101509854740e-01 1.542039576912967336e+00 7.024487217456443222e-02 2.372993042564590649e-01 2.807651046330600364e-01 1.206897964278229152e+00 3.320569667538928460e-01 1.104347779721523287e-01 8.891350603278884712e-01 2.605086861948218702e-01 1.872708793551344453e+00 2.698869032873108531e-01 1.313855436579825620e+00 3.118105775600683027e-01 7.355352215808399485e-01 1.353530639142690228e+00 3.697809208062748931e-01 3.426101343277686007e-01 9.378404557609714143e-01 -1.872118975025895138e-01 -6.212676315291413426e-02 2.219398495988483266e-01 3.029810125721341119e-01 3.587985643348142739e-01 1.441769209035761723e-01 1.427956823646518436e-01 -3.759701923270628576e-01 1.292438846134668085e+00 2.929456348651022779e-01 3.098581211277631198e-01 -3.212152532977851749e+00 5.446374567864563643e-01 2.637523137087608993e-01 3.904520221628533516e-01 3.940783074516245321e-01 4.587027176661571670e-01 -1.099832817236412685e+00 6.256209938260632875e-01 2.885451237986875195e-01 3.076502808071148731e-01 1.026653268155744758e+00 4.621247634978571384e-01 3.098604031576585593e-01 -1.408916713907938378e+00 3.855253851833215784e-01 8.926566572580115766e-01 3.251155830337412733e-01 3.215013683687795720e-01 3.324839725375198229e-01 7.122157365672374674e-01 -5.873276495867168351e-02 3.091058483795626755e-01 3.173953930818893543e-01 8.964323156536481430e-02 6.698753554717264969e-01 2.692059581769727372e-01 7.049308949189362350e-01 1.743941595121021870e-01 6.912663591224827986e-01 -2.376514803596972980e-01 -1.509361238703525343e+00 2.952049000985939031e-01 -1.938351809955750002e-02 3.278808603550181222e-01 3.750978232439036719e-01 5.473365411468567032e-02 5.155695613994281112e-01 3.039073886392126833e-01 8.328845265217232896e-02 4.402130862788693477e-01 2.789042844269807864e-01 3.020932961391703531e-01 2.743861922179326451e-01 -8.478815977494991163e-01 3.205632485921052766e-01 2.901598069816624381e-01 3.286523875789003069e-01 -2.661207378423071646e-01 3.166811481038799836e-01 8.261240795677875504e-01 -5.818012147332292106e-01 1.124071757829782081e+00 6.151046938796472796e-01 2.684158289807084818e-01 3.080627746361840336e-01 -2.053188262447730228e+00 3.268747611798559216e-01 2.137400741575061491e-01 2.809198004364033552e-01 5.155696455011531398e-01 3.115461360764500420e-01 3.198988063314097130e-01 6.905422492482851671e-02 3.107853362256935981e-01 4.350729586307446328e-01 3.467912887744242223e-01 2.509287898413893325e-01 2.881020407419170315e-01 3.172659791408660168e-01 3.092535488641688368e-01 2.688668323170484986e-01 9.364498866760867513e-02 3.116710649758006602e-01 6.210967349759770606e-01 1.769790684253443880e-01 3.095856715576772444e-01 -1.417632141954748293e-01 1.760121481081789452e-01 6.068102091136469145e-01 4.507988590618777103e+00 3.467159475260387369e-01 8.093431326933986369e-02 5.611682055841054062e-01 1.836234237379323897e-01 1.560058406179821944e+00 3.461532110508598326e-01 6.410267838564868148e-01 3.053264206240923206e-01
