# 
#                 ----------------------------------------------------
#                 Data from a 3D direct N-body simulation. 
# 
#                 rows are i-particle; 
#                 coumns are :mass, tag, x ,y, z, vx, vy, vz, ax, ay, az
# 
#                 NTHU, Computational Physics 
# 
#                 ----------------------------------------------------
#                 Time = 0.0
0.000000000000000000e+00 1.000000000000000000e+00 2.000000000000000000e+00 3.000000000000000000e+00 4.000000000000000000e+00 5.000000000000000000e+00 6.000000000000000000e+00 7.000000000000000000e+00 8.000000000000000000e+00 9.000000000000000000e+00 1.000000000000000000e+01 1.100000000000000000e+01 1.200000000000000000e+01 1.300000000000000000e+01 1.400000000000000000e+01 1.500000000000000000e+01 1.600000000000000000e+01 1.700000000000000000e+01 1.800000000000000000e+01 1.900000000000000000e+01 2.000000000000000000e+01 2.100000000000000000e+01 2.200000000000000000e+01 2.300000000000000000e+01 2.400000000000000000e+01 2.500000000000000000e+01 2.600000000000000000e+01 2.700000000000000000e+01 2.800000000000000000e+01 2.900000000000000000e+01 3.000000000000000000e+01 3.100000000000000000e+01 3.200000000000000000e+01 3.300000000000000000e+01 3.400000000000000000e+01 3.500000000000000000e+01 3.600000000000000000e+01 3.700000000000000000e+01 3.800000000000000000e+01 3.900000000000000000e+01 4.000000000000000000e+01 4.100000000000000000e+01 4.200000000000000000e+01 4.300000000000000000e+01 4.400000000000000000e+01 4.500000000000000000e+01 4.600000000000000000e+01 4.700000000000000000e+01 4.800000000000000000e+01 4.900000000000000000e+01 5.000000000000000000e+01 5.100000000000000000e+01 5.200000000000000000e+01 5.300000000000000000e+01 5.400000000000000000e+01 5.500000000000000000e+01 5.600000000000000000e+01 5.700000000000000000e+01 5.800000000000000000e+01 5.900000000000000000e+01 6.000000000000000000e+01 6.100000000000000000e+01 6.200000000000000000e+01 6.300000000000000000e+01 6.400000000000000000e+01 6.500000000000000000e+01 6.600000000000000000e+01 6.700000000000000000e+01 6.800000000000000000e+01 6.900000000000000000e+01 7.000000000000000000e+01 7.100000000000000000e+01 7.200000000000000000e+01 7.300000000000000000e+01 7.400000000000000000e+01 7.500000000000000000e+01 7.600000000000000000e+01 7.700000000000000000e+01 7.800000000000000000e+01 7.900000000000000000e+01 8.000000000000000000e+01 8.100000000000000000e+01 8.200000000000000000e+01 8.300000000000000000e+01 8.400000000000000000e+01 8.500000000000000000e+01 8.600000000000000000e+01 8.700000000000000000e+01 8.800000000000000000e+01 8.900000000000000000e+01 9.000000000000000000e+01 9.100000000000000000e+01 9.200000000000000000e+01 9.300000000000000000e+01 9.400000000000000000e+01 9.500000000000000000e+01 9.600000000000000000e+01 9.700000000000000000e+01 9.800000000000000000e+01 9.900000000000000000e+01 1.000000000000000000e+02 1.010000000000000000e+02 1.020000000000000000e+02 1.030000000000000000e+02 1.040000000000000000e+02 1.050000000000000000e+02 1.060000000000000000e+02 1.070000000000000000e+02 1.080000000000000000e+02 1.090000000000000000e+02 1.100000000000000000e+02 1.110000000000000000e+02 1.120000000000000000e+02 1.130000000000000000e+02 1.140000000000000000e+02 1.150000000000000000e+02 1.160000000000000000e+02 1.170000000000000000e+02 1.180000000000000000e+02 1.190000000000000000e+02 1.200000000000000000e+02 1.210000000000000000e+02 1.220000000000000000e+02 1.230000000000000000e+02 1.240000000000000000e+02 1.250000000000000000e+02 1.260000000000000000e+02 1.270000000000000000e+02 1.280000000000000000e+02 1.290000000000000000e+02 1.300000000000000000e+02 1.310000000000000000e+02 1.320000000000000000e+02 1.330000000000000000e+02 1.340000000000000000e+02 1.350000000000000000e+02 1.360000000000000000e+02 1.370000000000000000e+02 1.380000000000000000e+02 1.390000000000000000e+02 1.400000000000000000e+02 1.410000000000000000e+02 1.420000000000000000e+02 1.430000000000000000e+02 1.440000000000000000e+02 1.450000000000000000e+02 1.460000000000000000e+02 1.470000000000000000e+02 1.480000000000000000e+02 1.490000000000000000e+02 1.500000000000000000e+02 1.510000000000000000e+02 1.520000000000000000e+02 1.530000000000000000e+02 1.540000000000000000e+02 1.550000000000000000e+02 1.560000000000000000e+02 1.570000000000000000e+02 1.580000000000000000e+02 1.590000000000000000e+02 1.600000000000000000e+02 1.610000000000000000e+02 1.620000000000000000e+02 1.630000000000000000e+02 1.640000000000000000e+02 1.650000000000000000e+02 1.660000000000000000e+02 1.670000000000000000e+02 1.680000000000000000e+02 1.690000000000000000e+02 1.700000000000000000e+02 1.710000000000000000e+02 1.720000000000000000e+02 1.730000000000000000e+02 1.740000000000000000e+02 1.750000000000000000e+02 1.760000000000000000e+02 1.770000000000000000e+02 1.780000000000000000e+02 1.790000000000000000e+02 1.800000000000000000e+02 1.810000000000000000e+02 1.820000000000000000e+02 1.830000000000000000e+02 1.840000000000000000e+02 1.850000000000000000e+02 1.860000000000000000e+02 1.870000000000000000e+02 1.880000000000000000e+02 1.890000000000000000e+02 1.900000000000000000e+02 1.910000000000000000e+02 1.920000000000000000e+02 1.930000000000000000e+02 1.940000000000000000e+02 1.950000000000000000e+02 1.960000000000000000e+02 1.970000000000000000e+02 1.980000000000000000e+02 1.990000000000000000e+02 2.000000000000000000e+02 2.010000000000000000e+02 2.020000000000000000e+02 2.030000000000000000e+02 2.040000000000000000e+02 2.050000000000000000e+02 2.060000000000000000e+02 2.070000000000000000e+02 2.080000000000000000e+02 2.090000000000000000e+02 2.100000000000000000e+02 2.110000000000000000e+02 2.120000000000000000e+02 2.130000000000000000e+02 2.140000000000000000e+02 2.150000000000000000e+02 2.160000000000000000e+02 2.170000000000000000e+02 2.180000000000000000e+02 2.190000000000000000e+02 2.200000000000000000e+02 2.210000000000000000e+02 2.220000000000000000e+02 2.230000000000000000e+02 2.240000000000000000e+02 2.250000000000000000e+02 2.260000000000000000e+02 2.270000000000000000e+02 2.280000000000000000e+02 2.290000000000000000e+02 2.300000000000000000e+02 2.310000000000000000e+02 2.320000000000000000e+02 2.330000000000000000e+02 2.340000000000000000e+02 2.350000000000000000e+02 2.360000000000000000e+02 2.370000000000000000e+02 2.380000000000000000e+02 2.390000000000000000e+02 2.400000000000000000e+02 2.410000000000000000e+02 2.420000000000000000e+02 2.430000000000000000e+02 2.440000000000000000e+02 2.450000000000000000e+02 2.460000000000000000e+02 2.470000000000000000e+02 2.480000000000000000e+02 2.490000000000000000e+02 2.500000000000000000e+02 2.510000000000000000e+02 2.520000000000000000e+02 2.530000000000000000e+02 2.540000000000000000e+02 2.550000000000000000e+02 2.560000000000000000e+02 2.570000000000000000e+02 2.580000000000000000e+02 2.590000000000000000e+02 2.600000000000000000e+02 2.610000000000000000e+02 2.620000000000000000e+02 2.630000000000000000e+02 2.640000000000000000e+02 2.650000000000000000e+02 2.660000000000000000e+02 2.670000000000000000e+02 2.680000000000000000e+02 2.690000000000000000e+02 2.700000000000000000e+02 2.710000000000000000e+02 2.720000000000000000e+02 2.730000000000000000e+02 2.740000000000000000e+02 2.750000000000000000e+02 2.760000000000000000e+02 2.770000000000000000e+02 2.780000000000000000e+02 2.790000000000000000e+02 2.800000000000000000e+02 2.810000000000000000e+02 2.820000000000000000e+02 2.830000000000000000e+02 2.840000000000000000e+02 2.850000000000000000e+02 2.860000000000000000e+02 2.870000000000000000e+02 2.880000000000000000e+02 2.890000000000000000e+02 2.900000000000000000e+02 2.910000000000000000e+02 2.920000000000000000e+02 2.930000000000000000e+02 2.940000000000000000e+02 2.950000000000000000e+02 2.960000000000000000e+02 2.970000000000000000e+02 2.980000000000000000e+02 2.990000000000000000e+02 3.000000000000000000e+02 3.010000000000000000e+02 3.020000000000000000e+02 3.030000000000000000e+02 3.040000000000000000e+02 3.050000000000000000e+02 3.060000000000000000e+02 3.070000000000000000e+02 3.080000000000000000e+02 3.090000000000000000e+02 3.100000000000000000e+02 3.110000000000000000e+02 3.120000000000000000e+02 3.130000000000000000e+02 3.140000000000000000e+02 3.150000000000000000e+02 3.160000000000000000e+02 3.170000000000000000e+02 3.180000000000000000e+02 3.190000000000000000e+02 3.200000000000000000e+02 3.210000000000000000e+02 3.220000000000000000e+02 3.230000000000000000e+02 3.240000000000000000e+02 3.250000000000000000e+02 3.260000000000000000e+02 3.270000000000000000e+02 3.280000000000000000e+02 3.290000000000000000e+02 3.300000000000000000e+02 3.310000000000000000e+02 3.320000000000000000e+02 3.330000000000000000e+02 3.340000000000000000e+02 3.350000000000000000e+02 3.360000000000000000e+02 3.370000000000000000e+02 3.380000000000000000e+02 3.390000000000000000e+02 3.400000000000000000e+02 3.410000000000000000e+02 3.420000000000000000e+02 3.430000000000000000e+02 3.440000000000000000e+02 3.450000000000000000e+02 3.460000000000000000e+02 3.470000000000000000e+02 3.480000000000000000e+02 3.490000000000000000e+02 3.500000000000000000e+02 3.510000000000000000e+02 3.520000000000000000e+02 3.530000000000000000e+02 3.540000000000000000e+02 3.550000000000000000e+02 3.560000000000000000e+02 3.570000000000000000e+02 3.580000000000000000e+02 3.590000000000000000e+02 3.600000000000000000e+02 3.610000000000000000e+02 3.620000000000000000e+02 3.630000000000000000e+02 3.640000000000000000e+02 3.650000000000000000e+02 3.660000000000000000e+02 3.670000000000000000e+02 3.680000000000000000e+02 3.690000000000000000e+02 3.700000000000000000e+02 3.710000000000000000e+02 3.720000000000000000e+02 3.730000000000000000e+02 3.740000000000000000e+02 3.750000000000000000e+02 3.760000000000000000e+02 3.770000000000000000e+02 3.780000000000000000e+02 3.790000000000000000e+02 3.800000000000000000e+02 3.810000000000000000e+02 3.820000000000000000e+02 3.830000000000000000e+02 3.840000000000000000e+02 3.850000000000000000e+02 3.860000000000000000e+02 3.870000000000000000e+02 3.880000000000000000e+02 3.890000000000000000e+02 3.900000000000000000e+02 3.910000000000000000e+02 3.920000000000000000e+02 3.930000000000000000e+02 3.940000000000000000e+02 3.950000000000000000e+02 3.960000000000000000e+02 3.970000000000000000e+02 3.980000000000000000e+02 3.990000000000000000e+02 4.000000000000000000e+02 4.010000000000000000e+02 4.020000000000000000e+02 4.030000000000000000e+02 4.040000000000000000e+02 4.050000000000000000e+02 4.060000000000000000e+02 4.070000000000000000e+02 4.080000000000000000e+02 4.090000000000000000e+02 4.100000000000000000e+02 4.110000000000000000e+02 4.120000000000000000e+02 4.130000000000000000e+02 4.140000000000000000e+02 4.150000000000000000e+02 4.160000000000000000e+02 4.170000000000000000e+02 4.180000000000000000e+02 4.190000000000000000e+02 4.200000000000000000e+02 4.210000000000000000e+02 4.220000000000000000e+02 4.230000000000000000e+02 4.240000000000000000e+02 4.250000000000000000e+02 4.260000000000000000e+02 4.270000000000000000e+02 4.280000000000000000e+02 4.290000000000000000e+02 4.300000000000000000e+02 4.310000000000000000e+02 4.320000000000000000e+02 4.330000000000000000e+02 4.340000000000000000e+02 4.350000000000000000e+02 4.360000000000000000e+02 4.370000000000000000e+02 4.380000000000000000e+02 4.390000000000000000e+02 4.400000000000000000e+02 4.410000000000000000e+02 4.420000000000000000e+02 4.430000000000000000e+02 4.440000000000000000e+02 4.450000000000000000e+02 4.460000000000000000e+02 4.470000000000000000e+02 4.480000000000000000e+02 4.490000000000000000e+02 4.500000000000000000e+02 4.510000000000000000e+02 4.520000000000000000e+02 4.530000000000000000e+02 4.540000000000000000e+02 4.550000000000000000e+02 4.560000000000000000e+02 4.570000000000000000e+02 4.580000000000000000e+02 4.590000000000000000e+02 4.600000000000000000e+02 4.610000000000000000e+02 4.620000000000000000e+02 4.630000000000000000e+02 4.640000000000000000e+02 4.650000000000000000e+02 4.660000000000000000e+02 4.670000000000000000e+02 4.680000000000000000e+02 4.690000000000000000e+02 4.700000000000000000e+02 4.710000000000000000e+02 4.720000000000000000e+02 4.730000000000000000e+02 4.740000000000000000e+02 4.750000000000000000e+02 4.760000000000000000e+02 4.770000000000000000e+02 4.780000000000000000e+02 4.790000000000000000e+02 4.800000000000000000e+02 4.810000000000000000e+02 4.820000000000000000e+02 4.830000000000000000e+02 4.840000000000000000e+02 4.850000000000000000e+02 4.860000000000000000e+02 4.870000000000000000e+02 4.880000000000000000e+02 4.890000000000000000e+02 4.900000000000000000e+02 4.910000000000000000e+02 4.920000000000000000e+02 4.930000000000000000e+02 4.940000000000000000e+02 4.950000000000000000e+02 4.960000000000000000e+02 4.970000000000000000e+02 4.980000000000000000e+02 4.990000000000000000e+02 5.000000000000000000e+02 5.010000000000000000e+02 5.020000000000000000e+02 5.030000000000000000e+02 5.040000000000000000e+02 5.050000000000000000e+02 5.060000000000000000e+02 5.070000000000000000e+02 5.080000000000000000e+02 5.090000000000000000e+02 5.100000000000000000e+02 5.110000000000000000e+02 5.120000000000000000e+02 5.130000000000000000e+02 5.140000000000000000e+02 5.150000000000000000e+02 5.160000000000000000e+02 5.170000000000000000e+02 5.180000000000000000e+02 5.190000000000000000e+02 5.200000000000000000e+02 5.210000000000000000e+02 5.220000000000000000e+02 5.230000000000000000e+02 5.240000000000000000e+02 5.250000000000000000e+02 5.260000000000000000e+02 5.270000000000000000e+02 5.280000000000000000e+02 5.290000000000000000e+02 5.300000000000000000e+02 5.310000000000000000e+02 5.320000000000000000e+02 5.330000000000000000e+02 5.340000000000000000e+02 5.350000000000000000e+02 5.360000000000000000e+02 5.370000000000000000e+02 5.380000000000000000e+02 5.390000000000000000e+02 5.400000000000000000e+02 5.410000000000000000e+02 5.420000000000000000e+02 5.430000000000000000e+02 5.440000000000000000e+02 5.450000000000000000e+02 5.460000000000000000e+02 5.470000000000000000e+02 5.480000000000000000e+02 5.490000000000000000e+02 5.500000000000000000e+02 5.510000000000000000e+02 5.520000000000000000e+02 5.530000000000000000e+02 5.540000000000000000e+02 5.550000000000000000e+02 5.560000000000000000e+02 5.570000000000000000e+02 5.580000000000000000e+02 5.590000000000000000e+02 5.600000000000000000e+02 5.610000000000000000e+02 5.620000000000000000e+02 5.630000000000000000e+02 5.640000000000000000e+02 5.650000000000000000e+02 5.660000000000000000e+02 5.670000000000000000e+02 5.680000000000000000e+02 5.690000000000000000e+02 5.700000000000000000e+02 5.710000000000000000e+02 5.720000000000000000e+02 5.730000000000000000e+02 5.740000000000000000e+02 5.750000000000000000e+02 5.760000000000000000e+02 5.770000000000000000e+02 5.780000000000000000e+02 5.790000000000000000e+02 5.800000000000000000e+02 5.810000000000000000e+02 5.820000000000000000e+02 5.830000000000000000e+02 5.840000000000000000e+02 5.850000000000000000e+02 5.860000000000000000e+02 5.870000000000000000e+02 5.880000000000000000e+02 5.890000000000000000e+02 5.900000000000000000e+02 5.910000000000000000e+02 5.920000000000000000e+02 5.930000000000000000e+02 5.940000000000000000e+02 5.950000000000000000e+02 5.960000000000000000e+02 5.970000000000000000e+02 5.980000000000000000e+02 5.990000000000000000e+02 6.000000000000000000e+02 6.010000000000000000e+02 6.020000000000000000e+02 6.030000000000000000e+02 6.040000000000000000e+02 6.050000000000000000e+02 6.060000000000000000e+02 6.070000000000000000e+02 6.080000000000000000e+02 6.090000000000000000e+02 6.100000000000000000e+02 6.110000000000000000e+02 6.120000000000000000e+02 6.130000000000000000e+02 6.140000000000000000e+02 6.150000000000000000e+02 6.160000000000000000e+02 6.170000000000000000e+02 6.180000000000000000e+02 6.190000000000000000e+02 6.200000000000000000e+02 6.210000000000000000e+02 6.220000000000000000e+02 6.230000000000000000e+02 6.240000000000000000e+02 6.250000000000000000e+02 6.260000000000000000e+02 6.270000000000000000e+02 6.280000000000000000e+02 6.290000000000000000e+02 6.300000000000000000e+02 6.310000000000000000e+02 6.320000000000000000e+02 6.330000000000000000e+02 6.340000000000000000e+02 6.350000000000000000e+02 6.360000000000000000e+02 6.370000000000000000e+02 6.380000000000000000e+02 6.390000000000000000e+02 6.400000000000000000e+02 6.410000000000000000e+02 6.420000000000000000e+02 6.430000000000000000e+02 6.440000000000000000e+02 6.450000000000000000e+02 6.460000000000000000e+02 6.470000000000000000e+02 6.480000000000000000e+02 6.490000000000000000e+02 6.500000000000000000e+02 6.510000000000000000e+02 6.520000000000000000e+02 6.530000000000000000e+02 6.540000000000000000e+02 6.550000000000000000e+02 6.560000000000000000e+02 6.570000000000000000e+02 6.580000000000000000e+02 6.590000000000000000e+02 6.600000000000000000e+02 6.610000000000000000e+02 6.620000000000000000e+02 6.630000000000000000e+02 6.640000000000000000e+02 6.650000000000000000e+02 6.660000000000000000e+02 6.670000000000000000e+02 6.680000000000000000e+02 6.690000000000000000e+02 6.700000000000000000e+02 6.710000000000000000e+02 6.720000000000000000e+02 6.730000000000000000e+02 6.740000000000000000e+02 6.750000000000000000e+02 6.760000000000000000e+02 6.770000000000000000e+02 6.780000000000000000e+02 6.790000000000000000e+02 6.800000000000000000e+02 6.810000000000000000e+02 6.820000000000000000e+02 6.830000000000000000e+02 6.840000000000000000e+02 6.850000000000000000e+02 6.860000000000000000e+02 6.870000000000000000e+02 6.880000000000000000e+02 6.890000000000000000e+02 6.900000000000000000e+02 6.910000000000000000e+02 6.920000000000000000e+02 6.930000000000000000e+02 6.940000000000000000e+02 6.950000000000000000e+02 6.960000000000000000e+02 6.970000000000000000e+02 6.980000000000000000e+02 6.990000000000000000e+02 7.000000000000000000e+02 7.010000000000000000e+02 7.020000000000000000e+02 7.030000000000000000e+02 7.040000000000000000e+02 7.050000000000000000e+02 7.060000000000000000e+02 7.070000000000000000e+02 7.080000000000000000e+02 7.090000000000000000e+02 7.100000000000000000e+02 7.110000000000000000e+02 7.120000000000000000e+02 7.130000000000000000e+02 7.140000000000000000e+02 7.150000000000000000e+02 7.160000000000000000e+02 7.170000000000000000e+02 7.180000000000000000e+02 7.190000000000000000e+02 7.200000000000000000e+02 7.210000000000000000e+02 7.220000000000000000e+02 7.230000000000000000e+02 7.240000000000000000e+02 7.250000000000000000e+02 7.260000000000000000e+02 7.270000000000000000e+02 7.280000000000000000e+02 7.290000000000000000e+02 7.300000000000000000e+02 7.310000000000000000e+02 7.320000000000000000e+02 7.330000000000000000e+02 7.340000000000000000e+02 7.350000000000000000e+02 7.360000000000000000e+02 7.370000000000000000e+02 7.380000000000000000e+02 7.390000000000000000e+02 7.400000000000000000e+02 7.410000000000000000e+02 7.420000000000000000e+02 7.430000000000000000e+02 7.440000000000000000e+02 7.450000000000000000e+02 7.460000000000000000e+02 7.470000000000000000e+02 7.480000000000000000e+02 7.490000000000000000e+02 7.500000000000000000e+02 7.510000000000000000e+02 7.520000000000000000e+02 7.530000000000000000e+02 7.540000000000000000e+02 7.550000000000000000e+02 7.560000000000000000e+02 7.570000000000000000e+02 7.580000000000000000e+02 7.590000000000000000e+02 7.600000000000000000e+02 7.610000000000000000e+02 7.620000000000000000e+02 7.630000000000000000e+02 7.640000000000000000e+02 7.650000000000000000e+02 7.660000000000000000e+02 7.670000000000000000e+02 7.680000000000000000e+02 7.690000000000000000e+02 7.700000000000000000e+02 7.710000000000000000e+02 7.720000000000000000e+02 7.730000000000000000e+02 7.740000000000000000e+02 7.750000000000000000e+02 7.760000000000000000e+02 7.770000000000000000e+02 7.780000000000000000e+02 7.790000000000000000e+02 7.800000000000000000e+02 7.810000000000000000e+02 7.820000000000000000e+02 7.830000000000000000e+02 7.840000000000000000e+02 7.850000000000000000e+02 7.860000000000000000e+02 7.870000000000000000e+02 7.880000000000000000e+02 7.890000000000000000e+02 7.900000000000000000e+02 7.910000000000000000e+02 7.920000000000000000e+02 7.930000000000000000e+02 7.940000000000000000e+02 7.950000000000000000e+02 7.960000000000000000e+02 7.970000000000000000e+02 7.980000000000000000e+02 7.990000000000000000e+02 8.000000000000000000e+02 8.010000000000000000e+02 8.020000000000000000e+02 8.030000000000000000e+02 8.040000000000000000e+02 8.050000000000000000e+02 8.060000000000000000e+02 8.070000000000000000e+02 8.080000000000000000e+02 8.090000000000000000e+02 8.100000000000000000e+02 8.110000000000000000e+02 8.120000000000000000e+02 8.130000000000000000e+02 8.140000000000000000e+02 8.150000000000000000e+02 8.160000000000000000e+02 8.170000000000000000e+02 8.180000000000000000e+02 8.190000000000000000e+02 8.200000000000000000e+02 8.210000000000000000e+02 8.220000000000000000e+02 8.230000000000000000e+02 8.240000000000000000e+02 8.250000000000000000e+02 8.260000000000000000e+02 8.270000000000000000e+02 8.280000000000000000e+02 8.290000000000000000e+02 8.300000000000000000e+02 8.310000000000000000e+02 8.320000000000000000e+02 8.330000000000000000e+02 8.340000000000000000e+02 8.350000000000000000e+02 8.360000000000000000e+02 8.370000000000000000e+02 8.380000000000000000e+02 8.390000000000000000e+02 8.400000000000000000e+02 8.410000000000000000e+02 8.420000000000000000e+02 8.430000000000000000e+02 8.440000000000000000e+02 8.450000000000000000e+02 8.460000000000000000e+02 8.470000000000000000e+02 8.480000000000000000e+02 8.490000000000000000e+02 8.500000000000000000e+02 8.510000000000000000e+02 8.520000000000000000e+02 8.530000000000000000e+02 8.540000000000000000e+02 8.550000000000000000e+02 8.560000000000000000e+02 8.570000000000000000e+02 8.580000000000000000e+02 8.590000000000000000e+02 8.600000000000000000e+02 8.610000000000000000e+02 8.620000000000000000e+02 8.630000000000000000e+02 8.640000000000000000e+02 8.650000000000000000e+02 8.660000000000000000e+02 8.670000000000000000e+02 8.680000000000000000e+02 8.690000000000000000e+02 8.700000000000000000e+02 8.710000000000000000e+02 8.720000000000000000e+02 8.730000000000000000e+02 8.740000000000000000e+02 8.750000000000000000e+02 8.760000000000000000e+02 8.770000000000000000e+02 8.780000000000000000e+02 8.790000000000000000e+02 8.800000000000000000e+02 8.810000000000000000e+02 8.820000000000000000e+02 8.830000000000000000e+02 8.840000000000000000e+02 8.850000000000000000e+02 8.860000000000000000e+02 8.870000000000000000e+02 8.880000000000000000e+02 8.890000000000000000e+02 8.900000000000000000e+02 8.910000000000000000e+02 8.920000000000000000e+02 8.930000000000000000e+02 8.940000000000000000e+02 8.950000000000000000e+02 8.960000000000000000e+02 8.970000000000000000e+02 8.980000000000000000e+02 8.990000000000000000e+02 9.000000000000000000e+02 9.010000000000000000e+02 9.020000000000000000e+02 9.030000000000000000e+02 9.040000000000000000e+02 9.050000000000000000e+02 9.060000000000000000e+02 9.070000000000000000e+02 9.080000000000000000e+02 9.090000000000000000e+02 9.100000000000000000e+02 9.110000000000000000e+02 9.120000000000000000e+02 9.130000000000000000e+02 9.140000000000000000e+02 9.150000000000000000e+02 9.160000000000000000e+02 9.170000000000000000e+02 9.180000000000000000e+02 9.190000000000000000e+02 9.200000000000000000e+02 9.210000000000000000e+02 9.220000000000000000e+02 9.230000000000000000e+02 9.240000000000000000e+02 9.250000000000000000e+02 9.260000000000000000e+02 9.270000000000000000e+02 9.280000000000000000e+02 9.290000000000000000e+02 9.300000000000000000e+02 9.310000000000000000e+02 9.320000000000000000e+02 9.330000000000000000e+02 9.340000000000000000e+02 9.350000000000000000e+02 9.360000000000000000e+02 9.370000000000000000e+02 9.380000000000000000e+02 9.390000000000000000e+02 9.400000000000000000e+02 9.410000000000000000e+02 9.420000000000000000e+02 9.430000000000000000e+02 9.440000000000000000e+02 9.450000000000000000e+02 9.460000000000000000e+02 9.470000000000000000e+02 9.480000000000000000e+02 9.490000000000000000e+02 9.500000000000000000e+02 9.510000000000000000e+02 9.520000000000000000e+02 9.530000000000000000e+02 9.540000000000000000e+02 9.550000000000000000e+02 9.560000000000000000e+02 9.570000000000000000e+02 9.580000000000000000e+02 9.590000000000000000e+02 9.600000000000000000e+02 9.610000000000000000e+02 9.620000000000000000e+02 9.630000000000000000e+02 9.640000000000000000e+02 9.650000000000000000e+02 9.660000000000000000e+02 9.670000000000000000e+02 9.680000000000000000e+02 9.690000000000000000e+02 9.700000000000000000e+02 9.710000000000000000e+02 9.720000000000000000e+02 9.730000000000000000e+02 9.740000000000000000e+02 9.750000000000000000e+02 9.760000000000000000e+02 9.770000000000000000e+02 9.780000000000000000e+02 9.790000000000000000e+02 9.800000000000000000e+02 9.810000000000000000e+02 9.820000000000000000e+02 9.830000000000000000e+02 9.840000000000000000e+02 9.850000000000000000e+02 9.860000000000000000e+02 9.870000000000000000e+02 9.880000000000000000e+02 9.890000000000000000e+02 9.900000000000000000e+02 9.910000000000000000e+02 9.920000000000000000e+02 9.930000000000000000e+02 9.940000000000000000e+02 9.950000000000000000e+02 9.960000000000000000e+02 9.970000000000000000e+02 9.980000000000000000e+02 9.990000000000000000e+02
1.000000000000000000e+00 1.000000000000000000e+00 1.000000000000000000e+00 1.000000000000000000e+00 1.000000000000000000e+00 1.000000000000000000e+00 1.000000000000000000e+00 1.000000000000000000e+00 1.000000000000000000e+00 1.000000000000000000e+00 1.000000000000000000e+00 1.000000000000000000e+00 1.000000000000000000e+00 1.000000000000000000e+00 1.000000000000000000e+00 1.000000000000000000e+00 1.000000000000000000e+00 1.000000000000000000e+00 1.000000000000000000e+00 1.000000000000000000e+00 1.000000000000000000e+00 1.000000000000000000e+00 1.000000000000000000e+00 1.000000000000000000e+00 1.000000000000000000e+00 1.000000000000000000e+00 1.000000000000000000e+00 1.000000000000000000e+00 1.000000000000000000e+00 1.000000000000000000e+00 1.000000000000000000e+00 1.000000000000000000e+00 1.000000000000000000e+00 1.000000000000000000e+00 1.000000000000000000e+00 1.000000000000000000e+00 1.000000000000000000e+00 1.000000000000000000e+00 1.000000000000000000e+00 1.000000000000000000e+00 1.000000000000000000e+00 1.000000000000000000e+00 1.000000000000000000e+00 1.000000000000000000e+00 1.000000000000000000e+00 1.000000000000000000e+00 1.000000000000000000e+00 1.000000000000000000e+00 1.000000000000000000e+00 1.000000000000000000e+00 1.000000000000000000e+00 1.000000000000000000e+00 1.000000000000000000e+00 1.000000000000000000e+00 1.000000000000000000e+00 1.000000000000000000e+00 1.000000000000000000e+00 1.000000000000000000e+00 1.000000000000000000e+00 1.000000000000000000e+00 1.000000000000000000e+00 1.000000000000000000e+00 1.000000000000000000e+00 1.000000000000000000e+00 1.000000000000000000e+00 1.000000000000000000e+00 1.000000000000000000e+00 1.000000000000000000e+00 1.000000000000000000e+00 1.000000000000000000e+00 1.000000000000000000e+00 1.000000000000000000e+00 1.000000000000000000e+00 1.000000000000000000e+00 1.000000000000000000e+00 1.000000000000000000e+00 1.000000000000000000e+00 1.000000000000000000e+00 1.000000000000000000e+00 1.000000000000000000e+00 1.000000000000000000e+00 1.000000000000000000e+00 1.000000000000000000e+00 1.000000000000000000e+00 1.000000000000000000e+00 1.000000000000000000e+00 1.000000000000000000e+00 1.000000000000000000e+00 1.000000000000000000e+00 1.000000000000000000e+00 1.000000000000000000e+00 1.000000000000000000e+00 1.000000000000000000e+00 1.000000000000000000e+00 1.000000000000000000e+00 1.000000000000000000e+00 1.000000000000000000e+00 1.000000000000000000e+00 1.000000000000000000e+00 1.000000000000000000e+00 1.000000000000000000e+00 1.000000000000000000e+00 1.000000000000000000e+00 1.000000000000000000e+00 1.000000000000000000e+00 1.000000000000000000e+00 1.000000000000000000e+00 1.000000000000000000e+00 1.000000000000000000e+00 1.000000000000000000e+00 1.000000000000000000e+00 1.000000000000000000e+00 1.000000000000000000e+00 1.000000000000000000e+00 1.000000000000000000e+00 1.000000000000000000e+00 1.000000000000000000e+00 1.000000000000000000e+00 1.000000000000000000e+00 1.000000000000000000e+00 1.000000000000000000e+00 1.000000000000000000e+00 1.000000000000000000e+00 1.000000000000000000e+00 1.000000000000000000e+00 1.000000000000000000e+00 1.000000000000000000e+00 1.000000000000000000e+00 1.000000000000000000e+00 1.000000000000000000e+00 1.000000000000000000e+00 1.000000000000000000e+00 1.000000000000000000e+00 1.000000000000000000e+00 1.000000000000000000e+00 1.000000000000000000e+00 1.000000000000000000e+00 1.000000000000000000e+00 1.000000000000000000e+00 1.000000000000000000e+00 1.000000000000000000e+00 1.000000000000000000e+00 1.000000000000000000e+00 1.000000000000000000e+00 1.000000000000000000e+00 1.000000000000000000e+00 1.000000000000000000e+00 1.000000000000000000e+00 1.000000000000000000e+00 1.000000000000000000e+00 1.000000000000000000e+00 1.000000000000000000e+00 1.000000000000000000e+00 1.000000000000000000e+00 1.000000000000000000e+00 1.000000000000000000e+00 1.000000000000000000e+00 1.000000000000000000e+00 1.000000000000000000e+00 1.000000000000000000e+00 1.000000000000000000e+00 1.000000000000000000e+00 1.000000000000000000e+00 1.000000000000000000e+00 1.000000000000000000e+00 1.000000000000000000e+00 1.000000000000000000e+00 1.000000000000000000e+00 1.000000000000000000e+00 1.000000000000000000e+00 1.000000000000000000e+00 1.000000000000000000e+00 1.000000000000000000e+00 1.000000000000000000e+00 1.000000000000000000e+00 1.000000000000000000e+00 1.000000000000000000e+00 1.000000000000000000e+00 1.000000000000000000e+00 1.000000000000000000e+00 1.000000000000000000e+00 1.000000000000000000e+00 1.000000000000000000e+00 1.000000000000000000e+00 1.000000000000000000e+00 1.000000000000000000e+00 1.000000000000000000e+00 1.000000000000000000e+00 1.000000000000000000e+00 1.000000000000000000e+00 1.000000000000000000e+00 1.000000000000000000e+00 1.000000000000000000e+00 1.000000000000000000e+00 1.000000000000000000e+00 1.000000000000000000e+00 1.000000000000000000e+00 1.000000000000000000e+00 1.000000000000000000e+00 1.000000000000000000e+00 1.000000000000000000e+00 1.000000000000000000e+00 1.000000000000000000e+00 1.000000000000000000e+00 1.000000000000000000e+00 1.000000000000000000e+00 1.000000000000000000e+00 1.000000000000000000e+00 1.000000000000000000e+00 1.000000000000000000e+00 1.000000000000000000e+00 1.000000000000000000e+00 1.000000000000000000e+00 1.000000000000000000e+00 1.000000000000000000e+00 1.000000000000000000e+00 1.000000000000000000e+00 1.000000000000000000e+00 1.000000000000000000e+00 1.000000000000000000e+00 1.000000000000000000e+00 1.000000000000000000e+00 1.000000000000000000e+00 1.000000000000000000e+00 1.000000000000000000e+00 1.000000000000000000e+00 1.000000000000000000e+00 1.000000000000000000e+00 1.000000000000000000e+00 1.000000000000000000e+00 1.000000000000000000e+00 1.000000000000000000e+00 1.000000000000000000e+00 1.000000000000000000e+00 1.000000000000000000e+00 1.000000000000000000e+00 1.000000000000000000e+00 1.000000000000000000e+00 1.000000000000000000e+00 1.000000000000000000e+00 1.000000000000000000e+00 1.000000000000000000e+00 1.000000000000000000e+00 1.000000000000000000e+00 1.000000000000000000e+00 1.000000000000000000e+00 1.000000000000000000e+00 1.000000000000000000e+00 1.000000000000000000e+00 1.000000000000000000e+00 1.000000000000000000e+00 1.000000000000000000e+00 1.000000000000000000e+00 1.000000000000000000e+00 1.000000000000000000e+00 1.000000000000000000e+00 1.000000000000000000e+00 1.000000000000000000e+00 1.000000000000000000e+00 1.000000000000000000e+00 1.000000000000000000e+00 1.000000000000000000e+00 1.000000000000000000e+00 1.000000000000000000e+00 1.000000000000000000e+00 1.000000000000000000e+00 1.000000000000000000e+00 1.000000000000000000e+00 1.000000000000000000e+00 1.000000000000000000e+00 1.000000000000000000e+00 1.000000000000000000e+00 1.000000000000000000e+00 1.000000000000000000e+00 1.000000000000000000e+00 1.000000000000000000e+00 1.000000000000000000e+00 1.000000000000000000e+00 1.000000000000000000e+00 1.000000000000000000e+00 1.000000000000000000e+00 1.000000000000000000e+00 1.000000000000000000e+00 1.000000000000000000e+00 1.000000000000000000e+00 1.000000000000000000e+00 1.000000000000000000e+00 1.000000000000000000e+00 1.000000000000000000e+00 1.000000000000000000e+00 1.000000000000000000e+00 1.000000000000000000e+00 1.000000000000000000e+00 1.000000000000000000e+00 1.000000000000000000e+00 1.000000000000000000e+00 1.000000000000000000e+00 1.000000000000000000e+00 1.000000000000000000e+00 1.000000000000000000e+00 1.000000000000000000e+00 1.000000000000000000e+00 1.000000000000000000e+00 1.000000000000000000e+00 1.000000000000000000e+00 1.000000000000000000e+00 1.000000000000000000e+00 1.000000000000000000e+00 1.000000000000000000e+00 1.000000000000000000e+00 1.000000000000000000e+00 1.000000000000000000e+00 1.000000000000000000e+00 1.000000000000000000e+00 1.000000000000000000e+00 1.000000000000000000e+00 1.000000000000000000e+00 1.000000000000000000e+00 1.000000000000000000e+00 1.000000000000000000e+00 1.000000000000000000e+00 1.000000000000000000e+00 1.000000000000000000e+00 1.000000000000000000e+00 1.000000000000000000e+00 1.000000000000000000e+00 1.000000000000000000e+00 1.000000000000000000e+00 1.000000000000000000e+00 1.000000000000000000e+00 1.000000000000000000e+00 1.000000000000000000e+00 1.000000000000000000e+00 1.000000000000000000e+00 1.000000000000000000e+00 1.000000000000000000e+00 1.000000000000000000e+00 1.000000000000000000e+00 1.000000000000000000e+00 1.000000000000000000e+00 1.000000000000000000e+00 1.000000000000000000e+00 1.000000000000000000e+00 1.000000000000000000e+00 1.000000000000000000e+00 1.000000000000000000e+00 1.000000000000000000e+00 1.000000000000000000e+00 1.000000000000000000e+00 1.000000000000000000e+00 1.000000000000000000e+00 1.000000000000000000e+00 1.000000000000000000e+00 1.000000000000000000e+00 1.000000000000000000e+00 1.000000000000000000e+00 1.000000000000000000e+00 1.000000000000000000e+00 1.000000000000000000e+00 1.000000000000000000e+00 1.000000000000000000e+00 1.000000000000000000e+00 1.000000000000000000e+00 1.000000000000000000e+00 1.000000000000000000e+00 1.000000000000000000e+00 1.000000000000000000e+00 1.000000000000000000e+00 1.000000000000000000e+00 1.000000000000000000e+00 1.000000000000000000e+00 1.000000000000000000e+00 1.000000000000000000e+00 1.000000000000000000e+00 1.000000000000000000e+00 1.000000000000000000e+00 1.000000000000000000e+00 1.000000000000000000e+00 1.000000000000000000e+00 1.000000000000000000e+00 1.000000000000000000e+00 1.000000000000000000e+00 1.000000000000000000e+00 1.000000000000000000e+00 1.000000000000000000e+00 1.000000000000000000e+00 1.000000000000000000e+00 1.000000000000000000e+00 1.000000000000000000e+00 1.000000000000000000e+00 1.000000000000000000e+00 1.000000000000000000e+00 1.000000000000000000e+00 1.000000000000000000e+00 1.000000000000000000e+00 1.000000000000000000e+00 1.000000000000000000e+00 1.000000000000000000e+00 1.000000000000000000e+00 1.000000000000000000e+00 1.000000000000000000e+00 1.000000000000000000e+00 1.000000000000000000e+00 1.000000000000000000e+00 1.000000000000000000e+00 1.000000000000000000e+00 1.000000000000000000e+00 1.000000000000000000e+00 1.000000000000000000e+00 1.000000000000000000e+00 1.000000000000000000e+00 1.000000000000000000e+00 1.000000000000000000e+00 1.000000000000000000e+00 1.000000000000000000e+00 1.000000000000000000e+00 1.000000000000000000e+00 1.000000000000000000e+00 1.000000000000000000e+00 1.000000000000000000e+00 1.000000000000000000e+00 1.000000000000000000e+00 1.000000000000000000e+00 1.000000000000000000e+00 1.000000000000000000e+00 1.000000000000000000e+00 1.000000000000000000e+00 1.000000000000000000e+00 1.000000000000000000e+00 1.000000000000000000e+00 1.000000000000000000e+00 1.000000000000000000e+00 1.000000000000000000e+00 1.000000000000000000e+00 1.000000000000000000e+00 1.000000000000000000e+00 1.000000000000000000e+00 1.000000000000000000e+00 1.000000000000000000e+00 1.000000000000000000e+00 1.000000000000000000e+00 1.000000000000000000e+00 1.000000000000000000e+00 1.000000000000000000e+00 1.000000000000000000e+00 1.000000000000000000e+00 1.000000000000000000e+00 1.000000000000000000e+00 1.000000000000000000e+00 1.000000000000000000e+00 1.000000000000000000e+00 1.000000000000000000e+00 1.000000000000000000e+00 1.000000000000000000e+00 1.000000000000000000e+00 1.000000000000000000e+00 1.000000000000000000e+00 1.000000000000000000e+00 1.000000000000000000e+00 1.000000000000000000e+00 1.000000000000000000e+00 1.000000000000000000e+00 1.000000000000000000e+00 1.000000000000000000e+00 1.000000000000000000e+00 1.000000000000000000e+00 1.000000000000000000e+00 1.000000000000000000e+00 1.000000000000000000e+00 1.000000000000000000e+00 1.000000000000000000e+00 1.000000000000000000e+00 1.000000000000000000e+00 1.000000000000000000e+00 1.000000000000000000e+00 1.000000000000000000e+00 1.000000000000000000e+00 1.000000000000000000e+00 1.000000000000000000e+00 1.000000000000000000e+00 1.000000000000000000e+00 1.000000000000000000e+00 1.000000000000000000e+00 1.000000000000000000e+00 1.000000000000000000e+00 1.000000000000000000e+00 1.000000000000000000e+00 1.000000000000000000e+00 1.000000000000000000e+00 1.000000000000000000e+00 1.000000000000000000e+00 1.000000000000000000e+00 1.000000000000000000e+00 1.000000000000000000e+00 1.000000000000000000e+00 1.000000000000000000e+00 1.000000000000000000e+00 1.000000000000000000e+00 1.000000000000000000e+00 1.000000000000000000e+00 1.000000000000000000e+00 1.000000000000000000e+00 1.000000000000000000e+00 1.000000000000000000e+00 1.000000000000000000e+00 1.000000000000000000e+00 1.000000000000000000e+00 1.000000000000000000e+00 1.000000000000000000e+00 1.000000000000000000e+00 1.000000000000000000e+00 1.000000000000000000e+00 1.000000000000000000e+00 1.000000000000000000e+00 1.000000000000000000e+00 1.000000000000000000e+00 1.000000000000000000e+00 1.000000000000000000e+00 1.000000000000000000e+00 1.000000000000000000e+00 1.000000000000000000e+00 1.000000000000000000e+00 1.000000000000000000e+00 1.000000000000000000e+00 1.000000000000000000e+00 1.000000000000000000e+00 1.000000000000000000e+00 1.000000000000000000e+00 1.000000000000000000e+00 1.000000000000000000e+00 1.000000000000000000e+00 1.000000000000000000e+00 1.000000000000000000e+00 1.000000000000000000e+00 1.000000000000000000e+00 1.000000000000000000e+00 1.000000000000000000e+00 1.000000000000000000e+00 1.000000000000000000e+00 1.000000000000000000e+00 1.000000000000000000e+00 1.000000000000000000e+00 1.000000000000000000e+00 1.000000000000000000e+00 1.000000000000000000e+00 1.000000000000000000e+00 1.000000000000000000e+00 1.000000000000000000e+00 1.000000000000000000e+00 1.000000000000000000e+00 1.000000000000000000e+00 1.000000000000000000e+00 1.000000000000000000e+00 1.000000000000000000e+00 1.000000000000000000e+00 1.000000000000000000e+00 1.000000000000000000e+00 1.000000000000000000e+00 1.000000000000000000e+00 1.000000000000000000e+00 1.000000000000000000e+00 1.000000000000000000e+00 1.000000000000000000e+00 1.000000000000000000e+00 1.000000000000000000e+00 1.000000000000000000e+00 1.000000000000000000e+00 1.000000000000000000e+00 1.000000000000000000e+00 1.000000000000000000e+00 1.000000000000000000e+00 1.000000000000000000e+00 1.000000000000000000e+00 1.000000000000000000e+00 1.000000000000000000e+00 1.000000000000000000e+00 1.000000000000000000e+00 1.000000000000000000e+00 1.000000000000000000e+00 1.000000000000000000e+00 1.000000000000000000e+00 1.000000000000000000e+00 1.000000000000000000e+00 1.000000000000000000e+00 1.000000000000000000e+00 1.000000000000000000e+00 1.000000000000000000e+00 1.000000000000000000e+00 1.000000000000000000e+00 1.000000000000000000e+00 1.000000000000000000e+00 1.000000000000000000e+00 1.000000000000000000e+00 1.000000000000000000e+00 1.000000000000000000e+00 1.000000000000000000e+00 1.000000000000000000e+00 1.000000000000000000e+00 1.000000000000000000e+00 1.000000000000000000e+00 1.000000000000000000e+00 1.000000000000000000e+00 1.000000000000000000e+00 1.000000000000000000e+00 1.000000000000000000e+00 1.000000000000000000e+00 1.000000000000000000e+00 1.000000000000000000e+00 1.000000000000000000e+00 1.000000000000000000e+00 1.000000000000000000e+00 1.000000000000000000e+00 1.000000000000000000e+00 1.000000000000000000e+00 1.000000000000000000e+00 1.000000000000000000e+00 1.000000000000000000e+00 1.000000000000000000e+00 1.000000000000000000e+00 1.000000000000000000e+00 1.000000000000000000e+00 1.000000000000000000e+00 1.000000000000000000e+00 1.000000000000000000e+00 1.000000000000000000e+00 1.000000000000000000e+00 1.000000000000000000e+00 1.000000000000000000e+00 1.000000000000000000e+00 1.000000000000000000e+00 1.000000000000000000e+00 1.000000000000000000e+00 1.000000000000000000e+00 1.000000000000000000e+00 1.000000000000000000e+00 1.000000000000000000e+00 1.000000000000000000e+00 1.000000000000000000e+00 1.000000000000000000e+00 1.000000000000000000e+00 1.000000000000000000e+00 1.000000000000000000e+00 1.000000000000000000e+00 1.000000000000000000e+00 1.000000000000000000e+00 1.000000000000000000e+00 1.000000000000000000e+00 1.000000000000000000e+00 1.000000000000000000e+00 1.000000000000000000e+00 1.000000000000000000e+00 1.000000000000000000e+00 1.000000000000000000e+00 1.000000000000000000e+00 1.000000000000000000e+00 1.000000000000000000e+00 1.000000000000000000e+00 1.000000000000000000e+00 1.000000000000000000e+00 1.000000000000000000e+00 1.000000000000000000e+00 1.000000000000000000e+00 1.000000000000000000e+00 1.000000000000000000e+00 1.000000000000000000e+00 1.000000000000000000e+00 1.000000000000000000e+00 1.000000000000000000e+00 1.000000000000000000e+00 1.000000000000000000e+00 1.000000000000000000e+00 1.000000000000000000e+00 1.000000000000000000e+00 1.000000000000000000e+00 1.000000000000000000e+00 1.000000000000000000e+00 1.000000000000000000e+00 1.000000000000000000e+00 1.000000000000000000e+00 1.000000000000000000e+00 1.000000000000000000e+00 1.000000000000000000e+00 1.000000000000000000e+00 1.000000000000000000e+00 1.000000000000000000e+00 1.000000000000000000e+00 1.000000000000000000e+00 1.000000000000000000e+00 1.000000000000000000e+00 1.000000000000000000e+00 1.000000000000000000e+00 1.000000000000000000e+00 1.000000000000000000e+00 1.000000000000000000e+00 1.000000000000000000e+00 1.000000000000000000e+00 1.000000000000000000e+00 1.000000000000000000e+00 1.000000000000000000e+00 1.000000000000000000e+00 1.000000000000000000e+00 1.000000000000000000e+00 1.000000000000000000e+00 1.000000000000000000e+00 1.000000000000000000e+00 1.000000000000000000e+00 1.000000000000000000e+00 1.000000000000000000e+00 1.000000000000000000e+00 1.000000000000000000e+00 1.000000000000000000e+00 1.000000000000000000e+00 1.000000000000000000e+00 1.000000000000000000e+00 1.000000000000000000e+00 1.000000000000000000e+00 1.000000000000000000e+00 1.000000000000000000e+00 1.000000000000000000e+00 1.000000000000000000e+00 1.000000000000000000e+00 1.000000000000000000e+00 1.000000000000000000e+00 1.000000000000000000e+00 1.000000000000000000e+00 1.000000000000000000e+00 1.000000000000000000e+00 1.000000000000000000e+00 1.000000000000000000e+00 1.000000000000000000e+00 1.000000000000000000e+00 1.000000000000000000e+00 1.000000000000000000e+00 1.000000000000000000e+00 1.000000000000000000e+00 1.000000000000000000e+00 1.000000000000000000e+00 1.000000000000000000e+00 1.000000000000000000e+00 1.000000000000000000e+00 1.000000000000000000e+00 1.000000000000000000e+00 1.000000000000000000e+00 1.000000000000000000e+00 1.000000000000000000e+00 1.000000000000000000e+00 1.000000000000000000e+00 1.000000000000000000e+00 1.000000000000000000e+00 1.000000000000000000e+00 1.000000000000000000e+00 1.000000000000000000e+00 1.000000000000000000e+00 1.000000000000000000e+00 1.000000000000000000e+00 1.000000000000000000e+00 1.000000000000000000e+00 1.000000000000000000e+00 1.000000000000000000e+00 1.000000000000000000e+00 1.000000000000000000e+00 1.000000000000000000e+00 1.000000000000000000e+00 1.000000000000000000e+00 1.000000000000000000e+00 1.000000000000000000e+00 1.000000000000000000e+00 1.000000000000000000e+00 1.000000000000000000e+00 1.000000000000000000e+00 1.000000000000000000e+00 1.000000000000000000e+00 1.000000000000000000e+00 1.000000000000000000e+00 1.000000000000000000e+00 1.000000000000000000e+00 1.000000000000000000e+00 1.000000000000000000e+00 1.000000000000000000e+00 1.000000000000000000e+00 1.000000000000000000e+00 1.000000000000000000e+00 1.000000000000000000e+00 1.000000000000000000e+00 1.000000000000000000e+00 1.000000000000000000e+00 1.000000000000000000e+00 1.000000000000000000e+00 1.000000000000000000e+00 1.000000000000000000e+00 1.000000000000000000e+00 1.000000000000000000e+00 1.000000000000000000e+00 1.000000000000000000e+00 1.000000000000000000e+00 1.000000000000000000e+00 1.000000000000000000e+00 1.000000000000000000e+00 1.000000000000000000e+00 1.000000000000000000e+00 1.000000000000000000e+00 1.000000000000000000e+00 1.000000000000000000e+00 1.000000000000000000e+00 1.000000000000000000e+00 1.000000000000000000e+00 1.000000000000000000e+00 1.000000000000000000e+00 1.000000000000000000e+00 1.000000000000000000e+00 1.000000000000000000e+00 1.000000000000000000e+00 1.000000000000000000e+00 1.000000000000000000e+00 1.000000000000000000e+00 1.000000000000000000e+00 1.000000000000000000e+00 1.000000000000000000e+00 1.000000000000000000e+00 1.000000000000000000e+00 1.000000000000000000e+00 1.000000000000000000e+00 1.000000000000000000e+00 1.000000000000000000e+00 1.000000000000000000e+00 1.000000000000000000e+00 1.000000000000000000e+00 1.000000000000000000e+00 1.000000000000000000e+00 1.000000000000000000e+00 1.000000000000000000e+00 1.000000000000000000e+00 1.000000000000000000e+00 1.000000000000000000e+00 1.000000000000000000e+00 1.000000000000000000e+00 1.000000000000000000e+00 1.000000000000000000e+00 1.000000000000000000e+00 1.000000000000000000e+00 1.000000000000000000e+00 1.000000000000000000e+00 1.000000000000000000e+00 1.000000000000000000e+00 1.000000000000000000e+00 1.000000000000000000e+00 1.000000000000000000e+00 1.000000000000000000e+00 1.000000000000000000e+00 1.000000000000000000e+00 1.000000000000000000e+00 1.000000000000000000e+00 1.000000000000000000e+00 1.000000000000000000e+00 1.000000000000000000e+00 1.000000000000000000e+00 1.000000000000000000e+00 1.000000000000000000e+00 1.000000000000000000e+00 1.000000000000000000e+00 1.000000000000000000e+00 1.000000000000000000e+00 1.000000000000000000e+00 1.000000000000000000e+00 1.000000000000000000e+00 1.000000000000000000e+00 1.000000000000000000e+00 1.000000000000000000e+00 1.000000000000000000e+00 1.000000000000000000e+00 1.000000000000000000e+00 1.000000000000000000e+00 1.000000000000000000e+00 1.000000000000000000e+00 1.000000000000000000e+00 1.000000000000000000e+00 1.000000000000000000e+00 1.000000000000000000e+00 1.000000000000000000e+00 1.000000000000000000e+00 1.000000000000000000e+00 1.000000000000000000e+00 1.000000000000000000e+00 1.000000000000000000e+00 1.000000000000000000e+00 1.000000000000000000e+00 1.000000000000000000e+00 1.000000000000000000e+00 1.000000000000000000e+00 1.000000000000000000e+00 1.000000000000000000e+00 1.000000000000000000e+00 1.000000000000000000e+00 1.000000000000000000e+00 1.000000000000000000e+00 1.000000000000000000e+00 1.000000000000000000e+00 1.000000000000000000e+00 1.000000000000000000e+00 1.000000000000000000e+00 1.000000000000000000e+00 1.000000000000000000e+00 1.000000000000000000e+00 1.000000000000000000e+00 1.000000000000000000e+00 1.000000000000000000e+00 1.000000000000000000e+00 1.000000000000000000e+00 1.000000000000000000e+00 1.000000000000000000e+00 1.000000000000000000e+00 1.000000000000000000e+00 1.000000000000000000e+00 1.000000000000000000e+00 1.000000000000000000e+00 1.000000000000000000e+00 1.000000000000000000e+00 1.000000000000000000e+00 1.000000000000000000e+00 1.000000000000000000e+00 1.000000000000000000e+00 1.000000000000000000e+00 1.000000000000000000e+00 1.000000000000000000e+00 1.000000000000000000e+00 1.000000000000000000e+00 1.000000000000000000e+00 1.000000000000000000e+00 1.000000000000000000e+00 1.000000000000000000e+00 1.000000000000000000e+00 1.000000000000000000e+00 1.000000000000000000e+00 1.000000000000000000e+00 1.000000000000000000e+00 1.000000000000000000e+00 1.000000000000000000e+00 1.000000000000000000e+00 1.000000000000000000e+00 1.000000000000000000e+00 1.000000000000000000e+00 1.000000000000000000e+00 1.000000000000000000e+00 1.000000000000000000e+00 1.000000000000000000e+00 1.000000000000000000e+00 1.000000000000000000e+00 1.000000000000000000e+00 1.000000000000000000e+00 1.000000000000000000e+00 1.000000000000000000e+00 1.000000000000000000e+00 1.000000000000000000e+00 1.000000000000000000e+00 1.000000000000000000e+00 1.000000000000000000e+00 1.000000000000000000e+00 1.000000000000000000e+00 1.000000000000000000e+00 1.000000000000000000e+00 1.000000000000000000e+00 1.000000000000000000e+00 1.000000000000000000e+00 1.000000000000000000e+00 1.000000000000000000e+00 1.000000000000000000e+00 1.000000000000000000e+00 1.000000000000000000e+00 1.000000000000000000e+00 1.000000000000000000e+00 1.000000000000000000e+00 1.000000000000000000e+00 1.000000000000000000e+00 1.000000000000000000e+00 1.000000000000000000e+00 1.000000000000000000e+00 1.000000000000000000e+00 1.000000000000000000e+00 1.000000000000000000e+00 1.000000000000000000e+00 1.000000000000000000e+00 1.000000000000000000e+00 1.000000000000000000e+00 1.000000000000000000e+00 1.000000000000000000e+00 1.000000000000000000e+00 1.000000000000000000e+00 1.000000000000000000e+00 1.000000000000000000e+00 1.000000000000000000e+00 1.000000000000000000e+00 1.000000000000000000e+00 1.000000000000000000e+00 1.000000000000000000e+00 1.000000000000000000e+00 1.000000000000000000e+00 1.000000000000000000e+00 1.000000000000000000e+00 1.000000000000000000e+00 1.000000000000000000e+00
4.157360518274505479e-02 5.020222755335940201e-01 -2.577852379443040243e-01 7.620662579732745412e-01 5.168262266602897670e-01 5.110703696207945512e-01 5.973608282226312571e-01 3.287987783233855543e-01 5.482647995956030362e-01 5.274290350360396618e-01 1.082964206257836626e+00 -7.101768968144280825e-01 1.412067875699895003e+00 4.596232725175357081e-01 5.194977770239515014e-01 4.028395925982813375e-01 8.670842552398337899e-01 9.789488240018443532e-01 7.288841199352511513e-01 5.175107691648433983e-01 3.777790656210460729e-01 9.879876536330038928e-01 3.834272809514488456e-01 5.184741621291545366e-01 8.179773810730461836e-02 6.688278505709853716e-01 3.889738260005132231e-01 6.885482467597184852e-01 5.512667163152730199e-01 1.599777999924440808e+00 5.013814880925262507e-01 6.081094247246376927e-01 7.188780100839423648e-01 5.264945605371806892e-01 6.993819492987719544e-01 4.548007454426793994e-01 5.285113932847015361e-01 1.817896006600541847e+00 -7.868963297560362113e-02 5.107856939103605498e-01 -1.926246424542459867e-01 -5.618875240490709411e-01 7.479830734293545502e-01 2.283384136653713870e-01 3.011247726665851054e-01 4.976192026647933142e-01 7.617121570283572618e-01 5.213789459770873380e-01 6.452311832828366844e-01 1.294144416865239920e-02 2.423568868981486324e-02 7.967980996658057258e-01 6.791061490484585628e-01 4.307495077099609548e-01 4.603021339019310321e-01 1.859659759079638347e-02 5.245664246986941892e-01 5.191495631875759909e-01 1.947796356691073871e-01 4.960918361137598986e-01 9.201722480045330110e-01 4.952961517278369197e-01 5.231188436634875982e-01 3.834273710987161632e-01 6.786930837700252406e-01 6.149605486117492026e-01 5.103017682639758856e-01 3.515767980717682262e-01 5.660464519135165462e-01 2.137229950385652333e-02 4.358526558389563821e-01 5.846876508944072182e-01 5.209815061751085219e-01 9.573134537754258294e-03 1.515162086375508865e+00 5.463002517350988851e-01 6.363486620491064505e-01 7.263120451153403101e-01 5.166993881320564030e-01 1.385663121785895679e+00 5.355789530999000014e-01 3.322080347943104917e-01 1.421604128727179228e+00 7.397211572495048237e-01 5.042186246707429653e-01 7.541482021464058771e-01 8.009438507420106879e-01 5.487255217620209402e-01 4.179246074306018355e-01 5.762568433086110442e-01 2.973872685533407445e-01 2.201540903958656870e+00 7.654779051819547986e-01 1.246930671394706758e-02 4.876009589583921167e-01 4.786241550811917711e-01 5.636331041993156710e-01 4.800645647286335138e-01 1.897274517575057162e-01 6.592940644652440785e-01 1.622236262486192571e+00 6.891565233911784993e-01 5.445770345908972354e-01 6.603403787350635712e-01 8.587105447850620354e-01 -2.099124137053877348e+00 -1.231074422977861182e+00 5.350373701057141718e-01 6.067403586150432737e-01 9.700916823413292533e-01 5.770749360832126973e-01 4.298603747011368603e-01 1.724532102838438052e-01 4.975166397357339565e-01 5.244955179882998531e-01 4.960100259731354266e-01 4.710311219258894733e-01 5.222789601033628326e-01 9.561776262036825180e-01 5.123538353715195726e-01 1.309372778583232089e+00 5.459947149024900748e-01 6.127195075746380004e-01 -4.824388674340418515e-01 5.227903713099463223e-01 1.959413436601004310e+00 5.463357701354510931e-01 5.486076369941138564e-01 6.811999684684507672e-01 5.296404047224643197e-01 5.451304132111974843e-01 5.222680484056522188e-01 4.281579851787633006e-01 3.977229952499707899e-01 -3.274432156380492343e-01 -1.697635014690976607e-01 6.563427201124198973e-01 5.355426378926557429e-02 1.004382324773448021e+00 6.007048053383905462e-01 5.038748825056003078e-01 8.689672461658215497e-01 5.583353664658584625e-01 5.401757493877720195e-01 5.196941247257210739e-01 4.724856048433592054e-02 9.421254721310527991e-01 -7.581498921930682200e-02 4.365957961430862455e-01 -9.041805464961868433e-01 7.632748791330481453e-01 -2.908295775084224766e-01 4.976308629834728658e-01 5.609100511713805970e-01 4.627882582384472698e-01 5.248086888600959066e-01 1.984591338155578644e+00 -1.305864352810184870e-01 8.191784058979636463e-01 6.777016604615436757e-01 5.426765635651711328e-01 4.212631656442196171e-01 5.041535167127920714e-01 5.196245640856719250e-01 1.074880849595295285e+00 2.143212341044142821e-01 8.514043829529145402e-01 3.405417371808319715e-01 4.401596255038864314e-01 6.591271214313689786e-01 5.489942195950087145e-01 7.640544084787089796e-01 4.976012880064135668e-01 5.149545544251402651e-01 4.039623834160429028e-01 4.727843700028853957e-02 2.038266737396378925e-01 9.779031963419461404e-02 7.512258500723445476e-01 1.143066987225141107e+00 6.870959028896922449e-01 5.251169759550461391e-01 -1.732286488465596686e-01 4.378525633466560651e-01 5.798833454594584103e-01 5.523873129332579346e-01 5.134314101005144071e-01 5.174054726964416595e-01 2.823327281463141603e+00 5.245540431859437858e-01 5.516018771872925885e-01 -9.048764927559718174e-01 5.451847198540596962e-01 5.306998253614186867e-01 1.934903919485191359e-01 5.221703574590086383e-01 9.394466683362220349e-01 5.334521781282873798e-01 5.519377694272791235e-01 4.727343698082126511e-01 6.311035021076231155e-01 4.917179425576064800e-01 8.934849211764681609e-01 6.016145999293620594e-01 5.432186473494590162e-01 5.519377889786241109e-01 2.237590587088161831e-01 1.293705563812551640e+00 5.602854955039915374e-01 4.255103528141834790e-01 4.272276046140357497e-01 -8.917686843614686110e-02 4.885057630418532248e-01 1.565797323831877030e-01 5.278621458374028741e-01 5.167602706538131363e-01 5.145168739082583986e-01 5.189515728689884089e-01 5.140031854116166032e-01 5.143565456372299893e-01 4.372049555400399079e-01 5.794470474482589228e-01 -7.133274455928346747e-01 6.114370330341634130e-01 4.137176285231754513e-01 3.663183856696552443e-01 5.793055254711384355e-02 1.319460456671809334e+00 9.646124639159289194e-01 4.941743364421643525e-01 -1.028971658041180903e-01 1.060477505505430962e+00 5.200724558422438193e-01 4.514755962654089516e-01 6.209684654788470981e-01 4.102356792796375551e-01 2.966973415605968500e-01 1.764047334139417778e-01 -1.588649626956742944e-01 -8.553160189493130838e-02 4.302741474952410106e-01 5.327000362400541311e-01 -1.118728802184712767e-01 4.296733380416524750e-01 5.140892859839230056e-01 4.978764847503988622e-01 -9.723880191879101520e-02 7.569716482912375310e-01 -2.318148483057587583e+00 6.155290642349302566e-01 -6.286311934439725579e-01 4.981908282906299945e-01 5.143889257802465309e-01 3.834282424347025819e-01 4.773210316889443527e-01 5.658194819918533902e-01 5.419070802250697261e-01 7.714920782674556943e-01 5.612121568692519658e-01 1.695692707139896171e+00 6.810051073212103345e-01 6.871791345422327835e-01 4.663100453622251451e-01 3.697953225315131487e-01 9.201722553861535481e-01 4.332986962423202026e-01 2.704105172809017077e+00 4.811234591479464640e-01 2.276996247259499839e-01 7.450502741752342839e-01 5.042740330360435674e-01 9.203781742765061447e-01 5.209007698349363835e-01 5.719342887942552300e-01 5.173835916476258179e-01 1.120749331274809579e+00 7.697582824191956385e-01 8.602632705151364023e-01 8.063654661723433925e-01 5.235943634279145442e-01 6.815430289957347121e-01 5.154826300058512611e-01 3.802919019292601011e-01 -7.319063473093524452e-01 3.877962417886395285e-01 5.426443684375018561e-01 5.633202083225227197e-01 5.367528034036946893e-01 4.960100085770481337e-01 6.091191158223329127e-01 5.485289020277815952e-01 -8.723747645833646036e-01 7.390811785603053075e-01 5.451278954107164898e-01 7.510211253494174146e-04 5.290481356897503984e-01 1.854027745016534556e+00 5.059943289479270634e-01 5.204852441829463938e-01 4.365931180213104001e-01 -3.450262396208532589e+00 5.146507044108524775e-01 2.865077053659330186e+00 7.634819816475225673e-01 5.080723355401666197e-01 -5.745368077537191809e-01 5.230797108404572349e-01 5.178673297396921837e-01 4.443394496405652094e-01 4.505497180366733745e-01 3.518627851754979607e-01 6.459135171877186110e-01 3.141389061094141399e-01 5.222137320921022008e-01 5.152833021426128646e-01 3.510734089602415287e-01 5.134456001489402510e-01 7.629974518232927050e-01 5.153619704360520304e-01 1.205045200378245474e+00 1.849326719853526535e-02 2.227551486271807768e+00 2.656485701646658981e+00 5.014912757764713458e-01 -2.224776105185359565e-01 4.001241136784060015e-01 4.006887065976151852e-01 7.357004667376098039e-01 1.385002480561439819e+00 5.338388435836759482e-01 1.130039074078925676e+00 5.186753203674554502e-01 1.216447367207033337e-01 1.256706076356246982e+00 4.927113145096248537e-01 5.490661198845729896e-01 5.104940501206641779e-01 9.024437812444783269e-01 -3.767294339209135146e+00 1.643500022703868746e+00 5.082932758299126830e-01 6.367244579115979297e-01 5.185358190446308635e-01 1.817896000096272946e+00 3.006915360813942062e-01 5.565757167791671733e-01 5.138041055459974249e-01 5.174200540877598176e-01 1.375038813710935282e+00 5.597824700211287974e-01 5.519377284021438346e-01 4.296743291346498128e-01 6.016145979448257464e-01 5.070617171827769276e-01 5.692725566604290854e-01 8.995303544035748722e-01 5.190565295874385310e-01 3.834954825370905374e-01 1.685553556712718337e-01 6.615847018707667893e-01 5.151292152280283476e-01 3.368487780275560284e-01 5.565757363836484339e-01 6.478816678853164257e-01 5.156308599350432065e-01 1.031337176697865621e+00 9.606180771675483232e-01 1.145897116988830566e+00 5.216450379444776964e-01 2.211730896515478051e-01 9.201720682862890577e-01 -1.094974358247139262e-01 9.335901878010718358e-01 6.298185581901222241e-01 1.836097307544738017e-02 5.485744703699733105e-01 9.339129539855792750e-01 3.863903931521342483e-01 4.984667912885650809e-01 2.944577783464302212e-01 -3.371100829036799973e-01 -2.488835175835181435e+00 4.992640523926089036e-01 6.016145968759336604e-01 6.016145461262893956e-01 4.998278847939395808e-01 3.875924792223148785e-01 -2.271657827537638119e-01 2.983293943576726948e-01 5.126675708553547484e-01 7.044027843322011595e-01 5.159246283295501057e-01 1.037348470148430790e+00 5.519375822962906408e-01 5.170658010299556961e-01 4.885755428710818471e-01 2.781205381342199967e-01 6.581194706774324832e-01 5.065703905538764262e-01 5.197961344305060960e-01 5.217991608966452421e-01 2.981782413976313273e-01 1.624941469342890479e-02 6.016145966143410240e-01 6.618830996449577286e-01 5.189318844068382397e-01 4.009536738346449747e-01 8.594465131955228987e-01 7.384445764307567828e-01 5.640651385205429635e-01 1.881593728996698189e+00 5.017590892538772440e-01 -3.119546672775107332e+00 7.619827772309180069e-01 1.531279072401899866e+00 5.795057718221298115e-01 -1.087418599184872381e+00 8.010854811115644125e-01 4.429244531611118973e-01 5.273913115433888077e-01 5.205638613209260246e-01 -3.799171869453195627e-01 5.167556042403609329e-01 1.073171896572926665e+00 4.855113411084252539e-01 -3.769774770554007448e-01 5.141232719242462279e-01 5.188707864329519248e-01 7.879707671017952553e-01 4.931378804216435263e-01 5.791325571732756083e-01 -5.329065944994079151e-01 5.610114344041963186e-01 5.235685771870950411e-01 6.148940844160184493e-01 5.068956350073099415e-01 7.685602104066016071e-01 5.210607976509612493e-01 6.114653996944026115e-01 5.587562721000701726e-01 5.083035013022685344e-01 2.686523593521296660e-01 3.082146047771937569e-01 3.440441966046909883e-01 9.664535290575283488e-01 5.538280145821310452e-01 3.221976432264001211e+00 6.581252096744468760e-01 6.483817615206692864e-01 5.503156296621188881e-01 5.795074688778718563e-01 2.434634496898283734e-02 4.896672184049193355e-01 4.942368746911251498e-01 5.214839854857833412e-01 1.160367133639644388e+00 7.682643588994186867e-01 5.267086069582395114e-01 4.409768580123358817e-01 1.118457499706344338e+00 5.400893186151900505e-01 5.704324661907390626e-01 5.211948306756405414e-01 8.119216257900870870e-01 5.190697695786561372e-01 9.374997208012757488e-01 5.257688970770532100e-01 5.180501042882273977e-01 1.951013771183016804e-02 5.286990557929200918e-01 7.154321048885528382e-03 3.130470433980651612e-01 4.042800826397953129e-01 5.780365505457146780e-01 7.834552758958917007e-01 5.080164647599556549e-01 3.873570556860075897e-01 9.164680736123631544e-02 5.089840510300136511e-01 5.432510808677154523e-01 4.514654578033049925e-01 2.804114425837710492e-02 5.193308433697961801e-01 2.513103461020440577e-01 5.166436179907283321e-01 4.125049979567995129e-01 1.260335409871271350e+00 7.705351613044224557e-01 5.339433884083899517e-01 2.543860719998195519e-01 7.500069601872804137e-01 4.355030925619206572e-01 9.972674175191066359e-01 5.991752880508355306e-01 6.081636406705009934e-01 6.994017964880857585e-01 2.007371182813567856e+00 4.713514224762088145e-01 4.959776512616971278e-01 5.115123895846296342e-01 7.390170560887806550e-01 5.723435877635413283e-01 8.535251274314159531e-01 -5.776831431787317062e-01 3.673888727972588475e-01 5.139019964742881363e-01 4.288919281941525607e-01 3.917473900842425305e-01 -6.254230078487404976e-01 3.869320134580601089e-01 5.149253573286791674e-01 7.324897087541455409e-01 6.680899972558709266e-01 1.508381345355457759e+00 5.174047764752787160e-01 5.126196384798252792e-01 -7.151331828551712455e-01 5.195535533111231841e-01 1.228940835622909233e+00 7.153002608695795406e-01 2.773008948231864279e-01 2.489869983324118075e-01 -1.748216556241602326e+00 5.411704674659683079e-01 1.861729282091419968e-01 1.103711663002849619e+00 8.212175756790771608e-01 5.213473687986105443e-01 5.341820229013479748e-01 6.058313228987203258e-01 7.622929956178410293e-01 4.334767116490896854e-01 5.572661110685658281e-01 2.651067728390792480e-02 5.427077806907432134e-01 5.803846278998048280e-01 4.844928468672558552e-01 5.102133639647777885e-01 4.683852696190669573e-01 1.220991907990649938e+00 -1.011502448661800030e-01 -2.394780423963377425e-01 4.153740521208517111e-01 5.506688597696549614e-01 5.360999658432630266e-01 5.292883563768953081e-01 -8.678636118677035549e-01 3.186746525652165207e+00 5.190435350539371884e-01 4.432961667356329349e-01 4.340842274622816466e-01 5.222865647301911940e-01 5.094717577395471153e-01 5.400891734417706536e-01 3.260991372570961055e-01 6.011991298852981114e-01 5.180855399307311426e-01 5.448110852919793023e-01 3.364782105924737921e-01 4.074189699970571232e-01 5.641459942178076448e-01 4.055196096649644200e-01 5.207048778371845543e-01 5.493590402583238275e-01 6.686159461853966590e-01 1.016747445142422990e+00 2.328178391301976013e+00 5.221890251905384472e-01 4.983301955705927710e-01 3.970405842375356875e-01 4.817875722242071501e-01 3.723279158337123862e-01 5.205333700492286164e-01 5.196552815892725441e-01 5.078377368214345156e-01 5.525238838676624908e-01 4.831558289873648104e-01 7.625509299253463436e-01 3.649919427641623582e-01 4.307618791635578481e-01 4.309737981989650857e-01 5.189647839951204711e-01 1.125071263996527821e-01 9.201722565551273547e-01 5.694427094016787372e-01 1.063169635224513604e-01 1.912486091105872088e+00 2.967614731704058539e-01 4.150655468019033845e-01 5.928435136887324486e-01 6.409299141318870741e-02 5.404932200370025086e-01 1.521291594032655903e+00 7.893015698239994604e-01 7.286219006744364401e-01 5.166787903510138280e-01 5.477968158638026885e-01 4.505183898649012808e-01 6.591391791813711043e-01 5.504362594357253835e-01 5.153671115018518822e-01 -2.348625201262778406e-01 5.152317654271076908e-01 -1.525871920140221105e+00 4.810415582865752437e-01 5.109740724513822663e-01 5.083261549123578860e-01 4.365971104471109143e-01 9.201722566569886519e-01 2.204700234197889963e-01 5.280841109365865815e-01 1.351838534282558513e+00 -5.660632368927043245e-01 5.132511157467851692e-01 1.144011093679925706e+00 1.533284421128204622e+00 5.297989319047681223e-01 5.160482326606987691e-01 -5.886823316910708842e-02 -1.694626514634441916e+00 2.733330143504906773e-01 8.126840816797819000e-01 5.177987612405038353e-01 5.202447912353844739e-01 6.066924381211552531e-01 4.829854642361850470e-01 -4.144074619153835792e-01 8.250461418401175973e-01 4.960099288614983060e-01 3.285614336546572312e-01 5.433745017318097892e-01 -6.747936125551536567e-03 -1.689262970522397433e-01 1.806602624428940596e+00 4.127839221445430140e-01 5.333736262012811480e-01 5.152753411985501186e-01 3.242546755398825198e-01 5.569024294485640514e-01 -9.900789365349915716e-02 -1.219706586456678288e+00 5.221682702749529392e-01 5.453303884611321317e-01 4.969201943453689374e-01 6.054501346550973384e-01 5.090994645680737563e-01 5.459807550732972414e-01 5.494072182698314100e-01 5.681029536273761726e-01 1.035042981289165054e+00 7.199481161843280796e-01 5.086522438322040873e-01 6.071406071647822422e-01 4.741264069432792327e-01 4.648886725891363536e-01 4.341397205188868985e-02 5.565757565957493158e-01 4.568233532204206693e-01 5.249991234018024366e-01 7.581265546819317969e-01 8.891591181178337688e-01 8.535090278140425868e-01 -5.192360354941146783e-01 5.099718388583264206e-01 4.489961420258656855e-01 5.125785962896007852e-01 5.915598549660131544e-01 9.103906918732810327e-01 5.487987891427247300e-01 5.289350935476533344e-01 -2.731738307649088648e-01 -8.804391906982155236e-01 2.313644520960612461e+00 5.052652757162053865e-01 8.993776915799643890e-01 4.214184618295023221e-01 5.744794474522788574e-01 3.865370017867293395e-01 1.511080791915345445e-01 5.167873943610158394e-01 5.467247783956189489e-01 -5.535039655057102589e-03 5.156707943655125526e-01 4.369341139337849511e-01 5.148516178072624072e-01 5.991280258949255311e-01 5.213957264199901021e-01 6.203909938696584581e-01 4.141639248742413626e-01 5.399154815946121122e-01 4.511743804560168769e-01 5.156926798932432998e-01 4.133738222229798587e-01 5.332597486218227933e-01 -2.644600328049228621e-01 5.137053762647499910e-01 6.422891727711199650e-01 5.134795195725880834e-01 7.617859127176185297e-01 9.201724442149434857e-01 7.289372838022032397e-01 -6.044894937507484522e-01 9.839748546046223066e-01 1.817896006637376383e+00 4.978998422961110060e-01 4.637937671017691166e-01 1.081805641441174304e+00 5.685956081625099801e-01 7.616009419234299749e-01 5.160656256631248606e-01 1.850079537794796281e+00 5.161055427288852027e-01 4.296740632659581949e-01 1.234929600789158588e+00 -6.377138778964815125e-02 5.326215672128696843e-01 -1.586085975210701215e-01 -9.704689620435296149e-01 -1.687108735642863511e-01 7.728320831184390949e-01 5.741084828441066490e-01 5.103232482536125270e-01 -3.246895158893379763e-01 5.034826771925257072e-01 5.449103984571232462e-02 -3.919123169041136556e-01 5.138567787242183105e-01 5.211314099886470430e-01 5.293635128595095551e-01 5.408707464480239091e-01 5.020048779994038535e-01 9.130647554491213569e-01 -4.227893475143177926e-01 5.167250785371332311e-01 5.244637602847386226e-01 6.042172492092100500e-01 1.170313403531330732e+00 4.925117647472440074e-01 6.634481358645272220e-01 5.158555880968263008e-01 4.684427555645290231e-02 -3.806240586674174975e-01 5.469703200942218624e-01 5.602878434382060346e-01 6.836214452445544820e-01 5.282630302739851347e-01 3.548734211727601062e-01 5.160252645458063281e-01 5.170762574497259623e-01 3.828506086888618931e-01 5.264912206565000030e-01 8.399404171663353846e-01 2.570735947738903349e+00 -2.458314403871276199e-01 6.612110414042665640e-01 3.324437457795288431e-01 2.060831199173931705e-01 6.647068564697314885e-01 -5.693550725993373057e-02 -1.555939701138666864e+00 5.124885794045836995e-01 2.632659737604231776e+00 5.524112398886903419e-01 1.608009506201901473e-01 1.637589212865967481e-01 4.960100259725606087e-01 5.849557775041455132e-01 1.569403144000746098e+00 5.029729853330137113e-01 1.261046160327506938e-01 4.246180287998502778e-01 1.715896385549669612e+00 6.017110877734401786e-01 7.708292509487040256e-01 5.030675230231145267e-01 7.387572570096894164e-01 4.610465828870694560e-01 5.738176776946197766e-01 2.052172836727623670e-02 5.121211660750996097e-01 5.242378549730367654e-01 -5.774599970963109064e-01 -7.990131252107765536e-02 1.178208205368394434e+00 2.382068462011599497e-01 4.827412994523891387e-01 7.079370906342494774e-01 5.469395375385751601e-01 2.011027454467255282e+00 6.805804937510625541e-01 2.199526934025058944e-02 3.231680010442016249e-01 3.954222766924642696e-01 1.127539232798462576e+00 5.040672057075473722e-01 -2.759412541103979308e-02 5.196694364257085086e-01 -1.299756496627851692e-02 5.335005331930283701e-01 5.148271296067306046e-01 9.662449751396395012e-04 -4.210341925333838109e-02 6.661366791948698518e-01 5.631825440714617326e-01 5.826794446274616845e-01 2.296032146401827123e-01 4.316820726608219250e-01 5.098844114298459740e-01 5.032551101500285506e-01 5.321130318406753767e-01 4.792494325450131765e-01 6.025569005176779624e-01 1.018458716510561191e+00 3.147355229218625539e+00 9.438940512822309170e-01 5.164914986799503671e-01 6.144130548487179988e-01 2.157626681055992979e-01 5.185171449703904756e-01 8.520362841427370215e-01 5.014571156579321620e-01 1.316898913203216948e+00 4.530917316783410476e-01 -5.831750678241981456e-01 -1.871725406369304998e-02 4.108873575646269094e-01 6.141104024158405839e-01 5.450262548085020864e-01 5.135817811460645643e-01 5.043593310457137463e-02 5.025574624573482252e-01 4.364975620629749642e-01 -3.737708704875903010e+00 4.797940825586275437e-01 5.220375376876351670e-01 1.132232253640272246e+00 5.173891100943162069e-01 4.806914964541298962e-01 6.811265564734978462e-01 -8.950710682116377326e-01 -5.022186920556226397e-01 3.578828493421193357e-02 5.199214116221062554e-01 4.767506188459356697e-01 2.148224892521915508e-01 5.171822422577619927e-01 -3.411463033240024756e-01 5.905324746230160571e-01 5.197128292160322349e-01 6.956136868019586750e-01 5.474062777589501216e-01 4.702537551171270258e-01 1.522031027998454189e-01 -7.657524871682341860e-01 6.556827992987221965e-01 5.419531238052277544e-01 1.588368221430816740e-01 5.179022760269238468e-01 5.538580825896047832e-01 5.331678618395524483e-01 6.709090486515805196e-01 5.756773242737736052e-01 5.455668255251482357e-01 5.020412914365118828e-01 1.817896004461008186e+00 3.576912855042783668e-01 5.429706470374774385e-01 -1.264069369488819983e-01 5.458237840998970691e-01 6.324012605021153144e-01 5.181759114996665749e-01 4.900705760469141192e-01 3.581549490472322184e-01 9.439203427427712567e-01 1.211697570432350268e+00 5.559919667902437634e-01 5.846802083279903917e-01 5.966377881938211836e-01 4.777161857818653656e-01 5.328597653336852868e-01 5.178792659217869021e-01 9.839862973043690397e-01 7.069662118332287193e-01 -4.593438799632245106e-01 4.573219523672927833e-01 9.099154513889236018e-01 5.212551160469277578e-01 -2.476173750732292567e-02 5.288620223364763895e-01 1.390268228028024744e+00 -1.388792635152429622e-01 6.156596713967246171e-01 2.411992988616675770e-01 4.890355696763323268e-01 8.487034056097499946e-01 5.208525294626651370e-01 3.710371728028983851e-01 1.404010500969829378e+00 4.708775957055458261e-01 5.279897166833981137e-01 -6.757625157692331852e-01 4.474689287014324002e-01 1.041116595965163150e+00 6.109243614817796431e-01 7.621816290911737068e-02 9.771948426349101879e-01 -3.492109669688620022e-02 6.781836699271166502e-01 1.631970819334555900e+00 -8.614086306163243334e-01 5.805515325101908708e-01 5.176926041078909746e-01 -4.643853244683098791e-01 3.075622215809578064e-01 6.029548862667644116e-01 4.926926818795074881e-01 4.996211749400897295e-01 3.890586056645451984e-01 2.630986900296513609e-01 3.449601599727232237e-01 5.772924405271928627e-01 5.124411028417091840e-01 7.587263381437551156e-03 -1.238207281942079463e-01 5.034585118973865514e-01 1.065183103662917574e+00 4.859336606671794678e-01 -5.779361189384103481e-01 5.092835707135242584e-01 5.186404948014089467e-01 5.489172439432715711e-01 4.369190497889401115e-02 3.287837788341500533e-01 5.155742876990498935e-01 5.031509189180929376e-01 4.517255818846126481e-01 1.732023192168000549e-03 5.492177578269124005e-01 5.227382372220114037e-01 6.147317895614253791e-01 2.093408884593038533e+00 4.106779404044460721e-05 3.864418487037273864e-01 5.509721335931130337e-01 1.839963841157138180e+00 5.624801128878591516e-01 5.169351464520528516e-01 1.955243225375473057e-02 5.565757084804966448e-01 5.097030576925390966e-01 4.767389800838335301e-01 3.858183165796190139e-01 5.007328454846454724e-01 4.437456318279499601e-01 5.343574743982182351e-01 -5.418677629629868875e-01 5.184315409289480536e-01 5.362896124059396419e-01 5.423528907505313912e-01 1.151773172125924560e+00 5.164280765829462050e-01 -2.460267304657894616e-01 1.098123640121798639e+00 -1.283562572810039493e+00 -5.297332229683685556e-01 5.279607005479663995e-01 5.158128139147762914e-01 6.562133502368845406e-01 5.206325690625167590e-01 4.380176430285214195e-01 5.691989163860124989e-01 5.565757061811045237e-01 5.166552502287765636e-01 4.866412428640286558e-01 5.928417690425101805e-01 5.193483373551591731e-01 3.038380664975571244e-01 5.058605400436358979e-01 5.363881988162111369e-01 3.910464108331784816e-01 5.201045385540781218e-01 5.122338006854291192e-01 5.479060163816977802e-01 6.514039523614204574e-01 5.191035915866022421e-01 6.999386798423202771e-01 4.992632813573987249e-01 5.057185205096940139e-01 5.407658114431482810e-01 3.866079735394012395e-01 3.897022393387419292e-01 2.436285689584828162e+00 4.739999483629692700e-01 6.061800082821590108e-01 3.005082903186995225e-01 5.822422701560044933e-01 1.115176104382345157e+00 4.321428858593162614e-01 6.992624644502100084e-01 5.190073817643852117e-01
7.082067469154919026e-01 3.193923502634967715e-01 4.354260466284849973e-01 -9.370367386746847327e-03 3.125875987493476060e-01 3.390950299274645974e-01 5.352681510052866853e-01 4.190153310987613233e-01 3.159563351726730751e-01 3.295081935423844754e-01 2.061922481460736645e+00 1.722287472224485194e+00 -1.453506331032565546e+00 6.104890752971930956e-01 3.066247365735312869e-01 4.435439921483499415e-01 1.319942453613797972e-01 4.387601465351159136e-01 4.281867374048625718e-01 3.173137525796863034e-01 4.463926871921829465e-01 2.127798152759939221e+00 3.758797602620899680e-01 3.624143298697929394e-01 7.375355489927020169e-01 -1.999178186130478874e-01 4.330443433660762231e-01 2.069339602153493218e-01 2.764173868873858742e-01 -8.965657846815998644e-01 3.974794687941397564e-01 -1.428801942529523417e-01 2.889873663068591725e-01 3.402024116119701791e-01 -4.190984641657477527e-01 4.870146897062400115e-01 3.283238179421476000e-01 -3.696800416952820134e-01 -3.258724436096422927e+00 2.778090197307644948e-01 1.167807281771912731e+00 1.435366454104333722e-01 -1.673021886877343878e-01 7.917814091787056530e-01 5.966257734451266836e-01 3.288002998145240774e-01 -8.908268398514248079e-03 3.275579037120728843e-01 1.831484760052642102e-01 6.571607369224525819e-01 6.803656520365201077e-01 4.895530279196271817e-01 -1.991969151135674909e-01 2.226062154659976533e-01 5.998599458395916795e-01 6.521236416455772344e-01 3.378995790738774097e-01 2.433474823010344790e-01 3.460382490262622346e-01 3.562840972595068822e-01 4.287681511511745036e-01 4.276943736702717436e-01 3.184607329161835976e-01 3.758797455286074785e-01 -3.453132350793974847e-01 1.440030771170911217e-01 3.318452850627932049e-01 3.193761403951450584e-01 2.086916365801350370e-01 7.182378630344355974e-01 1.326283919161388436e-01 2.488770167749220774e-01 3.317166408776601183e-01 7.280645117277229073e-01 1.927328793185918432e+00 4.597988007520575349e-01 4.741470725582390688e-01 4.816501398101808440e-01 3.107523106453940476e-01 -1.344033032687431461e+00 3.176874340111254802e-01 5.794990552130061534e-01 2.348511220391798826e+00 8.476730503891494184e-02 2.619806046186063386e-01 -3.814306537357937676e-01 1.316659802714330585e-01 2.656167350580393993e-01 -5.793877734948097435e-01 -8.952748893004188746e-01 5.970111248560987516e-01 1.589222331815766109e+00 6.656485355897466538e-02 6.848205106235409900e-01 3.244403327755768229e-01 3.296927521780771420e-01 2.663238250939110596e-01 7.646158405384052559e-01 7.374226424383758527e-01 -2.032340120833586727e-01 -1.764710244474798628e-01 5.486250341383643037e-02 2.630091294037302241e-01 2.145194741503119173e-01 -3.400452206224770929e-02 3.125549834162836937e+00 -2.890176226384077451e-01 2.250823777178887763e-01 1.087543651354479085e-01 8.105642418829910323e-01 2.524369171778582110e-01 4.948333550080165621e-01 1.630766206106075145e-01 4.195816840548824422e-01 -4.807242181180146345e-01 2.275696900567867609e-01 1.531734370150811542e-01 4.340797580272051648e-01 1.104279074109844494e+00 3.240668415161016003e-01 -1.459302812809485372e+00 1.768574669714575442e-01 1.158544117717193872e-01 1.413681909881207899e+00 3.178620773448335712e-01 2.179872385559409764e+00 3.025648630519474636e-01 2.433168884562958156e-01 3.052584625272781738e-01 3.024055758185897336e-01 3.395486677698852374e-01 3.146993021683961445e-01 6.754428410456210230e-01 4.205035108625978513e-01 1.686842470453825404e-01 8.627136471893085412e-01 7.180182026881762880e-01 7.168153128758801840e-01 -3.362186975515849552e-01 2.074000899931233433e-01 3.225981878904741751e-01 3.218400895653630300e-01 3.236095174481131154e-01 2.461026774877975443e-01 3.125600307136652267e-01 6.971079548850868113e-01 -1.594403927641409313e-01 3.190701650316092874e-01 4.394782369828018065e-01 4.004653973932801314e-01 -2.312974172849189824e-01 2.498666492146355000e-02 3.287898665248469854e-01 2.687269084122355101e-01 3.052923905073870459e-01 3.059395109075369601e-01 -2.403781885690682962e+00 4.602973708271078102e-01 -6.001026921106586975e-01 -2.086603224825802072e-01 1.915213629175291643e-01 3.081410003278151066e-01 3.196246560528818170e-01 3.121562176055339699e-01 1.219903764468974749e-01 9.520586353207284580e-02 3.172251125910083847e-01 4.628031932900945056e-01 3.987884382483353751e-01 3.143134599209464475e-01 1.917933362627446126e-01 -6.883550633017590167e-03 3.288918986919063814e-01 3.073105391108889028e-01 -2.511056121744192016e+00 6.830003439353635741e-01 5.977105949121600537e-01 9.532347890490904252e-01 -4.578817759150819455e-01 1.172724509898982026e+00 1.554707627723576208e-02 3.064792025381779528e-01 1.239620832240827086e+00 3.201844463877839275e-01 3.094729807591238280e-01 2.715173609130853150e-01 3.711707578270950214e-01 2.846291764676748826e-01 -4.848246170318092907e-01 2.818225922860153054e-01 2.827526985436761842e-01 8.167033311444221733e-01 2.896795387530968768e-01 3.246381087926313302e-01 2.391179507181704078e-01 3.116738342125587868e-01 -1.665138123101651102e+00 3.009148710975758090e-01 2.912218983518692350e-01 3.442322637141558284e-01 5.967362377209130264e-02 3.382616603558067370e-01 3.863138468714643059e-01 1.423348262993764379e-01 -7.753463778535782946e-01 2.912218909776814746e-01 4.772426992895612563e-01 -5.164872392089797648e-01 3.595067842579122153e-01 1.835725204145782496e-01 2.434170788584691936e-01 -3.264313704590421139e+00 4.470748181827207124e-01 9.235457721224905603e-01 3.099505142828137272e-01 3.083584748293472511e-01 3.114998685055510030e-01 3.101896029859127490e-01 3.095220812535663391e-01 3.137461736579262306e-01 3.556282256069309700e-01 1.119655274977068432e-01 6.668661715671012624e-01 1.073401625031219220e-01 4.882424489406943513e-01 4.968942875616447208e-01 3.987586310013047641e-01 -6.794626314402288925e-01 2.298014270695944106e+00 3.982998513810688257e-01 1.243242442370248613e+00 -1.393038079482658009e+00 3.118313763786153547e-01 2.361792998499971097e-01 3.537840301675567178e-01 1.176408531014924597e+00 5.141014909599508353e-01 8.182267866528443179e-01 2.846188272614667003e-01 6.687953621425861694e-01 2.653209873194576351e-01 3.212151667942670374e-01 -1.174355352542251874e+00 4.113084378744235603e-01 3.105305024048227169e-01 4.950746671112079555e-01 8.915116668136831013e-01 -3.666433139047755030e-01 3.168494761706265095e+00 4.975843069112659833e-01 1.272134922067769569e+00 -2.214028797654721825e-01 2.987915367667007827e-01 3.758808720489678623e-01 3.334833186818835782e-01 2.370894014711981967e-01 3.725181963994659839e-01 -1.343643466401858166e-01 1.136815042519733476e-01 5.620400406749770372e-01 2.574005008661018334e-01 9.631573117549910301e-02 2.442649683375419101e-01 4.315441735639495846e-01 4.287681600008906302e-01 2.586581249319198639e-01 3.248196986899848149e+00 3.642975097417101571e-01 6.529239682386600574e-01 5.342226154331893850e-01 2.209540217154674080e-01 4.285380486697960012e-01 3.097979386659962531e-01 2.955328362514333396e-01 3.105648648241763898e-01 -5.772436324472258740e-01 4.413624462504568413e-01 2.853086596231684258e-01 1.363294322457391239e-01 3.030095113916386196e-01 1.538542567823194540e+00 3.391602065830934820e-01 3.045904474604826384e-01 1.999034391940971433e+00 5.032637622491333840e-01 2.688419987220583285e-01 2.640090994924230161e-01 3.444250893584077655e-01 2.275695538483338554e-01 -2.063415080717052597e+00 2.627833899575932608e-01 1.547629048038588140e+00 -5.064989650982382879e-02 3.571902499494550298e-01 6.851029737664726671e-01 3.077379255737153763e-01 -7.242245829091989995e-01 4.005279814125179971e-01 3.170779096742753489e-01 4.394673155100618511e-01 -3.936475555616793520e-01 3.182676528510586800e-01 -2.264309129093763584e+00 -7.480834474795457732e-03 3.269245467294354945e-01 6.011206726930165001e-01 3.109131303471758256e-01 3.103736983231936142e-01 4.840414349068806188e-01 1.869031328572265116e-01 -1.005942521516867000e-01 -7.666689882520248966e-01 -7.437134292742234943e-05 6.874236025240276771e-01 3.057287568837051550e-01 5.014396445325816076e-01 3.115234838246432325e-01 -8.221899969221574053e-03 3.155186378968775074e-01 2.448414575249884706e+00 6.870485588078950601e-01 2.469416100221982768e-01 -1.163028227785819713e+00 2.277317256604106666e-01 4.703614819976557726e+00 3.742904755057162580e-01 -1.597808516816965341e-01 5.706829883126856018e-01 -5.603295088754741471e+00 5.198201906705780528e-01 1.554401768851801258e+00 3.136438492699423763e-01 5.318042318933626778e-01 -4.462248576013481682e-01 4.288734322667751009e-01 3.031231288246613031e-01 2.916650297808212611e-01 2.298215646505674670e-01 2.941635465605378030e+00 -3.746659186786824303e-01 3.108726264298243280e-01 -1.919465541442400447e+00 3.006576676548811666e-01 -3.696800402407419139e-01 7.514415285615992923e-01 5.235865184804564532e-01 2.680255172001241304e-01 2.878043424910610715e-01 1.273459954717349740e+00 1.463243312417197572e-01 2.912218749642836446e-01 4.113081510575631317e-01 1.423348241398298408e-01 3.181709729254543206e-01 3.915983023507033645e-01 -6.138749768290340247e-01 3.100565931629816196e-01 5.544278318264163063e-01 3.907439302331663922e-01 1.688001603235685100e-01 3.121613418878322332e-01 4.903849811905095502e-01 5.235864574872256538e-01 4.527944369785347756e-01 3.126554344208724578e-01 1.815939630208715794e-01 4.114101535364047546e-01 3.435318955997423984e+00 3.061727780671560928e-01 1.300809374346149627e-01 4.287686314403660326e-01 8.444126372094820088e-01 4.677263693589473470e-01 -1.942704314272540589e-01 6.828116004898943103e-01 3.374728955551160037e-01 1.197175608650213746e-01 4.090614387117276762e-01 6.718378036905622297e-01 5.879414145422169335e-01 7.869113330057629918e-01 8.161846440445744699e-01 3.545216706026563802e-01 1.423348262919875151e-01 1.423349091307417880e-01 2.288166082144168223e-01 1.676539547823398535e-01 1.119936354016924929e+00 3.995043376032738625e-01 2.992106579387216470e-01 3.170215095186488807e-01 3.105252938150999120e-01 7.636283192568641409e-01 2.912223294809944685e-01 3.107666911949212296e-01 4.403863296669586203e-01 2.436509474310401824e-01 -6.362828950441250520e-01 3.212961946932584856e-01 3.046928239549284156e-01 3.825089761233575469e-01 6.873207711090200123e-01 7.043138859830643250e-01 1.423348251370570305e-01 9.414835198331981958e-02 3.103844851146340122e-01 4.917224158689744162e-01 -5.925282607346313846e-01 1.860323159975459661e-01 -3.524308696082287806e+00 1.976363213787055928e+00 6.353739986763051739e-01 -4.652148940567327196e-01 -9.500609988127116726e-03 2.059437737711201866e+00 3.140294189999891517e-01 6.429207523799437274e-01 -1.764218875147293558e-02 3.536572248490889026e-01 4.251632091317191775e-01 3.277887779320491912e-01 -4.959215613509566634e-01 3.417904930358028337e-01 2.064475348211948003e+00 3.058289258480378914e-01 -4.345939700834144936e-01 3.169324675410912229e-01 3.199310146227532514e-01 -1.456296489089866419e+00 2.966481658755982798e-01 3.648931129947969310e-01 4.032093969348875540e-01 1.470034858438012404e-01 3.068248296609678571e-01 2.096951419488303492e-01 3.037074823119594313e-01 -1.610650717263755471e-01 2.981678253090437880e-01 1.073727601627278705e-01 3.136906068224181721e-01 3.121859551399356336e-01 1.379269906073600158e-02 4.051896865925539437e-01 5.594438159256596155e-01 -1.393357778516990608e+00 -5.938504134672640822e-01 -1.131665368113056874e-01 1.036884168783878263e-01 2.220445375611991845e-01 4.311423892860917761e-01 3.618174826011195111e-01 7.291751288405238229e-01 -1.287786479347783064e-01 3.128155281983000524e-01 3.292122193322475909e-01 9.390283304962555866e-02 -1.609452786976711680e-01 3.346522412755756348e-01 4.595272692817741755e-01 4.796324593642965484e-01 2.914630259415792457e-01 2.708642583785719204e-01 3.106726991721147635e-01 2.515484740217530102e-01 3.104305356038516983e-01 5.004343865233228383e-01 3.838854241145835955e-01 3.118597720385031802e-01 6.831883253470535378e-01 3.335150609131953270e-01 7.364046357047688840e-01 3.015386878019955808e-02 5.395336451719191517e-01 2.558560451837048610e-01 -1.454458300417758920e+00 3.125693557961670144e-01 6.431273155700942823e-01 3.664893313127587371e-01 3.310429808341105451e-01 2.488777663676222662e-01 1.964321700700928930e-01 6.851533984592454996e-01 3.082579365806478178e-01 4.021941863056508470e-01 3.096008862466229083e-01 2.796479169599953574e-01 1.962580640350091166e-01 5.012568249487846517e-01 3.028623039159534236e-01 2.111106283180589627e-01 9.896088259790564168e-02 7.169582979413320623e-02 1.642999907594367093e+00 2.145318701648322723e-01 3.608745919696745297e-01 3.833066841932254998e-01 -8.477847432286954588e-01 3.719230771009393033e-01 2.688594112487061039e-01 4.194297744081244006e-01 -5.119104606850138905e-02 2.951124754333327438e-01 1.612802110538949618e+00 8.915585544074328128e-01 4.426616860253204111e-01 3.271752631554971646e-01 3.467623589850066246e-01 3.408821903998667247e-01 9.233611060817997762e-01 3.046468555799756839e+00 3.097122776174941472e-01 2.954035614511755364e-02 5.898571477738026037e-01 -2.085286328772539277e-01 3.109586472955769287e-01 3.082689967667431308e-01 1.073365237435966346e+00 3.108034371774293647e-01 -3.291760354521625631e-01 3.818540664677970153e-01 1.280270599261845166e-01 6.388788356555581416e-01 1.785370380545675317e+00 2.666513718402717115e-01 2.616859829097466505e-01 1.661241928842193349e+00 4.002321203137327865e-01 2.871946453046579362e-01 1.839466537253756362e-01 2.449362371153070983e-01 -9.077474013699449867e-03 5.021537452833265691e-01 2.407964135555272223e-01 7.280669323784695335e-01 2.687541002206068619e-01 2.471367632207314979e-01 3.124314043873266944e-01 4.301787147513730369e-01 3.690340898252744695e-01 2.589632627148454325e-01 8.990211457097618819e-01 5.108110895926579742e-01 4.716727604579422639e-01 2.633893509473857475e-01 2.630002293500876553e-01 3.186419847990467624e-01 5.888525220395349757e-01 7.738392081873044503e-01 3.618578528042278863e-01 3.039719953289695686e-01 5.267372282616145096e-01 3.142174967398033147e-01 7.203941771973744190e-01 2.603703402714453441e-01 4.631820267282518722e-01 -3.129046109247670682e-01 3.085294583671786550e-01 3.174611600916315557e-01 4.334586987268304048e-01 2.630207514065709407e-01 2.984751902311149618e-01 1.791488772330529500e+00 5.430090042110113230e-02 2.671480491782552980e-01 -1.900808595226803899e-01 1.649267670577128087e+00 1.152403158015991469e+00 4.276696605546069507e-02 -4.524819513566544216e-01 4.205691487450997079e-01 3.313220775291680353e-01 5.081654923791979472e-01 3.115091214504381312e-01 3.121358976028494880e-01 2.050039768623538039e-01 3.407818656104213972e-01 3.594080767390371300e-01 -9.667091609648592945e-03 -2.108165009059209116e-01 3.538331577931588257e-01 2.784109318764723118e-01 2.250400971265605066e-01 8.713374166915929253e-01 4.287681540572085281e-01 2.615556311239796705e-01 8.457265037732676349e-01 4.757743768249897420e-01 5.973551892906138194e-01 4.627597533960695064e-01 6.934203047468857628e-01 1.473087031209294739e+00 3.598231001208814228e-01 2.088065807956826170e+00 -2.393347636041832927e-02 1.460959319120053723e-01 3.113726470603739305e-01 2.647720886604228441e-01 3.553217422110240831e-01 3.143156849757657301e-01 3.183313378276830807e-01 3.122324042376835584e-01 3.629399256310453237e-01 1.979924595931267239e-01 -3.233315009044550603e-01 2.472402923926507179e-01 -7.140590367566487795e-02 3.093642272682163297e-01 4.394417675148029057e-01 4.287681540187440743e-01 2.160731997630291057e-01 1.991377242393625735e-01 -1.250551840431201267e+00 1.960334056064536812e+00 3.109004323902784805e-01 -7.303718106993265513e-01 2.973167556326809513e-01 3.098474344878093256e-01 3.078555780871566339e-01 -4.778951937322246657e+00 3.535011036405390161e+00 6.278686560170991804e-01 5.560060339983959737e-02 3.225332073550680745e-01 3.064806701065802552e-01 2.805048488210991620e-01 2.619846442478285908e+00 6.239594511549101385e-01 3.194204882080260988e-01 2.275697051223904699e-01 2.787278067180581909e-01 2.739351109578257448e-01 8.640256880151999663e-01 -3.760931950248617706e-01 -1.190629806441278804e+00 -1.215719564342224057e+00 3.118847641785334468e-01 3.055342408969896617e-01 7.248226695190966851e-01 3.694081234498123867e-01 1.399774829590000991e+00 4.786417599988618821e-01 3.118321372939963920e-01 2.988522692713526663e-01 3.316158507855165305e-01 3.157973653153057225e-01 3.102554974924999209e-01 6.461716385264829610e-01 2.684079475500036338e-01 6.581440050697315858e-01 2.260384253787822706e-01 4.141511502281419732e-02 3.104802503016116377e-01 1.853977721222291597e-01 3.537665278840947392e-01 2.671338515016565274e-01 6.511309846795914069e-01 5.235864915537918884e-01 3.793467173358882616e-01 2.991810790141851140e-01 3.107283195378162666e-01 2.660465324197849868e-01 1.612789456673889399e+00 1.889575957142025198e+00 3.094504374834601279e-01 3.638722912817748956e-01 3.097009315837104815e-01 1.619258574771820780e-01 2.287594777890884223e-01 3.201272137269884910e-01 2.972911517278842841e-01 3.247200561482003200e-01 8.006499888730234105e-01 8.824072276858301311e-01 2.361050246280304854e-01 1.867157191326948906e+00 2.771781663318312328e-01 -2.233010875101678894e-01 -2.730083270761111125e-01 -3.126509899431356154e-01 3.117166135387248183e-01 2.628448157652473749e-01 7.099425403518614397e-01 3.149542786957015839e-01 4.584071746725901786e-01 3.055375888726111211e-01 3.619221176598918510e-01 3.600580096890994564e-01 -1.870818050047785494e-02 1.017266693607395522e+00 3.356980160450662165e-01 4.196253034945711669e-01 3.118247681114078018e-01 3.577751261719080422e-01 2.937858575036240150e-01 3.923223293837552750e-01 -9.740754603527471134e-02 2.227121788501670308e-01 3.196497404343304205e-01 -8.725759859855417369e-03 4.287678935844507766e-01 1.106803077878410146e+00 9.591005421817724308e-01 -7.285173504994936211e-01 -3.696800417188351728e-01 6.555886676493939413e-01 -3.323595245570622581e+00 1.570296469418316576e+00 2.702400095697782278e-01 -9.712621709193318062e-03 3.076099715263962420e-01 8.899029795811260746e-01 3.065930636794294561e-01 4.113085603069054352e-01 -4.369376199926043314e-01 8.233207597631366781e-01 3.040001897901750127e-01 8.756440503751825588e-01 2.089115424033556323e+00 -3.759263838808617475e-01 -1.461515615715784921e+00 2.373205500934419954e-01 3.205024809972380484e-01 7.622420297940650791e-01 3.323581030129724723e-01 7.045699972662657906e-01 4.691238589355554711e-01 2.270332442566881104e-01 3.193211289956867649e-01 3.142602528860540811e-01 2.416855752507243993e-01 3.039981282710396138e-01 1.409536464431387470e+00 1.631546109456402327e+00 3.087544611041025955e-01 3.019242423203901682e-01 1.323633358627847589e-01 -2.436449063490723488e-01 2.140596176028776165e-01 -2.808498674137144616e-02 3.097094654882265874e-01 7.048307752290141615e-01 -4.946648949164615949e-01 2.761597940955143882e-01 2.845378816860077986e-01 1.529105908358645571e-01 3.055890253822160507e-01 2.222427154298547425e-01 3.119875662274493311e-01 3.091779775426772847e-01 1.332984333975241638e-02 2.760746874886375601e-01 4.368831123836328101e-01 1.120763360317519775e+00 1.104814242195606644e+00 9.263880213872920377e-01 1.987090670498872502e-01 7.837699673227308539e-01 1.433732928537140572e-01 4.825192019652337350e-01 -2.127339045761246883e+00 3.173588221139149179e-01 6.573944863341959488e-01 2.832537966776754734e-01 9.529410834336947689e-01 1.369709114722442500e+00 2.275696899255046091e-01 2.621301132382589105e-01 3.742914307054273082e-01 3.357043893076844254e-01 5.511613285577501298e-01 8.940172557123650110e-01 -7.874941684645694329e-01 1.909314049093696619e-01 6.674949937697143010e-02 3.315816547550248794e-01 3.418730388532447151e-01 7.696876105020510339e-01 -2.215594964337127826e-01 4.007478451883870196e-01 3.194663122853890758e-01 3.540677347246523610e-01 8.913818390941199432e-01 4.287249938404373295e-01 -2.139314038642276816e-01 8.590956272539856942e-01 -4.466484963720869505e-02 5.699103276018975262e-01 2.626890287445484140e-01 1.286861645509286722e+00 5.803090273755273643e-01 7.296211451815037830e-01 4.385025581260609817e-01 4.869178857028577667e-01 -5.574047204917607079e-01 2.433530567056049476e-01 7.608435071019729046e-01 3.057321207749518210e-01 6.241037197194255759e-01 2.654573936889984553e-01 3.129529686587351756e-01 7.249627730152553573e-01 1.461281367553494137e-01 -2.049416368314088022e+00 2.133277104071175934e-01 2.617369819180739854e-01 8.498847584499843455e-01 3.792584232113349607e-01 3.992328541228963856e-01 3.614935365523107569e-01 3.086862287934964422e-01 3.875729738173795402e-01 6.885011061045623326e-02 -1.622552833010987960e+00 7.554356033441103069e-01 2.511990798139850378e-01 3.084855426666337497e-01 2.091113648071624698e-01 8.221390619060816585e-01 3.144148710302918093e-01 -1.454887786020382379e-01 3.341667828897759707e-01 1.121160564116044034e+00 2.652858138937889132e-01 4.156594307564326907e-01 1.052139315840846967e+00 3.852029573740752277e-01 2.788007398723608699e+00 3.406526188430503144e-01 3.178202348563753388e-01 6.989360625140046412e-01 3.360033947451166458e-01 3.240849098587125221e-01 -2.107767820140191706e+00 4.309104759355654735e-01 3.337705865061147414e-01 5.162886358417018151e-01 3.130093126870685527e-01 2.136782309708848415e-01 -2.043575198292313377e-01 2.055105397605908824e+00 -5.195377166143959613e-01 8.281992799128737870e-01 3.101999801290617476e-01 3.053847957252619483e-01 8.128394724230617596e-01 3.486255730518754703e-01 1.333575051259126010e+00 1.973168974779113127e-01 3.561625181935162421e-01 -8.839214860551868336e-01 -1.332709353908972938e-01 -4.586968212769642061e-01 -3.960116318221899689e+00 2.956704684858353804e+00 3.613518549168772548e-02 3.040593258342372818e-01 -1.631012424705380548e+00 3.131584235209451950e-01 3.454556821306638548e-01 2.863404172671947245e-01 1.627518627142267027e-01 6.408003892057165807e-01 5.992851491423832888e-01 1.049742394576919979e+00 -3.696800415358273972e-01 -2.275593272897699637e-01 2.240367983061852253e-01 -1.187780368651590868e+00 2.603173724813097611e-01 -6.467501990678701240e-01 3.269941865412975823e-01 4.597958412369116954e-01 7.895263423616274978e-02 4.470514375350749803e-01 2.669455547299024456e-01 -5.862907971106155747e-02 2.201992330527669517e-01 2.917947369396670099e-01 3.626155247687360417e-01 3.162996536084665133e-01 3.116181993878394674e-01 -7.287527616456282997e-01 5.193864684916519314e-01 1.538960345319373646e+00 6.718509755223850410e-02 2.382273384353188750e-01 3.293097840510872953e-01 1.208439453235236716e+00 3.282070190961346445e-01 1.198622156311789921e-01 8.911045251016038726e-01 2.734885458479783815e-01 1.864255597565969813e+00 2.721716959954632031e-01 1.289339787769810952e+00 3.048109331540473366e-01 7.360325241395720974e-01 1.351143040697694753e+00 3.541022393888205166e-01 3.696278983016371145e-01 9.317125749617983788e-01 -1.879537118369621618e-01 -5.954569697490592894e-02 2.091975296600238621e-01 3.015113060002759804e-01 3.561812354614373732e-01 1.435332546757205341e-01 1.590382786885275457e-01 -3.705793566516553672e-01 1.292512643576862130e+00 2.877472387800756315e-01 3.133902880020543735e-01 -3.188527421401749606e+00 5.348190204592058183e-01 2.885932481562163421e-01 4.069448688125191227e-01 4.050483376472136521e-01 4.704121501243553882e-01 -1.087881768408265337e+00 6.206690777671685089e-01 2.848912276648382647e-01 3.169240734467771436e-01 1.029985856989624304e+00 4.588880591865341363e-01 3.180794537402041877e-01 -1.403519465154490442e+00 3.999452004277838646e-01 8.912397800127783709e-01 3.052031139740885579e-01 2.988935317818818826e-01 3.481954334254271366e-01 7.117570459653728143e-01 -6.440440442014677691e-02 3.128974121984520185e-01 3.333563499749430115e-01 8.484206671920865861e-02 6.726637028848803102e-01 2.938593402845592339e-01 7.122770543456286019e-01 1.720878340287705921e-01 6.899860193846901746e-01 -2.320937113140388031e-01 -1.507737649766351717e+00 3.047559800959624421e-01 -1.848800920133441411e-02 3.365140239937334798e-01 3.792744659869874413e-01 5.455534410277671636e-02 5.235864732263274535e-01 3.212871158819710082e-01 8.356301712598804277e-02 4.462162123592949281e-01 2.595639920258144828e-01 3.124679702510830270e-01 2.706349172677415260e-01 -8.395472503337529924e-01 3.042070374694260670e-01 3.110978662916282222e-01 3.262866567472003654e-01 -2.333866185331644749e-01 3.094506508457874339e-01 8.198914072449456913e-01 -5.642053963386973736e-01 1.117176331992075555e+00 6.124413793994922806e-01 2.531557110640378916e-01 3.138764950294132272e-01 -2.045844204165686353e+00 3.324417546690088821e-01 2.030098629635469498e-01 2.679560761108709110e-01 5.235865572291545922e-01 3.101114149524620833e-01 2.996906072399105336e-01 7.651796007991960857e-02 3.110467648341774249e-01 4.356266679648606033e-01 3.693203536093283001e-01 2.701761867148393947e-01 2.909027102804189191e-01 3.088417692759782285e-01 3.126556000212290520e-01 2.656870565208669932e-01 7.619932624642100638e-02 3.085342443342117824e-01 6.161909589039520352e-01 1.859979069152415954e-01 3.155901484533247259e-01 -1.377560894530605318e-01 1.662027955068797747e-01 5.874984463788676115e-01 4.474428771933667726e+00 3.437446502137665449e-01 9.010382859442196690e-02 5.549558333005495392e-01 1.890121037603839371e-01 1.554148449569437318e+00 3.521140287600106888e-01 6.450920368983387165e-01 3.166865069066311933e-01
