# 
#                 ----------------------------------------------------
#                 Data from a 3D direct N-body simulation. 
# 
#                 rows are i-particle; 
#                 coumns are :mass, tag, x ,y, z, vx, vy, vz, ax, ay, az
# 
#                 NTHU, Computational Physics 
# 
#                 ----------------------------------------------------
#                 Time = 0.0
0.000000000000000000e+00 1.000000000000000000e+00 2.000000000000000000e+00 3.000000000000000000e+00 4.000000000000000000e+00 5.000000000000000000e+00 6.000000000000000000e+00 7.000000000000000000e+00 8.000000000000000000e+00 9.000000000000000000e+00 1.000000000000000000e+01 1.100000000000000000e+01 1.200000000000000000e+01 1.300000000000000000e+01 1.400000000000000000e+01 1.500000000000000000e+01 1.600000000000000000e+01 1.700000000000000000e+01 1.800000000000000000e+01 1.900000000000000000e+01 2.000000000000000000e+01 2.100000000000000000e+01 2.200000000000000000e+01 2.300000000000000000e+01 2.400000000000000000e+01 2.500000000000000000e+01 2.600000000000000000e+01 2.700000000000000000e+01 2.800000000000000000e+01 2.900000000000000000e+01 3.000000000000000000e+01 3.100000000000000000e+01 3.200000000000000000e+01 3.300000000000000000e+01 3.400000000000000000e+01 3.500000000000000000e+01 3.600000000000000000e+01 3.700000000000000000e+01 3.800000000000000000e+01 3.900000000000000000e+01 4.000000000000000000e+01 4.100000000000000000e+01 4.200000000000000000e+01 4.300000000000000000e+01 4.400000000000000000e+01 4.500000000000000000e+01 4.600000000000000000e+01 4.700000000000000000e+01 4.800000000000000000e+01 4.900000000000000000e+01 5.000000000000000000e+01 5.100000000000000000e+01 5.200000000000000000e+01 5.300000000000000000e+01 5.400000000000000000e+01 5.500000000000000000e+01 5.600000000000000000e+01 5.700000000000000000e+01 5.800000000000000000e+01 5.900000000000000000e+01 6.000000000000000000e+01 6.100000000000000000e+01 6.200000000000000000e+01 6.300000000000000000e+01 6.400000000000000000e+01 6.500000000000000000e+01 6.600000000000000000e+01 6.700000000000000000e+01 6.800000000000000000e+01 6.900000000000000000e+01 7.000000000000000000e+01 7.100000000000000000e+01 7.200000000000000000e+01 7.300000000000000000e+01 7.400000000000000000e+01 7.500000000000000000e+01 7.600000000000000000e+01 7.700000000000000000e+01 7.800000000000000000e+01 7.900000000000000000e+01 8.000000000000000000e+01 8.100000000000000000e+01 8.200000000000000000e+01 8.300000000000000000e+01 8.400000000000000000e+01 8.500000000000000000e+01 8.600000000000000000e+01 8.700000000000000000e+01 8.800000000000000000e+01 8.900000000000000000e+01 9.000000000000000000e+01 9.100000000000000000e+01 9.200000000000000000e+01 9.300000000000000000e+01 9.400000000000000000e+01 9.500000000000000000e+01 9.600000000000000000e+01 9.700000000000000000e+01 9.800000000000000000e+01 9.900000000000000000e+01 1.000000000000000000e+02 1.010000000000000000e+02 1.020000000000000000e+02 1.030000000000000000e+02 1.040000000000000000e+02 1.050000000000000000e+02 1.060000000000000000e+02 1.070000000000000000e+02 1.080000000000000000e+02 1.090000000000000000e+02 1.100000000000000000e+02 1.110000000000000000e+02 1.120000000000000000e+02 1.130000000000000000e+02 1.140000000000000000e+02 1.150000000000000000e+02 1.160000000000000000e+02 1.170000000000000000e+02 1.180000000000000000e+02 1.190000000000000000e+02 1.200000000000000000e+02 1.210000000000000000e+02 1.220000000000000000e+02 1.230000000000000000e+02 1.240000000000000000e+02 1.250000000000000000e+02 1.260000000000000000e+02 1.270000000000000000e+02 1.280000000000000000e+02 1.290000000000000000e+02 1.300000000000000000e+02 1.310000000000000000e+02 1.320000000000000000e+02 1.330000000000000000e+02 1.340000000000000000e+02 1.350000000000000000e+02 1.360000000000000000e+02 1.370000000000000000e+02 1.380000000000000000e+02 1.390000000000000000e+02 1.400000000000000000e+02 1.410000000000000000e+02 1.420000000000000000e+02 1.430000000000000000e+02 1.440000000000000000e+02 1.450000000000000000e+02 1.460000000000000000e+02 1.470000000000000000e+02 1.480000000000000000e+02 1.490000000000000000e+02 1.500000000000000000e+02 1.510000000000000000e+02 1.520000000000000000e+02 1.530000000000000000e+02 1.540000000000000000e+02 1.550000000000000000e+02 1.560000000000000000e+02 1.570000000000000000e+02 1.580000000000000000e+02 1.590000000000000000e+02 1.600000000000000000e+02 1.610000000000000000e+02 1.620000000000000000e+02 1.630000000000000000e+02 1.640000000000000000e+02 1.650000000000000000e+02 1.660000000000000000e+02 1.670000000000000000e+02 1.680000000000000000e+02 1.690000000000000000e+02 1.700000000000000000e+02 1.710000000000000000e+02 1.720000000000000000e+02 1.730000000000000000e+02 1.740000000000000000e+02 1.750000000000000000e+02 1.760000000000000000e+02 1.770000000000000000e+02 1.780000000000000000e+02 1.790000000000000000e+02 1.800000000000000000e+02 1.810000000000000000e+02 1.820000000000000000e+02 1.830000000000000000e+02 1.840000000000000000e+02 1.850000000000000000e+02 1.860000000000000000e+02 1.870000000000000000e+02 1.880000000000000000e+02 1.890000000000000000e+02 1.900000000000000000e+02 1.910000000000000000e+02 1.920000000000000000e+02 1.930000000000000000e+02 1.940000000000000000e+02 1.950000000000000000e+02 1.960000000000000000e+02 1.970000000000000000e+02 1.980000000000000000e+02 1.990000000000000000e+02 2.000000000000000000e+02 2.010000000000000000e+02 2.020000000000000000e+02 2.030000000000000000e+02 2.040000000000000000e+02 2.050000000000000000e+02 2.060000000000000000e+02 2.070000000000000000e+02 2.080000000000000000e+02 2.090000000000000000e+02 2.100000000000000000e+02 2.110000000000000000e+02 2.120000000000000000e+02 2.130000000000000000e+02 2.140000000000000000e+02 2.150000000000000000e+02 2.160000000000000000e+02 2.170000000000000000e+02 2.180000000000000000e+02 2.190000000000000000e+02 2.200000000000000000e+02 2.210000000000000000e+02 2.220000000000000000e+02 2.230000000000000000e+02 2.240000000000000000e+02 2.250000000000000000e+02 2.260000000000000000e+02 2.270000000000000000e+02 2.280000000000000000e+02 2.290000000000000000e+02 2.300000000000000000e+02 2.310000000000000000e+02 2.320000000000000000e+02 2.330000000000000000e+02 2.340000000000000000e+02 2.350000000000000000e+02 2.360000000000000000e+02 2.370000000000000000e+02 2.380000000000000000e+02 2.390000000000000000e+02 2.400000000000000000e+02 2.410000000000000000e+02 2.420000000000000000e+02 2.430000000000000000e+02 2.440000000000000000e+02 2.450000000000000000e+02 2.460000000000000000e+02 2.470000000000000000e+02 2.480000000000000000e+02 2.490000000000000000e+02 2.500000000000000000e+02 2.510000000000000000e+02 2.520000000000000000e+02 2.530000000000000000e+02 2.540000000000000000e+02 2.550000000000000000e+02 2.560000000000000000e+02 2.570000000000000000e+02 2.580000000000000000e+02 2.590000000000000000e+02 2.600000000000000000e+02 2.610000000000000000e+02 2.620000000000000000e+02 2.630000000000000000e+02 2.640000000000000000e+02 2.650000000000000000e+02 2.660000000000000000e+02 2.670000000000000000e+02 2.680000000000000000e+02 2.690000000000000000e+02 2.700000000000000000e+02 2.710000000000000000e+02 2.720000000000000000e+02 2.730000000000000000e+02 2.740000000000000000e+02 2.750000000000000000e+02 2.760000000000000000e+02 2.770000000000000000e+02 2.780000000000000000e+02 2.790000000000000000e+02 2.800000000000000000e+02 2.810000000000000000e+02 2.820000000000000000e+02 2.830000000000000000e+02 2.840000000000000000e+02 2.850000000000000000e+02 2.860000000000000000e+02 2.870000000000000000e+02 2.880000000000000000e+02 2.890000000000000000e+02 2.900000000000000000e+02 2.910000000000000000e+02 2.920000000000000000e+02 2.930000000000000000e+02 2.940000000000000000e+02 2.950000000000000000e+02 2.960000000000000000e+02 2.970000000000000000e+02 2.980000000000000000e+02 2.990000000000000000e+02 3.000000000000000000e+02 3.010000000000000000e+02 3.020000000000000000e+02 3.030000000000000000e+02 3.040000000000000000e+02 3.050000000000000000e+02 3.060000000000000000e+02 3.070000000000000000e+02 3.080000000000000000e+02 3.090000000000000000e+02 3.100000000000000000e+02 3.110000000000000000e+02 3.120000000000000000e+02 3.130000000000000000e+02 3.140000000000000000e+02 3.150000000000000000e+02 3.160000000000000000e+02 3.170000000000000000e+02 3.180000000000000000e+02 3.190000000000000000e+02 3.200000000000000000e+02 3.210000000000000000e+02 3.220000000000000000e+02 3.230000000000000000e+02 3.240000000000000000e+02 3.250000000000000000e+02 3.260000000000000000e+02 3.270000000000000000e+02 3.280000000000000000e+02 3.290000000000000000e+02 3.300000000000000000e+02 3.310000000000000000e+02 3.320000000000000000e+02 3.330000000000000000e+02 3.340000000000000000e+02 3.350000000000000000e+02 3.360000000000000000e+02 3.370000000000000000e+02 3.380000000000000000e+02 3.390000000000000000e+02 3.400000000000000000e+02 3.410000000000000000e+02 3.420000000000000000e+02 3.430000000000000000e+02 3.440000000000000000e+02 3.450000000000000000e+02 3.460000000000000000e+02 3.470000000000000000e+02 3.480000000000000000e+02 3.490000000000000000e+02 3.500000000000000000e+02 3.510000000000000000e+02 3.520000000000000000e+02 3.530000000000000000e+02 3.540000000000000000e+02 3.550000000000000000e+02 3.560000000000000000e+02 3.570000000000000000e+02 3.580000000000000000e+02 3.590000000000000000e+02 3.600000000000000000e+02 3.610000000000000000e+02 3.620000000000000000e+02 3.630000000000000000e+02 3.640000000000000000e+02 3.650000000000000000e+02 3.660000000000000000e+02 3.670000000000000000e+02 3.680000000000000000e+02 3.690000000000000000e+02 3.700000000000000000e+02 3.710000000000000000e+02 3.720000000000000000e+02 3.730000000000000000e+02 3.740000000000000000e+02 3.750000000000000000e+02 3.760000000000000000e+02 3.770000000000000000e+02 3.780000000000000000e+02 3.790000000000000000e+02 3.800000000000000000e+02 3.810000000000000000e+02 3.820000000000000000e+02 3.830000000000000000e+02 3.840000000000000000e+02 3.850000000000000000e+02 3.860000000000000000e+02 3.870000000000000000e+02 3.880000000000000000e+02 3.890000000000000000e+02 3.900000000000000000e+02 3.910000000000000000e+02 3.920000000000000000e+02 3.930000000000000000e+02 3.940000000000000000e+02 3.950000000000000000e+02 3.960000000000000000e+02 3.970000000000000000e+02 3.980000000000000000e+02 3.990000000000000000e+02 4.000000000000000000e+02 4.010000000000000000e+02 4.020000000000000000e+02 4.030000000000000000e+02 4.040000000000000000e+02 4.050000000000000000e+02 4.060000000000000000e+02 4.070000000000000000e+02 4.080000000000000000e+02 4.090000000000000000e+02 4.100000000000000000e+02 4.110000000000000000e+02 4.120000000000000000e+02 4.130000000000000000e+02 4.140000000000000000e+02 4.150000000000000000e+02 4.160000000000000000e+02 4.170000000000000000e+02 4.180000000000000000e+02 4.190000000000000000e+02 4.200000000000000000e+02 4.210000000000000000e+02 4.220000000000000000e+02 4.230000000000000000e+02 4.240000000000000000e+02 4.250000000000000000e+02 4.260000000000000000e+02 4.270000000000000000e+02 4.280000000000000000e+02 4.290000000000000000e+02 4.300000000000000000e+02 4.310000000000000000e+02 4.320000000000000000e+02 4.330000000000000000e+02 4.340000000000000000e+02 4.350000000000000000e+02 4.360000000000000000e+02 4.370000000000000000e+02 4.380000000000000000e+02 4.390000000000000000e+02 4.400000000000000000e+02 4.410000000000000000e+02 4.420000000000000000e+02 4.430000000000000000e+02 4.440000000000000000e+02 4.450000000000000000e+02 4.460000000000000000e+02 4.470000000000000000e+02 4.480000000000000000e+02 4.490000000000000000e+02 4.500000000000000000e+02 4.510000000000000000e+02 4.520000000000000000e+02 4.530000000000000000e+02 4.540000000000000000e+02 4.550000000000000000e+02 4.560000000000000000e+02 4.570000000000000000e+02 4.580000000000000000e+02 4.590000000000000000e+02 4.600000000000000000e+02 4.610000000000000000e+02 4.620000000000000000e+02 4.630000000000000000e+02 4.640000000000000000e+02 4.650000000000000000e+02 4.660000000000000000e+02 4.670000000000000000e+02 4.680000000000000000e+02 4.690000000000000000e+02 4.700000000000000000e+02 4.710000000000000000e+02 4.720000000000000000e+02 4.730000000000000000e+02 4.740000000000000000e+02 4.750000000000000000e+02 4.760000000000000000e+02 4.770000000000000000e+02 4.780000000000000000e+02 4.790000000000000000e+02 4.800000000000000000e+02 4.810000000000000000e+02 4.820000000000000000e+02 4.830000000000000000e+02 4.840000000000000000e+02 4.850000000000000000e+02 4.860000000000000000e+02 4.870000000000000000e+02 4.880000000000000000e+02 4.890000000000000000e+02 4.900000000000000000e+02 4.910000000000000000e+02 4.920000000000000000e+02 4.930000000000000000e+02 4.940000000000000000e+02 4.950000000000000000e+02 4.960000000000000000e+02 4.970000000000000000e+02 4.980000000000000000e+02 4.990000000000000000e+02 5.000000000000000000e+02 5.010000000000000000e+02 5.020000000000000000e+02 5.030000000000000000e+02 5.040000000000000000e+02 5.050000000000000000e+02 5.060000000000000000e+02 5.070000000000000000e+02 5.080000000000000000e+02 5.090000000000000000e+02 5.100000000000000000e+02 5.110000000000000000e+02 5.120000000000000000e+02 5.130000000000000000e+02 5.140000000000000000e+02 5.150000000000000000e+02 5.160000000000000000e+02 5.170000000000000000e+02 5.180000000000000000e+02 5.190000000000000000e+02 5.200000000000000000e+02 5.210000000000000000e+02 5.220000000000000000e+02 5.230000000000000000e+02 5.240000000000000000e+02 5.250000000000000000e+02 5.260000000000000000e+02 5.270000000000000000e+02 5.280000000000000000e+02 5.290000000000000000e+02 5.300000000000000000e+02 5.310000000000000000e+02 5.320000000000000000e+02 5.330000000000000000e+02 5.340000000000000000e+02 5.350000000000000000e+02 5.360000000000000000e+02 5.370000000000000000e+02 5.380000000000000000e+02 5.390000000000000000e+02 5.400000000000000000e+02 5.410000000000000000e+02 5.420000000000000000e+02 5.430000000000000000e+02 5.440000000000000000e+02 5.450000000000000000e+02 5.460000000000000000e+02 5.470000000000000000e+02 5.480000000000000000e+02 5.490000000000000000e+02 5.500000000000000000e+02 5.510000000000000000e+02 5.520000000000000000e+02 5.530000000000000000e+02 5.540000000000000000e+02 5.550000000000000000e+02 5.560000000000000000e+02 5.570000000000000000e+02 5.580000000000000000e+02 5.590000000000000000e+02 5.600000000000000000e+02 5.610000000000000000e+02 5.620000000000000000e+02 5.630000000000000000e+02 5.640000000000000000e+02 5.650000000000000000e+02 5.660000000000000000e+02 5.670000000000000000e+02 5.680000000000000000e+02 5.690000000000000000e+02 5.700000000000000000e+02 5.710000000000000000e+02 5.720000000000000000e+02 5.730000000000000000e+02 5.740000000000000000e+02 5.750000000000000000e+02 5.760000000000000000e+02 5.770000000000000000e+02 5.780000000000000000e+02 5.790000000000000000e+02 5.800000000000000000e+02 5.810000000000000000e+02 5.820000000000000000e+02 5.830000000000000000e+02 5.840000000000000000e+02 5.850000000000000000e+02 5.860000000000000000e+02 5.870000000000000000e+02 5.880000000000000000e+02 5.890000000000000000e+02 5.900000000000000000e+02 5.910000000000000000e+02 5.920000000000000000e+02 5.930000000000000000e+02 5.940000000000000000e+02 5.950000000000000000e+02 5.960000000000000000e+02 5.970000000000000000e+02 5.980000000000000000e+02 5.990000000000000000e+02 6.000000000000000000e+02 6.010000000000000000e+02 6.020000000000000000e+02 6.030000000000000000e+02 6.040000000000000000e+02 6.050000000000000000e+02 6.060000000000000000e+02 6.070000000000000000e+02 6.080000000000000000e+02 6.090000000000000000e+02 6.100000000000000000e+02 6.110000000000000000e+02 6.120000000000000000e+02 6.130000000000000000e+02 6.140000000000000000e+02 6.150000000000000000e+02 6.160000000000000000e+02 6.170000000000000000e+02 6.180000000000000000e+02 6.190000000000000000e+02 6.200000000000000000e+02 6.210000000000000000e+02 6.220000000000000000e+02 6.230000000000000000e+02 6.240000000000000000e+02 6.250000000000000000e+02 6.260000000000000000e+02 6.270000000000000000e+02 6.280000000000000000e+02 6.290000000000000000e+02 6.300000000000000000e+02 6.310000000000000000e+02 6.320000000000000000e+02 6.330000000000000000e+02 6.340000000000000000e+02 6.350000000000000000e+02 6.360000000000000000e+02 6.370000000000000000e+02 6.380000000000000000e+02 6.390000000000000000e+02 6.400000000000000000e+02 6.410000000000000000e+02 6.420000000000000000e+02 6.430000000000000000e+02 6.440000000000000000e+02 6.450000000000000000e+02 6.460000000000000000e+02 6.470000000000000000e+02 6.480000000000000000e+02 6.490000000000000000e+02 6.500000000000000000e+02 6.510000000000000000e+02 6.520000000000000000e+02 6.530000000000000000e+02 6.540000000000000000e+02 6.550000000000000000e+02 6.560000000000000000e+02 6.570000000000000000e+02 6.580000000000000000e+02 6.590000000000000000e+02 6.600000000000000000e+02 6.610000000000000000e+02 6.620000000000000000e+02 6.630000000000000000e+02 6.640000000000000000e+02 6.650000000000000000e+02 6.660000000000000000e+02 6.670000000000000000e+02 6.680000000000000000e+02 6.690000000000000000e+02 6.700000000000000000e+02 6.710000000000000000e+02 6.720000000000000000e+02 6.730000000000000000e+02 6.740000000000000000e+02 6.750000000000000000e+02 6.760000000000000000e+02 6.770000000000000000e+02 6.780000000000000000e+02 6.790000000000000000e+02 6.800000000000000000e+02 6.810000000000000000e+02 6.820000000000000000e+02 6.830000000000000000e+02 6.840000000000000000e+02 6.850000000000000000e+02 6.860000000000000000e+02 6.870000000000000000e+02 6.880000000000000000e+02 6.890000000000000000e+02 6.900000000000000000e+02 6.910000000000000000e+02 6.920000000000000000e+02 6.930000000000000000e+02 6.940000000000000000e+02 6.950000000000000000e+02 6.960000000000000000e+02 6.970000000000000000e+02 6.980000000000000000e+02 6.990000000000000000e+02 7.000000000000000000e+02 7.010000000000000000e+02 7.020000000000000000e+02 7.030000000000000000e+02 7.040000000000000000e+02 7.050000000000000000e+02 7.060000000000000000e+02 7.070000000000000000e+02 7.080000000000000000e+02 7.090000000000000000e+02 7.100000000000000000e+02 7.110000000000000000e+02 7.120000000000000000e+02 7.130000000000000000e+02 7.140000000000000000e+02 7.150000000000000000e+02 7.160000000000000000e+02 7.170000000000000000e+02 7.180000000000000000e+02 7.190000000000000000e+02 7.200000000000000000e+02 7.210000000000000000e+02 7.220000000000000000e+02 7.230000000000000000e+02 7.240000000000000000e+02 7.250000000000000000e+02 7.260000000000000000e+02 7.270000000000000000e+02 7.280000000000000000e+02 7.290000000000000000e+02 7.300000000000000000e+02 7.310000000000000000e+02 7.320000000000000000e+02 7.330000000000000000e+02 7.340000000000000000e+02 7.350000000000000000e+02 7.360000000000000000e+02 7.370000000000000000e+02 7.380000000000000000e+02 7.390000000000000000e+02 7.400000000000000000e+02 7.410000000000000000e+02 7.420000000000000000e+02 7.430000000000000000e+02 7.440000000000000000e+02 7.450000000000000000e+02 7.460000000000000000e+02 7.470000000000000000e+02 7.480000000000000000e+02 7.490000000000000000e+02 7.500000000000000000e+02 7.510000000000000000e+02 7.520000000000000000e+02 7.530000000000000000e+02 7.540000000000000000e+02 7.550000000000000000e+02 7.560000000000000000e+02 7.570000000000000000e+02 7.580000000000000000e+02 7.590000000000000000e+02 7.600000000000000000e+02 7.610000000000000000e+02 7.620000000000000000e+02 7.630000000000000000e+02 7.640000000000000000e+02 7.650000000000000000e+02 7.660000000000000000e+02 7.670000000000000000e+02 7.680000000000000000e+02 7.690000000000000000e+02 7.700000000000000000e+02 7.710000000000000000e+02 7.720000000000000000e+02 7.730000000000000000e+02 7.740000000000000000e+02 7.750000000000000000e+02 7.760000000000000000e+02 7.770000000000000000e+02 7.780000000000000000e+02 7.790000000000000000e+02 7.800000000000000000e+02 7.810000000000000000e+02 7.820000000000000000e+02 7.830000000000000000e+02 7.840000000000000000e+02 7.850000000000000000e+02 7.860000000000000000e+02 7.870000000000000000e+02 7.880000000000000000e+02 7.890000000000000000e+02 7.900000000000000000e+02 7.910000000000000000e+02 7.920000000000000000e+02 7.930000000000000000e+02 7.940000000000000000e+02 7.950000000000000000e+02 7.960000000000000000e+02 7.970000000000000000e+02 7.980000000000000000e+02 7.990000000000000000e+02 8.000000000000000000e+02 8.010000000000000000e+02 8.020000000000000000e+02 8.030000000000000000e+02 8.040000000000000000e+02 8.050000000000000000e+02 8.060000000000000000e+02 8.070000000000000000e+02 8.080000000000000000e+02 8.090000000000000000e+02 8.100000000000000000e+02 8.110000000000000000e+02 8.120000000000000000e+02 8.130000000000000000e+02 8.140000000000000000e+02 8.150000000000000000e+02 8.160000000000000000e+02 8.170000000000000000e+02 8.180000000000000000e+02 8.190000000000000000e+02 8.200000000000000000e+02 8.210000000000000000e+02 8.220000000000000000e+02 8.230000000000000000e+02 8.240000000000000000e+02 8.250000000000000000e+02 8.260000000000000000e+02 8.270000000000000000e+02 8.280000000000000000e+02 8.290000000000000000e+02 8.300000000000000000e+02 8.310000000000000000e+02 8.320000000000000000e+02 8.330000000000000000e+02 8.340000000000000000e+02 8.350000000000000000e+02 8.360000000000000000e+02 8.370000000000000000e+02 8.380000000000000000e+02 8.390000000000000000e+02 8.400000000000000000e+02 8.410000000000000000e+02 8.420000000000000000e+02 8.430000000000000000e+02 8.440000000000000000e+02 8.450000000000000000e+02 8.460000000000000000e+02 8.470000000000000000e+02 8.480000000000000000e+02 8.490000000000000000e+02 8.500000000000000000e+02 8.510000000000000000e+02 8.520000000000000000e+02 8.530000000000000000e+02 8.540000000000000000e+02 8.550000000000000000e+02 8.560000000000000000e+02 8.570000000000000000e+02 8.580000000000000000e+02 8.590000000000000000e+02 8.600000000000000000e+02 8.610000000000000000e+02 8.620000000000000000e+02 8.630000000000000000e+02 8.640000000000000000e+02 8.650000000000000000e+02 8.660000000000000000e+02 8.670000000000000000e+02 8.680000000000000000e+02 8.690000000000000000e+02 8.700000000000000000e+02 8.710000000000000000e+02 8.720000000000000000e+02 8.730000000000000000e+02 8.740000000000000000e+02 8.750000000000000000e+02 8.760000000000000000e+02 8.770000000000000000e+02 8.780000000000000000e+02 8.790000000000000000e+02 8.800000000000000000e+02 8.810000000000000000e+02 8.820000000000000000e+02 8.830000000000000000e+02 8.840000000000000000e+02 8.850000000000000000e+02 8.860000000000000000e+02 8.870000000000000000e+02 8.880000000000000000e+02 8.890000000000000000e+02 8.900000000000000000e+02 8.910000000000000000e+02 8.920000000000000000e+02 8.930000000000000000e+02 8.940000000000000000e+02 8.950000000000000000e+02 8.960000000000000000e+02 8.970000000000000000e+02 8.980000000000000000e+02 8.990000000000000000e+02 9.000000000000000000e+02 9.010000000000000000e+02 9.020000000000000000e+02 9.030000000000000000e+02 9.040000000000000000e+02 9.050000000000000000e+02 9.060000000000000000e+02 9.070000000000000000e+02 9.080000000000000000e+02 9.090000000000000000e+02 9.100000000000000000e+02 9.110000000000000000e+02 9.120000000000000000e+02 9.130000000000000000e+02 9.140000000000000000e+02 9.150000000000000000e+02 9.160000000000000000e+02 9.170000000000000000e+02 9.180000000000000000e+02 9.190000000000000000e+02 9.200000000000000000e+02 9.210000000000000000e+02 9.220000000000000000e+02 9.230000000000000000e+02 9.240000000000000000e+02 9.250000000000000000e+02 9.260000000000000000e+02 9.270000000000000000e+02 9.280000000000000000e+02 9.290000000000000000e+02 9.300000000000000000e+02 9.310000000000000000e+02 9.320000000000000000e+02 9.330000000000000000e+02 9.340000000000000000e+02 9.350000000000000000e+02 9.360000000000000000e+02 9.370000000000000000e+02 9.380000000000000000e+02 9.390000000000000000e+02 9.400000000000000000e+02 9.410000000000000000e+02 9.420000000000000000e+02 9.430000000000000000e+02 9.440000000000000000e+02 9.450000000000000000e+02 9.460000000000000000e+02 9.470000000000000000e+02 9.480000000000000000e+02 9.490000000000000000e+02 9.500000000000000000e+02 9.510000000000000000e+02 9.520000000000000000e+02 9.530000000000000000e+02 9.540000000000000000e+02 9.550000000000000000e+02 9.560000000000000000e+02 9.570000000000000000e+02 9.580000000000000000e+02 9.590000000000000000e+02 9.600000000000000000e+02 9.610000000000000000e+02 9.620000000000000000e+02 9.630000000000000000e+02 9.640000000000000000e+02 9.650000000000000000e+02 9.660000000000000000e+02 9.670000000000000000e+02 9.680000000000000000e+02 9.690000000000000000e+02 9.700000000000000000e+02 9.710000000000000000e+02 9.720000000000000000e+02 9.730000000000000000e+02 9.740000000000000000e+02 9.750000000000000000e+02 9.760000000000000000e+02 9.770000000000000000e+02 9.780000000000000000e+02 9.790000000000000000e+02 9.800000000000000000e+02 9.810000000000000000e+02 9.820000000000000000e+02 9.830000000000000000e+02 9.840000000000000000e+02 9.850000000000000000e+02 9.860000000000000000e+02 9.870000000000000000e+02 9.880000000000000000e+02 9.890000000000000000e+02 9.900000000000000000e+02 9.910000000000000000e+02 9.920000000000000000e+02 9.930000000000000000e+02 9.940000000000000000e+02 9.950000000000000000e+02 9.960000000000000000e+02 9.970000000000000000e+02 9.980000000000000000e+02 9.990000000000000000e+02
1.000000000000000000e+00 1.000000000000000000e+00 1.000000000000000000e+00 1.000000000000000000e+00 1.000000000000000000e+00 1.000000000000000000e+00 1.000000000000000000e+00 1.000000000000000000e+00 1.000000000000000000e+00 1.000000000000000000e+00 1.000000000000000000e+00 1.000000000000000000e+00 1.000000000000000000e+00 1.000000000000000000e+00 1.000000000000000000e+00 1.000000000000000000e+00 1.000000000000000000e+00 1.000000000000000000e+00 1.000000000000000000e+00 1.000000000000000000e+00 1.000000000000000000e+00 1.000000000000000000e+00 1.000000000000000000e+00 1.000000000000000000e+00 1.000000000000000000e+00 1.000000000000000000e+00 1.000000000000000000e+00 1.000000000000000000e+00 1.000000000000000000e+00 1.000000000000000000e+00 1.000000000000000000e+00 1.000000000000000000e+00 1.000000000000000000e+00 1.000000000000000000e+00 1.000000000000000000e+00 1.000000000000000000e+00 1.000000000000000000e+00 1.000000000000000000e+00 1.000000000000000000e+00 1.000000000000000000e+00 1.000000000000000000e+00 1.000000000000000000e+00 1.000000000000000000e+00 1.000000000000000000e+00 1.000000000000000000e+00 1.000000000000000000e+00 1.000000000000000000e+00 1.000000000000000000e+00 1.000000000000000000e+00 1.000000000000000000e+00 1.000000000000000000e+00 1.000000000000000000e+00 1.000000000000000000e+00 1.000000000000000000e+00 1.000000000000000000e+00 1.000000000000000000e+00 1.000000000000000000e+00 1.000000000000000000e+00 1.000000000000000000e+00 1.000000000000000000e+00 1.000000000000000000e+00 1.000000000000000000e+00 1.000000000000000000e+00 1.000000000000000000e+00 1.000000000000000000e+00 1.000000000000000000e+00 1.000000000000000000e+00 1.000000000000000000e+00 1.000000000000000000e+00 1.000000000000000000e+00 1.000000000000000000e+00 1.000000000000000000e+00 1.000000000000000000e+00 1.000000000000000000e+00 1.000000000000000000e+00 1.000000000000000000e+00 1.000000000000000000e+00 1.000000000000000000e+00 1.000000000000000000e+00 1.000000000000000000e+00 1.000000000000000000e+00 1.000000000000000000e+00 1.000000000000000000e+00 1.000000000000000000e+00 1.000000000000000000e+00 1.000000000000000000e+00 1.000000000000000000e+00 1.000000000000000000e+00 1.000000000000000000e+00 1.000000000000000000e+00 1.000000000000000000e+00 1.000000000000000000e+00 1.000000000000000000e+00 1.000000000000000000e+00 1.000000000000000000e+00 1.000000000000000000e+00 1.000000000000000000e+00 1.000000000000000000e+00 1.000000000000000000e+00 1.000000000000000000e+00 1.000000000000000000e+00 1.000000000000000000e+00 1.000000000000000000e+00 1.000000000000000000e+00 1.000000000000000000e+00 1.000000000000000000e+00 1.000000000000000000e+00 1.000000000000000000e+00 1.000000000000000000e+00 1.000000000000000000e+00 1.000000000000000000e+00 1.000000000000000000e+00 1.000000000000000000e+00 1.000000000000000000e+00 1.000000000000000000e+00 1.000000000000000000e+00 1.000000000000000000e+00 1.000000000000000000e+00 1.000000000000000000e+00 1.000000000000000000e+00 1.000000000000000000e+00 1.000000000000000000e+00 1.000000000000000000e+00 1.000000000000000000e+00 1.000000000000000000e+00 1.000000000000000000e+00 1.000000000000000000e+00 1.000000000000000000e+00 1.000000000000000000e+00 1.000000000000000000e+00 1.000000000000000000e+00 1.000000000000000000e+00 1.000000000000000000e+00 1.000000000000000000e+00 1.000000000000000000e+00 1.000000000000000000e+00 1.000000000000000000e+00 1.000000000000000000e+00 1.000000000000000000e+00 1.000000000000000000e+00 1.000000000000000000e+00 1.000000000000000000e+00 1.000000000000000000e+00 1.000000000000000000e+00 1.000000000000000000e+00 1.000000000000000000e+00 1.000000000000000000e+00 1.000000000000000000e+00 1.000000000000000000e+00 1.000000000000000000e+00 1.000000000000000000e+00 1.000000000000000000e+00 1.000000000000000000e+00 1.000000000000000000e+00 1.000000000000000000e+00 1.000000000000000000e+00 1.000000000000000000e+00 1.000000000000000000e+00 1.000000000000000000e+00 1.000000000000000000e+00 1.000000000000000000e+00 1.000000000000000000e+00 1.000000000000000000e+00 1.000000000000000000e+00 1.000000000000000000e+00 1.000000000000000000e+00 1.000000000000000000e+00 1.000000000000000000e+00 1.000000000000000000e+00 1.000000000000000000e+00 1.000000000000000000e+00 1.000000000000000000e+00 1.000000000000000000e+00 1.000000000000000000e+00 1.000000000000000000e+00 1.000000000000000000e+00 1.000000000000000000e+00 1.000000000000000000e+00 1.000000000000000000e+00 1.000000000000000000e+00 1.000000000000000000e+00 1.000000000000000000e+00 1.000000000000000000e+00 1.000000000000000000e+00 1.000000000000000000e+00 1.000000000000000000e+00 1.000000000000000000e+00 1.000000000000000000e+00 1.000000000000000000e+00 1.000000000000000000e+00 1.000000000000000000e+00 1.000000000000000000e+00 1.000000000000000000e+00 1.000000000000000000e+00 1.000000000000000000e+00 1.000000000000000000e+00 1.000000000000000000e+00 1.000000000000000000e+00 1.000000000000000000e+00 1.000000000000000000e+00 1.000000000000000000e+00 1.000000000000000000e+00 1.000000000000000000e+00 1.000000000000000000e+00 1.000000000000000000e+00 1.000000000000000000e+00 1.000000000000000000e+00 1.000000000000000000e+00 1.000000000000000000e+00 1.000000000000000000e+00 1.000000000000000000e+00 1.000000000000000000e+00 1.000000000000000000e+00 1.000000000000000000e+00 1.000000000000000000e+00 1.000000000000000000e+00 1.000000000000000000e+00 1.000000000000000000e+00 1.000000000000000000e+00 1.000000000000000000e+00 1.000000000000000000e+00 1.000000000000000000e+00 1.000000000000000000e+00 1.000000000000000000e+00 1.000000000000000000e+00 1.000000000000000000e+00 1.000000000000000000e+00 1.000000000000000000e+00 1.000000000000000000e+00 1.000000000000000000e+00 1.000000000000000000e+00 1.000000000000000000e+00 1.000000000000000000e+00 1.000000000000000000e+00 1.000000000000000000e+00 1.000000000000000000e+00 1.000000000000000000e+00 1.000000000000000000e+00 1.000000000000000000e+00 1.000000000000000000e+00 1.000000000000000000e+00 1.000000000000000000e+00 1.000000000000000000e+00 1.000000000000000000e+00 1.000000000000000000e+00 1.000000000000000000e+00 1.000000000000000000e+00 1.000000000000000000e+00 1.000000000000000000e+00 1.000000000000000000e+00 1.000000000000000000e+00 1.000000000000000000e+00 1.000000000000000000e+00 1.000000000000000000e+00 1.000000000000000000e+00 1.000000000000000000e+00 1.000000000000000000e+00 1.000000000000000000e+00 1.000000000000000000e+00 1.000000000000000000e+00 1.000000000000000000e+00 1.000000000000000000e+00 1.000000000000000000e+00 1.000000000000000000e+00 1.000000000000000000e+00 1.000000000000000000e+00 1.000000000000000000e+00 1.000000000000000000e+00 1.000000000000000000e+00 1.000000000000000000e+00 1.000000000000000000e+00 1.000000000000000000e+00 1.000000000000000000e+00 1.000000000000000000e+00 1.000000000000000000e+00 1.000000000000000000e+00 1.000000000000000000e+00 1.000000000000000000e+00 1.000000000000000000e+00 1.000000000000000000e+00 1.000000000000000000e+00 1.000000000000000000e+00 1.000000000000000000e+00 1.000000000000000000e+00 1.000000000000000000e+00 1.000000000000000000e+00 1.000000000000000000e+00 1.000000000000000000e+00 1.000000000000000000e+00 1.000000000000000000e+00 1.000000000000000000e+00 1.000000000000000000e+00 1.000000000000000000e+00 1.000000000000000000e+00 1.000000000000000000e+00 1.000000000000000000e+00 1.000000000000000000e+00 1.000000000000000000e+00 1.000000000000000000e+00 1.000000000000000000e+00 1.000000000000000000e+00 1.000000000000000000e+00 1.000000000000000000e+00 1.000000000000000000e+00 1.000000000000000000e+00 1.000000000000000000e+00 1.000000000000000000e+00 1.000000000000000000e+00 1.000000000000000000e+00 1.000000000000000000e+00 1.000000000000000000e+00 1.000000000000000000e+00 1.000000000000000000e+00 1.000000000000000000e+00 1.000000000000000000e+00 1.000000000000000000e+00 1.000000000000000000e+00 1.000000000000000000e+00 1.000000000000000000e+00 1.000000000000000000e+00 1.000000000000000000e+00 1.000000000000000000e+00 1.000000000000000000e+00 1.000000000000000000e+00 1.000000000000000000e+00 1.000000000000000000e+00 1.000000000000000000e+00 1.000000000000000000e+00 1.000000000000000000e+00 1.000000000000000000e+00 1.000000000000000000e+00 1.000000000000000000e+00 1.000000000000000000e+00 1.000000000000000000e+00 1.000000000000000000e+00 1.000000000000000000e+00 1.000000000000000000e+00 1.000000000000000000e+00 1.000000000000000000e+00 1.000000000000000000e+00 1.000000000000000000e+00 1.000000000000000000e+00 1.000000000000000000e+00 1.000000000000000000e+00 1.000000000000000000e+00 1.000000000000000000e+00 1.000000000000000000e+00 1.000000000000000000e+00 1.000000000000000000e+00 1.000000000000000000e+00 1.000000000000000000e+00 1.000000000000000000e+00 1.000000000000000000e+00 1.000000000000000000e+00 1.000000000000000000e+00 1.000000000000000000e+00 1.000000000000000000e+00 1.000000000000000000e+00 1.000000000000000000e+00 1.000000000000000000e+00 1.000000000000000000e+00 1.000000000000000000e+00 1.000000000000000000e+00 1.000000000000000000e+00 1.000000000000000000e+00 1.000000000000000000e+00 1.000000000000000000e+00 1.000000000000000000e+00 1.000000000000000000e+00 1.000000000000000000e+00 1.000000000000000000e+00 1.000000000000000000e+00 1.000000000000000000e+00 1.000000000000000000e+00 1.000000000000000000e+00 1.000000000000000000e+00 1.000000000000000000e+00 1.000000000000000000e+00 1.000000000000000000e+00 1.000000000000000000e+00 1.000000000000000000e+00 1.000000000000000000e+00 1.000000000000000000e+00 1.000000000000000000e+00 1.000000000000000000e+00 1.000000000000000000e+00 1.000000000000000000e+00 1.000000000000000000e+00 1.000000000000000000e+00 1.000000000000000000e+00 1.000000000000000000e+00 1.000000000000000000e+00 1.000000000000000000e+00 1.000000000000000000e+00 1.000000000000000000e+00 1.000000000000000000e+00 1.000000000000000000e+00 1.000000000000000000e+00 1.000000000000000000e+00 1.000000000000000000e+00 1.000000000000000000e+00 1.000000000000000000e+00 1.000000000000000000e+00 1.000000000000000000e+00 1.000000000000000000e+00 1.000000000000000000e+00 1.000000000000000000e+00 1.000000000000000000e+00 1.000000000000000000e+00 1.000000000000000000e+00 1.000000000000000000e+00 1.000000000000000000e+00 1.000000000000000000e+00 1.000000000000000000e+00 1.000000000000000000e+00 1.000000000000000000e+00 1.000000000000000000e+00 1.000000000000000000e+00 1.000000000000000000e+00 1.000000000000000000e+00 1.000000000000000000e+00 1.000000000000000000e+00 1.000000000000000000e+00 1.000000000000000000e+00 1.000000000000000000e+00 1.000000000000000000e+00 1.000000000000000000e+00 1.000000000000000000e+00 1.000000000000000000e+00 1.000000000000000000e+00 1.000000000000000000e+00 1.000000000000000000e+00 1.000000000000000000e+00 1.000000000000000000e+00 1.000000000000000000e+00 1.000000000000000000e+00 1.000000000000000000e+00 1.000000000000000000e+00 1.000000000000000000e+00 1.000000000000000000e+00 1.000000000000000000e+00 1.000000000000000000e+00 1.000000000000000000e+00 1.000000000000000000e+00 1.000000000000000000e+00 1.000000000000000000e+00 1.000000000000000000e+00 1.000000000000000000e+00 1.000000000000000000e+00 1.000000000000000000e+00 1.000000000000000000e+00 1.000000000000000000e+00 1.000000000000000000e+00 1.000000000000000000e+00 1.000000000000000000e+00 1.000000000000000000e+00 1.000000000000000000e+00 1.000000000000000000e+00 1.000000000000000000e+00 1.000000000000000000e+00 1.000000000000000000e+00 1.000000000000000000e+00 1.000000000000000000e+00 1.000000000000000000e+00 1.000000000000000000e+00 1.000000000000000000e+00 1.000000000000000000e+00 1.000000000000000000e+00 1.000000000000000000e+00 1.000000000000000000e+00 1.000000000000000000e+00 1.000000000000000000e+00 1.000000000000000000e+00 1.000000000000000000e+00 1.000000000000000000e+00 1.000000000000000000e+00 1.000000000000000000e+00 1.000000000000000000e+00 1.000000000000000000e+00 1.000000000000000000e+00 1.000000000000000000e+00 1.000000000000000000e+00 1.000000000000000000e+00 1.000000000000000000e+00 1.000000000000000000e+00 1.000000000000000000e+00 1.000000000000000000e+00 1.000000000000000000e+00 1.000000000000000000e+00 1.000000000000000000e+00 1.000000000000000000e+00 1.000000000000000000e+00 1.000000000000000000e+00 1.000000000000000000e+00 1.000000000000000000e+00 1.000000000000000000e+00 1.000000000000000000e+00 1.000000000000000000e+00 1.000000000000000000e+00 1.000000000000000000e+00 1.000000000000000000e+00 1.000000000000000000e+00 1.000000000000000000e+00 1.000000000000000000e+00 1.000000000000000000e+00 1.000000000000000000e+00 1.000000000000000000e+00 1.000000000000000000e+00 1.000000000000000000e+00 1.000000000000000000e+00 1.000000000000000000e+00 1.000000000000000000e+00 1.000000000000000000e+00 1.000000000000000000e+00 1.000000000000000000e+00 1.000000000000000000e+00 1.000000000000000000e+00 1.000000000000000000e+00 1.000000000000000000e+00 1.000000000000000000e+00 1.000000000000000000e+00 1.000000000000000000e+00 1.000000000000000000e+00 1.000000000000000000e+00 1.000000000000000000e+00 1.000000000000000000e+00 1.000000000000000000e+00 1.000000000000000000e+00 1.000000000000000000e+00 1.000000000000000000e+00 1.000000000000000000e+00 1.000000000000000000e+00 1.000000000000000000e+00 1.000000000000000000e+00 1.000000000000000000e+00 1.000000000000000000e+00 1.000000000000000000e+00 1.000000000000000000e+00 1.000000000000000000e+00 1.000000000000000000e+00 1.000000000000000000e+00 1.000000000000000000e+00 1.000000000000000000e+00 1.000000000000000000e+00 1.000000000000000000e+00 1.000000000000000000e+00 1.000000000000000000e+00 1.000000000000000000e+00 1.000000000000000000e+00 1.000000000000000000e+00 1.000000000000000000e+00 1.000000000000000000e+00 1.000000000000000000e+00 1.000000000000000000e+00 1.000000000000000000e+00 1.000000000000000000e+00 1.000000000000000000e+00 1.000000000000000000e+00 1.000000000000000000e+00 1.000000000000000000e+00 1.000000000000000000e+00 1.000000000000000000e+00 1.000000000000000000e+00 1.000000000000000000e+00 1.000000000000000000e+00 1.000000000000000000e+00 1.000000000000000000e+00 1.000000000000000000e+00 1.000000000000000000e+00 1.000000000000000000e+00 1.000000000000000000e+00 1.000000000000000000e+00 1.000000000000000000e+00 1.000000000000000000e+00 1.000000000000000000e+00 1.000000000000000000e+00 1.000000000000000000e+00 1.000000000000000000e+00 1.000000000000000000e+00 1.000000000000000000e+00 1.000000000000000000e+00 1.000000000000000000e+00 1.000000000000000000e+00 1.000000000000000000e+00 1.000000000000000000e+00 1.000000000000000000e+00 1.000000000000000000e+00 1.000000000000000000e+00 1.000000000000000000e+00 1.000000000000000000e+00 1.000000000000000000e+00 1.000000000000000000e+00 1.000000000000000000e+00 1.000000000000000000e+00 1.000000000000000000e+00 1.000000000000000000e+00 1.000000000000000000e+00 1.000000000000000000e+00 1.000000000000000000e+00 1.000000000000000000e+00 1.000000000000000000e+00 1.000000000000000000e+00 1.000000000000000000e+00 1.000000000000000000e+00 1.000000000000000000e+00 1.000000000000000000e+00 1.000000000000000000e+00 1.000000000000000000e+00 1.000000000000000000e+00 1.000000000000000000e+00 1.000000000000000000e+00 1.000000000000000000e+00 1.000000000000000000e+00 1.000000000000000000e+00 1.000000000000000000e+00 1.000000000000000000e+00 1.000000000000000000e+00 1.000000000000000000e+00 1.000000000000000000e+00 1.000000000000000000e+00 1.000000000000000000e+00 1.000000000000000000e+00 1.000000000000000000e+00 1.000000000000000000e+00 1.000000000000000000e+00 1.000000000000000000e+00 1.000000000000000000e+00 1.000000000000000000e+00 1.000000000000000000e+00 1.000000000000000000e+00 1.000000000000000000e+00 1.000000000000000000e+00 1.000000000000000000e+00 1.000000000000000000e+00 1.000000000000000000e+00 1.000000000000000000e+00 1.000000000000000000e+00 1.000000000000000000e+00 1.000000000000000000e+00 1.000000000000000000e+00 1.000000000000000000e+00 1.000000000000000000e+00 1.000000000000000000e+00 1.000000000000000000e+00 1.000000000000000000e+00 1.000000000000000000e+00 1.000000000000000000e+00 1.000000000000000000e+00 1.000000000000000000e+00 1.000000000000000000e+00 1.000000000000000000e+00 1.000000000000000000e+00 1.000000000000000000e+00 1.000000000000000000e+00 1.000000000000000000e+00 1.000000000000000000e+00 1.000000000000000000e+00 1.000000000000000000e+00 1.000000000000000000e+00 1.000000000000000000e+00 1.000000000000000000e+00 1.000000000000000000e+00 1.000000000000000000e+00 1.000000000000000000e+00 1.000000000000000000e+00 1.000000000000000000e+00 1.000000000000000000e+00 1.000000000000000000e+00 1.000000000000000000e+00 1.000000000000000000e+00 1.000000000000000000e+00 1.000000000000000000e+00 1.000000000000000000e+00 1.000000000000000000e+00 1.000000000000000000e+00 1.000000000000000000e+00 1.000000000000000000e+00 1.000000000000000000e+00 1.000000000000000000e+00 1.000000000000000000e+00 1.000000000000000000e+00 1.000000000000000000e+00 1.000000000000000000e+00 1.000000000000000000e+00 1.000000000000000000e+00 1.000000000000000000e+00 1.000000000000000000e+00 1.000000000000000000e+00 1.000000000000000000e+00 1.000000000000000000e+00 1.000000000000000000e+00 1.000000000000000000e+00 1.000000000000000000e+00 1.000000000000000000e+00 1.000000000000000000e+00 1.000000000000000000e+00 1.000000000000000000e+00 1.000000000000000000e+00 1.000000000000000000e+00 1.000000000000000000e+00 1.000000000000000000e+00 1.000000000000000000e+00 1.000000000000000000e+00 1.000000000000000000e+00 1.000000000000000000e+00 1.000000000000000000e+00 1.000000000000000000e+00 1.000000000000000000e+00 1.000000000000000000e+00 1.000000000000000000e+00 1.000000000000000000e+00 1.000000000000000000e+00 1.000000000000000000e+00 1.000000000000000000e+00 1.000000000000000000e+00 1.000000000000000000e+00 1.000000000000000000e+00 1.000000000000000000e+00 1.000000000000000000e+00 1.000000000000000000e+00 1.000000000000000000e+00 1.000000000000000000e+00 1.000000000000000000e+00 1.000000000000000000e+00 1.000000000000000000e+00 1.000000000000000000e+00 1.000000000000000000e+00 1.000000000000000000e+00 1.000000000000000000e+00 1.000000000000000000e+00 1.000000000000000000e+00 1.000000000000000000e+00 1.000000000000000000e+00 1.000000000000000000e+00 1.000000000000000000e+00 1.000000000000000000e+00 1.000000000000000000e+00 1.000000000000000000e+00 1.000000000000000000e+00 1.000000000000000000e+00 1.000000000000000000e+00 1.000000000000000000e+00 1.000000000000000000e+00 1.000000000000000000e+00 1.000000000000000000e+00 1.000000000000000000e+00 1.000000000000000000e+00 1.000000000000000000e+00 1.000000000000000000e+00 1.000000000000000000e+00 1.000000000000000000e+00 1.000000000000000000e+00 1.000000000000000000e+00 1.000000000000000000e+00 1.000000000000000000e+00 1.000000000000000000e+00 1.000000000000000000e+00 1.000000000000000000e+00 1.000000000000000000e+00 1.000000000000000000e+00 1.000000000000000000e+00 1.000000000000000000e+00 1.000000000000000000e+00 1.000000000000000000e+00 1.000000000000000000e+00 1.000000000000000000e+00 1.000000000000000000e+00 1.000000000000000000e+00 1.000000000000000000e+00 1.000000000000000000e+00 1.000000000000000000e+00 1.000000000000000000e+00 1.000000000000000000e+00 1.000000000000000000e+00 1.000000000000000000e+00 1.000000000000000000e+00 1.000000000000000000e+00 1.000000000000000000e+00 1.000000000000000000e+00 1.000000000000000000e+00 1.000000000000000000e+00 1.000000000000000000e+00 1.000000000000000000e+00 1.000000000000000000e+00 1.000000000000000000e+00 1.000000000000000000e+00 1.000000000000000000e+00 1.000000000000000000e+00 1.000000000000000000e+00 1.000000000000000000e+00 1.000000000000000000e+00 1.000000000000000000e+00 1.000000000000000000e+00 1.000000000000000000e+00 1.000000000000000000e+00 1.000000000000000000e+00 1.000000000000000000e+00 1.000000000000000000e+00 1.000000000000000000e+00 1.000000000000000000e+00 1.000000000000000000e+00 1.000000000000000000e+00 1.000000000000000000e+00 1.000000000000000000e+00 1.000000000000000000e+00 1.000000000000000000e+00 1.000000000000000000e+00 1.000000000000000000e+00 1.000000000000000000e+00 1.000000000000000000e+00 1.000000000000000000e+00 1.000000000000000000e+00 1.000000000000000000e+00 1.000000000000000000e+00 1.000000000000000000e+00 1.000000000000000000e+00 1.000000000000000000e+00 1.000000000000000000e+00 1.000000000000000000e+00 1.000000000000000000e+00 1.000000000000000000e+00 1.000000000000000000e+00 1.000000000000000000e+00 1.000000000000000000e+00 1.000000000000000000e+00 1.000000000000000000e+00 1.000000000000000000e+00 1.000000000000000000e+00 1.000000000000000000e+00 1.000000000000000000e+00 1.000000000000000000e+00 1.000000000000000000e+00 1.000000000000000000e+00 1.000000000000000000e+00 1.000000000000000000e+00 1.000000000000000000e+00 1.000000000000000000e+00 1.000000000000000000e+00 1.000000000000000000e+00 1.000000000000000000e+00 1.000000000000000000e+00 1.000000000000000000e+00 1.000000000000000000e+00 1.000000000000000000e+00 1.000000000000000000e+00 1.000000000000000000e+00 1.000000000000000000e+00 1.000000000000000000e+00 1.000000000000000000e+00 1.000000000000000000e+00 1.000000000000000000e+00 1.000000000000000000e+00 1.000000000000000000e+00 1.000000000000000000e+00 1.000000000000000000e+00 1.000000000000000000e+00 1.000000000000000000e+00 1.000000000000000000e+00 1.000000000000000000e+00 1.000000000000000000e+00 1.000000000000000000e+00 1.000000000000000000e+00 1.000000000000000000e+00 1.000000000000000000e+00 1.000000000000000000e+00 1.000000000000000000e+00 1.000000000000000000e+00 1.000000000000000000e+00 1.000000000000000000e+00 1.000000000000000000e+00 1.000000000000000000e+00 1.000000000000000000e+00 1.000000000000000000e+00 1.000000000000000000e+00 1.000000000000000000e+00 1.000000000000000000e+00 1.000000000000000000e+00 1.000000000000000000e+00 1.000000000000000000e+00 1.000000000000000000e+00 1.000000000000000000e+00 1.000000000000000000e+00 1.000000000000000000e+00 1.000000000000000000e+00 1.000000000000000000e+00 1.000000000000000000e+00 1.000000000000000000e+00 1.000000000000000000e+00 1.000000000000000000e+00 1.000000000000000000e+00 1.000000000000000000e+00 1.000000000000000000e+00 1.000000000000000000e+00 1.000000000000000000e+00 1.000000000000000000e+00 1.000000000000000000e+00 1.000000000000000000e+00 1.000000000000000000e+00 1.000000000000000000e+00 1.000000000000000000e+00 1.000000000000000000e+00 1.000000000000000000e+00 1.000000000000000000e+00 1.000000000000000000e+00 1.000000000000000000e+00 1.000000000000000000e+00 1.000000000000000000e+00 1.000000000000000000e+00 1.000000000000000000e+00 1.000000000000000000e+00 1.000000000000000000e+00 1.000000000000000000e+00 1.000000000000000000e+00 1.000000000000000000e+00 1.000000000000000000e+00 1.000000000000000000e+00 1.000000000000000000e+00 1.000000000000000000e+00 1.000000000000000000e+00 1.000000000000000000e+00 1.000000000000000000e+00 1.000000000000000000e+00 1.000000000000000000e+00 1.000000000000000000e+00 1.000000000000000000e+00 1.000000000000000000e+00 1.000000000000000000e+00 1.000000000000000000e+00 1.000000000000000000e+00 1.000000000000000000e+00 1.000000000000000000e+00 1.000000000000000000e+00 1.000000000000000000e+00 1.000000000000000000e+00 1.000000000000000000e+00 1.000000000000000000e+00 1.000000000000000000e+00 1.000000000000000000e+00 1.000000000000000000e+00 1.000000000000000000e+00 1.000000000000000000e+00 1.000000000000000000e+00 1.000000000000000000e+00 1.000000000000000000e+00 1.000000000000000000e+00 1.000000000000000000e+00 1.000000000000000000e+00 1.000000000000000000e+00 1.000000000000000000e+00 1.000000000000000000e+00 1.000000000000000000e+00 1.000000000000000000e+00 1.000000000000000000e+00 1.000000000000000000e+00 1.000000000000000000e+00 1.000000000000000000e+00 1.000000000000000000e+00 1.000000000000000000e+00 1.000000000000000000e+00 1.000000000000000000e+00 1.000000000000000000e+00 1.000000000000000000e+00 1.000000000000000000e+00 1.000000000000000000e+00 1.000000000000000000e+00 1.000000000000000000e+00 1.000000000000000000e+00 1.000000000000000000e+00 1.000000000000000000e+00 1.000000000000000000e+00 1.000000000000000000e+00 1.000000000000000000e+00 1.000000000000000000e+00 1.000000000000000000e+00 1.000000000000000000e+00 1.000000000000000000e+00 1.000000000000000000e+00 1.000000000000000000e+00 1.000000000000000000e+00 1.000000000000000000e+00 1.000000000000000000e+00 1.000000000000000000e+00 1.000000000000000000e+00 1.000000000000000000e+00 1.000000000000000000e+00 1.000000000000000000e+00 1.000000000000000000e+00 1.000000000000000000e+00 1.000000000000000000e+00 1.000000000000000000e+00 1.000000000000000000e+00 1.000000000000000000e+00 1.000000000000000000e+00 1.000000000000000000e+00 1.000000000000000000e+00 1.000000000000000000e+00 1.000000000000000000e+00 1.000000000000000000e+00 1.000000000000000000e+00 1.000000000000000000e+00
5.633331629905964644e-02 5.189495677560671538e-01 -2.810728401306920032e-01 7.750345444369666215e-01 5.228179605704841304e-01 5.404769001424698516e-01 5.776998231490848568e-01 3.756755773859957181e-01 5.642747817318453096e-01 5.206961815346569100e-01 1.085847470038985740e+00 -7.276115734357812004e-01 1.421273369756658855e+00 4.665881419682237352e-01 5.246855221387721757e-01 4.151789178248913026e-01 8.445616762421402912e-01 9.799404066731085550e-01 7.447989629483798835e-01 5.263046821264667496e-01 3.693861686592748161e-01 9.932224141644505622e-01 3.587382528860730280e-01 5.498952821340143959e-01 7.041516192166598354e-02 6.649703243902816974e-01 4.090917666892621707e-01 7.092085538327066452e-01 5.196656392680548686e-01 1.626627296860963634e+00 4.932269277713156042e-01 6.041966169779028339e-01 7.185185011650592202e-01 5.145400358744869340e-01 6.923361950104079954e-01 4.601615439600055257e-01 5.614574005165239301e-01 1.852116379479758601e+00 -8.985413350805425414e-02 5.229886837792382392e-01 -2.170474675717262159e-01 -5.622855605221253050e-01 7.464837905369628990e-01 2.305641899771820602e-01 3.180996286534077400e-01 4.918171011399808390e-01 7.752326056575510327e-01 5.207615836382774033e-01 6.692280633153515623e-01 9.493200968602677481e-03 3.263616673706857402e-02 7.683033446195264293e-01 6.823349868733562529e-01 4.198984490808556624e-01 4.641691219002132551e-01 2.138806624127375516e-02 5.604453820103975081e-01 5.058119889623724497e-01 1.991908463240895655e-01 5.402972063604383202e-01 9.266040606607157670e-01 4.655857799274101816e-01 4.979876855413553627e-01 3.587380999118612857e-01 6.761471966302391445e-01 6.483284458419753538e-01 5.347362768681008793e-01 4.055347943317328951e-01 5.598503652340249825e-01 4.036073594465187236e-02 4.581468954497174284e-01 5.986293088742109525e-01 5.213838339126011245e-01 1.170935601380430728e-02 1.525076928778416052e+00 5.342111239472322470e-01 6.382408887597471603e-01 7.184099298836044145e-01 5.214777916173253258e-01 1.388341987414395406e+00 5.451177293780892219e-01 3.522165902297524354e-01 1.444313903646482711e+00 7.602606497194428492e-01 5.162443031908436897e-01 7.518452760122829037e-01 7.969492859416048569e-01 5.229951519899271872e-01 4.240703970724927774e-01 5.766111533333450057e-01 3.197889142200340262e-01 2.230317020848954002e+00 7.821980341979326568e-01 5.119659441178929515e-02 4.759141026385843021e-01 5.057522707357224867e-01 5.639936973625010452e-01 4.836427963203187019e-01 1.901164108534886266e-01 6.575990803466730261e-01 1.641271617573357267e+00 6.881710436551052856e-01 5.227081478486902411e-01 5.973045710031623656e-01 8.554598076085098146e-01 -2.138648047642623062e+00 -1.247745881103151433e+00 5.206913584311537724e-01 6.215322737660268215e-01 9.683078616777919256e-01 5.922445468300564508e-01 4.215498381947976325e-01 1.813248387032690978e-01 5.069513328727727197e-01 5.276035191843893024e-01 4.992921890113478089e-01 4.576671937090728837e-01 4.988097923331271111e-01 9.930908894605610104e-01 5.074990009148137027e-01 1.317124502848844969e+00 5.387724260008593946e-01 6.373891263761856107e-01 -5.367129400369384795e-01 5.122301077045419149e-01 1.975527826537936349e+00 5.060790588971472159e-01 5.257412839071063937e-01 6.742245367511153775e-01 5.003077672243575469e-01 5.740123540348077702e-01 5.291521776417135170e-01 4.368726678258321727e-01 4.744980474407697324e-01 -3.737486484687733701e-01 -1.726233863000133650e-01 6.716637559518882084e-01 5.201764224318028429e-02 1.009996832255639854e+00 5.554393681210200162e-01 5.315001116173475593e-01 8.741579914709451948e-01 4.988140588620556537e-01 4.872313124736605272e-01 5.244337671734290440e-01 3.499954665035689277e-02 9.706211804286047906e-01 -1.503307175195959522e-01 4.239068470070798123e-01 -9.230759111307662579e-01 7.541864032723164524e-01 -2.853925712801325676e-01 4.918243593328238683e-01 5.476595012875858925e-01 5.219961719618895213e-01 5.186962109711715785e-01 2.032177260652526574e+00 -1.615980271386863731e-01 8.254481549057580692e-01 6.604833586048919347e-01 5.575193228890573671e-01 4.476472356432570909e-01 5.232384924777786495e-01 5.219852496230839023e-01 1.067624720327885246e+00 2.460411091876532896e-01 8.522774789901170767e-01 3.105730794368375403e-01 3.984875082653834832e-01 6.446042042391643134e-01 6.018296428851050983e-01 7.730727931566808708e-01 4.917775349535594698e-01 5.213597817417796598e-01 4.029639891992147782e-01 4.594934736180922991e-02 2.185048274521711742e-01 1.082352644876506259e-01 7.565222055561117154e-01 1.144006508793378396e+00 6.698808634937043482e-01 5.158768193517507816e-01 -1.674233195253128914e-01 4.418226197891249596e-01 4.669202859945930650e-01 5.404846034213401929e-01 5.199291325927559715e-01 5.086537067609203655e-01 2.863652043723341922e+00 4.823898256021606490e-01 5.665233526715284240e-01 -9.225126118712578815e-01 5.200966508282699463e-01 5.068568133636723871e-01 2.003557353728543933e-01 5.283285240662037863e-01 9.452222968161688721e-01 4.966953732876935312e-01 4.446868563464838608e-01 5.539275585111532729e-01 6.332685513067075611e-01 5.191596832870065681e-01 8.560893061307058849e-01 6.023094188845693475e-01 5.432088136706237913e-01 4.446868457417441078e-01 1.989800504339435117e-01 1.300522422867901984e+00 5.565321704681561732e-01 4.724352539102205095e-01 4.221831543610482518e-01 -9.531901343591323017e-02 4.970851431850516478e-01 1.547270404100975216e-01 5.213369563801947271e-01 5.193566749187791265e-01 5.189585909936791364e-01 5.240721173047936388e-01 5.217321772635006294e-01 5.205231918464451324e-01 4.400647882463301075e-01 5.612726305502551138e-01 -7.209370011571492043e-01 6.240798079100828843e-01 4.626377702242708279e-01 3.538502337782827301e-01 1.597955076948068959e-02 1.337919689539425638e+00 9.715968856831079803e-01 4.908195526748120874e-01 -1.021165931070145555e-01 1.066748921340640033e+00 5.222878088052641532e-01 4.680681234684734293e-01 6.584132567698762761e-01 4.071772162722586130e-01 2.570437358725645716e-01 1.661017049374849119e-01 -1.648067451111182580e-01 -6.776464981907195928e-02 5.002622544085140177e-01 4.959371239314233071e-01 -1.183843613606338774e-01 4.363361118294054042e-01 5.196009621824433378e-01 5.187310537798499599e-01 -9.360866969802936199e-02 7.621897494706031395e-01 -2.369022885046104143e+00 6.174297479431050117e-01 -6.645203851361284331e-01 4.998242551107334730e-01 5.187479521861458887e-01 3.587391172305491316e-01 4.862655529312452929e-01 5.586325556137969883e-01 5.184429742997942459e-01 7.854574461847441125e-01 5.701263143440802317e-01 1.701378646057408961e+00 6.834943071859144181e-01 6.794804859404426356e-01 4.539802640338230222e-01 3.987502581668806445e-01 9.266040544978885185e-01 4.694961331324860598e-01 2.739437383002657267e+00 4.517473825425709077e-01 2.211369250817056820e-01 7.662359944973872183e-01 5.096635179848680863e-01 9.263940190198839408e-01 5.248226240139952647e-01 5.813714436964493304e-01 5.226298097766253203e-01 1.148147185369129630e+00 7.672437626837993463e-01 8.569615035269931846e-01 8.012142942227395981e-01 5.806567389033365778e-01 6.847641437908134066e-01 5.086575984133360206e-01 3.738252268784801879e-01 -7.464991834975115426e-01 3.906169954653704868e-01 4.507436247105777172e-01 5.543156472096103515e-01 5.142153363588992665e-01 4.992922683652128435e-01 6.113650349267341078e-01 5.203002423841732726e-01 -9.186465522517589521e-01 7.599241771357702069e-01 5.155197026253940384e-01 -1.226037598421602856e-02 4.653876057493594454e-01 1.859433836309010379e+00 5.067560389047995884e-01 5.243659787398672334e-01 4.239192411897668711e-01 -3.500508982913334677e+00 5.251331084629434764e-01 2.937160330029408239e+00 7.738265035389845226e-01 5.132315578743104068e-01 -5.707098971976887203e-01 5.258801114577028590e-01 5.230689506632784092e-01 4.526662378678656395e-01 4.494919351838291832e-01 3.394385817462728383e-01 6.506100848087066346e-01 3.138598254289906020e-01 5.246713386443975224e-01 5.241276642792039864e-01 3.541486511844483265e-01 5.271329577393915056e-01 7.743759199457801445e-01 5.221284123678630040e-01 1.212943510442290318e+00 3.677144120729410742e-02 2.239394270523694441e+00 2.682044906858468636e+00 4.869243651823547681e-01 -2.346563852114487703e-01 3.890511755263340588e-01 3.998241555995664109e-01 7.414852119338178893e-01 1.396511985045423287e+00 5.315730304774750614e-01 1.135553542575542085e+00 5.229222934157541358e-01 1.192743589810821569e-01 1.261192729031248572e+00 5.500247225016818842e-01 5.628264287690898371e-01 5.276995257342285139e-01 9.086585233311720300e-01 -3.838172488354253620e+00 1.658518744663160627e+00 5.262744359561174479e-01 6.353694219310324076e-01 5.204130660637106276e-01 1.852116387580547974e+00 2.963111675127143019e-01 5.638527140149818262e-01 4.848654709261093765e-01 5.930078126500122337e-01 1.370916801191821133e+00 5.315095477670666035e-01 4.446871944306868274e-01 4.363304121550214409e-01 6.023094243788514879e-01 4.375234417480655114e-01 5.707704772003011628e-01 9.032107000856923751e-01 5.242036299502571550e-01 3.813985680028605940e-01 1.470853148716468051e-01 6.577158247850363182e-01 5.194495423673793910e-01 2.931735429792997061e-01 5.638526767497927805e-01 6.285428271562034652e-01 5.250809600738084448e-01 1.045447828411989244e+00 9.381498205333853591e-01 1.158431657992839980e+00 5.196757689791282608e-01 2.142242200632412108e-01 9.266042587934476549e-01 -1.098544088786622686e-01 9.337701462580419998e-01 6.305105291503817488e-01 3.813310970189422860e-02 4.671104083501668724e-01 8.990005600362473981e-01 3.843612021271221590e-01 4.836051961649808217e-01 3.120154434630924567e-01 -3.405879793854171278e-01 -2.523101067653481078e+00 5.361457593998477655e-01 6.023094202675230990e-01 6.023094744356020103e-01 5.115207307858715691e-01 3.623306689826237825e-01 -2.373270978981523727e-01 2.840574884279638557e-01 5.174143925956203871e-01 7.129018609614955482e-01 5.223184317227408391e-01 1.024708703266166143e+00 4.446869362685177407e-01 5.222431639712933338e-01 4.949106222355353357e-01 2.897118608157523978e-01 6.614803602408337868e-01 5.281091854602574243e-01 5.168652520655508953e-01 4.990670261233505212e-01 3.141650346597472665e-01 1.884490260903236292e-02 6.023094207916177556e-01 6.635872279128237627e-01 5.234657436740198788e-01 3.918139491534103347e-01 8.601176414236271217e-01 7.600381231055940434e-01 5.645672859222181650e-01 1.916265162252805299e+00 4.911560078181869127e-01 -3.189136069149420827e+00 7.748746512145374687e-01 1.545053944392432266e+00 5.940975431820223474e-01 -1.111325811343979675e+00 8.394707738691096210e-01 4.362540364168964735e-01 5.324148706652457319e-01 5.123206742654250467e-01 -4.316985369017582452e-01 5.048339340948004850e-01 1.077658137378474823e+00 4.501370029218624280e-01 -4.035665946272242732e-01 5.112731464641981916e-01 5.314329268961107688e-01 7.943854827407978991e-01 4.939748715847159244e-01 6.038366240791528394e-01 -5.460951674085868790e-01 5.612133094190142613e-01 5.270201562378442617e-01 5.487831167029008084e-01 5.336699018359900570e-01 7.703026869938690568e-01 5.241371431231297562e-01 6.241546048254573709e-01 4.468419242042151462e-01 5.150415319149875826e-01 2.407369226157940467e-01 3.295831066408231869e-01 3.617902108005802142e-01 9.726717628444965236e-01 5.579215075594278206e-01 3.255601099631901807e+00 6.560146209075841117e-01 6.629138738714601686e-01 5.454825828581916225e-01 5.489016269647103430e-01 1.685044014243524194e-02 4.938052892994705956e-01 5.258563650099552511e-01 5.184899118442115595e-01 1.156900962401064215e+00 7.704776822015597659e-01 5.120712392312697370e-01 4.375598527358749990e-01 1.119710216449438800e+00 5.139973791809792081e-01 5.656211445852120656e-01 5.118020147584665391e-01 8.476525798082270580e-01 5.256182606160193505e-01 9.460744448976006193e-01 5.190127791335872320e-01 5.219744496154037350e-01 3.585226466130516515e-02 5.358641907319917630e-01 1.449590599457583479e-02 2.916837756069118326e-01 3.996770255711137865e-01 5.759774140303505208e-01 7.884195577386685638e-01 5.188314618732838834e-01 3.837692486712968032e-01 1.177088409051931378e-01 5.009382249738412174e-01 5.267378653086350893e-01 4.428568397950475299e-01 7.089957016019251060e-03 5.249204170931385249e-01 2.628467640734227784e-01 5.208115006021106774e-01 4.092412737049272997e-01 1.263550859757457179e+00 7.559209086747604722e-01 5.018034549587678805e-01 2.471627448745715994e-01 7.996162632142242987e-01 4.473075291916620566e-01 1.002623421593765940e+00 5.806853446080767478e-01 6.235459181631488601e-01 7.070120309633258771e-01 2.027796417797319339e+00 4.942480121160013895e-01 5.482068635352793651e-01 5.103460450156073192e-01 7.596160315812157116e-01 6.097784309207840980e-01 8.681843297306710561e-01 -5.850747290979441129e-01 4.037200123569203991e-01 5.237667071552558617e-01 4.356524481896228984e-01 4.352984336191460524e-01 -6.379791988563086047e-01 3.852505678219148022e-01 5.224160609054108173e-01 7.250233694956745856e-01 6.697534537146272449e-01 1.550278282799252505e+00 5.250326869991042145e-01 5.170225836504251937e-01 -7.314927591172143417e-01 5.144794060912051270e-01 1.244134884810180974e+00 7.245644624757281438e-01 2.897375997795090807e-01 2.344648652940352906e-01 -1.835759799163082517e+00 5.650871725720020278e-01 1.917434559181013243e-01 1.109421780679057834e+00 8.272671831366852357e-01 5.417230900769290924e-01 5.552980217463557855e-01 5.595757285056028874e-01 7.745864890703484384e-01 4.212016594225883037e-01 5.535414808040226564e-01 1.409091161978176347e-02 5.889704627729971387e-01 5.237233264850884584e-01 4.040148137631064396e-01 5.145680299619775910e-01 4.411765414870610913e-01 1.235604447483899415e+00 -9.703144032556225429e-02 -2.456631254774488959e-01 4.105415992461006192e-01 5.255236795557979290e-01 5.284494684044752644e-01 4.965593903646033369e-01 -8.861060545544267031e-01 3.219763265511979888e+00 4.781338111081955278e-01 4.383635388424658719e-01 4.514204121383247337e-01 5.238701744791031123e-01 5.057866195199978154e-01 4.884502274219867379e-01 3.279243762808752294e-01 6.124842076481727959e-01 5.214958676961898298e-01 4.705131296604370683e-01 3.189494603156845520e-01 4.022478310872958929e-01 5.697971499600487100e-01 4.051672036115681053e-01 5.464908459849213695e-01 5.224443630955335482e-01 6.804830093347351561e-01 1.024992491923786941e+00 2.346502206781214461e+00 4.983195029600435144e-01 5.006381663251180392e-01 3.471234777629340074e-01 4.739322203616710971e-01 3.841930286416999629e-01 5.232995642843327744e-01 5.198805989474597489e-01 4.939754552711808078e-01 5.811007694620377029e-01 5.369550213351943491e-01 7.746089300649874332e-01 3.644459031270717575e-01 3.933975663510750342e-01 3.998474515931270123e-01 4.907102637356505759e-01 1.060565348501983363e-01 9.266040527827270612e-01 5.519691343567840747e-01 8.880523160112845094e-02 1.914329597123098914e+00 3.202040332586739702e-01 4.036912895534696122e-01 5.968032696403263726e-01 6.589821756564383237e-02 5.531700950889402169e-01 1.533741019908092973e+00 8.034674024145087579e-01 6.962708085128190838e-01 5.222744260259637450e-01 5.205453039392942127e-01 4.284737776972643020e-01 6.446022100916714015e-01 5.212339073263072553e-01 5.213195044243725818e-01 -2.691194085921977952e-01 4.804867722809669228e-01 -1.600717090813783772e+00 4.900018171287559010e-01 5.215516075572421695e-01 5.275749085098548896e-01 4.239299664004441137e-01 9.266040527063718057e-01 2.238266723780111822e-01 5.093285471188822022e-01 1.371579528348683796e+00 -5.822196966776489457e-01 5.186870209673813958e-01 1.156930063658067720e+00 1.560777752416675046e+00 5.850101096468903750e-01 5.197145159375299306e-01 -6.571075071914514454e-02 -1.721509249026888400e+00 2.684448056595441501e-01 8.418449761232605910e-01 5.316266382354053466e-01 5.234211989432234757e-01 6.197449467037912108e-01 4.804314998095297606e-01 -4.267868056793275855e-01 8.348800968181196991e-01 4.992916970432872414e-01 3.249200732864212515e-01 5.132373573613751017e-01 1.153479843206938957e-03 -1.647761679298377635e-01 1.832543895322908067e+00 4.108429278202944679e-01 5.300255631108089505e-01 5.240765237812357036e-01 3.204102159861554888e-01 5.045839085509457034e-01 -1.378197940770587160e-01 -1.326043333068107843e+00 5.247480397243817762e-01 4.939856486243735523e-01 4.792282952000767593e-01 5.623087779262937458e-01 5.260714287155356939e-01 5.469862433337338015e-01 5.194551624998225980e-01 5.596161810920946555e-01 1.040095626674930163e+00 7.129093128817715064e-01 5.263761191655079719e-01 6.296799295571952060e-01 5.388273134772549877e-01 5.379103907234816795e-01 5.627011843367808741e-02 5.638526886676016314e-01 4.288658567427707791e-01 5.719348708647201684e-01 7.531053202661962542e-01 8.440782314108007389e-01 8.681718909228343106e-01 -5.445443699602953158e-01 5.259096526525190995e-01 4.650958598448480807e-01 5.187387654877095855e-01 5.959081772880217009e-01 9.149515211962246930e-01 4.996870706375241555e-01 5.193986770879771564e-01 -3.044476272406634321e-01 -9.007016084892623953e-01 2.344441253841765604e+00 5.095798658731970354e-01 9.052183929405810403e-01 4.137963836868668310e-01 5.772274546427835773e-01 3.994279476094905745e-01 1.524202794888322166e-01 5.233600771672283214e-01 5.220606488938508427e-01 -3.075833984882032305e-03 5.180941439419571859e-01 4.518207806283255357e-01 5.231838273355605695e-01 5.071382455539573675e-01 5.212858990292676964e-01 6.361904630751337164e-01 4.271947352138836806e-01 5.676890621707368911e-01 5.091778797697396053e-01 5.213064116416009641e-01 4.137497114003222953e-01 5.158042902224920789e-01 -2.500344726281595320e-01 5.171958505420982677e-01 6.416338798699839918e-01 5.602605397220147276e-01 7.752790619714993170e-01 9.266038599195073333e-01 7.256513519175692428e-01 -6.164332229368487681e-01 9.789727142810263905e-01 1.852116379444048277e+00 5.081632186392557315e-01 4.637544424696097289e-01 1.088392215339788249e+00 5.640974881010673014e-01 7.755157922103137480e-01 5.238210645414944633e-01 1.882713739049286517e+00 5.204875653137013281e-01 4.363352259217493923e-01 1.236451282098669280e+00 -6.768241506845097677e-02 4.963108003347136421e-01 -1.534775677266882188e-01 -9.881061961001574856e-01 -1.649784120273207755e-01 7.745148541979061108e-01 5.711098756774836138e-01 5.234365339236783932e-01 -3.189224530931558665e-01 5.479167354235061627e-01 5.175917272608886871e-02 -4.124367199540166506e-01 5.407790855446680256e-01 5.193993354493516845e-01 5.185266460772960384e-01 5.137692305726494491e-01 4.751411884066331637e-01 9.187627011889960560e-01 -4.434794420645737367e-01 5.235827744350807222e-01 4.952661202650097128e-01 5.854456204433173827e-01 1.176366529979250286e+00 4.823597830503942308e-01 6.882379377698643053e-01 5.222515045212896556e-01 4.960147438867951175e-02 -4.318526638997121636e-01 5.547778169682033855e-01 5.562832799708994358e-01 6.873471848089104386e-01 5.092504287879096037e-01 3.724385671994526747e-01 5.204477184754425778e-01 5.264261053188460382e-01 4.093817002917961023e-01 5.373259282292860428e-01 8.411579096205306083e-01 2.596921226685029005e+00 -2.507360152436195477e-01 6.570514089913660483e-01 3.441319608468569324e-01 2.002904289075388700e-01 6.536083629594908739e-01 -5.537449800553719687e-02 -1.591947097734396355e+00 4.955427488695723359e-01 2.659543036156103213e+00 5.872255715094949480e-01 1.690616187661428960e-01 1.554942441610169812e-01 4.992921888769793481e-01 5.917992778322409553e-01 1.585633496337334414e+00 5.177373762895806086e-01 1.260082948132614233e-01 4.151330459495509162e-01 1.741512318511391211e+00 6.012185127477965851e-01 7.925578617952587779e-01 5.253868542113324658e-01 7.379142285102213705e-01 4.652268006933589772e-01 5.818977942004093240e-01 2.588193452787665785e-02 5.194947388162327595e-01 5.737473689123463449e-01 -5.849532118381259860e-01 -1.024474353012470029e-01 1.182870439504339011e+00 2.401131995669989194e-01 4.791935462617236685e-01 7.208972822252647239e-01 5.216964038537851289e-01 2.023316645060299734e+00 6.631749875739078037e-01 1.718856576177476767e-02 3.648580177844228944e-01 3.971792261659208290e-01 1.143017610692958375e+00 5.023654626357343389e-01 -2.528010957721501389e-02 5.216438451831910683e-01 -7.460442234687511033e-03 5.350486494716164554e-01 5.231782878574494644e-01 8.082395361999271735e-03 -2.582904017942255770e-02 6.607608550367941591e-01 5.097335691509909950e-01 5.904301851726583283e-01 1.938213861492203149e-01 4.080599361082100085e-01 5.268690310631397589e-01 4.566298956272601961e-01 4.889897141534172431e-01 4.795112789401718145e-01 5.835386435858103127e-01 1.021106848737627582e+00 3.180153512240603497e+00 9.630152064183713501e-01 5.308580772601128039e-01 5.744596524868544885e-01 2.183301575154814045e-01 5.265168856702953093e-01 8.593497002980826638e-01 5.079976337907683437e-01 1.317188706509476059e+00 4.865871921695125168e-01 -5.929512383549397914e-01 -2.057211023079827741e-02 4.237382651089132146e-01 6.157174023109331928e-01 5.742732767883305112e-01 5.224759915363241802e-01 5.868036894033711037e-02 5.298311231972329116e-01 5.141510404312229499e-01 -3.831431107433326932e+00 4.783514368338377398e-01 5.137487545846423087e-01 1.139525040161985858e+00 5.259389553046219801e-01 4.257381199564101992e-01 6.732599138095582969e-01 -9.122897394618539879e-01 -4.992707055125619742e-01 2.595487666056764745e-02 5.249688806588638235e-01 5.805466762544118087e-01 2.108669679397577879e-01 5.161129395568474498e-01 -3.462800068532267961e-01 5.575964212042217039e-01 5.521063299518368384e-01 6.966364675237173287e-01 5.537813610280152288e-01 4.673895663660318500e-01 1.455626833189917479e-01 -7.837223687759620194e-01 6.553250625651909633e-01 5.624025569487764997e-01 1.551795642614615944e-01 5.250267143876738984e-01 5.250860702089024112e-01 5.113642247384020401e-01 6.673649320982993904e-01 5.803521487810744395e-01 5.497747979215050762e-01 5.040721216453338815e-01 1.852116380079392499e+00 3.509395910463529722e-01 5.339315877726922288e-01 -1.365597517302963582e-01 5.262808044610263192e-01 6.405931010582930352e-01 5.184337546913856398e-01 4.839945164603564609e-01 3.695566743418398636e-01 9.568059956112008324e-01 1.225826489642773520e+00 5.543937063537456300e-01 5.874709657501078208e-01 5.970586784085144538e-01 4.930293856560317711e-01 5.439753864083565205e-01 5.229236662233777144e-01 9.790266622068182212e-01 6.874597249413680888e-01 -4.647804911173419318e-01 4.644020646121429508e-01 9.033071025708314661e-01 5.166486399170995281e-01 -3.626632551139846727e-02 5.293719663768238215e-01 1.488423815130347938e+00 -1.384825645292479257e-01 6.492364659521094872e-01 2.356010053209235677e-01 4.689258895703540264e-01 8.679365893894704920e-01 5.203632969060205671e-01 3.736153404976980119e-01 1.411114700778516973e+00 4.692010908567347260e-01 5.186540158978365511e-01 -7.063140853517643203e-01 4.418870124050389148e-01 1.039566830232823813e+00 6.231197546076001625e-01 6.690952148648260378e-02 9.912377642877848727e-01 -2.013394890905258194e-02 7.263193632370444908e-01 1.655073064546941364e+00 -8.671350512637078234e-01 5.811159853291967270e-01 5.227361966350925204e-01 -4.790259804041873126e-01 3.021575552509658258e-01 5.803535037321956302e-01 5.117808457550437895e-01 4.800975231670582266e-01 4.218039148236528146e-01 2.627401013286483344e-01 3.476553885911836672e-01 5.784653846214482531e-01 5.188671705868205253e-01 8.882300481000044573e-03 -1.534882455509380683e-01 5.359933878802159990e-01 1.068517898736446092e+00 5.343634444935568828e-01 -5.845862074070971026e-01 4.510866968640105390e-01 5.231543931567679273e-01 5.637572703536860574e-01 4.678638683826493588e-02 3.247741922912888435e-01 5.206783783310623415e-01 5.346845664824529942e-01 4.528421952415965235e-01 -1.152316367424137573e-02 5.607054261819098828e-01 5.314346025557902253e-01 5.829051617505771610e-01 2.107869043023541611e+00 -1.134973505004448560e-02 3.889674223606386372e-01 5.743327987500245202e-01 1.855333582659113745e+00 4.898237385852298731e-01 5.515784201603858294e-01 2.567585349995668911e-02 5.638527241702465664e-01 5.190964111877857112e-01 4.778865952600595546e-01 3.967140740670559995e-01 5.193881920093404991e-01 4.326371933784525226e-01 5.130362474219827273e-01 -5.597641167190310352e-01 5.217311109427299476e-01 4.947635864979037512e-01 5.116122100049839139e-01 1.243464346763785144e+00 5.239705337586761935e-01 -2.489561424423585023e-01 1.124851182192270205e+00 -1.315625389169412962e+00 -5.431237866342444320e-01 5.451196693560449447e-01 5.215924914368569310e-01 6.650164741666207968e-01 5.213260027222076376e-01 4.921926637428762907e-01 5.211355354480029511e-01 5.638527302677859288e-01 5.246300806422374841e-01 5.022364148935147821e-01 6.019217952447445397e-01 5.250014039887005435e-01 3.171987874563533261e-01 5.200849809001368840e-01 5.411194430541842459e-01 4.057757556283226319e-01 5.330656191147673528e-01 5.211461726469760469e-01 5.234190383805313873e-01 6.546699288158951413e-01 5.222911862454949761e-01 7.183805489668942945e-01 5.124248551730113954e-01 5.359677996155290947e-01 5.378338261962090083e-01 4.149842425410338320e-01 3.633676383678708932e-01 2.473463329089931051e+00 5.009548755898871608e-01 6.247858479675880705e-01 2.967788596284369751e-01 5.797312167863309940e-01 1.120590370785146783e+00 4.154542611314449574e-01 6.913842957294368263e-01 5.219674267924361288e-01
7.167364142457638421e-01 2.983674705919110437e-01 4.483293432791151667e-01 -2.947910005472552039e-02 3.127710560264677087e-01 3.851300839042574586e-01 5.385018947476626350e-01 3.966968228307579114e-01 3.674886539395947338e-01 2.978303131812291560e-01 2.080590901425555028e+00 1.735519783624863699e+00 -1.473299814450004908e+00 5.900025547825896721e-01 3.070148340456547165e-01 4.608550766338721516e-01 1.352664002656830955e-01 4.469324560989809125e-01 4.106713903870133353e-01 2.944328225962328793e-01 4.199917697561827423e-01 2.151930324648497983e+00 3.568614479724865340e-01 3.472885892434891542e-01 7.511580692396860881e-01 -1.730885316588265110e-01 4.109045734280687978e-01 1.893801165231081551e-01 2.793822434280571754e-01 -9.264256659903483682e-01 4.441569031926802524e-01 -1.588360319143691801e-01 2.892319890400619764e-01 3.248139290497271126e-01 -4.118368306008999280e-01 5.016149102255431647e-01 3.344816087104747759e-01 -3.913294107309192027e-01 -3.304442160739761380e+00 3.322400893943352473e-01 1.196579632485766043e+00 1.460426828387684228e-01 -1.690647586584826667e-01 7.915810882709595209e-01 5.625181038600670647e-01 3.213208194378273097e-01 -2.981384558878797178e-02 3.005339730994907588e-01 1.422433024697598858e-01 6.529992741850948468e-01 6.905680708008397062e-01 5.040612749777279022e-01 -1.561210941783092720e-01 2.404427584519149008e-01 5.936099907668004327e-01 6.577978224233648197e-01 3.011954784263032314e-01 2.483586947486743080e-01 3.451449194189294412e-01 3.267924879356660095e-01 4.328812740505634804e-01 4.383576282684071290e-01 3.425185949780515937e-01 3.568614640457224430e-01 -3.423938877882786724e-01 1.229328234171267048e-01 2.991229544209957902e-01 3.095532053702761410e-01 2.343590154903824885e-01 7.069085639715976255e-01 1.576937735351075509e-01 2.448361213821382831e-01 3.135421078666200678e-01 7.253139322928275901e-01 1.945651778712514934e+00 4.198075232104521159e-01 4.778938221171527001e-01 4.826948370658277754e-01 3.104902771962680386e-01 -1.357718117507456190e+00 3.236184155651275485e-01 5.433538726285918052e-01 2.396871667772420889e+00 7.019592444036915069e-02 2.504515754613696465e-01 -3.555959752380012939e-01 1.401775643856948417e-01 2.949928288966345846e-01 -5.841456070187400762e-01 -9.108674500274425156e-01 5.625116457195626918e-01 1.611690186809625169e+00 5.465086328574271513e-02 6.805350128732424730e-01 3.629192595646172359e-01 3.459875580619974356e-01 2.696529909966848826e-01 7.831289768670104401e-01 7.366243301559425305e-01 -1.690310919648507493e-01 -1.816732798331896492e-01 5.578922275202558706e-02 3.087762319493316254e-01 2.165707224099092387e-01 -5.646713964599799768e-02 3.168540134646435913e+00 -2.948241923203450132e-01 3.349193018589370352e-01 8.089979795561856590e-02 8.120246157524254604e-01 2.729839941307082296e-01 5.243857816767193425e-01 1.618377460432098569e-01 3.730102143142245974e-01 -4.738358413561765681e-01 2.703144607412800160e-01 9.849386121248859816e-02 4.166014326651386601e-01 1.173039178442917496e+00 3.462476932869432145e-01 -1.475171159165910906e+00 1.325617172078345229e-01 7.827152755333162404e-02 1.473265748800044461e+00 3.098671678592429535e-01 2.204370915448758961e+00 3.773279407159089160e-01 2.050382114242944032e-01 3.122039257388899425e-01 3.158378855474240909e-01 3.431865291123477602e-01 3.152195049440948416e-01 6.723905966767786957e-01 4.169301156003719089e-01 1.612881177810432110e-01 8.558676284128693412e-01 7.274187346138454302e-01 7.079931695603574049e-01 -3.402473887888650128e-01 2.202873245409980862e-01 2.861709842513480151e-01 3.220930820788994176e-01 3.550539981852459115e-01 2.517305377928495402e-01 3.123372642532356580e-01 7.007428952208798467e-01 -1.794831910541289377e-01 3.193389341870969123e-01 4.243021244087644694e-01 4.033381805179390156e-01 -2.015972170645404793e-01 2.805859969901751405e-02 3.213156654455127104e-01 2.836034574924667373e-01 2.783672264357474613e-01 3.093496360553102953e-01 -2.490627320603582717e+00 4.683889888928640111e-01 -6.084124279859443041e-01 -1.736610625373651573e-01 1.472550840974440611e-01 3.725800641908831312e-01 3.091219142141022891e-01 3.112972680068587517e-01 1.291954855982055672e-01 1.162469735324670600e-01 3.196721094749061520e-01 4.862873357627952586e-01 4.520692049279785296e-01 2.818724103857049856e-01 2.227336412845812574e-01 -3.186968498430814423e-02 3.213084077944965422e-01 3.096102319394852809e-01 -2.536927702626499581e+00 6.705468582672854394e-01 5.764244857753310081e-01 9.366899645184543211e-01 -4.605226221597109593e-01 1.174659277570962113e+00 4.163945395070363376e-02 3.212426661328880995e-01 1.246158634379752828e+00 3.574984865374011278e-01 3.120594457581308823e-01 3.212742186145895462e-01 3.114410246261911652e-01 3.365243300151594674e-01 -4.994473074783914446e-01 3.240684581017584942e-01 3.272019544495347043e-01 8.242567119880620519e-01 3.021069962948085830e-01 3.631518340126512201e-01 2.483471512471680243e-01 3.081125108071158247e-01 -1.693553025080172914e+00 3.235828490412590019e-01 3.535842661576724111e-01 2.825718826533052952e-01 3.773282100884148976e-02 3.831688829079292202e-01 3.899441968640131040e-01 1.505504790501138168e-01 -7.597104987885423544e-01 3.535842396803006160e-01 4.910866089504208332e-01 -5.237098392151480208e-01 3.425709416980955435e-01 2.169936733654694305e-01 2.320616093167130189e-01 -3.306050413648667696e+00 4.283434948104842266e-01 9.142816546905194741e-01 3.269556676442073595e-01 3.121518048221146313e-01 3.123658244423921926e-01 3.239766340200916916e-01 3.052418328447784046e-01 3.151317736555464544e-01 3.729491955221291288e-01 9.089470784081601917e-02 6.718100269883012787e-01 1.059349062911632972e-01 4.537565062209293343e-01 5.222865155336803289e-01 4.085462001373200147e-01 -7.030419594497079316e-01 2.331666461916933386e+00 4.078195689370023858e-01 1.251729093444990282e+00 -1.401518409190904979e+00 3.090978203173950778e-01 2.660779658258024538e-01 3.491945586385428180e-01 1.192364161591110916e+00 5.265653600367737885e-01 8.326708820694513902e-01 2.881096099505370267e-01 6.668989551266859550e-01 2.322367964534973184e-01 2.912071600665054882e-01 -1.190799072069087527e+00 4.215977525081847088e-01 3.099142798156018230e-01 5.033360883382622664e-01 8.778276534518595353e-01 -3.808455250082365406e-01 3.219710312177484823e+00 5.018109809145734346e-01 1.302804786599149889e+00 -2.839906482291010281e-01 3.152500033575576510e-01 3.568640690896387468e-01 3.510584649730694728e-01 2.545808652136978822e-01 3.214423341475192708e-01 -1.543635199101898448e-01 9.408588279994518910e-02 5.626699948216100644e-01 2.410363619547259695e-01 1.020284931487571434e-01 2.392260087213992081e-01 4.767277964501838161e-01 4.328812641752642354e-01 2.554066694422256756e-01 3.295923047440130205e+00 3.473207754830612282e-01 6.512368878701219055e-01 5.243524257143172829e-01 2.386760555935245331e-01 4.331172065782001313e-01 3.097557353516218193e-01 3.008131417003693797e-01 3.111783406158991627e-01 -6.158661786230719137e-01 4.203267492517833714e-01 2.851683938541523244e-01 1.449529025904957302e-01 3.399833225700472084e-01 1.553051029825996077e+00 3.726255880862803793e-01 3.181951903885654742e-01 2.010484273695066104e+00 5.099254568003519505e-01 2.851194910126279569e-01 2.748041538792962979e-01 2.928271105891319115e-01 2.703150070028116359e-01 -2.074438141189010043e+00 3.098134149670808690e-01 1.589753550941811699e+00 -7.996905611856791607e-02 3.590004262189399609e-01 6.664592580607902050e-01 3.347415053749623337e-01 -7.308944771600248691e-01 3.735359532783831815e-01 3.055710753546654890e-01 4.243387027491545838e-01 -4.025064872218472867e-01 2.951569194109022742e-01 -2.343836954985655474e+00 -3.105770934006824024e-02 3.150191842258384667e-01 5.979820376778293145e-01 3.120685446651913497e-01 3.101489551126162536e-01 4.935496302968473969e-01 1.719647878680727882e-01 -8.418222888585043251e-02 -7.748434589125934302e-01 -3.201693179765458842e-03 6.883516371852711480e-01 3.168752595991808363e-01 5.006771812309169789e-01 3.041680627756947475e-01 -3.029908787119424407e-02 3.148528470125240841e-01 2.475592952219175746e+00 6.786793999347409123e-01 2.471578557937755827e-01 -1.180452770041421351e+00 2.378052820435728187e-01 4.774693439623040270e+00 4.009621208973369044e-01 -1.847883574583533972e-01 5.717798463754250049e-01 -5.679879192130203869e+00 5.301355396394140662e-01 1.576479838446488424e+00 3.137123026704887185e-01 5.257990753343051438e-01 -4.534806922722982025e-01 4.342077330063091045e-01 2.657578261474362602e-01 3.244724012317539708e-01 2.177022731815197731e-01 2.985325706644776478e+00 -3.816164957300304250e-01 3.015052531914091394e-01 -1.935079485867250648e+00 3.189822457570657965e-01 -3.913294146596694723e-01 7.576785737929466746e-01 5.034481871799388886e-01 2.601394183530689186e-01 2.830041395953818428e-01 1.265820367307691319e+00 1.548430255808336264e-01 3.535840926159932729e-01 4.216042423706216624e-01 1.505504705502082041e-01 3.601191128399346963e-01 3.875711350434716262e-01 -6.224011088726030261e-01 3.081448965605883550e-01 5.607977990656825007e-01 4.014269077352815573e-01 1.757727459592075270e-01 3.136896685919894900e-01 5.050772057529561154e-01 5.034482504888450061e-01 4.918923750237157999e-01 3.117400649519395661e-01 1.693247992197045304e-01 3.876709513458747036e-01 3.503149350430283970e+00 3.112296259202087523e-01 1.114785575190798128e-01 4.328807649153726955e-01 8.387962323119853014e-01 4.695018990031325501e-01 -1.940500937892450650e-01 6.855746543786026548e-01 3.540849580194521118e-01 1.250859435652947327e-01 4.196636334869742746e-01 6.791370863405207237e-01 5.463627821410369512e-01 7.949643276200959452e-01 8.214827665552268954e-01 2.762161264223315094e-01 1.505504790122846326e-01 1.505503916314825941e-01 2.411731369471161179e-01 2.046242416685321031e-01 1.119740992564470350e+00 3.907068468056665855e-01 3.037201571762727648e-01 2.831964299973454557e-01 3.133252514614370265e-01 7.509264156573008941e-01 3.535835991142473045e-01 3.094779507596151502e-01 4.295343110161797262e-01 2.129347249322088576e-01 -6.404157588507560783e-01 2.990505846593691786e-01 3.110919224479859468e-01 3.781047994367645049e-01 6.743401648780428248e-01 6.751888069449288876e-01 1.505504798288351542e-01 1.246922215751910812e-01 3.113144968474991781e-01 5.102549774685186668e-01 -5.948100423602591391e-01 1.762709986325443345e-01 -3.570865651357750359e+00 2.017426859774047454e+00 6.327688110623849171e-01 -4.799963103726945790e-01 -2.937758631200118251e-02 2.081380479007978845e+00 3.208699253473295543e-01 6.497686347939869433e-01 -4.932363450916843473e-02 3.854198467405187123e-01 4.051922053661726197e-01 2.930148071535305654e-01 -5.393105380016710582e-01 3.699341921047288873e-01 2.087696230293651922e+00 2.400254138677651028e-01 -4.560679765697687738e-01 2.985468091964444404e-01 3.062301948489421499e-01 -1.463573822276546199e+00 2.775243132131349766e-01 3.703704611422312665e-01 4.034686028073136699e-01 1.210596455328078747e-01 3.053241258116364265e-01 2.112573673038474487e-01 3.210102644711795294e-01 -1.612234674878417762e-01 3.060323375554466763e-01 1.058767475231076755e-01 3.028452439641839966e-01 3.049483421027109897e-01 1.173421852405041009e-02 3.833050939964365855e-01 5.187905520695713646e-01 -1.417098177227971156e+00 -6.502749515125552104e-01 -1.179653705570034572e-01 1.338661654734835393e-01 1.749843040961505392e-01 4.345859991322928439e-01 3.599200161868276182e-01 7.178907893084787162e-01 -1.390111450638569224e-01 3.320532123502034638e-01 3.169858478016702175e-01 9.535301439448297389e-02 -1.615503930423929091e-01 2.729902294206699720e-01 4.632790984384285715e-01 4.799690643067949791e-01 3.316937680679734601e-01 2.857421728135937089e-01 3.130602703566806033e-01 2.464921311816215821e-01 3.090417918952201859e-01 4.899324239202224596e-01 2.847594381157899091e-01 3.115288973740702461e-01 6.859981853088782389e-01 3.300269677246875921e-01 7.254953601537308394e-01 -6.872442783043677082e-03 5.664058226527018958e-01 2.839421128118049809e-01 -1.469744466442502784e+00 3.078027199775757450e-01 6.363063844149383641e-01 3.535992335912823137e-01 3.384083893809889942e-01 2.983817078080221452e-01 1.728016319342057516e-01 6.846061381388565126e-01 3.083384463381571572e-01 4.209760492747006699e-01 3.106264639090434709e-01 2.750507199269702219e-01 1.832355684626353620e-01 4.837666314427631620e-01 3.222146395258275176e-01 1.787821780209473688e-01 5.110880260033152239e-02 9.571300475398719643e-02 1.662935136691504834e+00 1.741877253098468026e-01 3.457678468725180476e-01 3.888766244738328104e-01 -8.627837159082228924e-01 3.262394492780231747e-01 2.346849090261103610e-01 3.266798240755307003e-01 -7.972025040155782116e-02 2.726968785631413428e-01 1.674547526460628433e+00 8.940379851514856924e-01 4.645584140010077800e-01 2.945548087041889307e-01 3.247617156679200590e-01 3.460942310111592146e-01 9.315830147473256329e-01 3.082809884915177268e+00 3.090485021425629086e-01 1.704701718758839732e-02 5.861692365642618974e-01 -2.321685652989150250e-01 3.128689254377416962e-01 3.171190378845326618e-01 1.084467918318414714e+00 3.138677961971048647e-01 -3.416747131224410206e-01 3.885862500317087687e-01 1.359374711084735676e-01 6.238532219589099093e-01 1.842078852411006773e+00 2.458890928305372814e-01 2.766779458108782896e-01 1.671010574209560895e+00 3.927896439637181825e-01 2.464767277039472126e-01 1.574201786004568726e-01 1.965094052711384431e-01 -2.946397141913619649e-02 5.198064783540370382e-01 2.441585911648712637e-01 7.185605973089900234e-01 2.765492562112626951e-01 2.126101223668418472e-01 3.260267395732585061e-01 3.876342435825390065e-01 4.202675761966763179e-01 2.626005720081521222e-01 8.848011724794928590e-01 5.160342044582307830e-01 5.018701320748042427e-01 2.992564001455157441e-01 2.420983584801613131e-01 3.050189344080149745e-01 5.920906431725617702e-01 7.786535786944377424e-01 3.701408512344734336e-01 3.208795974575671117e-01 5.786817288722587715e-01 3.142386312427848938e-01 7.032787221310862202e-01 3.123257408069810559e-01 4.761174458975923063e-01 -3.076254344799102536e-01 3.093801529654311433e-01 3.353198995307571373e-01 4.476513623979397338e-01 2.233864511225030769e-01 3.442016917653799579e-01 1.817817529174756253e+00 1.671285032736921639e-02 2.945305631602851970e-01 -2.124937513592223270e-01 1.677461409101993262e+00 1.160809878693404018e+00 3.716952795874063631e-02 -4.441578794268692398e-01 4.393384512323467717e-01 2.896787993122449945e-01 4.936993528479400317e-01 3.092975146689141974e-01 3.160196210741154643e-01 2.224600037435101874e-01 3.358426187322491874e-01 2.919632181297251439e-01 -2.912466913365822918e-02 -2.285882936354468598e-01 3.233318243281714799e-01 2.406458768952985106e-01 2.441485708345427219e-01 8.797798528057482192e-01 4.328812706046886727e-01 3.057070888643712570e-01 8.560708223259365646e-01 4.753963908075793388e-01 5.626955005079417038e-01 4.595695989251397662e-01 6.979706769119772281e-01 1.481498508500802780e+00 3.894329191525544576e-01 2.116107863911597775e+00 -2.355820987358941618e-02 1.541396680907959893e-01 3.119246272361260175e-01 3.076955269414175520e-01 3.753127132236962482e-01 2.819024827911493780e-01 3.179016427413273171e-01 3.131367202363306013e-01 3.683218052868958980e-01 2.156131361016638270e-01 -3.474033135157801877e-01 2.704972999846785853e-01 -6.173623856656736131e-02 3.028573553398613005e-01 4.244085622279857861e-01 4.328812706508187169e-01 2.276938421170984772e-01 2.167299665112135121e-01 -1.285803055646830062e+00 1.980879700887426154e+00 3.121016673642764694e-01 -7.513980962716747536e-01 2.969766692569634770e-01 3.280673092352835996e-01 3.085921464156601846e-01 -4.841712747406222483e+00 3.574541938825087861e+00 6.330651495954841002e-01 3.091020708764169109e-02 3.286492254054871331e-01 3.062998209996031784e-01 2.621076557143934282e-01 2.650377131695802468e+00 6.294042520517768580e-01 3.191387419030428108e-01 2.703145699146712877e-01 2.995460559709093307e-01 3.234622803544242031e-01 8.578801852851380971e-01 -3.738085787949370631e-01 -1.220349604306005586e+00 -1.233401649280173151e+00 3.146022840320266134e-01 3.078117409349778177e-01 7.362462461245564693e-01 3.707588153317172286e-01 1.471077542527432502e+00 4.879745796496874899e-01 3.139138615827701817e-01 3.257587135602686423e-01 3.164116279450927549e-01 3.403736852845712368e-01 3.021025681422794817e-01 6.410214137175620497e-01 2.759733182158010112e-01 6.615014656672945081e-01 2.320676334426631515e-01 5.612603859893761094e-02 3.019085786209337319e-01 1.795060568104157872e-01 2.957295102952416932e-01 2.607269988608857947e-01 6.355322765605941893e-01 5.034482192448134219e-01 3.030126841805387827e-01 2.473124861521741047e-01 3.060667163328759099e-01 2.730170035890288061e-01 1.674569833375928463e+00 1.927252287217293691e+00 3.031346966858414205e-01 3.379142842005666836e-01 3.063302139452395711e-01 1.657591552278713520e-01 2.237520387086187890e-01 3.963934853417611093e-01 3.164492826657433477e-01 3.274014652198674602e-01 8.077679724738049405e-01 8.927272890176111142e-01 2.780229716603416223e-01 1.886946614946258816e+00 3.333672675250673456e-01 -2.613683045629209278e-01 -2.718693484184256381e-01 -3.060816712677097429e-01 3.130412865546104983e-01 3.067651567378929522e-01 7.109195823182735685e-01 3.179226297095423814e-01 4.506000783465007320e-01 3.163812521686624191e-01 3.347516054488645643e-01 2.810186095120902339e-01 -5.279020570801375850e-02 1.011615959149312571e+00 3.217509755271938388e-01 3.632470123590441080e-01 3.146144197490873262e-01 3.521522442841608092e-01 3.398533536352658091e-01 3.957314467148389525e-01 -8.455379734889063859e-02 2.223277748914279928e-01 2.820935749432826323e-01 -3.005008139987251983e-02 4.328815376147142624e-01 1.098707837281324373e+00 9.687181027105760123e-01 -7.222291561905392898e-01 -3.913294106593048771e-01 6.601409969564384639e-01 -3.365795866480481457e+00 1.580326082426405598e+00 2.836107262820684038e-01 -2.932189560278577328e-02 3.086179778901014803e-01 9.018804496778460855e-01 3.075425769317281510e-01 4.215979527400982030e-01 -4.380126420838462153e-01 8.178819929922986898e-01 3.193487271351820866e-01 8.643118925705336464e-01 2.108021271507827699e+00 -3.737280619394100500e-01 -1.480323922493424815e+00 2.435442055469081435e-01 3.087504153226751646e-01 7.525581996105680238e-01 2.736715475927687935e-01 7.020363412690155958e-01 4.691186689300098078e-01 2.927376809769336452e-01 2.998478607007321051e-01 3.094846200543614478e-01 2.831654075562003992e-01 3.081329712135116305e-01 1.429359008063510350e+00 1.658859380718447074e+00 3.090499579562208110e-01 3.489437089821928462e-01 2.047079323336056245e-01 -2.483778944516451259e-01 2.242068457733099318e-01 -4.928142257855533392e-02 3.102459069325179120e-01 7.035886310421056722e-01 -5.396551614905497063e-01 2.726130832405484483e-01 2.925133766379509614e-01 1.538765668740321446e-01 3.293441376587557534e-01 1.953476350541572537e-01 3.129398124433770412e-01 3.117017712811902541e-01 4.254757185708588768e-02 2.929345627554760800e-01 4.340056205355540819e-01 1.131776771638137502e+00 1.109474997328690371e+00 9.164694868783781478e-01 2.086159936088372857e-01 7.913286672429209467e-01 1.546576265441649833e-01 4.978123042205286897e-01 -2.169766544347663473e+00 2.997502387597357765e-01 6.615636854176403236e-01 2.928036641462508083e-01 9.478591658252930596e-01 1.378650523059977040e+00 2.703144601681936599e-01 2.471070028172901722e-01 3.755262476481038836e-01 3.914066383132195903e-01 5.487127358387375864e-01 9.417356571521142694e-01 -8.110672469482852476e-01 2.380623352256759084e-01 3.520221089597704023e-02 2.987127709389010843e-01 3.408612475699851485e-01 7.648269717240090415e-01 -2.575645469864694115e-01 4.083377063344529323e-01 3.158786454611098304e-01 3.616420130553350543e-01 8.944482514545502028e-01 4.325414933552089169e-01 -2.202099080619520088e-01 8.584122823546044279e-01 -3.922209331510256858e-02 5.637051944867936815e-01 3.098971938753602440e-01 1.295188794024977774e+00 5.957606213552995023e-01 7.182660007163867988e-01 4.358352764419011760e-01 4.851847584318871309e-01 -5.818453882967626889e-01 2.266094035622796543e-01 7.540347515028532621e-01 3.195968794894321618e-01 6.122095104175970803e-01 3.136300579949698464e-01 3.125484951381903298e-01 7.166294978803982030e-01 1.599977036113025552e-01 -2.067258836036321767e+00 2.024616629240343635e-01 2.517764105897244975e-01 9.100147491211867390e-01 3.501589626587130466e-01 3.699939466978431346e-01 3.816211553254952871e-01 3.127863216402118063e-01 3.998787253994868784e-01 9.669224389834386868e-02 -1.631670052504981205e+00 7.627991112962241305e-01 2.438255826776304647e-01 3.206143022866295711e-01 2.355565860506573794e-01 8.200603861532375083e-01 3.142662665353941343e-01 -1.541878846065417030e-01 3.475292012355108984e-01 1.125087772983461409e+00 2.756427235332562509e-01 4.163194737380611632e-01 1.043170423382149270e+00 4.156536031237763607e-01 2.835142175272824083e+00 3.278699719488800679e-01 3.203898547459148038e-01 7.101795900907525994e-01 3.039789015366549108e-01 3.376885077801092816e-01 -2.160424359278924289e+00 4.519641839788587356e-01 3.129943906320118985e-01 5.187599317423052803e-01 3.075603418509391673e-01 1.940979937460472482e-01 -1.798639523623027370e-01 2.077277538346210761e+00 -5.184740733459943796e-01 8.259840292575637566e-01 3.101603331059693547e-01 3.004009374731273496e-01 8.416658994711057051e-01 2.868915340376565482e-01 1.344178773856263609e+00 2.207827973307267544e-01 3.960061499926910700e-01 -8.867606662922962180e-01 -1.314005500729856502e-01 -5.628326714243798712e-01 -4.044181477813637571e+00 2.994050223386319320e+00 2.274164695565637426e-02 2.851939236110523357e-01 -1.659057145966204461e+00 3.139751067786352712e-01 4.165732298058718586e-01 3.286355155908206593e-01 1.792058102989458057e-01 6.425209224713799294e-01 6.031211828458246105e-01 1.086746799962191812e+00 -3.913294109393528619e-01 -2.353640100888212128e-01 2.458905413062234258e-01 -1.196166035812711526e+00 2.876642447867722163e-01 -6.563065046105853728e-01 2.978262941649092999e-01 4.470745144433209139e-01 1.056723585235846974e-01 4.565129231891922879e-01 2.633174924546860529e-01 -2.601727502179063817e-02 2.462911745658838414e-01 2.849643595113452998e-01 3.661288616759996173e-01 3.335142681920938990e-01 3.146552294010713235e-01 -7.222516492998742876e-01 4.809479628003101026e-01 1.546270053365162545e+00 7.465024785472781921e-02 2.359907152559619914e-01 2.496111874305937395e-01 1.204661693966471381e+00 3.343829031941631946e-01 9.726690316915620471e-02 8.860190654352865236e-01 2.421353806118254626e-01 1.884434965113305438e+00 2.776572797278435423e-01 1.347944899815526121e+00 3.269899277326210885e-01 7.346582511915067393e-01 1.356852074406207587e+00 3.902430483032633401e-01 2.989325179044997616e-01 9.463648202983260260e-01 -1.853029586326841449e-01 -6.574813986601592275e-02 2.396906271662235799e-01 3.050816254164518404e-01 3.624163469329858001e-01 1.451639161809361867e-01 1.214385665130562342e-01 -3.834778222537009729e-01 1.292286454387508332e+00 2.975829035352915430e-01 3.142708312420945393e-01 -3.245200176598030506e+00 5.569141085236459787e-01 2.327709116989184757e-01 3.647490559873824978e-01 3.773448156394925701e-01 4.392372595897675036e-01 -1.116440966630904308e+00 6.315062000372478890e-01 2.933811103708907075e-01 3.158431184995998398e-01 1.021949929945005886e+00 4.665381203778143915e-01 3.026253391648396907e-01 -1.416439728662985731e+00 3.647200428646850678e-01 8.945665948193053385e-01 3.514690841809689492e-01 3.006680297929840151e-01 3.070325382964471106e-01 7.115804194168435792e-01 -5.025061651640955196e-02 3.141204452709301376e-01 2.947579828541984637e-01 9.674905901505218009e-02 6.674467717438480330e-01 2.488892624547150989e-01 6.939437378348631835e-01 1.806530179151808746e-01 6.930514479545880624e-01 -2.452108767360088870e-01 -1.511535972111284654e+00 2.853791894923787265e-01 -2.062815026936965293e-02 2.901270336983323150e-01 3.624015579510825869e-01 5.533493536322450779e-02 5.034482448908865759e-01 3.155429022049133780e-01 8.353932199154520677e-02 4.304466746250091291e-01 3.241251679746793846e-01 2.896876600567424576e-01 3.113032651819309105e-01 -8.594701382671262602e-01 3.109126048111322538e-01 3.056606603363718477e-01 2.945157818278555384e-01 -3.118408822275766656e-01 3.058309795845243206e-01 8.347888056746264329e-01 -6.063233929811082668e-01 1.133719921016458354e+00 6.188326359693778755e-01 3.008162365329205001e-01 3.140309135626227488e-01 -2.064299277012933143e+00 3.136717417108110251e-01 2.353665674580793232e-01 3.047566961896492344e-01 5.034481790746540009e-01 3.088778710673487637e-01 3.416737636243731280e-01 5.992663500454460668e-02 3.139927230384654822e-01 4.339920392524204140e-01 3.058967395998590799e-01 2.382442256290733806e-01 2.842531133104054253e-01 3.038874558446377216e-01 3.132962543090545005e-01 2.967982412623049182e-01 1.200996553157689523e-01 3.067433139557544930e-01 6.266784214824658861e-01 1.644220665514533330e-01 3.120899645998115313e-01 -1.472541467352658506e-01 1.900976879453004365e-01 6.328004240061585461e-01 4.554963337571533266e+00 3.401653589126005794e-01 6.974874574248057790e-02 5.682594474933840845e-01 1.776295017205238580e-01 1.568345869063271003e+00 3.352937715017064724e-01 6.351735011084217453e-01 3.150841798336343480e-01
