# 
#                 ----------------------------------------------------
#                 Data from a 3D direct N-body simulation. 
# 
#                 rows are i-particle; 
#                 coumns are :mass, tag, x ,y, z, vx, vy, vz, ax, ay, az
# 
#                 NTHU, Computational Physics 
# 
#                 ----------------------------------------------------
#                 Time = 0.0
0.000000000000000000e+00 1.000000000000000000e+00 2.000000000000000000e+00 3.000000000000000000e+00 4.000000000000000000e+00 5.000000000000000000e+00 6.000000000000000000e+00 7.000000000000000000e+00 8.000000000000000000e+00 9.000000000000000000e+00 1.000000000000000000e+01 1.100000000000000000e+01 1.200000000000000000e+01 1.300000000000000000e+01 1.400000000000000000e+01 1.500000000000000000e+01 1.600000000000000000e+01 1.700000000000000000e+01 1.800000000000000000e+01 1.900000000000000000e+01 2.000000000000000000e+01 2.100000000000000000e+01 2.200000000000000000e+01 2.300000000000000000e+01 2.400000000000000000e+01 2.500000000000000000e+01 2.600000000000000000e+01 2.700000000000000000e+01 2.800000000000000000e+01 2.900000000000000000e+01 3.000000000000000000e+01 3.100000000000000000e+01 3.200000000000000000e+01 3.300000000000000000e+01 3.400000000000000000e+01 3.500000000000000000e+01 3.600000000000000000e+01 3.700000000000000000e+01 3.800000000000000000e+01 3.900000000000000000e+01 4.000000000000000000e+01 4.100000000000000000e+01 4.200000000000000000e+01 4.300000000000000000e+01 4.400000000000000000e+01 4.500000000000000000e+01 4.600000000000000000e+01 4.700000000000000000e+01 4.800000000000000000e+01 4.900000000000000000e+01 5.000000000000000000e+01 5.100000000000000000e+01 5.200000000000000000e+01 5.300000000000000000e+01 5.400000000000000000e+01 5.500000000000000000e+01 5.600000000000000000e+01 5.700000000000000000e+01 5.800000000000000000e+01 5.900000000000000000e+01 6.000000000000000000e+01 6.100000000000000000e+01 6.200000000000000000e+01 6.300000000000000000e+01 6.400000000000000000e+01 6.500000000000000000e+01 6.600000000000000000e+01 6.700000000000000000e+01 6.800000000000000000e+01 6.900000000000000000e+01 7.000000000000000000e+01 7.100000000000000000e+01 7.200000000000000000e+01 7.300000000000000000e+01 7.400000000000000000e+01 7.500000000000000000e+01 7.600000000000000000e+01 7.700000000000000000e+01 7.800000000000000000e+01 7.900000000000000000e+01 8.000000000000000000e+01 8.100000000000000000e+01 8.200000000000000000e+01 8.300000000000000000e+01 8.400000000000000000e+01 8.500000000000000000e+01 8.600000000000000000e+01 8.700000000000000000e+01 8.800000000000000000e+01 8.900000000000000000e+01 9.000000000000000000e+01 9.100000000000000000e+01 9.200000000000000000e+01 9.300000000000000000e+01 9.400000000000000000e+01 9.500000000000000000e+01 9.600000000000000000e+01 9.700000000000000000e+01 9.800000000000000000e+01 9.900000000000000000e+01 1.000000000000000000e+02 1.010000000000000000e+02 1.020000000000000000e+02 1.030000000000000000e+02 1.040000000000000000e+02 1.050000000000000000e+02 1.060000000000000000e+02 1.070000000000000000e+02 1.080000000000000000e+02 1.090000000000000000e+02 1.100000000000000000e+02 1.110000000000000000e+02 1.120000000000000000e+02 1.130000000000000000e+02 1.140000000000000000e+02 1.150000000000000000e+02 1.160000000000000000e+02 1.170000000000000000e+02 1.180000000000000000e+02 1.190000000000000000e+02 1.200000000000000000e+02 1.210000000000000000e+02 1.220000000000000000e+02 1.230000000000000000e+02 1.240000000000000000e+02 1.250000000000000000e+02 1.260000000000000000e+02 1.270000000000000000e+02 1.280000000000000000e+02 1.290000000000000000e+02 1.300000000000000000e+02 1.310000000000000000e+02 1.320000000000000000e+02 1.330000000000000000e+02 1.340000000000000000e+02 1.350000000000000000e+02 1.360000000000000000e+02 1.370000000000000000e+02 1.380000000000000000e+02 1.390000000000000000e+02 1.400000000000000000e+02 1.410000000000000000e+02 1.420000000000000000e+02 1.430000000000000000e+02 1.440000000000000000e+02 1.450000000000000000e+02 1.460000000000000000e+02 1.470000000000000000e+02 1.480000000000000000e+02 1.490000000000000000e+02 1.500000000000000000e+02 1.510000000000000000e+02 1.520000000000000000e+02 1.530000000000000000e+02 1.540000000000000000e+02 1.550000000000000000e+02 1.560000000000000000e+02 1.570000000000000000e+02 1.580000000000000000e+02 1.590000000000000000e+02 1.600000000000000000e+02 1.610000000000000000e+02 1.620000000000000000e+02 1.630000000000000000e+02 1.640000000000000000e+02 1.650000000000000000e+02 1.660000000000000000e+02 1.670000000000000000e+02 1.680000000000000000e+02 1.690000000000000000e+02 1.700000000000000000e+02 1.710000000000000000e+02 1.720000000000000000e+02 1.730000000000000000e+02 1.740000000000000000e+02 1.750000000000000000e+02 1.760000000000000000e+02 1.770000000000000000e+02 1.780000000000000000e+02 1.790000000000000000e+02 1.800000000000000000e+02 1.810000000000000000e+02 1.820000000000000000e+02 1.830000000000000000e+02 1.840000000000000000e+02 1.850000000000000000e+02 1.860000000000000000e+02 1.870000000000000000e+02 1.880000000000000000e+02 1.890000000000000000e+02 1.900000000000000000e+02 1.910000000000000000e+02 1.920000000000000000e+02 1.930000000000000000e+02 1.940000000000000000e+02 1.950000000000000000e+02 1.960000000000000000e+02 1.970000000000000000e+02 1.980000000000000000e+02 1.990000000000000000e+02 2.000000000000000000e+02 2.010000000000000000e+02 2.020000000000000000e+02 2.030000000000000000e+02 2.040000000000000000e+02 2.050000000000000000e+02 2.060000000000000000e+02 2.070000000000000000e+02 2.080000000000000000e+02 2.090000000000000000e+02 2.100000000000000000e+02 2.110000000000000000e+02 2.120000000000000000e+02 2.130000000000000000e+02 2.140000000000000000e+02 2.150000000000000000e+02 2.160000000000000000e+02 2.170000000000000000e+02 2.180000000000000000e+02 2.190000000000000000e+02 2.200000000000000000e+02 2.210000000000000000e+02 2.220000000000000000e+02 2.230000000000000000e+02 2.240000000000000000e+02 2.250000000000000000e+02 2.260000000000000000e+02 2.270000000000000000e+02 2.280000000000000000e+02 2.290000000000000000e+02 2.300000000000000000e+02 2.310000000000000000e+02 2.320000000000000000e+02 2.330000000000000000e+02 2.340000000000000000e+02 2.350000000000000000e+02 2.360000000000000000e+02 2.370000000000000000e+02 2.380000000000000000e+02 2.390000000000000000e+02 2.400000000000000000e+02 2.410000000000000000e+02 2.420000000000000000e+02 2.430000000000000000e+02 2.440000000000000000e+02 2.450000000000000000e+02 2.460000000000000000e+02 2.470000000000000000e+02 2.480000000000000000e+02 2.490000000000000000e+02 2.500000000000000000e+02 2.510000000000000000e+02 2.520000000000000000e+02 2.530000000000000000e+02 2.540000000000000000e+02 2.550000000000000000e+02 2.560000000000000000e+02 2.570000000000000000e+02 2.580000000000000000e+02 2.590000000000000000e+02 2.600000000000000000e+02 2.610000000000000000e+02 2.620000000000000000e+02 2.630000000000000000e+02 2.640000000000000000e+02 2.650000000000000000e+02 2.660000000000000000e+02 2.670000000000000000e+02 2.680000000000000000e+02 2.690000000000000000e+02 2.700000000000000000e+02 2.710000000000000000e+02 2.720000000000000000e+02 2.730000000000000000e+02 2.740000000000000000e+02 2.750000000000000000e+02 2.760000000000000000e+02 2.770000000000000000e+02 2.780000000000000000e+02 2.790000000000000000e+02 2.800000000000000000e+02 2.810000000000000000e+02 2.820000000000000000e+02 2.830000000000000000e+02 2.840000000000000000e+02 2.850000000000000000e+02 2.860000000000000000e+02 2.870000000000000000e+02 2.880000000000000000e+02 2.890000000000000000e+02 2.900000000000000000e+02 2.910000000000000000e+02 2.920000000000000000e+02 2.930000000000000000e+02 2.940000000000000000e+02 2.950000000000000000e+02 2.960000000000000000e+02 2.970000000000000000e+02 2.980000000000000000e+02 2.990000000000000000e+02 3.000000000000000000e+02 3.010000000000000000e+02 3.020000000000000000e+02 3.030000000000000000e+02 3.040000000000000000e+02 3.050000000000000000e+02 3.060000000000000000e+02 3.070000000000000000e+02 3.080000000000000000e+02 3.090000000000000000e+02 3.100000000000000000e+02 3.110000000000000000e+02 3.120000000000000000e+02 3.130000000000000000e+02 3.140000000000000000e+02 3.150000000000000000e+02 3.160000000000000000e+02 3.170000000000000000e+02 3.180000000000000000e+02 3.190000000000000000e+02 3.200000000000000000e+02 3.210000000000000000e+02 3.220000000000000000e+02 3.230000000000000000e+02 3.240000000000000000e+02 3.250000000000000000e+02 3.260000000000000000e+02 3.270000000000000000e+02 3.280000000000000000e+02 3.290000000000000000e+02 3.300000000000000000e+02 3.310000000000000000e+02 3.320000000000000000e+02 3.330000000000000000e+02 3.340000000000000000e+02 3.350000000000000000e+02 3.360000000000000000e+02 3.370000000000000000e+02 3.380000000000000000e+02 3.390000000000000000e+02 3.400000000000000000e+02 3.410000000000000000e+02 3.420000000000000000e+02 3.430000000000000000e+02 3.440000000000000000e+02 3.450000000000000000e+02 3.460000000000000000e+02 3.470000000000000000e+02 3.480000000000000000e+02 3.490000000000000000e+02 3.500000000000000000e+02 3.510000000000000000e+02 3.520000000000000000e+02 3.530000000000000000e+02 3.540000000000000000e+02 3.550000000000000000e+02 3.560000000000000000e+02 3.570000000000000000e+02 3.580000000000000000e+02 3.590000000000000000e+02 3.600000000000000000e+02 3.610000000000000000e+02 3.620000000000000000e+02 3.630000000000000000e+02 3.640000000000000000e+02 3.650000000000000000e+02 3.660000000000000000e+02 3.670000000000000000e+02 3.680000000000000000e+02 3.690000000000000000e+02 3.700000000000000000e+02 3.710000000000000000e+02 3.720000000000000000e+02 3.730000000000000000e+02 3.740000000000000000e+02 3.750000000000000000e+02 3.760000000000000000e+02 3.770000000000000000e+02 3.780000000000000000e+02 3.790000000000000000e+02 3.800000000000000000e+02 3.810000000000000000e+02 3.820000000000000000e+02 3.830000000000000000e+02 3.840000000000000000e+02 3.850000000000000000e+02 3.860000000000000000e+02 3.870000000000000000e+02 3.880000000000000000e+02 3.890000000000000000e+02 3.900000000000000000e+02 3.910000000000000000e+02 3.920000000000000000e+02 3.930000000000000000e+02 3.940000000000000000e+02 3.950000000000000000e+02 3.960000000000000000e+02 3.970000000000000000e+02 3.980000000000000000e+02 3.990000000000000000e+02 4.000000000000000000e+02 4.010000000000000000e+02 4.020000000000000000e+02 4.030000000000000000e+02 4.040000000000000000e+02 4.050000000000000000e+02 4.060000000000000000e+02 4.070000000000000000e+02 4.080000000000000000e+02 4.090000000000000000e+02 4.100000000000000000e+02 4.110000000000000000e+02 4.120000000000000000e+02 4.130000000000000000e+02 4.140000000000000000e+02 4.150000000000000000e+02 4.160000000000000000e+02 4.170000000000000000e+02 4.180000000000000000e+02 4.190000000000000000e+02 4.200000000000000000e+02 4.210000000000000000e+02 4.220000000000000000e+02 4.230000000000000000e+02 4.240000000000000000e+02 4.250000000000000000e+02 4.260000000000000000e+02 4.270000000000000000e+02 4.280000000000000000e+02 4.290000000000000000e+02 4.300000000000000000e+02 4.310000000000000000e+02 4.320000000000000000e+02 4.330000000000000000e+02 4.340000000000000000e+02 4.350000000000000000e+02 4.360000000000000000e+02 4.370000000000000000e+02 4.380000000000000000e+02 4.390000000000000000e+02 4.400000000000000000e+02 4.410000000000000000e+02 4.420000000000000000e+02 4.430000000000000000e+02 4.440000000000000000e+02 4.450000000000000000e+02 4.460000000000000000e+02 4.470000000000000000e+02 4.480000000000000000e+02 4.490000000000000000e+02 4.500000000000000000e+02 4.510000000000000000e+02 4.520000000000000000e+02 4.530000000000000000e+02 4.540000000000000000e+02 4.550000000000000000e+02 4.560000000000000000e+02 4.570000000000000000e+02 4.580000000000000000e+02 4.590000000000000000e+02 4.600000000000000000e+02 4.610000000000000000e+02 4.620000000000000000e+02 4.630000000000000000e+02 4.640000000000000000e+02 4.650000000000000000e+02 4.660000000000000000e+02 4.670000000000000000e+02 4.680000000000000000e+02 4.690000000000000000e+02 4.700000000000000000e+02 4.710000000000000000e+02 4.720000000000000000e+02 4.730000000000000000e+02 4.740000000000000000e+02 4.750000000000000000e+02 4.760000000000000000e+02 4.770000000000000000e+02 4.780000000000000000e+02 4.790000000000000000e+02 4.800000000000000000e+02 4.810000000000000000e+02 4.820000000000000000e+02 4.830000000000000000e+02 4.840000000000000000e+02 4.850000000000000000e+02 4.860000000000000000e+02 4.870000000000000000e+02 4.880000000000000000e+02 4.890000000000000000e+02 4.900000000000000000e+02 4.910000000000000000e+02 4.920000000000000000e+02 4.930000000000000000e+02 4.940000000000000000e+02 4.950000000000000000e+02 4.960000000000000000e+02 4.970000000000000000e+02 4.980000000000000000e+02 4.990000000000000000e+02 5.000000000000000000e+02 5.010000000000000000e+02 5.020000000000000000e+02 5.030000000000000000e+02 5.040000000000000000e+02 5.050000000000000000e+02 5.060000000000000000e+02 5.070000000000000000e+02 5.080000000000000000e+02 5.090000000000000000e+02 5.100000000000000000e+02 5.110000000000000000e+02 5.120000000000000000e+02 5.130000000000000000e+02 5.140000000000000000e+02 5.150000000000000000e+02 5.160000000000000000e+02 5.170000000000000000e+02 5.180000000000000000e+02 5.190000000000000000e+02 5.200000000000000000e+02 5.210000000000000000e+02 5.220000000000000000e+02 5.230000000000000000e+02 5.240000000000000000e+02 5.250000000000000000e+02 5.260000000000000000e+02 5.270000000000000000e+02 5.280000000000000000e+02 5.290000000000000000e+02 5.300000000000000000e+02 5.310000000000000000e+02 5.320000000000000000e+02 5.330000000000000000e+02 5.340000000000000000e+02 5.350000000000000000e+02 5.360000000000000000e+02 5.370000000000000000e+02 5.380000000000000000e+02 5.390000000000000000e+02 5.400000000000000000e+02 5.410000000000000000e+02 5.420000000000000000e+02 5.430000000000000000e+02 5.440000000000000000e+02 5.450000000000000000e+02 5.460000000000000000e+02 5.470000000000000000e+02 5.480000000000000000e+02 5.490000000000000000e+02 5.500000000000000000e+02 5.510000000000000000e+02 5.520000000000000000e+02 5.530000000000000000e+02 5.540000000000000000e+02 5.550000000000000000e+02 5.560000000000000000e+02 5.570000000000000000e+02 5.580000000000000000e+02 5.590000000000000000e+02 5.600000000000000000e+02 5.610000000000000000e+02 5.620000000000000000e+02 5.630000000000000000e+02 5.640000000000000000e+02 5.650000000000000000e+02 5.660000000000000000e+02 5.670000000000000000e+02 5.680000000000000000e+02 5.690000000000000000e+02 5.700000000000000000e+02 5.710000000000000000e+02 5.720000000000000000e+02 5.730000000000000000e+02 5.740000000000000000e+02 5.750000000000000000e+02 5.760000000000000000e+02 5.770000000000000000e+02 5.780000000000000000e+02 5.790000000000000000e+02 5.800000000000000000e+02 5.810000000000000000e+02 5.820000000000000000e+02 5.830000000000000000e+02 5.840000000000000000e+02 5.850000000000000000e+02 5.860000000000000000e+02 5.870000000000000000e+02 5.880000000000000000e+02 5.890000000000000000e+02 5.900000000000000000e+02 5.910000000000000000e+02 5.920000000000000000e+02 5.930000000000000000e+02 5.940000000000000000e+02 5.950000000000000000e+02 5.960000000000000000e+02 5.970000000000000000e+02 5.980000000000000000e+02 5.990000000000000000e+02 6.000000000000000000e+02 6.010000000000000000e+02 6.020000000000000000e+02 6.030000000000000000e+02 6.040000000000000000e+02 6.050000000000000000e+02 6.060000000000000000e+02 6.070000000000000000e+02 6.080000000000000000e+02 6.090000000000000000e+02 6.100000000000000000e+02 6.110000000000000000e+02 6.120000000000000000e+02 6.130000000000000000e+02 6.140000000000000000e+02 6.150000000000000000e+02 6.160000000000000000e+02 6.170000000000000000e+02 6.180000000000000000e+02 6.190000000000000000e+02 6.200000000000000000e+02 6.210000000000000000e+02 6.220000000000000000e+02 6.230000000000000000e+02 6.240000000000000000e+02 6.250000000000000000e+02 6.260000000000000000e+02 6.270000000000000000e+02 6.280000000000000000e+02 6.290000000000000000e+02 6.300000000000000000e+02 6.310000000000000000e+02 6.320000000000000000e+02 6.330000000000000000e+02 6.340000000000000000e+02 6.350000000000000000e+02 6.360000000000000000e+02 6.370000000000000000e+02 6.380000000000000000e+02 6.390000000000000000e+02 6.400000000000000000e+02 6.410000000000000000e+02 6.420000000000000000e+02 6.430000000000000000e+02 6.440000000000000000e+02 6.450000000000000000e+02 6.460000000000000000e+02 6.470000000000000000e+02 6.480000000000000000e+02 6.490000000000000000e+02 6.500000000000000000e+02 6.510000000000000000e+02 6.520000000000000000e+02 6.530000000000000000e+02 6.540000000000000000e+02 6.550000000000000000e+02 6.560000000000000000e+02 6.570000000000000000e+02 6.580000000000000000e+02 6.590000000000000000e+02 6.600000000000000000e+02 6.610000000000000000e+02 6.620000000000000000e+02 6.630000000000000000e+02 6.640000000000000000e+02 6.650000000000000000e+02 6.660000000000000000e+02 6.670000000000000000e+02 6.680000000000000000e+02 6.690000000000000000e+02 6.700000000000000000e+02 6.710000000000000000e+02 6.720000000000000000e+02 6.730000000000000000e+02 6.740000000000000000e+02 6.750000000000000000e+02 6.760000000000000000e+02 6.770000000000000000e+02 6.780000000000000000e+02 6.790000000000000000e+02 6.800000000000000000e+02 6.810000000000000000e+02 6.820000000000000000e+02 6.830000000000000000e+02 6.840000000000000000e+02 6.850000000000000000e+02 6.860000000000000000e+02 6.870000000000000000e+02 6.880000000000000000e+02 6.890000000000000000e+02 6.900000000000000000e+02 6.910000000000000000e+02 6.920000000000000000e+02 6.930000000000000000e+02 6.940000000000000000e+02 6.950000000000000000e+02 6.960000000000000000e+02 6.970000000000000000e+02 6.980000000000000000e+02 6.990000000000000000e+02 7.000000000000000000e+02 7.010000000000000000e+02 7.020000000000000000e+02 7.030000000000000000e+02 7.040000000000000000e+02 7.050000000000000000e+02 7.060000000000000000e+02 7.070000000000000000e+02 7.080000000000000000e+02 7.090000000000000000e+02 7.100000000000000000e+02 7.110000000000000000e+02 7.120000000000000000e+02 7.130000000000000000e+02 7.140000000000000000e+02 7.150000000000000000e+02 7.160000000000000000e+02 7.170000000000000000e+02 7.180000000000000000e+02 7.190000000000000000e+02 7.200000000000000000e+02 7.210000000000000000e+02 7.220000000000000000e+02 7.230000000000000000e+02 7.240000000000000000e+02 7.250000000000000000e+02 7.260000000000000000e+02 7.270000000000000000e+02 7.280000000000000000e+02 7.290000000000000000e+02 7.300000000000000000e+02 7.310000000000000000e+02 7.320000000000000000e+02 7.330000000000000000e+02 7.340000000000000000e+02 7.350000000000000000e+02 7.360000000000000000e+02 7.370000000000000000e+02 7.380000000000000000e+02 7.390000000000000000e+02 7.400000000000000000e+02 7.410000000000000000e+02 7.420000000000000000e+02 7.430000000000000000e+02 7.440000000000000000e+02 7.450000000000000000e+02 7.460000000000000000e+02 7.470000000000000000e+02 7.480000000000000000e+02 7.490000000000000000e+02 7.500000000000000000e+02 7.510000000000000000e+02 7.520000000000000000e+02 7.530000000000000000e+02 7.540000000000000000e+02 7.550000000000000000e+02 7.560000000000000000e+02 7.570000000000000000e+02 7.580000000000000000e+02 7.590000000000000000e+02 7.600000000000000000e+02 7.610000000000000000e+02 7.620000000000000000e+02 7.630000000000000000e+02 7.640000000000000000e+02 7.650000000000000000e+02 7.660000000000000000e+02 7.670000000000000000e+02 7.680000000000000000e+02 7.690000000000000000e+02 7.700000000000000000e+02 7.710000000000000000e+02 7.720000000000000000e+02 7.730000000000000000e+02 7.740000000000000000e+02 7.750000000000000000e+02 7.760000000000000000e+02 7.770000000000000000e+02 7.780000000000000000e+02 7.790000000000000000e+02 7.800000000000000000e+02 7.810000000000000000e+02 7.820000000000000000e+02 7.830000000000000000e+02 7.840000000000000000e+02 7.850000000000000000e+02 7.860000000000000000e+02 7.870000000000000000e+02 7.880000000000000000e+02 7.890000000000000000e+02 7.900000000000000000e+02 7.910000000000000000e+02 7.920000000000000000e+02 7.930000000000000000e+02 7.940000000000000000e+02 7.950000000000000000e+02 7.960000000000000000e+02 7.970000000000000000e+02 7.980000000000000000e+02 7.990000000000000000e+02 8.000000000000000000e+02 8.010000000000000000e+02 8.020000000000000000e+02 8.030000000000000000e+02 8.040000000000000000e+02 8.050000000000000000e+02 8.060000000000000000e+02 8.070000000000000000e+02 8.080000000000000000e+02 8.090000000000000000e+02 8.100000000000000000e+02 8.110000000000000000e+02 8.120000000000000000e+02 8.130000000000000000e+02 8.140000000000000000e+02 8.150000000000000000e+02 8.160000000000000000e+02 8.170000000000000000e+02 8.180000000000000000e+02 8.190000000000000000e+02 8.200000000000000000e+02 8.210000000000000000e+02 8.220000000000000000e+02 8.230000000000000000e+02 8.240000000000000000e+02 8.250000000000000000e+02 8.260000000000000000e+02 8.270000000000000000e+02 8.280000000000000000e+02 8.290000000000000000e+02 8.300000000000000000e+02 8.310000000000000000e+02 8.320000000000000000e+02 8.330000000000000000e+02 8.340000000000000000e+02 8.350000000000000000e+02 8.360000000000000000e+02 8.370000000000000000e+02 8.380000000000000000e+02 8.390000000000000000e+02 8.400000000000000000e+02 8.410000000000000000e+02 8.420000000000000000e+02 8.430000000000000000e+02 8.440000000000000000e+02 8.450000000000000000e+02 8.460000000000000000e+02 8.470000000000000000e+02 8.480000000000000000e+02 8.490000000000000000e+02 8.500000000000000000e+02 8.510000000000000000e+02 8.520000000000000000e+02 8.530000000000000000e+02 8.540000000000000000e+02 8.550000000000000000e+02 8.560000000000000000e+02 8.570000000000000000e+02 8.580000000000000000e+02 8.590000000000000000e+02 8.600000000000000000e+02 8.610000000000000000e+02 8.620000000000000000e+02 8.630000000000000000e+02 8.640000000000000000e+02 8.650000000000000000e+02 8.660000000000000000e+02 8.670000000000000000e+02 8.680000000000000000e+02 8.690000000000000000e+02 8.700000000000000000e+02 8.710000000000000000e+02 8.720000000000000000e+02 8.730000000000000000e+02 8.740000000000000000e+02 8.750000000000000000e+02 8.760000000000000000e+02 8.770000000000000000e+02 8.780000000000000000e+02 8.790000000000000000e+02 8.800000000000000000e+02 8.810000000000000000e+02 8.820000000000000000e+02 8.830000000000000000e+02 8.840000000000000000e+02 8.850000000000000000e+02 8.860000000000000000e+02 8.870000000000000000e+02 8.880000000000000000e+02 8.890000000000000000e+02 8.900000000000000000e+02 8.910000000000000000e+02 8.920000000000000000e+02 8.930000000000000000e+02 8.940000000000000000e+02 8.950000000000000000e+02 8.960000000000000000e+02 8.970000000000000000e+02 8.980000000000000000e+02 8.990000000000000000e+02 9.000000000000000000e+02 9.010000000000000000e+02 9.020000000000000000e+02 9.030000000000000000e+02 9.040000000000000000e+02 9.050000000000000000e+02 9.060000000000000000e+02 9.070000000000000000e+02 9.080000000000000000e+02 9.090000000000000000e+02 9.100000000000000000e+02 9.110000000000000000e+02 9.120000000000000000e+02 9.130000000000000000e+02 9.140000000000000000e+02 9.150000000000000000e+02 9.160000000000000000e+02 9.170000000000000000e+02 9.180000000000000000e+02 9.190000000000000000e+02 9.200000000000000000e+02 9.210000000000000000e+02 9.220000000000000000e+02 9.230000000000000000e+02 9.240000000000000000e+02 9.250000000000000000e+02 9.260000000000000000e+02 9.270000000000000000e+02 9.280000000000000000e+02 9.290000000000000000e+02 9.300000000000000000e+02 9.310000000000000000e+02 9.320000000000000000e+02 9.330000000000000000e+02 9.340000000000000000e+02 9.350000000000000000e+02 9.360000000000000000e+02 9.370000000000000000e+02 9.380000000000000000e+02 9.390000000000000000e+02 9.400000000000000000e+02 9.410000000000000000e+02 9.420000000000000000e+02 9.430000000000000000e+02 9.440000000000000000e+02 9.450000000000000000e+02 9.460000000000000000e+02 9.470000000000000000e+02 9.480000000000000000e+02 9.490000000000000000e+02 9.500000000000000000e+02 9.510000000000000000e+02 9.520000000000000000e+02 9.530000000000000000e+02 9.540000000000000000e+02 9.550000000000000000e+02 9.560000000000000000e+02 9.570000000000000000e+02 9.580000000000000000e+02 9.590000000000000000e+02 9.600000000000000000e+02 9.610000000000000000e+02 9.620000000000000000e+02 9.630000000000000000e+02 9.640000000000000000e+02 9.650000000000000000e+02 9.660000000000000000e+02 9.670000000000000000e+02 9.680000000000000000e+02 9.690000000000000000e+02 9.700000000000000000e+02 9.710000000000000000e+02 9.720000000000000000e+02 9.730000000000000000e+02 9.740000000000000000e+02 9.750000000000000000e+02 9.760000000000000000e+02 9.770000000000000000e+02 9.780000000000000000e+02 9.790000000000000000e+02 9.800000000000000000e+02 9.810000000000000000e+02 9.820000000000000000e+02 9.830000000000000000e+02 9.840000000000000000e+02 9.850000000000000000e+02 9.860000000000000000e+02 9.870000000000000000e+02 9.880000000000000000e+02 9.890000000000000000e+02 9.900000000000000000e+02 9.910000000000000000e+02 9.920000000000000000e+02 9.930000000000000000e+02 9.940000000000000000e+02 9.950000000000000000e+02 9.960000000000000000e+02 9.970000000000000000e+02 9.980000000000000000e+02 9.990000000000000000e+02
1.000000000000000000e+00 1.000000000000000000e+00 1.000000000000000000e+00 1.000000000000000000e+00 1.000000000000000000e+00 1.000000000000000000e+00 1.000000000000000000e+00 1.000000000000000000e+00 1.000000000000000000e+00 1.000000000000000000e+00 1.000000000000000000e+00 1.000000000000000000e+00 1.000000000000000000e+00 1.000000000000000000e+00 1.000000000000000000e+00 1.000000000000000000e+00 1.000000000000000000e+00 1.000000000000000000e+00 1.000000000000000000e+00 1.000000000000000000e+00 1.000000000000000000e+00 1.000000000000000000e+00 1.000000000000000000e+00 1.000000000000000000e+00 1.000000000000000000e+00 1.000000000000000000e+00 1.000000000000000000e+00 1.000000000000000000e+00 1.000000000000000000e+00 1.000000000000000000e+00 1.000000000000000000e+00 1.000000000000000000e+00 1.000000000000000000e+00 1.000000000000000000e+00 1.000000000000000000e+00 1.000000000000000000e+00 1.000000000000000000e+00 1.000000000000000000e+00 1.000000000000000000e+00 1.000000000000000000e+00 1.000000000000000000e+00 1.000000000000000000e+00 1.000000000000000000e+00 1.000000000000000000e+00 1.000000000000000000e+00 1.000000000000000000e+00 1.000000000000000000e+00 1.000000000000000000e+00 1.000000000000000000e+00 1.000000000000000000e+00 1.000000000000000000e+00 1.000000000000000000e+00 1.000000000000000000e+00 1.000000000000000000e+00 1.000000000000000000e+00 1.000000000000000000e+00 1.000000000000000000e+00 1.000000000000000000e+00 1.000000000000000000e+00 1.000000000000000000e+00 1.000000000000000000e+00 1.000000000000000000e+00 1.000000000000000000e+00 1.000000000000000000e+00 1.000000000000000000e+00 1.000000000000000000e+00 1.000000000000000000e+00 1.000000000000000000e+00 1.000000000000000000e+00 1.000000000000000000e+00 1.000000000000000000e+00 1.000000000000000000e+00 1.000000000000000000e+00 1.000000000000000000e+00 1.000000000000000000e+00 1.000000000000000000e+00 1.000000000000000000e+00 1.000000000000000000e+00 1.000000000000000000e+00 1.000000000000000000e+00 1.000000000000000000e+00 1.000000000000000000e+00 1.000000000000000000e+00 1.000000000000000000e+00 1.000000000000000000e+00 1.000000000000000000e+00 1.000000000000000000e+00 1.000000000000000000e+00 1.000000000000000000e+00 1.000000000000000000e+00 1.000000000000000000e+00 1.000000000000000000e+00 1.000000000000000000e+00 1.000000000000000000e+00 1.000000000000000000e+00 1.000000000000000000e+00 1.000000000000000000e+00 1.000000000000000000e+00 1.000000000000000000e+00 1.000000000000000000e+00 1.000000000000000000e+00 1.000000000000000000e+00 1.000000000000000000e+00 1.000000000000000000e+00 1.000000000000000000e+00 1.000000000000000000e+00 1.000000000000000000e+00 1.000000000000000000e+00 1.000000000000000000e+00 1.000000000000000000e+00 1.000000000000000000e+00 1.000000000000000000e+00 1.000000000000000000e+00 1.000000000000000000e+00 1.000000000000000000e+00 1.000000000000000000e+00 1.000000000000000000e+00 1.000000000000000000e+00 1.000000000000000000e+00 1.000000000000000000e+00 1.000000000000000000e+00 1.000000000000000000e+00 1.000000000000000000e+00 1.000000000000000000e+00 1.000000000000000000e+00 1.000000000000000000e+00 1.000000000000000000e+00 1.000000000000000000e+00 1.000000000000000000e+00 1.000000000000000000e+00 1.000000000000000000e+00 1.000000000000000000e+00 1.000000000000000000e+00 1.000000000000000000e+00 1.000000000000000000e+00 1.000000000000000000e+00 1.000000000000000000e+00 1.000000000000000000e+00 1.000000000000000000e+00 1.000000000000000000e+00 1.000000000000000000e+00 1.000000000000000000e+00 1.000000000000000000e+00 1.000000000000000000e+00 1.000000000000000000e+00 1.000000000000000000e+00 1.000000000000000000e+00 1.000000000000000000e+00 1.000000000000000000e+00 1.000000000000000000e+00 1.000000000000000000e+00 1.000000000000000000e+00 1.000000000000000000e+00 1.000000000000000000e+00 1.000000000000000000e+00 1.000000000000000000e+00 1.000000000000000000e+00 1.000000000000000000e+00 1.000000000000000000e+00 1.000000000000000000e+00 1.000000000000000000e+00 1.000000000000000000e+00 1.000000000000000000e+00 1.000000000000000000e+00 1.000000000000000000e+00 1.000000000000000000e+00 1.000000000000000000e+00 1.000000000000000000e+00 1.000000000000000000e+00 1.000000000000000000e+00 1.000000000000000000e+00 1.000000000000000000e+00 1.000000000000000000e+00 1.000000000000000000e+00 1.000000000000000000e+00 1.000000000000000000e+00 1.000000000000000000e+00 1.000000000000000000e+00 1.000000000000000000e+00 1.000000000000000000e+00 1.000000000000000000e+00 1.000000000000000000e+00 1.000000000000000000e+00 1.000000000000000000e+00 1.000000000000000000e+00 1.000000000000000000e+00 1.000000000000000000e+00 1.000000000000000000e+00 1.000000000000000000e+00 1.000000000000000000e+00 1.000000000000000000e+00 1.000000000000000000e+00 1.000000000000000000e+00 1.000000000000000000e+00 1.000000000000000000e+00 1.000000000000000000e+00 1.000000000000000000e+00 1.000000000000000000e+00 1.000000000000000000e+00 1.000000000000000000e+00 1.000000000000000000e+00 1.000000000000000000e+00 1.000000000000000000e+00 1.000000000000000000e+00 1.000000000000000000e+00 1.000000000000000000e+00 1.000000000000000000e+00 1.000000000000000000e+00 1.000000000000000000e+00 1.000000000000000000e+00 1.000000000000000000e+00 1.000000000000000000e+00 1.000000000000000000e+00 1.000000000000000000e+00 1.000000000000000000e+00 1.000000000000000000e+00 1.000000000000000000e+00 1.000000000000000000e+00 1.000000000000000000e+00 1.000000000000000000e+00 1.000000000000000000e+00 1.000000000000000000e+00 1.000000000000000000e+00 1.000000000000000000e+00 1.000000000000000000e+00 1.000000000000000000e+00 1.000000000000000000e+00 1.000000000000000000e+00 1.000000000000000000e+00 1.000000000000000000e+00 1.000000000000000000e+00 1.000000000000000000e+00 1.000000000000000000e+00 1.000000000000000000e+00 1.000000000000000000e+00 1.000000000000000000e+00 1.000000000000000000e+00 1.000000000000000000e+00 1.000000000000000000e+00 1.000000000000000000e+00 1.000000000000000000e+00 1.000000000000000000e+00 1.000000000000000000e+00 1.000000000000000000e+00 1.000000000000000000e+00 1.000000000000000000e+00 1.000000000000000000e+00 1.000000000000000000e+00 1.000000000000000000e+00 1.000000000000000000e+00 1.000000000000000000e+00 1.000000000000000000e+00 1.000000000000000000e+00 1.000000000000000000e+00 1.000000000000000000e+00 1.000000000000000000e+00 1.000000000000000000e+00 1.000000000000000000e+00 1.000000000000000000e+00 1.000000000000000000e+00 1.000000000000000000e+00 1.000000000000000000e+00 1.000000000000000000e+00 1.000000000000000000e+00 1.000000000000000000e+00 1.000000000000000000e+00 1.000000000000000000e+00 1.000000000000000000e+00 1.000000000000000000e+00 1.000000000000000000e+00 1.000000000000000000e+00 1.000000000000000000e+00 1.000000000000000000e+00 1.000000000000000000e+00 1.000000000000000000e+00 1.000000000000000000e+00 1.000000000000000000e+00 1.000000000000000000e+00 1.000000000000000000e+00 1.000000000000000000e+00 1.000000000000000000e+00 1.000000000000000000e+00 1.000000000000000000e+00 1.000000000000000000e+00 1.000000000000000000e+00 1.000000000000000000e+00 1.000000000000000000e+00 1.000000000000000000e+00 1.000000000000000000e+00 1.000000000000000000e+00 1.000000000000000000e+00 1.000000000000000000e+00 1.000000000000000000e+00 1.000000000000000000e+00 1.000000000000000000e+00 1.000000000000000000e+00 1.000000000000000000e+00 1.000000000000000000e+00 1.000000000000000000e+00 1.000000000000000000e+00 1.000000000000000000e+00 1.000000000000000000e+00 1.000000000000000000e+00 1.000000000000000000e+00 1.000000000000000000e+00 1.000000000000000000e+00 1.000000000000000000e+00 1.000000000000000000e+00 1.000000000000000000e+00 1.000000000000000000e+00 1.000000000000000000e+00 1.000000000000000000e+00 1.000000000000000000e+00 1.000000000000000000e+00 1.000000000000000000e+00 1.000000000000000000e+00 1.000000000000000000e+00 1.000000000000000000e+00 1.000000000000000000e+00 1.000000000000000000e+00 1.000000000000000000e+00 1.000000000000000000e+00 1.000000000000000000e+00 1.000000000000000000e+00 1.000000000000000000e+00 1.000000000000000000e+00 1.000000000000000000e+00 1.000000000000000000e+00 1.000000000000000000e+00 1.000000000000000000e+00 1.000000000000000000e+00 1.000000000000000000e+00 1.000000000000000000e+00 1.000000000000000000e+00 1.000000000000000000e+00 1.000000000000000000e+00 1.000000000000000000e+00 1.000000000000000000e+00 1.000000000000000000e+00 1.000000000000000000e+00 1.000000000000000000e+00 1.000000000000000000e+00 1.000000000000000000e+00 1.000000000000000000e+00 1.000000000000000000e+00 1.000000000000000000e+00 1.000000000000000000e+00 1.000000000000000000e+00 1.000000000000000000e+00 1.000000000000000000e+00 1.000000000000000000e+00 1.000000000000000000e+00 1.000000000000000000e+00 1.000000000000000000e+00 1.000000000000000000e+00 1.000000000000000000e+00 1.000000000000000000e+00 1.000000000000000000e+00 1.000000000000000000e+00 1.000000000000000000e+00 1.000000000000000000e+00 1.000000000000000000e+00 1.000000000000000000e+00 1.000000000000000000e+00 1.000000000000000000e+00 1.000000000000000000e+00 1.000000000000000000e+00 1.000000000000000000e+00 1.000000000000000000e+00 1.000000000000000000e+00 1.000000000000000000e+00 1.000000000000000000e+00 1.000000000000000000e+00 1.000000000000000000e+00 1.000000000000000000e+00 1.000000000000000000e+00 1.000000000000000000e+00 1.000000000000000000e+00 1.000000000000000000e+00 1.000000000000000000e+00 1.000000000000000000e+00 1.000000000000000000e+00 1.000000000000000000e+00 1.000000000000000000e+00 1.000000000000000000e+00 1.000000000000000000e+00 1.000000000000000000e+00 1.000000000000000000e+00 1.000000000000000000e+00 1.000000000000000000e+00 1.000000000000000000e+00 1.000000000000000000e+00 1.000000000000000000e+00 1.000000000000000000e+00 1.000000000000000000e+00 1.000000000000000000e+00 1.000000000000000000e+00 1.000000000000000000e+00 1.000000000000000000e+00 1.000000000000000000e+00 1.000000000000000000e+00 1.000000000000000000e+00 1.000000000000000000e+00 1.000000000000000000e+00 1.000000000000000000e+00 1.000000000000000000e+00 1.000000000000000000e+00 1.000000000000000000e+00 1.000000000000000000e+00 1.000000000000000000e+00 1.000000000000000000e+00 1.000000000000000000e+00 1.000000000000000000e+00 1.000000000000000000e+00 1.000000000000000000e+00 1.000000000000000000e+00 1.000000000000000000e+00 1.000000000000000000e+00 1.000000000000000000e+00 1.000000000000000000e+00 1.000000000000000000e+00 1.000000000000000000e+00 1.000000000000000000e+00 1.000000000000000000e+00 1.000000000000000000e+00 1.000000000000000000e+00 1.000000000000000000e+00 1.000000000000000000e+00 1.000000000000000000e+00 1.000000000000000000e+00 1.000000000000000000e+00 1.000000000000000000e+00 1.000000000000000000e+00 1.000000000000000000e+00 1.000000000000000000e+00 1.000000000000000000e+00 1.000000000000000000e+00 1.000000000000000000e+00 1.000000000000000000e+00 1.000000000000000000e+00 1.000000000000000000e+00 1.000000000000000000e+00 1.000000000000000000e+00 1.000000000000000000e+00 1.000000000000000000e+00 1.000000000000000000e+00 1.000000000000000000e+00 1.000000000000000000e+00 1.000000000000000000e+00 1.000000000000000000e+00 1.000000000000000000e+00 1.000000000000000000e+00 1.000000000000000000e+00 1.000000000000000000e+00 1.000000000000000000e+00 1.000000000000000000e+00 1.000000000000000000e+00 1.000000000000000000e+00 1.000000000000000000e+00 1.000000000000000000e+00 1.000000000000000000e+00 1.000000000000000000e+00 1.000000000000000000e+00 1.000000000000000000e+00 1.000000000000000000e+00 1.000000000000000000e+00 1.000000000000000000e+00 1.000000000000000000e+00 1.000000000000000000e+00 1.000000000000000000e+00 1.000000000000000000e+00 1.000000000000000000e+00 1.000000000000000000e+00 1.000000000000000000e+00 1.000000000000000000e+00 1.000000000000000000e+00 1.000000000000000000e+00 1.000000000000000000e+00 1.000000000000000000e+00 1.000000000000000000e+00 1.000000000000000000e+00 1.000000000000000000e+00 1.000000000000000000e+00 1.000000000000000000e+00 1.000000000000000000e+00 1.000000000000000000e+00 1.000000000000000000e+00 1.000000000000000000e+00 1.000000000000000000e+00 1.000000000000000000e+00 1.000000000000000000e+00 1.000000000000000000e+00 1.000000000000000000e+00 1.000000000000000000e+00 1.000000000000000000e+00 1.000000000000000000e+00 1.000000000000000000e+00 1.000000000000000000e+00 1.000000000000000000e+00 1.000000000000000000e+00 1.000000000000000000e+00 1.000000000000000000e+00 1.000000000000000000e+00 1.000000000000000000e+00 1.000000000000000000e+00 1.000000000000000000e+00 1.000000000000000000e+00 1.000000000000000000e+00 1.000000000000000000e+00 1.000000000000000000e+00 1.000000000000000000e+00 1.000000000000000000e+00 1.000000000000000000e+00 1.000000000000000000e+00 1.000000000000000000e+00 1.000000000000000000e+00 1.000000000000000000e+00 1.000000000000000000e+00 1.000000000000000000e+00 1.000000000000000000e+00 1.000000000000000000e+00 1.000000000000000000e+00 1.000000000000000000e+00 1.000000000000000000e+00 1.000000000000000000e+00 1.000000000000000000e+00 1.000000000000000000e+00 1.000000000000000000e+00 1.000000000000000000e+00 1.000000000000000000e+00 1.000000000000000000e+00 1.000000000000000000e+00 1.000000000000000000e+00 1.000000000000000000e+00 1.000000000000000000e+00 1.000000000000000000e+00 1.000000000000000000e+00 1.000000000000000000e+00 1.000000000000000000e+00 1.000000000000000000e+00 1.000000000000000000e+00 1.000000000000000000e+00 1.000000000000000000e+00 1.000000000000000000e+00 1.000000000000000000e+00 1.000000000000000000e+00 1.000000000000000000e+00 1.000000000000000000e+00 1.000000000000000000e+00 1.000000000000000000e+00 1.000000000000000000e+00 1.000000000000000000e+00 1.000000000000000000e+00 1.000000000000000000e+00 1.000000000000000000e+00 1.000000000000000000e+00 1.000000000000000000e+00 1.000000000000000000e+00 1.000000000000000000e+00 1.000000000000000000e+00 1.000000000000000000e+00 1.000000000000000000e+00 1.000000000000000000e+00 1.000000000000000000e+00 1.000000000000000000e+00 1.000000000000000000e+00 1.000000000000000000e+00 1.000000000000000000e+00 1.000000000000000000e+00 1.000000000000000000e+00 1.000000000000000000e+00 1.000000000000000000e+00 1.000000000000000000e+00 1.000000000000000000e+00 1.000000000000000000e+00 1.000000000000000000e+00 1.000000000000000000e+00 1.000000000000000000e+00 1.000000000000000000e+00 1.000000000000000000e+00 1.000000000000000000e+00 1.000000000000000000e+00 1.000000000000000000e+00 1.000000000000000000e+00 1.000000000000000000e+00 1.000000000000000000e+00 1.000000000000000000e+00 1.000000000000000000e+00 1.000000000000000000e+00 1.000000000000000000e+00 1.000000000000000000e+00 1.000000000000000000e+00 1.000000000000000000e+00 1.000000000000000000e+00 1.000000000000000000e+00 1.000000000000000000e+00 1.000000000000000000e+00 1.000000000000000000e+00 1.000000000000000000e+00 1.000000000000000000e+00 1.000000000000000000e+00 1.000000000000000000e+00 1.000000000000000000e+00 1.000000000000000000e+00 1.000000000000000000e+00 1.000000000000000000e+00 1.000000000000000000e+00 1.000000000000000000e+00 1.000000000000000000e+00 1.000000000000000000e+00 1.000000000000000000e+00 1.000000000000000000e+00 1.000000000000000000e+00 1.000000000000000000e+00 1.000000000000000000e+00 1.000000000000000000e+00 1.000000000000000000e+00 1.000000000000000000e+00 1.000000000000000000e+00 1.000000000000000000e+00 1.000000000000000000e+00 1.000000000000000000e+00 1.000000000000000000e+00 1.000000000000000000e+00 1.000000000000000000e+00 1.000000000000000000e+00 1.000000000000000000e+00 1.000000000000000000e+00 1.000000000000000000e+00 1.000000000000000000e+00 1.000000000000000000e+00 1.000000000000000000e+00 1.000000000000000000e+00 1.000000000000000000e+00 1.000000000000000000e+00 1.000000000000000000e+00 1.000000000000000000e+00 1.000000000000000000e+00 1.000000000000000000e+00 1.000000000000000000e+00 1.000000000000000000e+00 1.000000000000000000e+00 1.000000000000000000e+00 1.000000000000000000e+00 1.000000000000000000e+00 1.000000000000000000e+00 1.000000000000000000e+00 1.000000000000000000e+00 1.000000000000000000e+00 1.000000000000000000e+00 1.000000000000000000e+00 1.000000000000000000e+00 1.000000000000000000e+00 1.000000000000000000e+00 1.000000000000000000e+00 1.000000000000000000e+00 1.000000000000000000e+00 1.000000000000000000e+00 1.000000000000000000e+00 1.000000000000000000e+00 1.000000000000000000e+00 1.000000000000000000e+00 1.000000000000000000e+00 1.000000000000000000e+00 1.000000000000000000e+00 1.000000000000000000e+00 1.000000000000000000e+00 1.000000000000000000e+00 1.000000000000000000e+00 1.000000000000000000e+00 1.000000000000000000e+00 1.000000000000000000e+00 1.000000000000000000e+00 1.000000000000000000e+00 1.000000000000000000e+00 1.000000000000000000e+00 1.000000000000000000e+00 1.000000000000000000e+00 1.000000000000000000e+00 1.000000000000000000e+00 1.000000000000000000e+00 1.000000000000000000e+00 1.000000000000000000e+00 1.000000000000000000e+00 1.000000000000000000e+00 1.000000000000000000e+00 1.000000000000000000e+00 1.000000000000000000e+00 1.000000000000000000e+00 1.000000000000000000e+00 1.000000000000000000e+00 1.000000000000000000e+00 1.000000000000000000e+00 1.000000000000000000e+00 1.000000000000000000e+00 1.000000000000000000e+00 1.000000000000000000e+00 1.000000000000000000e+00 1.000000000000000000e+00 1.000000000000000000e+00 1.000000000000000000e+00 1.000000000000000000e+00 1.000000000000000000e+00 1.000000000000000000e+00 1.000000000000000000e+00 1.000000000000000000e+00 1.000000000000000000e+00 1.000000000000000000e+00 1.000000000000000000e+00 1.000000000000000000e+00 1.000000000000000000e+00 1.000000000000000000e+00 1.000000000000000000e+00 1.000000000000000000e+00 1.000000000000000000e+00 1.000000000000000000e+00 1.000000000000000000e+00 1.000000000000000000e+00 1.000000000000000000e+00 1.000000000000000000e+00 1.000000000000000000e+00 1.000000000000000000e+00 1.000000000000000000e+00 1.000000000000000000e+00 1.000000000000000000e+00 1.000000000000000000e+00 1.000000000000000000e+00 1.000000000000000000e+00 1.000000000000000000e+00 1.000000000000000000e+00 1.000000000000000000e+00 1.000000000000000000e+00 1.000000000000000000e+00 1.000000000000000000e+00 1.000000000000000000e+00 1.000000000000000000e+00 1.000000000000000000e+00 1.000000000000000000e+00 1.000000000000000000e+00 1.000000000000000000e+00 1.000000000000000000e+00 1.000000000000000000e+00 1.000000000000000000e+00 1.000000000000000000e+00 1.000000000000000000e+00 1.000000000000000000e+00 1.000000000000000000e+00 1.000000000000000000e+00 1.000000000000000000e+00 1.000000000000000000e+00 1.000000000000000000e+00 1.000000000000000000e+00 1.000000000000000000e+00 1.000000000000000000e+00 1.000000000000000000e+00 1.000000000000000000e+00 1.000000000000000000e+00 1.000000000000000000e+00 1.000000000000000000e+00 1.000000000000000000e+00 1.000000000000000000e+00 1.000000000000000000e+00 1.000000000000000000e+00 1.000000000000000000e+00 1.000000000000000000e+00 1.000000000000000000e+00 1.000000000000000000e+00 1.000000000000000000e+00 1.000000000000000000e+00 1.000000000000000000e+00 1.000000000000000000e+00 1.000000000000000000e+00 1.000000000000000000e+00 1.000000000000000000e+00 1.000000000000000000e+00 1.000000000000000000e+00 1.000000000000000000e+00 1.000000000000000000e+00 1.000000000000000000e+00 1.000000000000000000e+00 1.000000000000000000e+00 1.000000000000000000e+00 1.000000000000000000e+00 1.000000000000000000e+00 1.000000000000000000e+00 1.000000000000000000e+00 1.000000000000000000e+00 1.000000000000000000e+00 1.000000000000000000e+00 1.000000000000000000e+00 1.000000000000000000e+00 1.000000000000000000e+00 1.000000000000000000e+00 1.000000000000000000e+00 1.000000000000000000e+00 1.000000000000000000e+00 1.000000000000000000e+00 1.000000000000000000e+00 1.000000000000000000e+00 1.000000000000000000e+00 1.000000000000000000e+00 1.000000000000000000e+00 1.000000000000000000e+00 1.000000000000000000e+00 1.000000000000000000e+00 1.000000000000000000e+00 1.000000000000000000e+00 1.000000000000000000e+00 1.000000000000000000e+00 1.000000000000000000e+00 1.000000000000000000e+00 1.000000000000000000e+00 1.000000000000000000e+00 1.000000000000000000e+00 1.000000000000000000e+00 1.000000000000000000e+00 1.000000000000000000e+00 1.000000000000000000e+00 1.000000000000000000e+00 1.000000000000000000e+00 1.000000000000000000e+00 1.000000000000000000e+00 1.000000000000000000e+00 1.000000000000000000e+00 1.000000000000000000e+00 1.000000000000000000e+00 1.000000000000000000e+00 1.000000000000000000e+00 1.000000000000000000e+00 1.000000000000000000e+00 1.000000000000000000e+00 1.000000000000000000e+00 1.000000000000000000e+00 1.000000000000000000e+00 1.000000000000000000e+00 1.000000000000000000e+00 1.000000000000000000e+00 1.000000000000000000e+00 1.000000000000000000e+00 1.000000000000000000e+00 1.000000000000000000e+00 1.000000000000000000e+00 1.000000000000000000e+00 1.000000000000000000e+00 1.000000000000000000e+00 1.000000000000000000e+00 1.000000000000000000e+00 1.000000000000000000e+00 1.000000000000000000e+00 1.000000000000000000e+00 1.000000000000000000e+00 1.000000000000000000e+00 1.000000000000000000e+00 1.000000000000000000e+00 1.000000000000000000e+00 1.000000000000000000e+00 1.000000000000000000e+00 1.000000000000000000e+00 1.000000000000000000e+00 1.000000000000000000e+00 1.000000000000000000e+00 1.000000000000000000e+00 1.000000000000000000e+00 1.000000000000000000e+00 1.000000000000000000e+00 1.000000000000000000e+00 1.000000000000000000e+00 1.000000000000000000e+00 1.000000000000000000e+00 1.000000000000000000e+00 1.000000000000000000e+00 1.000000000000000000e+00 1.000000000000000000e+00 1.000000000000000000e+00 1.000000000000000000e+00 1.000000000000000000e+00 1.000000000000000000e+00 1.000000000000000000e+00 1.000000000000000000e+00 1.000000000000000000e+00 1.000000000000000000e+00 1.000000000000000000e+00 1.000000000000000000e+00 1.000000000000000000e+00 1.000000000000000000e+00 1.000000000000000000e+00 1.000000000000000000e+00 1.000000000000000000e+00 1.000000000000000000e+00 1.000000000000000000e+00 1.000000000000000000e+00 1.000000000000000000e+00 1.000000000000000000e+00 1.000000000000000000e+00 1.000000000000000000e+00 1.000000000000000000e+00 1.000000000000000000e+00 1.000000000000000000e+00 1.000000000000000000e+00 1.000000000000000000e+00 1.000000000000000000e+00 1.000000000000000000e+00 1.000000000000000000e+00 1.000000000000000000e+00 1.000000000000000000e+00 1.000000000000000000e+00 1.000000000000000000e+00 1.000000000000000000e+00 1.000000000000000000e+00 1.000000000000000000e+00 1.000000000000000000e+00 1.000000000000000000e+00 1.000000000000000000e+00 1.000000000000000000e+00 1.000000000000000000e+00 1.000000000000000000e+00 1.000000000000000000e+00 1.000000000000000000e+00 1.000000000000000000e+00 1.000000000000000000e+00 1.000000000000000000e+00 1.000000000000000000e+00 1.000000000000000000e+00 1.000000000000000000e+00 1.000000000000000000e+00 1.000000000000000000e+00 1.000000000000000000e+00 1.000000000000000000e+00 1.000000000000000000e+00 1.000000000000000000e+00 1.000000000000000000e+00 1.000000000000000000e+00 1.000000000000000000e+00 1.000000000000000000e+00 1.000000000000000000e+00 1.000000000000000000e+00 1.000000000000000000e+00 1.000000000000000000e+00 1.000000000000000000e+00 1.000000000000000000e+00 1.000000000000000000e+00 1.000000000000000000e+00 1.000000000000000000e+00 1.000000000000000000e+00 1.000000000000000000e+00 1.000000000000000000e+00 1.000000000000000000e+00 1.000000000000000000e+00 1.000000000000000000e+00 1.000000000000000000e+00 1.000000000000000000e+00 1.000000000000000000e+00 1.000000000000000000e+00 1.000000000000000000e+00 1.000000000000000000e+00 1.000000000000000000e+00 1.000000000000000000e+00 1.000000000000000000e+00 1.000000000000000000e+00 1.000000000000000000e+00 1.000000000000000000e+00 1.000000000000000000e+00 1.000000000000000000e+00 1.000000000000000000e+00 1.000000000000000000e+00 1.000000000000000000e+00 1.000000000000000000e+00 1.000000000000000000e+00 1.000000000000000000e+00 1.000000000000000000e+00 1.000000000000000000e+00 1.000000000000000000e+00 1.000000000000000000e+00 1.000000000000000000e+00 1.000000000000000000e+00 1.000000000000000000e+00 1.000000000000000000e+00 1.000000000000000000e+00 1.000000000000000000e+00 1.000000000000000000e+00 1.000000000000000000e+00 1.000000000000000000e+00 1.000000000000000000e+00 1.000000000000000000e+00 1.000000000000000000e+00 1.000000000000000000e+00 1.000000000000000000e+00 1.000000000000000000e+00 1.000000000000000000e+00 1.000000000000000000e+00 1.000000000000000000e+00 1.000000000000000000e+00 1.000000000000000000e+00 1.000000000000000000e+00 1.000000000000000000e+00 1.000000000000000000e+00 1.000000000000000000e+00 1.000000000000000000e+00 1.000000000000000000e+00 1.000000000000000000e+00
5.715578018538098465e-02 5.210108249989429119e-01 -2.829497531263659438e-01 7.758903189625103725e-01 5.232810580770957953e-01 5.428681710599919663e-01 5.760440992860811349e-01 3.802135619305742620e-01 5.649489535622346237e-01 5.232096669287348290e-01 1.086087354553126882e+00 -7.290630287336292703e-01 1.422034934690487917e+00 4.670965828365707395e-01 5.242529052203143136e-01 4.163932127604792477e-01 8.425854358884674600e-01 9.799560346812827838e-01 7.457502846104435701e-01 5.279199030357100142e-01 3.692397529814848145e-01 9.936586050609745868e-01 3.573738348548810562e-01 5.522434618140900087e-01 6.953736115188081934e-02 6.645603072916749232e-01 4.110973830166401166e-01 7.105212014633662809e-01 5.170709287308956625e-01 1.628860635849205041e+00 4.926964258177707889e-01 6.038365881764872212e-01 7.185026965426740686e-01 5.134979084646809078e-01 6.917315510846087090e-01 4.606498801991716352e-01 5.639139194465868643e-01 1.854960538776114776e+00 -9.083667195590214294e-02 5.204520414565591002e-01 -2.190758435268440052e-01 -5.622934185046075672e-01 7.463542530667551800e-01 2.307504251910955928e-01 3.196351982983652307e-01 4.920287663333577366e-01 7.759773924108256393e-01 5.253002691281521974e-01 6.711859301188041194e-01 9.371892726885018912e-03 3.330144773856191093e-02 7.657153539045612467e-01 6.825745113458687729e-01 4.192229406067475850e-01 4.645695687231289339e-01 2.168674962145314411e-02 5.626382858022053179e-01 5.049463862902460187e-01 1.995673322932419724e-01 5.430378156695747638e-01 9.271666177216340010e-01 4.632870725460810357e-01 4.967106691187859746e-01 3.573736811577494232e-01 6.759162439536798850e-01 6.508542569323615412e-01 5.344543964150608728e-01 4.110435014905371442e-01 5.585779532850541074e-01 4.183859167770096615e-02 4.603295956918754261e-01 5.985411081073428452e-01 5.201327612342036000e-01 1.225900446631085147e-02 1.525901813867664547e+00 5.330033982539431614e-01 6.383986813448387920e-01 7.177304025979113211e-01 5.227401151109164479e-01 1.388558501880601925e+00 5.448446006391453045e-01 3.540029009565568985e-01 1.446203712138664610e+00 7.617787776741991035e-01 5.172537219681521137e-01 7.516312966236168291e-01 7.967664390770670124e-01 5.197450040881850253e-01 4.245848688948186678e-01 5.766403664747802305e-01 3.218000890864526342e-01 2.232711998682605614e+00 7.834259177980313904e-01 5.374010899211396214e-02 4.762362457835218610e-01 5.083660777990471891e-01 5.636500677011337945e-01 4.839400877583005522e-01 1.901565549285274270e-01 6.577064580744846900e-01 1.642829932794741099e+00 6.880405323260531114e-01 5.173756709451738933e-01 5.915156303891170309e-01 8.551098844480619077e-01 -2.141940407959582515e+00 -1.249133204370874051e+00 5.187491600306413098e-01 6.226089870474947885e-01 9.681448649526832595e-01 5.926827777381554752e-01 4.210109589215087489e-01 1.822186653293271230e-01 5.078997165153610327e-01 5.278629584613587777e-01 5.001664609483039703e-01 4.567449807782303361e-01 4.967909272918555330e-01 9.961460703886281243e-01 5.075802882892219703e-01 1.317768186538808450e+00 5.381824573680864532e-01 6.392815576843526859e-01 -5.412250916298201320e-01 5.126643532640686729e-01 1.976870115862367827e+00 5.023795206683322467e-01 5.236608275281470215e-01 6.735415267560563857e-01 4.986878402310614411e-01 5.758072397630774608e-01 5.285582870261673616e-01 4.376158779179522007e-01 4.813429459338326444e-01 -3.775604665464599163e-01 -1.727053021893555085e-01 6.729134087651976737e-01 5.148229364740649489e-02 1.010465481750632000e+00 5.514256699531383532e-01 5.342489541484107818e-01 8.745854754987283375e-01 4.939550178062973029e-01 4.838667626581871772e-01 5.237917881229777750e-01 3.386880336653085022e-02 9.729202784068754495e-01 -1.564721440305098521e-01 4.230043423877014597e-01 -9.246500411191628244e-01 7.533643415207325056e-01 -2.848872951938831166e-01 4.920331342387369578e-01 5.453183623233849309e-01 5.277144433638413235e-01 5.231101973939651373e-01 2.036139983664552400e+00 -1.641775316918701877e-01 8.260139803667577718e-01 6.591044564731270983e-01 5.586572717115027009e-01 4.506160412323193531e-01 5.218531545845960240e-01 5.212743101577164140e-01 1.067004377353913069e+00 2.487738959244751580e-01 8.522833830699922952e-01 3.083213161797902502e-01 3.955904911081885578e-01 6.423357049876846636e-01 6.059282519481411500e-01 7.741741604977299129e-01 4.919959179634270097e-01 5.230310254251940849e-01 4.028812442516969683e-01 4.571638552337024125e-02 2.198343247109481868e-01 1.091456341600287039e-01 7.569594518608373512e-01 1.144073762046485143e+00 6.683129446810999186e-01 5.165158471066201296e-01 -1.669315135848612186e-01 4.426927167435373289e-01 4.597771862089613526e-01 5.369723554516079300e-01 5.220960650852201068e-01 5.057113889174057464e-01 2.867004746345474420e+00 4.809337496219875940e-01 5.676429295186705692e-01 -9.239616478492334029e-01 5.164477578409807368e-01 5.050095967714941514e-01 2.009373256337924629e-01 5.279652548772343357e-01 9.457011718423061764e-01 4.988495905341048253e-01 4.382149362849326879e-01 5.572435425689513666e-01 6.333553388463082356e-01 5.216935557909457843e-01 8.527409252661242167e-01 6.023558346992987644e-01 5.432081600171911884e-01 4.382149171888858885e-01 1.969692269314857469e-01 1.301087261519094929e+00 5.552926723759736838e-01 4.769325005191779043e-01 4.218376210492508216e-01 -9.577802106747571043e-02 4.977974951546565996e-01 1.546092286543161720e-01 5.243862970580472904e-01 5.216033451300298163e-01 5.200230905338336651e-01 5.246642496559167368e-01 5.206699097641012131e-01 5.221373099565190801e-01 4.404855436533217095e-01 5.597332292306426149e-01 -7.215513064904545137e-01 6.249414342059071981e-01 4.668742551937374863e-01 3.528570894192623597e-01 1.250128044271690310e-02 1.339439682341069471e+00 9.721781582642210484e-01 4.905445998617056769e-01 -1.020504852608421636e-01 1.067269291522962682e+00 5.210007647154019095e-01 4.699693124019314050e-01 6.606207684220751775e-01 4.069253363279286551e-01 2.540078778114643887e-01 1.652439719216262648e-01 -1.653006772960324833e-01 -6.621938388639991846e-02 5.064201802793520946e-01 4.961694685868984767e-01 -1.189511331168679881e-01 4.375141298523964606e-01 5.208155980923425687e-01 5.205494846581236734e-01 -9.329535008314832067e-02 7.626051086098283305e-01 -2.373259887042622474e+00 6.173333960117439734e-01 -6.674980060698049167e-01 4.999845430247323863e-01 5.185179353413739145e-01 3.573744173111656486e-01 4.874365927586611913e-01 5.573384621806215522e-01 5.156001048093439287e-01 7.865525744758351534e-01 5.708383216651491399e-01 1.701837111523310409e+00 6.836580568596725138e-01 6.787433290233912953e-01 4.532515648608543279e-01 4.015200498905973636e-01 9.271666228891006778e-01 4.730165501995717281e-01 2.742379747670289358e+00 4.498955383480851555e-01 2.205910250375286152e-01 7.678282391252176931e-01 5.105897455545964636e-01 9.268066935659059480e-01 5.249198735178471908e-01 5.815076980259398232e-01 5.231383407014869036e-01 1.150422021708660703e+00 7.668895166508457040e-01 8.566784922012065095e-01 8.006144035844211526e-01 5.823582764974136738e-01 6.850324556094717909e-01 5.083147069957549835e-01 3.733070544194969642e-01 -7.477113596160204212e-01 3.908556296294702914e-01 4.449870314062320809e-01 5.526634295585023393e-01 5.079571200952698318e-01 5.001665400680794793e-01 6.115817847308702149e-01 5.170775484314881210e-01 -9.224926123006038647e-01 7.615945508525662211e-01 5.127779792987220420e-01 -1.293488317386364689e-02 4.629646826932515280e-01 1.859869523802210267e+00 5.067673742894590605e-01 5.249494838014452380e-01 4.230158098842944359e-01 -3.504692722262981786e+00 5.248497990329520357e-01 2.943164554868859639e+00 7.749578017048929235e-01 5.177582588051051760e-01 -5.703732855733754104e-01 5.221387402159246571e-01 5.228280613818404587e-01 4.533961650394858212e-01 4.494732044594773601e-01 3.384518496499168694e-01 6.510033255815944608e-01 3.138382009192931532e-01 5.248715035090405490e-01 5.216837635391109451e-01 3.547328348899785877e-01 5.282374375277754108e-01 7.754697512857875452e-01 5.215977981463203461e-01 1.213601131459052906e+00 3.841097315987644645e-02 2.240374106275620392e+00 2.684168272437956304e+00 4.859341881934534646e-01 -2.356708600912079121e-01 3.884469699093450190e-01 3.997863904713934713e-01 7.419480808123394278e-01 1.397471006300242680e+00 5.313823024548436358e-01 1.136003412139308111e+00 5.223054350903125753e-01 1.191067638094066017e-01 1.261532657238064292e+00 5.545912869291743652e-01 5.639355892864442721e-01 5.289816128689033281e-01 9.089692750108736563e-01 -3.844076955892900216e+00 1.659769748947262702e+00 5.278833982594458574e-01 6.352567297233187027e-01 5.222464618839125494e-01 1.854960546871683658e+00 2.959499316669385593e-01 5.643765188662874799e-01 4.826254272281991220e-01 5.985335244500756824e-01 1.370555629094385885e+00 5.291575785554004652e-01 4.382152356525694237e-01 4.375085831473618514e-01 6.023558407327972430e-01 4.320815890390292680e-01 5.707841228771741715e-01 9.034894713438761382e-01 5.236097477543555367e-01 3.813166003049592301e-01 1.454718136898090208e-01 6.570999047456137498e-01 5.201052159788376317e-01 2.898078760077278382e-01 5.643764877373125266e-01 6.266460641715934088e-01 5.270602091017997370e-01 1.046514152620593219e+00 9.361731781836564181e-01 1.159475090500948991e+00 5.200755705110219340e-01 2.137727726002523476e-01 9.271669917014738749e-01 -1.098810525372867358e-01 9.337918319162192837e-01 6.305508219175105511e-01 3.962051509532219656e-02 4.610014903508932727e-01 8.959226345200433927e-01 3.842112984857779523e-01 4.823777205531543655e-01 3.138037275473797849e-01 -3.408728831455497543e-01 -2.525953703741005363e+00 5.391052674681656720e-01 6.023558369581514249e-01 6.023558910396987764e-01 5.128325248649062695e-01 3.604806686549189010e-01 -2.381708429208476141e-01 2.829704699650331112e-01 5.178200995834124631e-01 7.129800592467476772e-01 5.231524772144122704e-01 1.023618543419686278e+00 4.382151072853793239e-01 5.230795169602038275e-01 4.955925195595680122e-01 2.908560781516901228e-01 6.617186891255913972e-01 5.276493314887743535e-01 5.173969147641293009e-01 4.974697644314448608e-01 3.155925182254201156e-01 1.936708166930154601e-02 6.023558373729112070e-01 6.636668713959357202e-01 5.230735495976710503e-01 3.912899119252055691e-01 8.601536156254091514e-01 7.614880763189207924e-01 5.646088815258519800e-01 1.919152308286258490e+00 4.902643832648683198e-01 -3.194932134903918808e+00 7.756253481694618257e-01 1.546188125370154820e+00 5.941122664237024065e-01 -1.113313888187419165e+00 8.424891920423751568e-01 4.358875411724571491e-01 5.328080205427787597e-01 5.187945080232365669e-01 -4.360266230510370100e-01 5.043670692641926134e-01 1.078031789868780788e+00 4.489535593398213398e-01 -4.057732873439889865e-01 5.111656457582044455e-01 5.332917218240286195e-01 7.947368728639047086e-01 4.960766187969167240e-01 6.055525771343539532e-01 -5.471644508425553832e-01 5.612060099000039104e-01 5.254887576571579677e-01 5.430611095203266014e-01 5.344253957682006950e-01 7.704482393439645582e-01 5.242159170800700929e-01 6.250100387374231126e-01 4.391666684101854234e-01 5.165188135900978805e-01 2.385449757635227930e-01 3.314079363297569025e-01 3.633958868679853516e-01 9.731895988341221493e-01 5.582620857193192343e-01 3.258401844901791300e+00 6.558223625520167577e-01 6.638830136537302584e-01 5.450720989705006847e-01 5.461115854078675280e-01 1.607143999087026764e-02 4.941758463407157631e-01 5.290109036570969092e-01 5.178683103930186160e-01 1.156583524699251964e+00 7.706603896826893507e-01 5.129730776911533008e-01 4.373162344234013399e-01 1.119792471239850373e+00 5.152976144184910900e-01 5.645873206447201698e-01 5.190988564024532348e-01 8.504106164674897217e-01 5.237375161892916520e-01 9.467570981039165057e-01 5.143090153488111271e-01 5.222912135235370235e-01 3.736132710242009297e-02 5.355441550639710169e-01 1.543713714160569947e-02 2.899591691909573221e-01 3.993408861141993782e-01 5.753342320569196922e-01 7.888504477912419155e-01 5.219035103999003500e-01 3.835498424556811892e-01 1.200394435130433674e-01 5.009146976124732031e-01 5.230487164170958270e-01 4.425048436304018229e-01 5.720123287800624179e-03 5.246722344869382271e-01 2.641211194083120106e-01 5.222103012091582341e-01 4.090596127952568217e-01 1.263767744848495855e+00 7.545583012800793909e-01 5.029813066874977423e-01 2.466611881181326460e-01 8.036109379688293197e-01 4.484249476551617208e-01 1.003068230867462773e+00 5.786931159088692933e-01 6.239247658348705539e-01 7.076526421336525319e-01 2.029498220256944929e+00 4.968895115520558514e-01 5.526635928650489582e-01 5.112437508648932649e-01 7.613040433059909962e-01 6.109853377607916691e-01 8.693985139503693782e-01 -5.856455313477862967e-01 4.070583912817035688e-01 5.240616593268312418e-01 4.364518599281091982e-01 4.400790078563313612e-01 -6.390051756767604063e-01 3.851105245755517825e-01 5.243560839681771224e-01 7.242836440686752919e-01 6.698815142013222479e-01 1.553739392434793309e+00 5.259087535974301675e-01 5.176623846101937598e-01 -7.328372610577861268e-01 5.149380682611748306e-01 1.245399216609950566e+00 7.253014510951270033e-01 2.907863768531504522e-01 2.333136301504683263e-01 -1.843049232832271178e+00 5.658506104658929114e-01 1.924512717892024882e-01 1.109894724313026160e+00 8.278101487369013967e-01 5.434515350367843389e-01 5.570440212543692482e-01 5.552732803954348872e-01 7.753914498631782060e-01 4.202961943881644569e-01 5.532313477553264525e-01 1.321484200172553733e-02 5.924638083487713258e-01 5.190125600634764025e-01 3.990382195665373444e-01 5.148660540829665955e-01 4.393043744389970584e-01 1.236744638728944468e+00 -9.668672436763436906e-02 -2.461772037546290370e-01 4.103755478111492105e-01 5.224417107547851824e-01 5.279693378165259965e-01 4.964484447141493395e-01 -8.876260090038959882e-01 3.222500025450020900e+00 4.748012386715901312e-01 4.380377104158960644e-01 4.529212603402689719e-01 5.211575534690386924e-01 5.054604237122641841e-01 4.845224998130238658e-01 3.281416673550236474e-01 6.134176344668073044e-01 5.212914975391339523e-01 4.666389831662888232e-01 3.174955517113389747e-01 4.025364854113261948e-01 5.691571638823269552e-01 4.051381272214528151e-01 5.486682718152606775e-01 5.194244449639122685e-01 6.814629513757276547e-01 1.025672085536035061e+00 2.348021932778078025e+00 4.963854230905687670e-01 5.008365123708599098e-01 3.433626030873285218e-01 4.738796948936265241e-01 3.854539810837831482e-01 5.218714012302312355e-01 5.237950879161483719e-01 4.928788611434298250e-01 5.826680711540114244e-01 5.434568931895653598e-01 7.755574821931672247e-01 3.644441547910652890e-01 3.914291342276499108e-01 3.979070275016306502e-01 4.883607212487177662e-01 1.055199101823906249e-01 9.271666162160027147e-01 5.469334750567359515e-01 8.740076111128639025e-02 1.914461223849449389e+00 3.222920348959577019e-01 4.030849765208090463e-01 5.971332833411715502e-01 6.604995213346752381e-02 5.535140622117490361e-01 1.534791758272267437e+00 8.045187613932314186e-01 6.934185758737243521e-01 5.232528212683931201e-01 5.167860894895559554e-01 4.267853003846961424e-01 6.423320865807137237e-01 5.162174647343005240e-01 5.232318210546060833e-01 -2.719109027947036461e-01 4.776351939560390947e-01 -1.606951210645291894e+00 4.922959882459340686e-01 5.224693695547610872e-01 5.286657763755057138e-01 4.230244468056265639e-01 9.271666161294762620e-01 2.243148593462110651e-01 5.080441997838340829e-01 1.373216703588105547e+00 -5.835651854297096985e-01 5.197073171289819937e-01 1.157994022930606492e+00 1.563061140839208329e+00 5.874461052898795055e-01 5.203648156573623673e-01 -6.628075150256934611e-02 -1.723747535619785776e+00 2.680380230680797782e-01 8.440585008856522631e-01 5.327249672045284434e-01 5.224570566945810901e-01 6.198587400631982991e-01 4.802186712350423603e-01 -4.278169434206806621e-01 8.357700490885004996e-01 5.001661332577139740e-01 3.247062449998810441e-01 5.100009607896832664e-01 1.813877637792240226e-03 -1.644205661443990107e-01 1.834699158155399079e+00 4.106830599872591803e-01 5.248277753434187343e-01 5.257707064526927487e-01 3.200907202186238365e-01 5.002114044685440630e-01 -1.410416252988582198e-01 -1.334889572853575457e+00 5.218394726667643369e-01 4.900828315264608714e-01 4.798897894030347278e-01 5.572088596189279652e-01 5.274579807866929260e-01 5.470430571721327517e-01 5.171130295639876362e-01 5.588570083490234097e-01 1.040508822545395118e+00 7.122278025769911425e-01 5.278292084702000952e-01 6.314251461856681402e-01 5.427501628039599346e-01 5.444415876267977294e-01 5.716559313627765648e-02 5.643764862208388022e-01 4.278165829214627403e-01 5.739303017740198243e-01 7.523048163447051406e-01 8.400782287621956224e-01 8.693887097808953301e-01 -5.466518233890524936e-01 5.269766212239322956e-01 4.678909670051551450e-01 5.180065996060182476e-01 5.961967924373937633e-01 9.152717584609346702e-01 4.953897492061286600e-01 5.182364206020350084e-01 -3.069893656896693357e-01 -9.023897765685989780e-01 2.346998153110844587e+00 5.108944944004299993e-01 9.057049482142780494e-01 4.141492322362633205e-01 5.775995537936379209e-01 4.005222649106908728e-01 1.525364124073051719e-01 5.242794896393517812e-01 5.174462240851349648e-01 -2.546107970329326148e-03 5.185067534570425574e-01 4.533075379935114779e-01 5.209428565243819920e-01 4.991104680332936749e-01 5.219367604193966281e-01 6.375011143036677375e-01 4.282859891802356378e-01 5.674316381169549617e-01 5.143847480837800967e-01 5.252612926199063947e-01 4.141043033428049580e-01 5.174276533141078938e-01 -2.488121265730084963e-01 5.174869022300639942e-01 6.415716171091491171e-01 5.596552499173569339e-01 7.760816686134136555e-01 9.271663688686109239e-01 7.253685529663658205e-01 -6.174273517198114458e-01 9.785454215914003440e-01 1.854960538738027243e+00 5.090107507161754086e-01 4.637511876064283056e-01 1.088940328917998190e+00 5.632315099448896856e-01 7.763154839585206801e-01 5.257405334104421346e-01 1.885426419904410400e+00 5.214888761568341469e-01 4.375131978652255782e-01 1.236604088314337879e+00 -6.795806511243865367e-02 4.966285934656290979e-01 -1.530827746857330862e-01 -9.895741637442968530e-01 -1.646478141984242527e-01 7.748212411944462863e-01 5.700892092495760677e-01 5.246326846771245389e-01 -3.184185093981639625e-01 5.485396300783154100e-01 5.104814732773007430e-02 -4.141223477546079335e-01 5.427335148038241464e-01 5.208393197955054621e-01 5.188877249806398417e-01 5.113593869677134363e-01 4.741481649320336555e-01 9.192367517954029843e-01 -4.451998999764345544e-01 5.246542650097476557e-01 4.954001063247110981e-01 5.833526204727306208e-01 1.176867318221058056e+00 4.815785460730021006e-01 6.902631753180454854e-01 5.236094112052798177e-01 4.962952850766324392e-02 -4.360770260919440977e-01 5.534655611510695961e-01 5.519338498698297402e-01 6.874580275743229496e-01 5.096534519571028765e-01 3.741485041007557300e-01 5.207191409251624714e-01 5.264180316052635700e-01 4.117159201340896968e-01 5.382943917463837158e-01 8.412544180056262810e-01 2.599099529300981537e+00 -2.511413241120667994e-01 6.566779338157441304e-01 3.455920917917389978e-01 1.998625169632502196e-01 6.526608777379483417e-01 -5.519428432181142097e-02 -1.594944836774698560e+00 4.959652780415175211e-01 2.661782268453597666e+00 5.887361231151914120e-01 1.697845553216778824e-01 1.548089255501412520e-01 5.001664608360034681e-01 5.922402375312210143e-01 1.586978396414734149e+00 5.190037889600768173e-01 1.259900036714621530e-01 4.143527388728141525e-01 1.743633451848586979e+00 6.003009513926357288e-01 7.941996579030085046e-01 5.231791811918959922e-01 7.378652057388739305e-01 4.655841218546020732e-01 5.824593612120193553e-01 2.634277012131852613e-02 5.175075054510820394e-01 5.771083365510586427e-01 -5.855810634844471618e-01 -1.042849659388920686e-01 1.183252502432403430e+00 2.402802490953413750e-01 4.789423351222492631e-01 7.218519010659324442e-01 5.180031586319675529e-01 2.024336832729984437e+00 6.615954207152647815e-01 1.674552112782935753e-02 3.686773251591332623e-01 3.975461261079446529e-01 1.144285967857270769e+00 5.023961563992835888e-01 -2.488819059885450519e-02 5.182810712852513602e-01 -6.990764964881624258e-03 5.306977765754767873e-01 5.256622036777458540e-01 9.245110341310527544e-03 -2.440523709189081070e-02 6.602849086862107031e-01 5.052306497298818533e-01 5.904292200700934634e-01 1.908704793854681392e-01 4.067212233408333266e-01 5.280857575468218545e-01 4.536628739196936211e-01 4.880962165835657229e-01 4.795750001504298088e-01 5.819420546171695241e-01 1.021325943089832267e+00 3.182899018945244851e+00 9.644453269158000941e-01 5.316234735947149570e-01 5.702735298905265982e-01 2.185492242336130597e-01 5.261299799806710142e-01 8.599286446563495501e-01 5.085769510133069105e-01 1.317206049388926603e+00 4.912535227147967754e-01 -5.937638217354180847e-01 -2.068394352160244504e-02 4.252344731874831973e-01 6.158513006438735005e-01 5.756804347147570500e-01 5.217680241009746700e-01 5.877775459212835479e-02 5.280863086919038718e-01 5.220913326076296324e-01 -3.839239243971056759e+00 4.782877086750353390e-01 5.141480451217789183e-01 1.140131250104533978e+00 5.263347066651459238e-01 4.217521687767772920e-01 6.723045844481869704e-01 -9.137238158793933307e-01 -4.990038092147608961e-01 2.513312790090870344e-02 5.234136090784994311e-01 5.874638469325538237e-01 2.105716902321970452e-01 5.147447482155852461e-01 -3.466968353793624114e-01 5.547779026518074863e-01 5.545286408528259381e-01 6.967186208970871375e-01 5.543167151671437587e-01 4.671595414338839958e-01 1.450095371579289139e-01 -7.852180887494317751e-01 6.552126344314018747e-01 5.629040270097565024e-01 1.548780937785001477e-01 5.261406576485553321e-01 5.225614232235333834e-01 5.115232243998364403e-01 6.669167829310561624e-01 5.807442177355334190e-01 5.501207427676773065e-01 5.042395084956963203e-01 1.854960540137058134e+00 3.503828164736129680e-01 5.330207668783980557e-01 -1.373788600400638882e-01 5.233716904696050776e-01 6.413199908090411183e-01 5.229098202247310923e-01 4.834886572414228145e-01 3.707296241687586535e-01 9.578007098400846964e-01 1.226924023340274061e+00 5.542361450601152040e-01 5.870459129485727789e-01 5.970851475712232181e-01 4.943915832190701187e-01 5.415871504165472583e-01 5.226692623800599513e-01 9.785962468019520077e-01 6.855462042702491487e-01 -4.652266172553133905e-01 4.649979131345449712e-01 9.027064007196416995e-01 5.160081820333026759e-01 -3.722141504824637293e-02 5.290307713562762970e-01 1.496578116247972767e+00 -1.384182506009912494e-01 6.519238713527634177e-01 2.351364411436213941e-01 4.691869907236542181e-01 8.695258080459408179e-01 5.211565889190307166e-01 3.738402527759971949e-01 1.411703599956105393e+00 4.693194815164028477e-01 5.178742892861984970e-01 -7.088430120522861699e-01 4.414562211006440862e-01 1.039435162927393019e+00 6.240918530374230944e-01 6.628358900351181970e-02 9.923544548605832682e-01 -1.887968760042919858e-02 7.300431198593219095e-01 1.656987750966756989e+00 -8.676012156984193036e-01 5.800861893717657036e-01 5.227368394591405121e-01 -4.802447402029647039e-01 3.019162617082861710e-01 5.771261941259204775e-01 5.135095359718039321e-01 4.785048566596096231e-01 4.250012016427172079e-01 2.627145381087691023e-01 3.480443945927326754e-01 5.778323525994301102e-01 5.187909761703262124e-01 8.983930848705443811e-03 -1.558825478802584874e-01 5.314575119978407480e-01 1.068793741977374978e+00 5.383000271274922532e-01 -5.851606673074239984e-01 4.477695821437839840e-01 5.232413365741251932e-01 5.645417011179948430e-01 4.706307684068188057e-02 3.245207797692653551e-01 5.217997280436288410e-01 5.337155522679732922e-01 4.530171567680035816e-01 -1.217928093069834197e-02 5.597488281850445668e-01 5.321439949196947738e-01 5.799605142490957821e-01 2.109069807270370855e+00 -1.226630785882485905e-02 3.891792307998053202e-01 5.746463545887112723e-01 1.856609322680692786e+00 4.874465691041958149e-01 5.539975831287879959e-01 2.628931357309356731e-02 5.643765330899486177e-01 5.192197729586806032e-01 4.779313946002610725e-01 3.979707741128354348e-01 5.227362581802812436e-01 4.334992654931293377e-01 5.152482976800789594e-01 -5.612445318653100923e-01 5.230022592458181130e-01 4.945706574499368902e-01 5.137547652543902332e-01 1.251085819824854228e+00 5.210303294439969646e-01 -2.491852160456956011e-01 1.127067566916483354e+00 -1.318295001609364858e+00 -5.442390291555097015e-01 5.451598409312546911e-01 5.224508118143575963e-01 6.657465691391856177e-01 5.204204554807714267e-01 4.975146771841385540e-01 5.163148135619626267e-01 5.643765365077484386e-01 5.253233729046767886e-01 5.067134601012494022e-01 6.026433143109687363e-01 5.236149433560755018e-01 3.183764035270719717e-01 5.215184881104728554e-01 5.409485961529150178e-01 4.070155879997925941e-01 5.316385961487984924e-01 5.198784156782381149e-01 5.198898972451952982e-01 6.546874382283962568e-01 5.214948185129055780e-01 7.197835057802662861e-01 5.135677758859619191e-01 5.365045235426203485e-01 5.375877176954395598e-01 4.173932657882077346e-01 3.611873403902008395e-01 2.476560805232295603e+00 5.047037458100931406e-01 6.262516816007405174e-01 2.966658361586217985e-01 5.794283006099499866e-01 1.121050682476463001e+00 4.152085437644122412e-01 6.907178684264546620e-01 5.214422103365591310e-01
7.170837977702370081e-01 2.972037633889597630e-01 4.493901017844968426e-01 -3.123059637274245084e-02 3.118134464800300099e-01 3.882747477794394886e-01 5.387411638861393515e-01 3.946021702280824717e-01 3.710049715329952758e-01 3.019056314382487227e-01 2.082144538765857256e+00 1.736620784725455113e+00 -1.474938773863012864e+00 5.879781272050792484e-01 3.068831606394051281e-01 4.619264785688481090e-01 1.355885356196750990e-01 4.476178149874929235e-01 4.090233276531856088e-01 2.965630647232950223e-01 4.174019169622913972e-01 2.153940405124114221e+00 3.551693715783992289e-01 3.458938042331375917e-01 7.522349170761646331e-01 -1.709551569136660565e-01 4.088907395667542022e-01 1.880727483359425911e-01 2.836979295692252934e-01 -9.289099504057937162e-01 4.468396285969034043e-01 -1.600213331842744724e-01 2.892654344555066204e-01 3.218366758548283912e-01 -4.111572111637713522e-01 5.025003613911630529e-01 3.344832687052788911e-01 -3.931301635738266853e-01 -3.308272315447914558e+00 3.340315500512477387e-01 1.198968391563607128e+00 1.462569171949635871e-01 -1.692039060158817554e-01 7.915544930165449022e-01 5.593523883188632473e-01 3.203101550446446066e-01 -3.145053188941024369e-02 3.029957358393532418e-01 1.388999024558563999e-01 6.531091999206934950e-01 6.913123774013602008e-01 5.051508133781512644e-01 -1.523848663884103949e-01 2.420297258751254177e-01 5.928350851991442960e-01 6.587313193876603856e-01 2.983880012243801949e-01 2.504416695957744632e-01 3.450726076509923468e-01 3.225468745094812739e-01 4.332338664450020582e-01 4.384574509021241795e-01 3.434884853009662065e-01 3.551693888936358623e-01 -3.420710759109337751e-01 1.214920747221810565e-01 3.014054324110603811e-01 3.088192012916808338e-01 2.379284548755490336e-01 7.057055808718185608e-01 1.604105005265423212e-01 2.454278162152447595e-01 3.108541796570008509e-01 7.246274295976596891e-01 1.947177044498655807e+00 4.159142776387326768e-01 4.782059350545134202e-01 4.827689983624975367e-01 3.099181871292780999e-01 -1.358846484963928569e+00 3.240185981837194751e-01 5.400916348656787935e-01 2.400895929428181308e+00 6.914040948043240209e-02 2.494791407215066759e-01 -3.533845891361984126e-01 1.410554989941945059e-01 3.038495915797898017e-01 -5.845320641041040766e-01 -9.121564374819148835e-01 5.593463834498847431e-01 1.613559956416386054e+00 5.376883874944545644e-02 6.806128914488905890e-01 3.649400299314148888e-01 3.472363260750207514e-01 2.706721577872231443e-01 7.846271937319355683e-01 7.365555512739759836e-01 -1.662068406371482454e-01 -1.820962702648747100e-01 5.591870993138425144e-02 3.166299274799484476e-01 2.170754818028622635e-01 -5.828540785015767084e-02 3.172121295002192642e+00 -2.953073237103955861e-01 3.438981035515717988e-01 7.899383316948549449e-02 8.121318408186368742e-01 2.749898483916391467e-01 5.265242409606312179e-01 1.618095881760279742e-01 3.682754110805089853e-01 -4.732506113937626768e-01 2.751002446591213624e-01 9.443643007900881514e-02 4.139155499478662237e-01 1.178735233950706895e+00 3.463056426003885968e-01 -1.476489642867153895e+00 1.289322483234827954e-01 7.549326239592017707e-02 1.478220950086354124e+00 3.108522553840532554e-01 2.206411921304768153e+00 3.817415544826702201e-01 2.035813615106827346e-01 3.127970626987501279e-01 3.154370046685269213e-01 3.433326599733332318e-01 3.138265457696445271e-01 6.719738128124405074e-01 4.158185045797843093e-01 1.606810987624940623e-01 8.553331198549504188e-01 7.281382024243873152e-01 7.070616835231420261e-01 -3.405797644956145565e-01 2.217914921170806020e-01 2.891632246836459696e-01 3.221139607324313703e-01 3.570470863213182633e-01 2.545555151764859469e-01 3.106099408238420234e-01 7.008812208055916759e-01 -1.810802948507965471e-01 3.193609624371872013e-01 4.228374789536208933e-01 4.035776802597235147e-01 -1.990427445888387770e-01 2.833555601709756774e-02 3.203076657833394125e-01 2.858340646064587154e-01 2.767254159069427177e-01 3.079371414797702489e-01 -2.497859501114552128e+00 4.690633561711315958e-01 -6.090931479455924391e-01 -1.705149468859526174e-01 1.444248131458910345e-01 3.776764395163853538e-01 3.097254626618851647e-01 3.098224889502234625e-01 1.298012113675345303e-01 1.180747083798189406e-01 3.198935173765136142e-01 4.880764984939076068e-01 4.559525308304120950e-01 2.792626860980112480e-01 2.258057777274679601e-01 -3.328963838298232281e-02 3.202802952642622158e-01 3.110571299768978837e-01 -2.539076400831716374e+00 6.697669360203941658e-01 5.745794001952508889e-01 9.352451602700121436e-01 -4.607329260988978770e-01 1.174806656831322904e+00 4.407064106441298257e-02 3.209592926131480395e-01 1.246688824005886209e+00 3.605855303494500674e-01 3.125910418128653445e-01 3.260540029381022720e-01 3.010040801023787238e-01 3.366510893228969459e-01 -5.006634604706350355e-01 3.283335829499500758e-01 3.309688133676187416e-01 8.248796564215167271e-01 3.101917744054216719e-01 3.652177592295696718e-01 2.491255353347478219e-01 3.086566759445872332e-01 -1.695908953124339869e+00 3.216891788821675813e-01 3.568807074576690885e-01 2.765192723812481268e-01 3.613503850562912317e-02 3.847897926144291381e-01 3.901819239132022221e-01 1.512565767780010006e-01 -7.583715899664043025e-01 3.568806863356329684e-01 4.922080317374228353e-01 -5.243099276869178649e-01 3.405181635682856811e-01 2.205989862545538749e-01 2.311214351907823483e-01 -3.309505973107932153e+00 4.261088075140233578e-01 9.134455583977716397e-01 3.255780697886537234e-01 3.109102288440209194e-01 3.115110208185811747e-01 3.267107298000347937e-01 3.050706705423647525e-01 3.135765788747686411e-01 3.742967930722159164e-01 8.959026628170084494e-02 6.722175145861455370e-01 1.062541694031523265e-01 4.502936721617267768e-01 5.243410730043006618e-01 4.093807252116052342e-01 -7.049870295633190453e-01 2.334467838958478314e+00 4.085929058505764488e-01 1.252434520625926195e+00 -1.402218861726927335e+00 3.063311252717281774e-01 2.688004387240959248e-01 3.484837224344052853e-01 1.193648264037245887e+00 5.274414130497944164e-01 8.338735776982496573e-01 2.884014844765647734e-01 6.667084638424357612e-01 2.298166532334558199e-01 2.894880304381037828e-01 -1.192177543436717224e+00 4.217068068933880753e-01 3.106347839798715427e-01 5.038802491454983379e-01 8.766778876311585034e-01 -3.819786613273799536e-01 3.223975745161046902e+00 5.017224241379502070e-01 1.305348984427706416e+00 -2.891172624972647709e-01 3.124188850000703677e-01 3.551714640132799805e-01 3.523735574281841032e-01 2.572114983750239392e-01 3.138164313598948429e-01 -1.558959711367333689e-01 9.255096843163559961e-02 5.627189094898013000e-01 2.396479687993581242e-01 1.026212030171921308e-01 2.392003070485124727e-01 4.801305047839661277e-01 4.332338477837858748e-01 2.554313083559977549e-01 3.299897654647681478e+00 3.456788371219878808e-01 6.510931405547963902e-01 5.233855291350770766e-01 2.423428033855261621e-01 4.335791653984262251e-01 3.104021023226717357e-01 3.008441357145413275e-01 3.106206685640906517e-01 -6.190722941783711741e-01 4.184956288367763233e-01 2.851557612247520024e-01 1.455118632881846064e-01 3.419710322839595307e-01 1.554258284619894459e+00 3.732847405429536303e-01 3.193259750188194301e-01 2.011433049295102471e+00 5.104802753566075602e-01 2.883167650199894294e-01 2.767823673261152750e-01 2.920198894459390404e-01 2.751007084696540095e-01 -2.075338507330283022e+00 3.182378105132183110e-01 1.593255049173544213e+00 -8.236265126225182642e-02 3.586004297755394088e-01 6.650896055051609412e-01 3.357808327366076928e-01 -7.314400329792244415e-01 3.710002222846106590e-01 3.095047350739928982e-01 4.228721700267250028e-01 -4.032440942479386670e-01 2.957588372502839014e-01 -2.350461421913180526e+00 -3.242916033465808451e-02 3.114116792141702339e-01 5.977175475860183607e-01 3.121537009041767674e-01 3.098951269997461955e-01 4.940979632476474870e-01 1.707933151497794400e-01 -8.269921235648944324e-02 -7.755205133625719949e-01 -3.460423451707668897e-03 6.883534158874611286e-01 3.146983088222271019e-01 5.002809991608018203e-01 2.978416461442810470e-01 -3.176066201181874243e-02 3.158639225923061677e-01 2.477856337342446924e+00 6.786277801982354418e-01 2.471756903605581979e-01 -1.181900623689185137e+00 2.387545810606738483e-01 4.780613948792287182e+00 4.030490704927864321e-01 -1.867973248228950445e-01 5.718640067184862508e-01 -5.686260497884390475e+00 5.309917340825175414e-01 1.578315666512224213e+00 3.123132424350256731e-01 5.252864012113869219e-01 -4.540650441389594838e-01 4.336317765482431419e-01 2.627132450938745034e-01 3.273527179431278689e-01 2.167167509412887827e-01 2.988965339892207584e+00 -3.821952908120657688e-01 3.015544826494596098e-01 -1.936379296846767240e+00 3.121698898376127906e-01 -3.931301670000679205e-01 7.581884883171221556e-01 5.016305617248194570e-01 2.599126581395835300e-01 2.831322291090176968e-01 1.265165606267950604e+00 1.556095415422980022e-01 3.568805834139923694e-01 4.217128820107938769e-01 1.512565684921964582e-01 3.636002188438424709e-01 3.872079165958287605e-01 -6.230974759881530156e-01 3.074432107324550634e-01 5.612007524823279248e-01 4.022791702427753191e-01 1.765403658199775905e-01 3.117385535988145273e-01 5.061224455977916259e-01 5.016306411839602797e-01 4.947851032039580765e-01 3.086179633432158398e-01 1.683168907857078567e-01 3.856605089595621649e-01 3.508796835396746694e+00 3.077359443737039402e-01 1.099915914070458689e-01 4.332331132382514216e-01 8.383204027272163072e-01 4.696256734019840229e-01 -1.939551701372235482e-01 6.859812227969739329e-01 3.536112713869404289e-01 1.255780852878104203e-01 4.205382259868188366e-01 6.796304252870087881e-01 5.429803215249642268e-01 7.956332558624273910e-01 8.219238646360096379e-01 2.689420221410658840e-01 1.512565767630212055e-01 1.512564891587763471e-01 2.441851001000880372e-01 2.079089277747384890e-01 1.119720642502344710e+00 3.899575839180793868e-01 2.994190107562647585e-01 2.803995819223636388e-01 3.135285355085418724e-01 7.498359570698733823e-01 3.568800338209465739e-01 3.086149541910299110e-01 4.281070773018779141e-01 2.104241704681805991e-01 -6.407857138073298486e-01 2.947520794303314373e-01 3.097402264158934937e-01 3.768526508958229826e-01 6.731056554430656647e-01 6.728003784567405665e-01 1.512565777660472843e-01 1.273203872393482983e-01 3.073521515516487446e-01 5.113303293848235898e-01 -5.950213944683210299e-01 1.755764459833350777e-01 -3.574744165315791200e+00 2.020846507222244792e+00 6.322634350440805573e-01 -4.812274058166797763e-01 -3.115988904634952456e-02 2.083249331930862258e+00 3.214287847479221916e-01 6.503387939054856570e-01 -5.182038673825940106e-02 3.879717913117711192e-01 4.034723826114424150e-01 2.937781374354481168e-01 -5.428950042119828900e-01 3.691134376079066026e-01 2.089630779502923197e+00 2.357879188691905659e-01 -4.578496719056965314e-01 2.973755573108934347e-01 3.064401752672145651e-01 -1.464305289186082382e+00 2.781264746039815994e-01 3.706942456524974228e-01 4.034898017005639770e-01 1.193258946746689614e-01 3.033586145187502359e-01 2.121490095705299561e-01 3.226592450805563228e-01 -1.612482887223350703e-01 3.005483324919762111e-01 1.061926322900754449e-01 3.024475992647008282e-01 3.047561974213486846e-01 1.169496425680440453e-02 3.814607984064513069e-01 5.151744356631371424e-01 -1.419075217493997787e+00 -6.549468755613043758e-01 -1.183649458485741129e-01 1.363800940769814840e-01 1.711424553763727929e-01 4.348653133401461091e-01 3.596828121727274064e-01 7.167897934923564973e-01 -1.396920207753646059e-01 3.329155091549049206e-01 3.143600724689618597e-01 9.548362414825366240e-02 -1.615831740144538231e-01 2.712785907788483053e-01 4.631910657186658065e-01 4.799906787412031584e-01 3.367826240059422771e-01 2.870048407278580904e-01 3.136631235145221908e-01 2.460727074246523982e-01 3.094978506489330372e-01 4.889444927539529084e-01 2.768231565386584658e-01 3.102752248919825595e-01 6.862767968501959359e-01 3.289279959817811294e-01 7.237951105288082942e-01 -9.882680124669994404e-03 5.685547455841702957e-01 2.863532392577207708e-01 -1.471002564449135130e+00 3.091514133937708353e-01 6.355229413255756299e-01 3.525191947692851713e-01 3.384011904746251909e-01 3.089749170524315192e-01 1.713208042882045368e-01 6.846967041739234761e-01 3.069633665822140145e-01 4.224552597086839167e-01 3.108115526645708337e-01 2.747370233336249856e-01 1.821544130811645068e-01 4.821836235507456769e-01 3.215678193347897840e-01 1.761137672320171876e-01 4.723709505290099586e-02 9.800145694330601731e-02 1.664592677659038733e+00 1.717200004748354047e-01 3.441873235365928707e-01 3.893419852668966175e-01 -8.640333807917456310e-01 3.221610760252898165e-01 2.324993520198010422e-01 3.161797643079451436e-01 -8.204397414783068387e-02 2.712932021286146855e-01 1.679671318757241849e+00 8.942832823935333852e-01 4.659681897754298086e-01 2.887233550354805778e-01 3.230607612709716081e-01 3.462206028499572041e-01 9.322583281384045906e-01 3.085837861811816740e+00 3.078718700618596205e-01 1.616419233387674653e-02 5.858424330476416086e-01 -2.341247034162526885e-01 3.136216124870708777e-01 3.118284293571393917e-01 1.085381397929377822e+00 3.143557607069192850e-01 -3.427144730744122736e-01 3.891413968390640132e-01 1.366104871101186391e-01 6.225290689024389756e-01 1.846800830633773538e+00 2.460308882466479552e-01 2.779626074659917179e-01 1.671815850622007327e+00 3.921810796777421837e-01 2.455454150873336849e-01 1.558941321027918769e-01 1.932620826513337942e-01 -3.105385968823783441e-02 5.207998568116244398e-01 2.444405110575569307e-01 7.176100999872209174e-01 2.773596673038871696e-01 2.105125446410263390e-01 3.270401207254027276e-01 3.828027424042451665e-01 4.237778716293195136e-01 2.629030550476170180e-01 8.835802336330308426e-01 5.164686595991604401e-01 5.039102031161758477e-01 3.039907480706171006e-01 2.411326484532615722e-01 3.040535607679825114e-01 5.923613927391830902e-01 7.790488420820737003e-01 3.706168050761400323e-01 3.223444168089342199e-01 5.827629976831695258e-01 3.117839245554863692e-01 7.016988237433012809e-01 3.168233465172196617e-01 4.771742504021806996e-01 -3.070890726272779148e-01 3.107549748586732608e-01 3.351951227509751274e-01 4.488270044798430836e-01 2.204979077541094346e-01 3.473420249824826223e-01 1.820009353564703947e+00 1.377705339772364486e-02 3.031006054392174076e-01 -2.143245659747427256e-01 1.679793538697804456e+00 1.161507098615196742e+00 3.706515694734863198e-02 -4.433882251949982090e-01 4.406879021786184181e-01 2.865246777035782011e-01 4.921247928432689323e-01 3.079652071610470276e-01 3.144562010378911254e-01 2.242221874374403789e-01 3.354067474516543856e-01 2.864556727536119451e-01 -3.089529803123201163e-02 -2.299594808222144848e-01 3.207380556475113997e-01 2.378944198742594385e-01 2.457184754886208300e-01 8.804820859868249805e-01 4.332338583313886660e-01 3.098081874276746306e-01 8.568677691153373521e-01 4.753615670565715656e-01 5.594556834142426771e-01 4.586454162749937780e-01 6.983498958959144520e-01 1.482194443358793690e+00 3.911829390856625399e-01 2.118403739743826453e+00 -2.336241889780022937e-02 1.548468323416202774e-01 3.115542274579371496e-01 3.161078594862908875e-01 3.769022263937421013e-01 2.792913694458601381e-01 3.144143708725612996e-01 3.125103559810228915e-01 3.687687459088463959e-01 2.173063606531536740e-01 -3.494083274638631331e-01 2.740787728821955649e-01 -6.072353657412393052e-02 3.031067079954870014e-01 4.229393836333499856e-01 4.332338583649582575e-01 2.287193928398845166e-01 2.189643010722088501e-01 -1.288726581120007708e+00 1.982590369045033274e+00 3.128794801566223693e-01 -7.531271352898120108e-01 2.969498531268930375e-01 3.292968067330810378e-01 3.095750184699991303e-01 -4.846941149907949331e+00 3.577833196313750630e+00 6.334974483616478969e-01 2.895868633892518043e-02 3.288182430448611804e-01 3.070594009697172333e-01 2.606944394132474918e-01 2.652921018583920709e+00 6.298576481123280280e-01 3.191313317858776033e-01 2.751003095225467709e-01 3.013085862922397218e-01 3.286136357827814103e-01 8.573611473480535761e-01 -3.735938662635043261e-01 -1.222819158864063782e+00 -1.234856551604229802e+00 3.134621879809614264e-01 3.103448539338705681e-01 7.371954276767325176e-01 3.701796255360576549e-01 1.476995373345166840e+00 4.887513762342589607e-01 3.134964827265881437e-01 3.287124312873942467e-01 3.148339571151799188e-01 3.416993050442691526e-01 3.022082494536955100e-01 6.405283714967083819e-01 2.793466098119286589e-01 6.615454058766973011e-01 2.325721094455695248e-01 5.742997620465360720e-02 3.019756801987426020e-01 1.791155778629552331e-01 2.881604408603898881e-01 2.634818581158293038e-01 6.345440284605252668e-01 5.016305967249374831e-01 2.965789892957194085e-01 2.452272525245522972e-01 3.056748557896112883e-01 2.736128198079512686e-01 1.679694801966043594e+00 1.930389782810958632e+00 3.032233099517278596e-01 3.349996516681575387e-01 3.066722508189665963e-01 1.663063895948422299e-01 2.233492918196263444e-01 4.013795114670530850e-01 3.132921199187773120e-01 3.276308442323953019e-01 8.083600406517372772e-01 8.935840698661174919e-01 2.836497070102652063e-01 1.888595018014946447e+00 3.380597610135385178e-01 -2.643296984092391999e-01 -2.717000059136134293e-01 -3.055233218412832796e-01 3.129617986744204772e-01 3.153203970174220938e-01 7.108569869094966132e-01 3.186895093223962583e-01 4.494811311318908653e-01 3.071697241629447461e-01 3.316255278400377371e-01 2.780086335084862026e-01 -5.557163053512295670e-02 1.011056470922244932e+00 3.195372847640416403e-01 3.573430036347305938e-01 3.110625944647782970e-01 3.517073462886730062e-01 3.403788668994019440e-01 3.960213727511562865e-01 -8.347008293514561472e-02 2.222979946864755141e-01 2.808920538646109688e-01 -3.168046243589359157e-02 4.332341681912063036e-01 1.098009132312147695e+00 9.695188236915959212e-01 -7.216853665986140420e-01 -3.931301635122440574e-01 6.603983454945675513e-01 -3.369310777351531172e+00 1.581162601989741567e+00 2.849551298474329308e-01 -3.118984161404920324e-02 3.103383842199766152e-01 9.028753734629941796e-01 3.088903960619683864e-01 4.217069665723731653e-01 -4.381156401488278118e-01 8.173667050200568163e-01 3.185333450703435876e-01 8.632787222018750706e-01 2.109594512215158701e+00 -3.735392426786713904e-01 -1.481768244255274203e+00 2.450066596422118548e-01 3.080071103672580857e-01 7.517455804867859692e-01 2.727216811629743498e-01 7.016271894674075416e-01 4.691161824404682656e-01 2.989136642371251207e-01 3.010023615385475915e-01 3.096255488668889777e-01 2.879528159048720948e-01 3.087319687915957012e-01 1.431009375704827224e+00 1.661129823132455385e+00 3.126268095690972748e-01 3.495529476099915600e-01 2.115523501759730973e-01 -2.487662566487273130e-01 2.251142884715623127e-01 -5.095453645154369299e-02 3.097336863897393044e-01 7.036588474445512054e-01 -5.434074312993140143e-01 2.738726583008202486e-01 2.947284838376076910e-01 1.540662439286283880e-01 3.320765729551954926e-01 1.931994673380878769e-01 3.128565343531599652e-01 3.118095338555992302e-01 4.520207643092483824e-02 2.943835044797262213e-01 4.337628923638104372e-01 1.132693106630338065e+00 1.109859689416728967e+00 9.155538319131530933e-01 2.097222811981093726e-01 7.918966954578888773e-01 1.555781686345644732e-01 4.990755862143237409e-01 -2.173298824898870052e+00 2.989297703339835466e-01 6.619110472332747630e-01 2.936121419501871443e-01 9.473690295930584648e-01 1.379381757206166181e+00 2.751002442641188872e-01 2.459827648310919934e-01 3.756271485141797206e-01 3.955647648522399029e-01 5.485297014433271334e-01 9.456175497716263756e-01 -8.130201505160524755e-01 2.427292738543499750e-01 3.272043037554724781e-02 2.994492402846437029e-01 3.407782007580008599e-01 7.642518971683448514e-01 -2.606153792701795258e-01 4.089696834904006373e-01 3.184198357474795626e-01 3.616498722705011604e-01 8.946833960565556687e-01 4.328567022847984447e-01 -2.207359270570524168e-01 8.583383556442367723e-01 -3.858157080634158631e-02 5.630499776858656213e-01 3.180568983416229289e-01 1.295880500909668998e+00 5.968198701149840524e-01 7.170856432249639312e-01 4.354503854179557765e-01 4.848185269324449265e-01 -5.838526570342198463e-01 2.255913009674583303e-01 7.532669028300287284e-01 3.154184661168192294e-01 6.112176183837716437e-01 3.181064837403477785e-01 3.098820453261267871e-01 7.158971941084355528e-01 1.611746817449724312e-01 -2.068606737489326441e+00 2.029551694831560615e-01 2.513397493323744625e-01 9.149618812256751221e-01 3.475695647824363355e-01 3.662447760861085033e-01 3.819875546789643361e-01 3.122619127901238301e-01 4.008352428522559130e-01 9.914872774972621761e-02 -1.632421877761484730e+00 7.634181483406796698e-01 2.432259607173696825e-01 3.216575000824383190e-01 2.387535504043108436e-01 8.198523130681855120e-01 3.113778068729921022e-01 -1.548828972992444264e-01 3.486505596271339269e-01 1.125408308813804492e+00 2.781506527917163019e-01 4.163746573958458930e-01 1.042378855966814344e+00 4.178141875715418174e-01 2.839067780245499328e+00 3.266342760264943634e-01 3.236027736384064490e-01 7.110206459918215760e-01 2.972234092809201145e-01 3.375762512258657089e-01 -2.164811215414836454e+00 4.534529323918772281e-01 3.098974095891401381e-01 5.189650829210336047e-01 3.085488900215088703e-01 1.933059292121263872e-01 -1.776218190929251539e-01 2.079124212833062035e+00 -5.183681610377383064e-01 8.257296731108814125e-01 3.096570074897475600e-01 3.024225853851007506e-01 8.439834043080618464e-01 2.845104376902669041e-01 1.345047619722853804e+00 2.228663702930510637e-01 3.985214723763082501e-01 -8.869677655824655949e-01 -1.311060132020550051e-01 -5.714549183152304312e-01 -4.051184541924207849e+00 2.997158530683795785e+00 2.186529538242200713e-02 2.842816069685957237e-01 -1.661381269808274386e+00 3.158207218482633194e-01 4.221150554500366914e-01 3.287642986397709688e-01 1.806061081215325492e-01 6.426601351379608307e-01 6.034267289696350067e-01 1.089808915619290053e+00 -3.931301639586025076e-01 -2.359976442833344457e-01 2.483024823998259967e-01 -1.196850080710515352e+00 2.957194509563978446e-01 -6.570733976434496304e-01 2.949653351432118820e-01 4.459809272559989712e-01 1.081471161742076775e-01 4.572369114268124979e-01 2.630159724310736635e-01 -2.309003258429229502e-02 2.490219908318131725e-01 2.843947115533065340e-01 3.663712241735189723e-01 3.322125811549619390e-01 3.140182222039278881e-01 -7.216738048391324600e-01 4.774715906232571694e-01 1.546866685863852675e+00 7.529124741513652797e-02 2.358029295727847308e-01 2.471726792176076604e-01 1.204334844508520019e+00 3.341905582190753399e-01 9.538850953113728326e-02 8.855390650342440662e-01 2.394952685591583141e-01 1.886099910992246054e+00 2.795315470531678503e-01 1.352793499102260544e+00 3.255699073943696398e-01 7.345158363380548394e-01 1.357324555349205930e+00 3.930120473524440494e-01 2.927547922015044657e-01 9.475774688532746515e-01 -1.849478825271186344e-01 -6.626621734988556722e-02 2.422158142425377969e-01 3.053856413195106811e-01 3.629288285537572989e-01 1.453131617368986217e-01 1.185023506518509545e-01 -3.845466298370294189e-01 1.292260029371147034e+00 2.979826478056312733e-01 3.136460385185442790e-01 -3.249918678022398311e+00 5.585308768936818602e-01 2.289762325157315148e-01 3.607379546295422790e-01 3.748920936286621042e-01 4.361003294060388225e-01 -1.118801972777123011e+00 6.322507887763001433e-01 2.940389552093118364e-01 3.161114738760906762e-01 1.021272771940229029e+00 4.671576967877946185e-01 3.038934686295312049e-01 -1.417511312234909671e+00 3.616673047327663704e-01 8.948167955985109057e-01 3.549188999812486478e-01 2.981736793115699613e-01 3.032469613999463909e-01 7.113956066194604411e-01 -4.898879388387504530e-02 3.134883611878051535e-01 2.960224533486005560e-01 9.779633228210299345e-02 6.672006600228398421e-01 2.471262299022267961e-01 6.923055812600671377e-01 1.818950173421772232e-01 6.933057596573339865e-01 -2.462700424013296308e-01 -1.511837305568784595e+00 2.843759640318402893e-01 -2.080509292462646639e-02 2.853738573906222653e-01 3.602005153637814483e-01 5.545460699478987898e-02 5.016306403319235052e-01 3.187025779533680936e-01 8.364049309136835364e-02 4.288820093896341668e-01 3.294347598058439686e-01 2.881818804638143772e-01 3.194739514627901733e-01 -8.611180991655386086e-01 3.063587223108876767e-01 3.094685313353367495e-01 2.902436479222441634e-01 -3.183630114029992186e-01 3.068381338309085216e-01 8.360208198165183235e-01 -6.098161758342736105e-01 1.135097718765676555e+00 6.193651329467811939e-01 3.061422939364981666e-01 3.122823332756425319e-01 -2.065957905197712829e+00 3.113670933438928978e-01 2.394591140745706837e-01 3.087981806372707694e-01 5.016305489559700348e-01 3.082512890847658449e-01 3.433820811471919865e-01 5.873951190488782559e-02 3.132838951495479085e-01 4.338091055990239697e-01 2.999963629885853411e-01 2.374757554530925185e-01 2.837105627444733713e-01 3.019883413963141416e-01 3.138483495261558676e-01 3.058196483352514372e-01 1.240784502019115637e-01 3.046683610451978441e-01 6.273609872756830130e-01 1.626367737394773250e-01 3.124823987363942179e-01 -1.480274407215070864e-01 1.921434010992924268e-01 6.364234396399154337e-01 4.561673170253877529e+00 3.383547350789219976e-01 6.831001081367449324e-02 5.691257315012946405e-01 1.769443553937369851e-01 1.569532376134871177e+00 3.335138761663276052e-01 6.343219608124237574e-01 3.113390084302016247e-01
