# 
#                 ----------------------------------------------------
#                 Data from a 3D direct N-body simulation. 
# 
#                 rows are i-particle; 
#                 coumns are :mass, tag, x ,y, z, vx, vy, vz, ax, ay, az
# 
#                 NTHU, Computational Physics 
# 
#                 ----------------------------------------------------
#                 Time = 0.0
0.000000000000000000e+00 1.000000000000000000e+00 2.000000000000000000e+00 3.000000000000000000e+00 4.000000000000000000e+00 5.000000000000000000e+00 6.000000000000000000e+00 7.000000000000000000e+00 8.000000000000000000e+00 9.000000000000000000e+00 1.000000000000000000e+01 1.100000000000000000e+01 1.200000000000000000e+01 1.300000000000000000e+01 1.400000000000000000e+01 1.500000000000000000e+01 1.600000000000000000e+01 1.700000000000000000e+01 1.800000000000000000e+01 1.900000000000000000e+01 2.000000000000000000e+01 2.100000000000000000e+01 2.200000000000000000e+01 2.300000000000000000e+01 2.400000000000000000e+01 2.500000000000000000e+01 2.600000000000000000e+01 2.700000000000000000e+01 2.800000000000000000e+01 2.900000000000000000e+01 3.000000000000000000e+01 3.100000000000000000e+01 3.200000000000000000e+01 3.300000000000000000e+01 3.400000000000000000e+01 3.500000000000000000e+01 3.600000000000000000e+01 3.700000000000000000e+01 3.800000000000000000e+01 3.900000000000000000e+01 4.000000000000000000e+01 4.100000000000000000e+01 4.200000000000000000e+01 4.300000000000000000e+01 4.400000000000000000e+01 4.500000000000000000e+01 4.600000000000000000e+01 4.700000000000000000e+01 4.800000000000000000e+01 4.900000000000000000e+01 5.000000000000000000e+01 5.100000000000000000e+01 5.200000000000000000e+01 5.300000000000000000e+01 5.400000000000000000e+01 5.500000000000000000e+01 5.600000000000000000e+01 5.700000000000000000e+01 5.800000000000000000e+01 5.900000000000000000e+01 6.000000000000000000e+01 6.100000000000000000e+01 6.200000000000000000e+01 6.300000000000000000e+01 6.400000000000000000e+01 6.500000000000000000e+01 6.600000000000000000e+01 6.700000000000000000e+01 6.800000000000000000e+01 6.900000000000000000e+01 7.000000000000000000e+01 7.100000000000000000e+01 7.200000000000000000e+01 7.300000000000000000e+01 7.400000000000000000e+01 7.500000000000000000e+01 7.600000000000000000e+01 7.700000000000000000e+01 7.800000000000000000e+01 7.900000000000000000e+01 8.000000000000000000e+01 8.100000000000000000e+01 8.200000000000000000e+01 8.300000000000000000e+01 8.400000000000000000e+01 8.500000000000000000e+01 8.600000000000000000e+01 8.700000000000000000e+01 8.800000000000000000e+01 8.900000000000000000e+01 9.000000000000000000e+01 9.100000000000000000e+01 9.200000000000000000e+01 9.300000000000000000e+01 9.400000000000000000e+01 9.500000000000000000e+01 9.600000000000000000e+01 9.700000000000000000e+01 9.800000000000000000e+01 9.900000000000000000e+01 1.000000000000000000e+02 1.010000000000000000e+02 1.020000000000000000e+02 1.030000000000000000e+02 1.040000000000000000e+02 1.050000000000000000e+02 1.060000000000000000e+02 1.070000000000000000e+02 1.080000000000000000e+02 1.090000000000000000e+02 1.100000000000000000e+02 1.110000000000000000e+02 1.120000000000000000e+02 1.130000000000000000e+02 1.140000000000000000e+02 1.150000000000000000e+02 1.160000000000000000e+02 1.170000000000000000e+02 1.180000000000000000e+02 1.190000000000000000e+02 1.200000000000000000e+02 1.210000000000000000e+02 1.220000000000000000e+02 1.230000000000000000e+02 1.240000000000000000e+02 1.250000000000000000e+02 1.260000000000000000e+02 1.270000000000000000e+02 1.280000000000000000e+02 1.290000000000000000e+02 1.300000000000000000e+02 1.310000000000000000e+02 1.320000000000000000e+02 1.330000000000000000e+02 1.340000000000000000e+02 1.350000000000000000e+02 1.360000000000000000e+02 1.370000000000000000e+02 1.380000000000000000e+02 1.390000000000000000e+02 1.400000000000000000e+02 1.410000000000000000e+02 1.420000000000000000e+02 1.430000000000000000e+02 1.440000000000000000e+02 1.450000000000000000e+02 1.460000000000000000e+02 1.470000000000000000e+02 1.480000000000000000e+02 1.490000000000000000e+02 1.500000000000000000e+02 1.510000000000000000e+02 1.520000000000000000e+02 1.530000000000000000e+02 1.540000000000000000e+02 1.550000000000000000e+02 1.560000000000000000e+02 1.570000000000000000e+02 1.580000000000000000e+02 1.590000000000000000e+02 1.600000000000000000e+02 1.610000000000000000e+02 1.620000000000000000e+02 1.630000000000000000e+02 1.640000000000000000e+02 1.650000000000000000e+02 1.660000000000000000e+02 1.670000000000000000e+02 1.680000000000000000e+02 1.690000000000000000e+02 1.700000000000000000e+02 1.710000000000000000e+02 1.720000000000000000e+02 1.730000000000000000e+02 1.740000000000000000e+02 1.750000000000000000e+02 1.760000000000000000e+02 1.770000000000000000e+02 1.780000000000000000e+02 1.790000000000000000e+02 1.800000000000000000e+02 1.810000000000000000e+02 1.820000000000000000e+02 1.830000000000000000e+02 1.840000000000000000e+02 1.850000000000000000e+02 1.860000000000000000e+02 1.870000000000000000e+02 1.880000000000000000e+02 1.890000000000000000e+02 1.900000000000000000e+02 1.910000000000000000e+02 1.920000000000000000e+02 1.930000000000000000e+02 1.940000000000000000e+02 1.950000000000000000e+02 1.960000000000000000e+02 1.970000000000000000e+02 1.980000000000000000e+02 1.990000000000000000e+02 2.000000000000000000e+02 2.010000000000000000e+02 2.020000000000000000e+02 2.030000000000000000e+02 2.040000000000000000e+02 2.050000000000000000e+02 2.060000000000000000e+02 2.070000000000000000e+02 2.080000000000000000e+02 2.090000000000000000e+02 2.100000000000000000e+02 2.110000000000000000e+02 2.120000000000000000e+02 2.130000000000000000e+02 2.140000000000000000e+02 2.150000000000000000e+02 2.160000000000000000e+02 2.170000000000000000e+02 2.180000000000000000e+02 2.190000000000000000e+02 2.200000000000000000e+02 2.210000000000000000e+02 2.220000000000000000e+02 2.230000000000000000e+02 2.240000000000000000e+02 2.250000000000000000e+02 2.260000000000000000e+02 2.270000000000000000e+02 2.280000000000000000e+02 2.290000000000000000e+02 2.300000000000000000e+02 2.310000000000000000e+02 2.320000000000000000e+02 2.330000000000000000e+02 2.340000000000000000e+02 2.350000000000000000e+02 2.360000000000000000e+02 2.370000000000000000e+02 2.380000000000000000e+02 2.390000000000000000e+02 2.400000000000000000e+02 2.410000000000000000e+02 2.420000000000000000e+02 2.430000000000000000e+02 2.440000000000000000e+02 2.450000000000000000e+02 2.460000000000000000e+02 2.470000000000000000e+02 2.480000000000000000e+02 2.490000000000000000e+02 2.500000000000000000e+02 2.510000000000000000e+02 2.520000000000000000e+02 2.530000000000000000e+02 2.540000000000000000e+02 2.550000000000000000e+02 2.560000000000000000e+02 2.570000000000000000e+02 2.580000000000000000e+02 2.590000000000000000e+02 2.600000000000000000e+02 2.610000000000000000e+02 2.620000000000000000e+02 2.630000000000000000e+02 2.640000000000000000e+02 2.650000000000000000e+02 2.660000000000000000e+02 2.670000000000000000e+02 2.680000000000000000e+02 2.690000000000000000e+02 2.700000000000000000e+02 2.710000000000000000e+02 2.720000000000000000e+02 2.730000000000000000e+02 2.740000000000000000e+02 2.750000000000000000e+02 2.760000000000000000e+02 2.770000000000000000e+02 2.780000000000000000e+02 2.790000000000000000e+02 2.800000000000000000e+02 2.810000000000000000e+02 2.820000000000000000e+02 2.830000000000000000e+02 2.840000000000000000e+02 2.850000000000000000e+02 2.860000000000000000e+02 2.870000000000000000e+02 2.880000000000000000e+02 2.890000000000000000e+02 2.900000000000000000e+02 2.910000000000000000e+02 2.920000000000000000e+02 2.930000000000000000e+02 2.940000000000000000e+02 2.950000000000000000e+02 2.960000000000000000e+02 2.970000000000000000e+02 2.980000000000000000e+02 2.990000000000000000e+02 3.000000000000000000e+02 3.010000000000000000e+02 3.020000000000000000e+02 3.030000000000000000e+02 3.040000000000000000e+02 3.050000000000000000e+02 3.060000000000000000e+02 3.070000000000000000e+02 3.080000000000000000e+02 3.090000000000000000e+02 3.100000000000000000e+02 3.110000000000000000e+02 3.120000000000000000e+02 3.130000000000000000e+02 3.140000000000000000e+02 3.150000000000000000e+02 3.160000000000000000e+02 3.170000000000000000e+02 3.180000000000000000e+02 3.190000000000000000e+02 3.200000000000000000e+02 3.210000000000000000e+02 3.220000000000000000e+02 3.230000000000000000e+02 3.240000000000000000e+02 3.250000000000000000e+02 3.260000000000000000e+02 3.270000000000000000e+02 3.280000000000000000e+02 3.290000000000000000e+02 3.300000000000000000e+02 3.310000000000000000e+02 3.320000000000000000e+02 3.330000000000000000e+02 3.340000000000000000e+02 3.350000000000000000e+02 3.360000000000000000e+02 3.370000000000000000e+02 3.380000000000000000e+02 3.390000000000000000e+02 3.400000000000000000e+02 3.410000000000000000e+02 3.420000000000000000e+02 3.430000000000000000e+02 3.440000000000000000e+02 3.450000000000000000e+02 3.460000000000000000e+02 3.470000000000000000e+02 3.480000000000000000e+02 3.490000000000000000e+02 3.500000000000000000e+02 3.510000000000000000e+02 3.520000000000000000e+02 3.530000000000000000e+02 3.540000000000000000e+02 3.550000000000000000e+02 3.560000000000000000e+02 3.570000000000000000e+02 3.580000000000000000e+02 3.590000000000000000e+02 3.600000000000000000e+02 3.610000000000000000e+02 3.620000000000000000e+02 3.630000000000000000e+02 3.640000000000000000e+02 3.650000000000000000e+02 3.660000000000000000e+02 3.670000000000000000e+02 3.680000000000000000e+02 3.690000000000000000e+02 3.700000000000000000e+02 3.710000000000000000e+02 3.720000000000000000e+02 3.730000000000000000e+02 3.740000000000000000e+02 3.750000000000000000e+02 3.760000000000000000e+02 3.770000000000000000e+02 3.780000000000000000e+02 3.790000000000000000e+02 3.800000000000000000e+02 3.810000000000000000e+02 3.820000000000000000e+02 3.830000000000000000e+02 3.840000000000000000e+02 3.850000000000000000e+02 3.860000000000000000e+02 3.870000000000000000e+02 3.880000000000000000e+02 3.890000000000000000e+02 3.900000000000000000e+02 3.910000000000000000e+02 3.920000000000000000e+02 3.930000000000000000e+02 3.940000000000000000e+02 3.950000000000000000e+02 3.960000000000000000e+02 3.970000000000000000e+02 3.980000000000000000e+02 3.990000000000000000e+02 4.000000000000000000e+02 4.010000000000000000e+02 4.020000000000000000e+02 4.030000000000000000e+02 4.040000000000000000e+02 4.050000000000000000e+02 4.060000000000000000e+02 4.070000000000000000e+02 4.080000000000000000e+02 4.090000000000000000e+02 4.100000000000000000e+02 4.110000000000000000e+02 4.120000000000000000e+02 4.130000000000000000e+02 4.140000000000000000e+02 4.150000000000000000e+02 4.160000000000000000e+02 4.170000000000000000e+02 4.180000000000000000e+02 4.190000000000000000e+02 4.200000000000000000e+02 4.210000000000000000e+02 4.220000000000000000e+02 4.230000000000000000e+02 4.240000000000000000e+02 4.250000000000000000e+02 4.260000000000000000e+02 4.270000000000000000e+02 4.280000000000000000e+02 4.290000000000000000e+02 4.300000000000000000e+02 4.310000000000000000e+02 4.320000000000000000e+02 4.330000000000000000e+02 4.340000000000000000e+02 4.350000000000000000e+02 4.360000000000000000e+02 4.370000000000000000e+02 4.380000000000000000e+02 4.390000000000000000e+02 4.400000000000000000e+02 4.410000000000000000e+02 4.420000000000000000e+02 4.430000000000000000e+02 4.440000000000000000e+02 4.450000000000000000e+02 4.460000000000000000e+02 4.470000000000000000e+02 4.480000000000000000e+02 4.490000000000000000e+02 4.500000000000000000e+02 4.510000000000000000e+02 4.520000000000000000e+02 4.530000000000000000e+02 4.540000000000000000e+02 4.550000000000000000e+02 4.560000000000000000e+02 4.570000000000000000e+02 4.580000000000000000e+02 4.590000000000000000e+02 4.600000000000000000e+02 4.610000000000000000e+02 4.620000000000000000e+02 4.630000000000000000e+02 4.640000000000000000e+02 4.650000000000000000e+02 4.660000000000000000e+02 4.670000000000000000e+02 4.680000000000000000e+02 4.690000000000000000e+02 4.700000000000000000e+02 4.710000000000000000e+02 4.720000000000000000e+02 4.730000000000000000e+02 4.740000000000000000e+02 4.750000000000000000e+02 4.760000000000000000e+02 4.770000000000000000e+02 4.780000000000000000e+02 4.790000000000000000e+02 4.800000000000000000e+02 4.810000000000000000e+02 4.820000000000000000e+02 4.830000000000000000e+02 4.840000000000000000e+02 4.850000000000000000e+02 4.860000000000000000e+02 4.870000000000000000e+02 4.880000000000000000e+02 4.890000000000000000e+02 4.900000000000000000e+02 4.910000000000000000e+02 4.920000000000000000e+02 4.930000000000000000e+02 4.940000000000000000e+02 4.950000000000000000e+02 4.960000000000000000e+02 4.970000000000000000e+02 4.980000000000000000e+02 4.990000000000000000e+02 5.000000000000000000e+02 5.010000000000000000e+02 5.020000000000000000e+02 5.030000000000000000e+02 5.040000000000000000e+02 5.050000000000000000e+02 5.060000000000000000e+02 5.070000000000000000e+02 5.080000000000000000e+02 5.090000000000000000e+02 5.100000000000000000e+02 5.110000000000000000e+02 5.120000000000000000e+02 5.130000000000000000e+02 5.140000000000000000e+02 5.150000000000000000e+02 5.160000000000000000e+02 5.170000000000000000e+02 5.180000000000000000e+02 5.190000000000000000e+02 5.200000000000000000e+02 5.210000000000000000e+02 5.220000000000000000e+02 5.230000000000000000e+02 5.240000000000000000e+02 5.250000000000000000e+02 5.260000000000000000e+02 5.270000000000000000e+02 5.280000000000000000e+02 5.290000000000000000e+02 5.300000000000000000e+02 5.310000000000000000e+02 5.320000000000000000e+02 5.330000000000000000e+02 5.340000000000000000e+02 5.350000000000000000e+02 5.360000000000000000e+02 5.370000000000000000e+02 5.380000000000000000e+02 5.390000000000000000e+02 5.400000000000000000e+02 5.410000000000000000e+02 5.420000000000000000e+02 5.430000000000000000e+02 5.440000000000000000e+02 5.450000000000000000e+02 5.460000000000000000e+02 5.470000000000000000e+02 5.480000000000000000e+02 5.490000000000000000e+02 5.500000000000000000e+02 5.510000000000000000e+02 5.520000000000000000e+02 5.530000000000000000e+02 5.540000000000000000e+02 5.550000000000000000e+02 5.560000000000000000e+02 5.570000000000000000e+02 5.580000000000000000e+02 5.590000000000000000e+02 5.600000000000000000e+02 5.610000000000000000e+02 5.620000000000000000e+02 5.630000000000000000e+02 5.640000000000000000e+02 5.650000000000000000e+02 5.660000000000000000e+02 5.670000000000000000e+02 5.680000000000000000e+02 5.690000000000000000e+02 5.700000000000000000e+02 5.710000000000000000e+02 5.720000000000000000e+02 5.730000000000000000e+02 5.740000000000000000e+02 5.750000000000000000e+02 5.760000000000000000e+02 5.770000000000000000e+02 5.780000000000000000e+02 5.790000000000000000e+02 5.800000000000000000e+02 5.810000000000000000e+02 5.820000000000000000e+02 5.830000000000000000e+02 5.840000000000000000e+02 5.850000000000000000e+02 5.860000000000000000e+02 5.870000000000000000e+02 5.880000000000000000e+02 5.890000000000000000e+02 5.900000000000000000e+02 5.910000000000000000e+02 5.920000000000000000e+02 5.930000000000000000e+02 5.940000000000000000e+02 5.950000000000000000e+02 5.960000000000000000e+02 5.970000000000000000e+02 5.980000000000000000e+02 5.990000000000000000e+02 6.000000000000000000e+02 6.010000000000000000e+02 6.020000000000000000e+02 6.030000000000000000e+02 6.040000000000000000e+02 6.050000000000000000e+02 6.060000000000000000e+02 6.070000000000000000e+02 6.080000000000000000e+02 6.090000000000000000e+02 6.100000000000000000e+02 6.110000000000000000e+02 6.120000000000000000e+02 6.130000000000000000e+02 6.140000000000000000e+02 6.150000000000000000e+02 6.160000000000000000e+02 6.170000000000000000e+02 6.180000000000000000e+02 6.190000000000000000e+02 6.200000000000000000e+02 6.210000000000000000e+02 6.220000000000000000e+02 6.230000000000000000e+02 6.240000000000000000e+02 6.250000000000000000e+02 6.260000000000000000e+02 6.270000000000000000e+02 6.280000000000000000e+02 6.290000000000000000e+02 6.300000000000000000e+02 6.310000000000000000e+02 6.320000000000000000e+02 6.330000000000000000e+02 6.340000000000000000e+02 6.350000000000000000e+02 6.360000000000000000e+02 6.370000000000000000e+02 6.380000000000000000e+02 6.390000000000000000e+02 6.400000000000000000e+02 6.410000000000000000e+02 6.420000000000000000e+02 6.430000000000000000e+02 6.440000000000000000e+02 6.450000000000000000e+02 6.460000000000000000e+02 6.470000000000000000e+02 6.480000000000000000e+02 6.490000000000000000e+02 6.500000000000000000e+02 6.510000000000000000e+02 6.520000000000000000e+02 6.530000000000000000e+02 6.540000000000000000e+02 6.550000000000000000e+02 6.560000000000000000e+02 6.570000000000000000e+02 6.580000000000000000e+02 6.590000000000000000e+02 6.600000000000000000e+02 6.610000000000000000e+02 6.620000000000000000e+02 6.630000000000000000e+02 6.640000000000000000e+02 6.650000000000000000e+02 6.660000000000000000e+02 6.670000000000000000e+02 6.680000000000000000e+02 6.690000000000000000e+02 6.700000000000000000e+02 6.710000000000000000e+02 6.720000000000000000e+02 6.730000000000000000e+02 6.740000000000000000e+02 6.750000000000000000e+02 6.760000000000000000e+02 6.770000000000000000e+02 6.780000000000000000e+02 6.790000000000000000e+02 6.800000000000000000e+02 6.810000000000000000e+02 6.820000000000000000e+02 6.830000000000000000e+02 6.840000000000000000e+02 6.850000000000000000e+02 6.860000000000000000e+02 6.870000000000000000e+02 6.880000000000000000e+02 6.890000000000000000e+02 6.900000000000000000e+02 6.910000000000000000e+02 6.920000000000000000e+02 6.930000000000000000e+02 6.940000000000000000e+02 6.950000000000000000e+02 6.960000000000000000e+02 6.970000000000000000e+02 6.980000000000000000e+02 6.990000000000000000e+02 7.000000000000000000e+02 7.010000000000000000e+02 7.020000000000000000e+02 7.030000000000000000e+02 7.040000000000000000e+02 7.050000000000000000e+02 7.060000000000000000e+02 7.070000000000000000e+02 7.080000000000000000e+02 7.090000000000000000e+02 7.100000000000000000e+02 7.110000000000000000e+02 7.120000000000000000e+02 7.130000000000000000e+02 7.140000000000000000e+02 7.150000000000000000e+02 7.160000000000000000e+02 7.170000000000000000e+02 7.180000000000000000e+02 7.190000000000000000e+02 7.200000000000000000e+02 7.210000000000000000e+02 7.220000000000000000e+02 7.230000000000000000e+02 7.240000000000000000e+02 7.250000000000000000e+02 7.260000000000000000e+02 7.270000000000000000e+02 7.280000000000000000e+02 7.290000000000000000e+02 7.300000000000000000e+02 7.310000000000000000e+02 7.320000000000000000e+02 7.330000000000000000e+02 7.340000000000000000e+02 7.350000000000000000e+02 7.360000000000000000e+02 7.370000000000000000e+02 7.380000000000000000e+02 7.390000000000000000e+02 7.400000000000000000e+02 7.410000000000000000e+02 7.420000000000000000e+02 7.430000000000000000e+02 7.440000000000000000e+02 7.450000000000000000e+02 7.460000000000000000e+02 7.470000000000000000e+02 7.480000000000000000e+02 7.490000000000000000e+02 7.500000000000000000e+02 7.510000000000000000e+02 7.520000000000000000e+02 7.530000000000000000e+02 7.540000000000000000e+02 7.550000000000000000e+02 7.560000000000000000e+02 7.570000000000000000e+02 7.580000000000000000e+02 7.590000000000000000e+02 7.600000000000000000e+02 7.610000000000000000e+02 7.620000000000000000e+02 7.630000000000000000e+02 7.640000000000000000e+02 7.650000000000000000e+02 7.660000000000000000e+02 7.670000000000000000e+02 7.680000000000000000e+02 7.690000000000000000e+02 7.700000000000000000e+02 7.710000000000000000e+02 7.720000000000000000e+02 7.730000000000000000e+02 7.740000000000000000e+02 7.750000000000000000e+02 7.760000000000000000e+02 7.770000000000000000e+02 7.780000000000000000e+02 7.790000000000000000e+02 7.800000000000000000e+02 7.810000000000000000e+02 7.820000000000000000e+02 7.830000000000000000e+02 7.840000000000000000e+02 7.850000000000000000e+02 7.860000000000000000e+02 7.870000000000000000e+02 7.880000000000000000e+02 7.890000000000000000e+02 7.900000000000000000e+02 7.910000000000000000e+02 7.920000000000000000e+02 7.930000000000000000e+02 7.940000000000000000e+02 7.950000000000000000e+02 7.960000000000000000e+02 7.970000000000000000e+02 7.980000000000000000e+02 7.990000000000000000e+02 8.000000000000000000e+02 8.010000000000000000e+02 8.020000000000000000e+02 8.030000000000000000e+02 8.040000000000000000e+02 8.050000000000000000e+02 8.060000000000000000e+02 8.070000000000000000e+02 8.080000000000000000e+02 8.090000000000000000e+02 8.100000000000000000e+02 8.110000000000000000e+02 8.120000000000000000e+02 8.130000000000000000e+02 8.140000000000000000e+02 8.150000000000000000e+02 8.160000000000000000e+02 8.170000000000000000e+02 8.180000000000000000e+02 8.190000000000000000e+02 8.200000000000000000e+02 8.210000000000000000e+02 8.220000000000000000e+02 8.230000000000000000e+02 8.240000000000000000e+02 8.250000000000000000e+02 8.260000000000000000e+02 8.270000000000000000e+02 8.280000000000000000e+02 8.290000000000000000e+02 8.300000000000000000e+02 8.310000000000000000e+02 8.320000000000000000e+02 8.330000000000000000e+02 8.340000000000000000e+02 8.350000000000000000e+02 8.360000000000000000e+02 8.370000000000000000e+02 8.380000000000000000e+02 8.390000000000000000e+02 8.400000000000000000e+02 8.410000000000000000e+02 8.420000000000000000e+02 8.430000000000000000e+02 8.440000000000000000e+02 8.450000000000000000e+02 8.460000000000000000e+02 8.470000000000000000e+02 8.480000000000000000e+02 8.490000000000000000e+02 8.500000000000000000e+02 8.510000000000000000e+02 8.520000000000000000e+02 8.530000000000000000e+02 8.540000000000000000e+02 8.550000000000000000e+02 8.560000000000000000e+02 8.570000000000000000e+02 8.580000000000000000e+02 8.590000000000000000e+02 8.600000000000000000e+02 8.610000000000000000e+02 8.620000000000000000e+02 8.630000000000000000e+02 8.640000000000000000e+02 8.650000000000000000e+02 8.660000000000000000e+02 8.670000000000000000e+02 8.680000000000000000e+02 8.690000000000000000e+02 8.700000000000000000e+02 8.710000000000000000e+02 8.720000000000000000e+02 8.730000000000000000e+02 8.740000000000000000e+02 8.750000000000000000e+02 8.760000000000000000e+02 8.770000000000000000e+02 8.780000000000000000e+02 8.790000000000000000e+02 8.800000000000000000e+02 8.810000000000000000e+02 8.820000000000000000e+02 8.830000000000000000e+02 8.840000000000000000e+02 8.850000000000000000e+02 8.860000000000000000e+02 8.870000000000000000e+02 8.880000000000000000e+02 8.890000000000000000e+02 8.900000000000000000e+02 8.910000000000000000e+02 8.920000000000000000e+02 8.930000000000000000e+02 8.940000000000000000e+02 8.950000000000000000e+02 8.960000000000000000e+02 8.970000000000000000e+02 8.980000000000000000e+02 8.990000000000000000e+02 9.000000000000000000e+02 9.010000000000000000e+02 9.020000000000000000e+02 9.030000000000000000e+02 9.040000000000000000e+02 9.050000000000000000e+02 9.060000000000000000e+02 9.070000000000000000e+02 9.080000000000000000e+02 9.090000000000000000e+02 9.100000000000000000e+02 9.110000000000000000e+02 9.120000000000000000e+02 9.130000000000000000e+02 9.140000000000000000e+02 9.150000000000000000e+02 9.160000000000000000e+02 9.170000000000000000e+02 9.180000000000000000e+02 9.190000000000000000e+02 9.200000000000000000e+02 9.210000000000000000e+02 9.220000000000000000e+02 9.230000000000000000e+02 9.240000000000000000e+02 9.250000000000000000e+02 9.260000000000000000e+02 9.270000000000000000e+02 9.280000000000000000e+02 9.290000000000000000e+02 9.300000000000000000e+02 9.310000000000000000e+02 9.320000000000000000e+02 9.330000000000000000e+02 9.340000000000000000e+02 9.350000000000000000e+02 9.360000000000000000e+02 9.370000000000000000e+02 9.380000000000000000e+02 9.390000000000000000e+02 9.400000000000000000e+02 9.410000000000000000e+02 9.420000000000000000e+02 9.430000000000000000e+02 9.440000000000000000e+02 9.450000000000000000e+02 9.460000000000000000e+02 9.470000000000000000e+02 9.480000000000000000e+02 9.490000000000000000e+02 9.500000000000000000e+02 9.510000000000000000e+02 9.520000000000000000e+02 9.530000000000000000e+02 9.540000000000000000e+02 9.550000000000000000e+02 9.560000000000000000e+02 9.570000000000000000e+02 9.580000000000000000e+02 9.590000000000000000e+02 9.600000000000000000e+02 9.610000000000000000e+02 9.620000000000000000e+02 9.630000000000000000e+02 9.640000000000000000e+02 9.650000000000000000e+02 9.660000000000000000e+02 9.670000000000000000e+02 9.680000000000000000e+02 9.690000000000000000e+02 9.700000000000000000e+02 9.710000000000000000e+02 9.720000000000000000e+02 9.730000000000000000e+02 9.740000000000000000e+02 9.750000000000000000e+02 9.760000000000000000e+02 9.770000000000000000e+02 9.780000000000000000e+02 9.790000000000000000e+02 9.800000000000000000e+02 9.810000000000000000e+02 9.820000000000000000e+02 9.830000000000000000e+02 9.840000000000000000e+02 9.850000000000000000e+02 9.860000000000000000e+02 9.870000000000000000e+02 9.880000000000000000e+02 9.890000000000000000e+02 9.900000000000000000e+02 9.910000000000000000e+02 9.920000000000000000e+02 9.930000000000000000e+02 9.940000000000000000e+02 9.950000000000000000e+02 9.960000000000000000e+02 9.970000000000000000e+02 9.980000000000000000e+02 9.990000000000000000e+02
1.000000000000000000e+00 1.000000000000000000e+00 1.000000000000000000e+00 1.000000000000000000e+00 1.000000000000000000e+00 1.000000000000000000e+00 1.000000000000000000e+00 1.000000000000000000e+00 1.000000000000000000e+00 1.000000000000000000e+00 1.000000000000000000e+00 1.000000000000000000e+00 1.000000000000000000e+00 1.000000000000000000e+00 1.000000000000000000e+00 1.000000000000000000e+00 1.000000000000000000e+00 1.000000000000000000e+00 1.000000000000000000e+00 1.000000000000000000e+00 1.000000000000000000e+00 1.000000000000000000e+00 1.000000000000000000e+00 1.000000000000000000e+00 1.000000000000000000e+00 1.000000000000000000e+00 1.000000000000000000e+00 1.000000000000000000e+00 1.000000000000000000e+00 1.000000000000000000e+00 1.000000000000000000e+00 1.000000000000000000e+00 1.000000000000000000e+00 1.000000000000000000e+00 1.000000000000000000e+00 1.000000000000000000e+00 1.000000000000000000e+00 1.000000000000000000e+00 1.000000000000000000e+00 1.000000000000000000e+00 1.000000000000000000e+00 1.000000000000000000e+00 1.000000000000000000e+00 1.000000000000000000e+00 1.000000000000000000e+00 1.000000000000000000e+00 1.000000000000000000e+00 1.000000000000000000e+00 1.000000000000000000e+00 1.000000000000000000e+00 1.000000000000000000e+00 1.000000000000000000e+00 1.000000000000000000e+00 1.000000000000000000e+00 1.000000000000000000e+00 1.000000000000000000e+00 1.000000000000000000e+00 1.000000000000000000e+00 1.000000000000000000e+00 1.000000000000000000e+00 1.000000000000000000e+00 1.000000000000000000e+00 1.000000000000000000e+00 1.000000000000000000e+00 1.000000000000000000e+00 1.000000000000000000e+00 1.000000000000000000e+00 1.000000000000000000e+00 1.000000000000000000e+00 1.000000000000000000e+00 1.000000000000000000e+00 1.000000000000000000e+00 1.000000000000000000e+00 1.000000000000000000e+00 1.000000000000000000e+00 1.000000000000000000e+00 1.000000000000000000e+00 1.000000000000000000e+00 1.000000000000000000e+00 1.000000000000000000e+00 1.000000000000000000e+00 1.000000000000000000e+00 1.000000000000000000e+00 1.000000000000000000e+00 1.000000000000000000e+00 1.000000000000000000e+00 1.000000000000000000e+00 1.000000000000000000e+00 1.000000000000000000e+00 1.000000000000000000e+00 1.000000000000000000e+00 1.000000000000000000e+00 1.000000000000000000e+00 1.000000000000000000e+00 1.000000000000000000e+00 1.000000000000000000e+00 1.000000000000000000e+00 1.000000000000000000e+00 1.000000000000000000e+00 1.000000000000000000e+00 1.000000000000000000e+00 1.000000000000000000e+00 1.000000000000000000e+00 1.000000000000000000e+00 1.000000000000000000e+00 1.000000000000000000e+00 1.000000000000000000e+00 1.000000000000000000e+00 1.000000000000000000e+00 1.000000000000000000e+00 1.000000000000000000e+00 1.000000000000000000e+00 1.000000000000000000e+00 1.000000000000000000e+00 1.000000000000000000e+00 1.000000000000000000e+00 1.000000000000000000e+00 1.000000000000000000e+00 1.000000000000000000e+00 1.000000000000000000e+00 1.000000000000000000e+00 1.000000000000000000e+00 1.000000000000000000e+00 1.000000000000000000e+00 1.000000000000000000e+00 1.000000000000000000e+00 1.000000000000000000e+00 1.000000000000000000e+00 1.000000000000000000e+00 1.000000000000000000e+00 1.000000000000000000e+00 1.000000000000000000e+00 1.000000000000000000e+00 1.000000000000000000e+00 1.000000000000000000e+00 1.000000000000000000e+00 1.000000000000000000e+00 1.000000000000000000e+00 1.000000000000000000e+00 1.000000000000000000e+00 1.000000000000000000e+00 1.000000000000000000e+00 1.000000000000000000e+00 1.000000000000000000e+00 1.000000000000000000e+00 1.000000000000000000e+00 1.000000000000000000e+00 1.000000000000000000e+00 1.000000000000000000e+00 1.000000000000000000e+00 1.000000000000000000e+00 1.000000000000000000e+00 1.000000000000000000e+00 1.000000000000000000e+00 1.000000000000000000e+00 1.000000000000000000e+00 1.000000000000000000e+00 1.000000000000000000e+00 1.000000000000000000e+00 1.000000000000000000e+00 1.000000000000000000e+00 1.000000000000000000e+00 1.000000000000000000e+00 1.000000000000000000e+00 1.000000000000000000e+00 1.000000000000000000e+00 1.000000000000000000e+00 1.000000000000000000e+00 1.000000000000000000e+00 1.000000000000000000e+00 1.000000000000000000e+00 1.000000000000000000e+00 1.000000000000000000e+00 1.000000000000000000e+00 1.000000000000000000e+00 1.000000000000000000e+00 1.000000000000000000e+00 1.000000000000000000e+00 1.000000000000000000e+00 1.000000000000000000e+00 1.000000000000000000e+00 1.000000000000000000e+00 1.000000000000000000e+00 1.000000000000000000e+00 1.000000000000000000e+00 1.000000000000000000e+00 1.000000000000000000e+00 1.000000000000000000e+00 1.000000000000000000e+00 1.000000000000000000e+00 1.000000000000000000e+00 1.000000000000000000e+00 1.000000000000000000e+00 1.000000000000000000e+00 1.000000000000000000e+00 1.000000000000000000e+00 1.000000000000000000e+00 1.000000000000000000e+00 1.000000000000000000e+00 1.000000000000000000e+00 1.000000000000000000e+00 1.000000000000000000e+00 1.000000000000000000e+00 1.000000000000000000e+00 1.000000000000000000e+00 1.000000000000000000e+00 1.000000000000000000e+00 1.000000000000000000e+00 1.000000000000000000e+00 1.000000000000000000e+00 1.000000000000000000e+00 1.000000000000000000e+00 1.000000000000000000e+00 1.000000000000000000e+00 1.000000000000000000e+00 1.000000000000000000e+00 1.000000000000000000e+00 1.000000000000000000e+00 1.000000000000000000e+00 1.000000000000000000e+00 1.000000000000000000e+00 1.000000000000000000e+00 1.000000000000000000e+00 1.000000000000000000e+00 1.000000000000000000e+00 1.000000000000000000e+00 1.000000000000000000e+00 1.000000000000000000e+00 1.000000000000000000e+00 1.000000000000000000e+00 1.000000000000000000e+00 1.000000000000000000e+00 1.000000000000000000e+00 1.000000000000000000e+00 1.000000000000000000e+00 1.000000000000000000e+00 1.000000000000000000e+00 1.000000000000000000e+00 1.000000000000000000e+00 1.000000000000000000e+00 1.000000000000000000e+00 1.000000000000000000e+00 1.000000000000000000e+00 1.000000000000000000e+00 1.000000000000000000e+00 1.000000000000000000e+00 1.000000000000000000e+00 1.000000000000000000e+00 1.000000000000000000e+00 1.000000000000000000e+00 1.000000000000000000e+00 1.000000000000000000e+00 1.000000000000000000e+00 1.000000000000000000e+00 1.000000000000000000e+00 1.000000000000000000e+00 1.000000000000000000e+00 1.000000000000000000e+00 1.000000000000000000e+00 1.000000000000000000e+00 1.000000000000000000e+00 1.000000000000000000e+00 1.000000000000000000e+00 1.000000000000000000e+00 1.000000000000000000e+00 1.000000000000000000e+00 1.000000000000000000e+00 1.000000000000000000e+00 1.000000000000000000e+00 1.000000000000000000e+00 1.000000000000000000e+00 1.000000000000000000e+00 1.000000000000000000e+00 1.000000000000000000e+00 1.000000000000000000e+00 1.000000000000000000e+00 1.000000000000000000e+00 1.000000000000000000e+00 1.000000000000000000e+00 1.000000000000000000e+00 1.000000000000000000e+00 1.000000000000000000e+00 1.000000000000000000e+00 1.000000000000000000e+00 1.000000000000000000e+00 1.000000000000000000e+00 1.000000000000000000e+00 1.000000000000000000e+00 1.000000000000000000e+00 1.000000000000000000e+00 1.000000000000000000e+00 1.000000000000000000e+00 1.000000000000000000e+00 1.000000000000000000e+00 1.000000000000000000e+00 1.000000000000000000e+00 1.000000000000000000e+00 1.000000000000000000e+00 1.000000000000000000e+00 1.000000000000000000e+00 1.000000000000000000e+00 1.000000000000000000e+00 1.000000000000000000e+00 1.000000000000000000e+00 1.000000000000000000e+00 1.000000000000000000e+00 1.000000000000000000e+00 1.000000000000000000e+00 1.000000000000000000e+00 1.000000000000000000e+00 1.000000000000000000e+00 1.000000000000000000e+00 1.000000000000000000e+00 1.000000000000000000e+00 1.000000000000000000e+00 1.000000000000000000e+00 1.000000000000000000e+00 1.000000000000000000e+00 1.000000000000000000e+00 1.000000000000000000e+00 1.000000000000000000e+00 1.000000000000000000e+00 1.000000000000000000e+00 1.000000000000000000e+00 1.000000000000000000e+00 1.000000000000000000e+00 1.000000000000000000e+00 1.000000000000000000e+00 1.000000000000000000e+00 1.000000000000000000e+00 1.000000000000000000e+00 1.000000000000000000e+00 1.000000000000000000e+00 1.000000000000000000e+00 1.000000000000000000e+00 1.000000000000000000e+00 1.000000000000000000e+00 1.000000000000000000e+00 1.000000000000000000e+00 1.000000000000000000e+00 1.000000000000000000e+00 1.000000000000000000e+00 1.000000000000000000e+00 1.000000000000000000e+00 1.000000000000000000e+00 1.000000000000000000e+00 1.000000000000000000e+00 1.000000000000000000e+00 1.000000000000000000e+00 1.000000000000000000e+00 1.000000000000000000e+00 1.000000000000000000e+00 1.000000000000000000e+00 1.000000000000000000e+00 1.000000000000000000e+00 1.000000000000000000e+00 1.000000000000000000e+00 1.000000000000000000e+00 1.000000000000000000e+00 1.000000000000000000e+00 1.000000000000000000e+00 1.000000000000000000e+00 1.000000000000000000e+00 1.000000000000000000e+00 1.000000000000000000e+00 1.000000000000000000e+00 1.000000000000000000e+00 1.000000000000000000e+00 1.000000000000000000e+00 1.000000000000000000e+00 1.000000000000000000e+00 1.000000000000000000e+00 1.000000000000000000e+00 1.000000000000000000e+00 1.000000000000000000e+00 1.000000000000000000e+00 1.000000000000000000e+00 1.000000000000000000e+00 1.000000000000000000e+00 1.000000000000000000e+00 1.000000000000000000e+00 1.000000000000000000e+00 1.000000000000000000e+00 1.000000000000000000e+00 1.000000000000000000e+00 1.000000000000000000e+00 1.000000000000000000e+00 1.000000000000000000e+00 1.000000000000000000e+00 1.000000000000000000e+00 1.000000000000000000e+00 1.000000000000000000e+00 1.000000000000000000e+00 1.000000000000000000e+00 1.000000000000000000e+00 1.000000000000000000e+00 1.000000000000000000e+00 1.000000000000000000e+00 1.000000000000000000e+00 1.000000000000000000e+00 1.000000000000000000e+00 1.000000000000000000e+00 1.000000000000000000e+00 1.000000000000000000e+00 1.000000000000000000e+00 1.000000000000000000e+00 1.000000000000000000e+00 1.000000000000000000e+00 1.000000000000000000e+00 1.000000000000000000e+00 1.000000000000000000e+00 1.000000000000000000e+00 1.000000000000000000e+00 1.000000000000000000e+00 1.000000000000000000e+00 1.000000000000000000e+00 1.000000000000000000e+00 1.000000000000000000e+00 1.000000000000000000e+00 1.000000000000000000e+00 1.000000000000000000e+00 1.000000000000000000e+00 1.000000000000000000e+00 1.000000000000000000e+00 1.000000000000000000e+00 1.000000000000000000e+00 1.000000000000000000e+00 1.000000000000000000e+00 1.000000000000000000e+00 1.000000000000000000e+00 1.000000000000000000e+00 1.000000000000000000e+00 1.000000000000000000e+00 1.000000000000000000e+00 1.000000000000000000e+00 1.000000000000000000e+00 1.000000000000000000e+00 1.000000000000000000e+00 1.000000000000000000e+00 1.000000000000000000e+00 1.000000000000000000e+00 1.000000000000000000e+00 1.000000000000000000e+00 1.000000000000000000e+00 1.000000000000000000e+00 1.000000000000000000e+00 1.000000000000000000e+00 1.000000000000000000e+00 1.000000000000000000e+00 1.000000000000000000e+00 1.000000000000000000e+00 1.000000000000000000e+00 1.000000000000000000e+00 1.000000000000000000e+00 1.000000000000000000e+00 1.000000000000000000e+00 1.000000000000000000e+00 1.000000000000000000e+00 1.000000000000000000e+00 1.000000000000000000e+00 1.000000000000000000e+00 1.000000000000000000e+00 1.000000000000000000e+00 1.000000000000000000e+00 1.000000000000000000e+00 1.000000000000000000e+00 1.000000000000000000e+00 1.000000000000000000e+00 1.000000000000000000e+00 1.000000000000000000e+00 1.000000000000000000e+00 1.000000000000000000e+00 1.000000000000000000e+00 1.000000000000000000e+00 1.000000000000000000e+00 1.000000000000000000e+00 1.000000000000000000e+00 1.000000000000000000e+00 1.000000000000000000e+00 1.000000000000000000e+00 1.000000000000000000e+00 1.000000000000000000e+00 1.000000000000000000e+00 1.000000000000000000e+00 1.000000000000000000e+00 1.000000000000000000e+00 1.000000000000000000e+00 1.000000000000000000e+00 1.000000000000000000e+00 1.000000000000000000e+00 1.000000000000000000e+00 1.000000000000000000e+00 1.000000000000000000e+00 1.000000000000000000e+00 1.000000000000000000e+00 1.000000000000000000e+00 1.000000000000000000e+00 1.000000000000000000e+00 1.000000000000000000e+00 1.000000000000000000e+00 1.000000000000000000e+00 1.000000000000000000e+00 1.000000000000000000e+00 1.000000000000000000e+00 1.000000000000000000e+00 1.000000000000000000e+00 1.000000000000000000e+00 1.000000000000000000e+00 1.000000000000000000e+00 1.000000000000000000e+00 1.000000000000000000e+00 1.000000000000000000e+00 1.000000000000000000e+00 1.000000000000000000e+00 1.000000000000000000e+00 1.000000000000000000e+00 1.000000000000000000e+00 1.000000000000000000e+00 1.000000000000000000e+00 1.000000000000000000e+00 1.000000000000000000e+00 1.000000000000000000e+00 1.000000000000000000e+00 1.000000000000000000e+00 1.000000000000000000e+00 1.000000000000000000e+00 1.000000000000000000e+00 1.000000000000000000e+00 1.000000000000000000e+00 1.000000000000000000e+00 1.000000000000000000e+00 1.000000000000000000e+00 1.000000000000000000e+00 1.000000000000000000e+00 1.000000000000000000e+00 1.000000000000000000e+00 1.000000000000000000e+00 1.000000000000000000e+00 1.000000000000000000e+00 1.000000000000000000e+00 1.000000000000000000e+00 1.000000000000000000e+00 1.000000000000000000e+00 1.000000000000000000e+00 1.000000000000000000e+00 1.000000000000000000e+00 1.000000000000000000e+00 1.000000000000000000e+00 1.000000000000000000e+00 1.000000000000000000e+00 1.000000000000000000e+00 1.000000000000000000e+00 1.000000000000000000e+00 1.000000000000000000e+00 1.000000000000000000e+00 1.000000000000000000e+00 1.000000000000000000e+00 1.000000000000000000e+00 1.000000000000000000e+00 1.000000000000000000e+00 1.000000000000000000e+00 1.000000000000000000e+00 1.000000000000000000e+00 1.000000000000000000e+00 1.000000000000000000e+00 1.000000000000000000e+00 1.000000000000000000e+00 1.000000000000000000e+00 1.000000000000000000e+00 1.000000000000000000e+00 1.000000000000000000e+00 1.000000000000000000e+00 1.000000000000000000e+00 1.000000000000000000e+00 1.000000000000000000e+00 1.000000000000000000e+00 1.000000000000000000e+00 1.000000000000000000e+00 1.000000000000000000e+00 1.000000000000000000e+00 1.000000000000000000e+00 1.000000000000000000e+00 1.000000000000000000e+00 1.000000000000000000e+00 1.000000000000000000e+00 1.000000000000000000e+00 1.000000000000000000e+00 1.000000000000000000e+00 1.000000000000000000e+00 1.000000000000000000e+00 1.000000000000000000e+00 1.000000000000000000e+00 1.000000000000000000e+00 1.000000000000000000e+00 1.000000000000000000e+00 1.000000000000000000e+00 1.000000000000000000e+00 1.000000000000000000e+00 1.000000000000000000e+00 1.000000000000000000e+00 1.000000000000000000e+00 1.000000000000000000e+00 1.000000000000000000e+00 1.000000000000000000e+00 1.000000000000000000e+00 1.000000000000000000e+00 1.000000000000000000e+00 1.000000000000000000e+00 1.000000000000000000e+00 1.000000000000000000e+00 1.000000000000000000e+00 1.000000000000000000e+00 1.000000000000000000e+00 1.000000000000000000e+00 1.000000000000000000e+00 1.000000000000000000e+00 1.000000000000000000e+00 1.000000000000000000e+00 1.000000000000000000e+00 1.000000000000000000e+00 1.000000000000000000e+00 1.000000000000000000e+00 1.000000000000000000e+00 1.000000000000000000e+00 1.000000000000000000e+00 1.000000000000000000e+00 1.000000000000000000e+00 1.000000000000000000e+00 1.000000000000000000e+00 1.000000000000000000e+00 1.000000000000000000e+00 1.000000000000000000e+00 1.000000000000000000e+00 1.000000000000000000e+00 1.000000000000000000e+00 1.000000000000000000e+00 1.000000000000000000e+00 1.000000000000000000e+00 1.000000000000000000e+00 1.000000000000000000e+00 1.000000000000000000e+00 1.000000000000000000e+00 1.000000000000000000e+00 1.000000000000000000e+00 1.000000000000000000e+00 1.000000000000000000e+00 1.000000000000000000e+00 1.000000000000000000e+00 1.000000000000000000e+00 1.000000000000000000e+00 1.000000000000000000e+00 1.000000000000000000e+00 1.000000000000000000e+00 1.000000000000000000e+00 1.000000000000000000e+00 1.000000000000000000e+00 1.000000000000000000e+00 1.000000000000000000e+00 1.000000000000000000e+00 1.000000000000000000e+00 1.000000000000000000e+00 1.000000000000000000e+00 1.000000000000000000e+00 1.000000000000000000e+00 1.000000000000000000e+00 1.000000000000000000e+00 1.000000000000000000e+00 1.000000000000000000e+00 1.000000000000000000e+00 1.000000000000000000e+00 1.000000000000000000e+00 1.000000000000000000e+00 1.000000000000000000e+00 1.000000000000000000e+00 1.000000000000000000e+00 1.000000000000000000e+00 1.000000000000000000e+00 1.000000000000000000e+00 1.000000000000000000e+00 1.000000000000000000e+00 1.000000000000000000e+00 1.000000000000000000e+00 1.000000000000000000e+00 1.000000000000000000e+00 1.000000000000000000e+00 1.000000000000000000e+00 1.000000000000000000e+00 1.000000000000000000e+00 1.000000000000000000e+00 1.000000000000000000e+00 1.000000000000000000e+00 1.000000000000000000e+00 1.000000000000000000e+00 1.000000000000000000e+00 1.000000000000000000e+00 1.000000000000000000e+00 1.000000000000000000e+00 1.000000000000000000e+00 1.000000000000000000e+00 1.000000000000000000e+00 1.000000000000000000e+00 1.000000000000000000e+00 1.000000000000000000e+00 1.000000000000000000e+00 1.000000000000000000e+00 1.000000000000000000e+00 1.000000000000000000e+00 1.000000000000000000e+00 1.000000000000000000e+00 1.000000000000000000e+00 1.000000000000000000e+00 1.000000000000000000e+00 1.000000000000000000e+00 1.000000000000000000e+00 1.000000000000000000e+00 1.000000000000000000e+00 1.000000000000000000e+00 1.000000000000000000e+00 1.000000000000000000e+00 1.000000000000000000e+00 1.000000000000000000e+00 1.000000000000000000e+00 1.000000000000000000e+00 1.000000000000000000e+00 1.000000000000000000e+00 1.000000000000000000e+00 1.000000000000000000e+00 1.000000000000000000e+00 1.000000000000000000e+00 1.000000000000000000e+00 1.000000000000000000e+00 1.000000000000000000e+00 1.000000000000000000e+00 1.000000000000000000e+00 1.000000000000000000e+00 1.000000000000000000e+00 1.000000000000000000e+00 1.000000000000000000e+00 1.000000000000000000e+00 1.000000000000000000e+00 1.000000000000000000e+00 1.000000000000000000e+00 1.000000000000000000e+00 1.000000000000000000e+00 1.000000000000000000e+00 1.000000000000000000e+00 1.000000000000000000e+00 1.000000000000000000e+00 1.000000000000000000e+00 1.000000000000000000e+00 1.000000000000000000e+00 1.000000000000000000e+00 1.000000000000000000e+00 1.000000000000000000e+00 1.000000000000000000e+00 1.000000000000000000e+00 1.000000000000000000e+00 1.000000000000000000e+00 1.000000000000000000e+00 1.000000000000000000e+00 1.000000000000000000e+00 1.000000000000000000e+00 1.000000000000000000e+00 1.000000000000000000e+00 1.000000000000000000e+00 1.000000000000000000e+00 1.000000000000000000e+00 1.000000000000000000e+00 1.000000000000000000e+00 1.000000000000000000e+00 1.000000000000000000e+00 1.000000000000000000e+00 1.000000000000000000e+00 1.000000000000000000e+00 1.000000000000000000e+00 1.000000000000000000e+00 1.000000000000000000e+00 1.000000000000000000e+00 1.000000000000000000e+00 1.000000000000000000e+00 1.000000000000000000e+00 1.000000000000000000e+00 1.000000000000000000e+00 1.000000000000000000e+00 1.000000000000000000e+00 1.000000000000000000e+00 1.000000000000000000e+00 1.000000000000000000e+00 1.000000000000000000e+00 1.000000000000000000e+00 1.000000000000000000e+00 1.000000000000000000e+00 1.000000000000000000e+00 1.000000000000000000e+00 1.000000000000000000e+00 1.000000000000000000e+00 1.000000000000000000e+00 1.000000000000000000e+00 1.000000000000000000e+00 1.000000000000000000e+00 1.000000000000000000e+00 1.000000000000000000e+00 1.000000000000000000e+00 1.000000000000000000e+00 1.000000000000000000e+00 1.000000000000000000e+00 1.000000000000000000e+00 1.000000000000000000e+00 1.000000000000000000e+00 1.000000000000000000e+00 1.000000000000000000e+00 1.000000000000000000e+00 1.000000000000000000e+00 1.000000000000000000e+00 1.000000000000000000e+00 1.000000000000000000e+00 1.000000000000000000e+00 1.000000000000000000e+00 1.000000000000000000e+00 1.000000000000000000e+00 1.000000000000000000e+00 1.000000000000000000e+00 1.000000000000000000e+00 1.000000000000000000e+00 1.000000000000000000e+00 1.000000000000000000e+00 1.000000000000000000e+00 1.000000000000000000e+00 1.000000000000000000e+00 1.000000000000000000e+00 1.000000000000000000e+00 1.000000000000000000e+00 1.000000000000000000e+00 1.000000000000000000e+00 1.000000000000000000e+00 1.000000000000000000e+00 1.000000000000000000e+00 1.000000000000000000e+00 1.000000000000000000e+00 1.000000000000000000e+00 1.000000000000000000e+00 1.000000000000000000e+00 1.000000000000000000e+00 1.000000000000000000e+00 1.000000000000000000e+00 1.000000000000000000e+00 1.000000000000000000e+00 1.000000000000000000e+00 1.000000000000000000e+00 1.000000000000000000e+00 1.000000000000000000e+00 1.000000000000000000e+00 1.000000000000000000e+00 1.000000000000000000e+00 1.000000000000000000e+00 1.000000000000000000e+00 1.000000000000000000e+00 1.000000000000000000e+00 1.000000000000000000e+00 1.000000000000000000e+00 1.000000000000000000e+00 1.000000000000000000e+00 1.000000000000000000e+00 1.000000000000000000e+00 1.000000000000000000e+00 1.000000000000000000e+00 1.000000000000000000e+00 1.000000000000000000e+00 1.000000000000000000e+00 1.000000000000000000e+00 1.000000000000000000e+00 1.000000000000000000e+00 1.000000000000000000e+00 1.000000000000000000e+00 1.000000000000000000e+00 1.000000000000000000e+00 1.000000000000000000e+00 1.000000000000000000e+00 1.000000000000000000e+00 1.000000000000000000e+00 1.000000000000000000e+00 1.000000000000000000e+00 1.000000000000000000e+00 1.000000000000000000e+00 1.000000000000000000e+00 1.000000000000000000e+00 1.000000000000000000e+00 1.000000000000000000e+00 1.000000000000000000e+00 1.000000000000000000e+00 1.000000000000000000e+00 1.000000000000000000e+00 1.000000000000000000e+00 1.000000000000000000e+00 1.000000000000000000e+00 1.000000000000000000e+00 1.000000000000000000e+00 1.000000000000000000e+00 1.000000000000000000e+00 1.000000000000000000e+00 1.000000000000000000e+00 1.000000000000000000e+00 1.000000000000000000e+00 1.000000000000000000e+00 1.000000000000000000e+00 1.000000000000000000e+00 1.000000000000000000e+00 1.000000000000000000e+00 1.000000000000000000e+00 1.000000000000000000e+00 1.000000000000000000e+00 1.000000000000000000e+00 1.000000000000000000e+00 1.000000000000000000e+00 1.000000000000000000e+00 1.000000000000000000e+00 1.000000000000000000e+00 1.000000000000000000e+00 1.000000000000000000e+00 1.000000000000000000e+00 1.000000000000000000e+00 1.000000000000000000e+00 1.000000000000000000e+00 1.000000000000000000e+00 1.000000000000000000e+00 1.000000000000000000e+00 1.000000000000000000e+00 1.000000000000000000e+00 1.000000000000000000e+00 1.000000000000000000e+00 1.000000000000000000e+00 1.000000000000000000e+00 1.000000000000000000e+00 1.000000000000000000e+00 1.000000000000000000e+00 1.000000000000000000e+00 1.000000000000000000e+00 1.000000000000000000e+00 1.000000000000000000e+00 1.000000000000000000e+00 1.000000000000000000e+00 1.000000000000000000e+00 1.000000000000000000e+00 1.000000000000000000e+00 1.000000000000000000e+00 1.000000000000000000e+00 1.000000000000000000e+00 1.000000000000000000e+00 1.000000000000000000e+00 1.000000000000000000e+00 1.000000000000000000e+00 1.000000000000000000e+00 1.000000000000000000e+00 1.000000000000000000e+00 1.000000000000000000e+00 1.000000000000000000e+00 1.000000000000000000e+00 1.000000000000000000e+00 1.000000000000000000e+00 1.000000000000000000e+00 1.000000000000000000e+00 1.000000000000000000e+00 1.000000000000000000e+00 1.000000000000000000e+00 1.000000000000000000e+00 1.000000000000000000e+00 1.000000000000000000e+00 1.000000000000000000e+00 1.000000000000000000e+00 1.000000000000000000e+00 1.000000000000000000e+00 1.000000000000000000e+00 1.000000000000000000e+00 1.000000000000000000e+00 1.000000000000000000e+00 1.000000000000000000e+00 1.000000000000000000e+00 1.000000000000000000e+00 1.000000000000000000e+00 1.000000000000000000e+00 1.000000000000000000e+00 1.000000000000000000e+00 1.000000000000000000e+00 1.000000000000000000e+00 1.000000000000000000e+00 1.000000000000000000e+00 1.000000000000000000e+00 1.000000000000000000e+00 1.000000000000000000e+00 1.000000000000000000e+00 1.000000000000000000e+00 1.000000000000000000e+00 1.000000000000000000e+00 1.000000000000000000e+00 1.000000000000000000e+00 1.000000000000000000e+00 1.000000000000000000e+00 1.000000000000000000e+00 1.000000000000000000e+00 1.000000000000000000e+00
-2.211700766688743346e-03 5.592789139297973389e-01 -1.975050671804136904e-01 7.230401571973323893e-01 5.079981002564537551e-01 5.779089125028645801e-01 6.414380020127546933e-01 2.575185013816634894e-01 5.191616351430970999e-01 5.057741594673013097e-01 1.076202073628417688e+00 -6.693695773847577746e-01 1.390097026162424809e+00 4.455135845557245955e-01 5.119897246494096166e-01 4.004529881283489523e-01 9.118953179721510649e-01 9.704340249460311485e-01 6.595563253166141227e-01 5.212783425608524812e-01 4.336132914630432822e-01 9.757697796142785762e-01 4.889014166432242847e-01 4.611112573718664231e-01 1.148123347601374133e-01 6.830498152055355376e-01 3.611231440452417063e-01 5.844168886461750256e-01 5.286517540237990476e-01 1.536758789749371301e+00 5.337975930706401195e-01 6.134655328724458734e-01 7.209582455416927438e-01 4.868008638366310148e-01 7.142678403994704439e-01 4.517869334933546921e-01 5.592576803883315684e-01 1.737359501882731250e+00 -6.217294062373340119e-02 4.932664491737934753e-01 -1.349865132140726787e-01 -5.587622342824688504e-01 7.510732478841831705e-01 2.231790537110755479e-01 2.602412337890293581e-01 5.211343715379844754e-01 7.232253000150828948e-01 5.271881343010589305e-01 5.685746780261780042e-01 2.649037915139385718e-02 5.533809874971483064e-03 8.447435793547962701e-01 6.689991560942828430e-01 4.767082710764646292e-01 4.514859179719056814e-01 1.698511779040441996e-02 4.823266800032732782e-01 5.450746722557462398e-01 1.852675320380040014e-01 4.707670789741741357e-01 9.086419940445594756e-01 5.531803474959872124e-01 4.764662371572398469e-01 4.889012960619082415e-01 6.829903329888433738e-01 5.227649102375770962e-01 5.100085123883386640e-01 2.856173870210059751e-01 5.341708246017782269e-01 -9.944674489705387921e-03 4.083656949971026795e-01 4.739056207496443740e-01 5.233741005124777912e-01 3.949920510197899720e-02 1.491907456981919955e+00 5.594038266687201277e-01 6.319424799141236671e-01 7.429406727350112982e-01 5.070487283333361406e-01 1.378819475128654215e+00 5.409561602965725635e-01 2.869678629242566337e-01 1.368370895216836525e+00 6.723633097009671378e-01 4.860872395816271951e-01 7.578020195561556704e-01 8.162240388824008042e-01 5.445340693394919995e-01 4.038057074714734851e-01 5.754000954404933088e-01 2.646969588330426726e-01 2.134124635895719546e+00 7.116856713936539069e-01 -5.392969377817245086e-02 5.578212862254691151e-01 5.809501603899426270e-01 5.262264237879925588e-01 4.717449901784259714e-01 1.895136322283003660e-01 6.885717549282531769e-01 1.575324960567261012e+00 6.870554965614825704e-01 5.411202010084125158e-01 7.745287586986183692e-01 8.585731088363577346e-01 -2.006785751872822043e+00 -1.191999556876679911e+00 5.481278285525551519e-01 5.554455081185758480e-01 9.730072568373957509e-01 5.243906077260387377e-01 4.696420537348254265e-01 1.663389624576187553e-01 4.719395329509088466e-01 5.172790059188289158e-01 5.140746785567029686e-01 5.269147414345325409e-01 5.531480458715548609e-01 8.678390648141904862e-01 5.127111007146768484e-01 1.291082703014045485e+00 5.629705188874243316e-01 5.386460975987581445e-01 -3.548375788903000427e-01 5.127750646138521384e-01 1.921761968168727241e+00 5.529630587266224362e-01 4.849825508286208509e-01 6.871030580119246167e-01 5.058698268309529400e-01 5.390309054169719616e-01 5.059392411375479570e-01 4.106369634419450576e-01 2.647032656158554986e-01 -2.148937802895870275e-01 -1.538443504206155887e-01 6.181992272915564079e-01 3.935685695084528007e-02 9.913318757709946860e-01 6.774314420044657004e-01 5.084151341777277677e-01 8.563717797705724388e-01 6.485680897023909930e-01 5.951704773537516147e-01 5.088775321556675557e-01 2.977784828200728470e-02 8.684400723906584574e-01 1.058577949151732339e-01 4.763256649519101993e-01 -8.600484147122146039e-01 7.791337370873554491e-01 -2.990504691391200898e-01 5.211352827665254317e-01 5.326986218815653595e-01 4.959262285437697204e-01 5.133744832184483631e-01 1.873300454591427355e+00 -5.775676218587161986e-02 8.078842882181317409e-01 6.996196204518145834e-01 5.133945506990238439e-01 4.244834010442656291e-01 5.139044662210021652e-01 5.104800525117034748e-01 1.090573426037277471e+00 1.481906974701876767e-01 8.444618807671211425e-01 4.365494682014438577e-01 5.953341227388320167e-01 6.113063499119029132e-01 4.345744361483483975e-01 7.216885024693543427e-01 5.211399232030181627e-01 5.148272145742477379e-01 4.063317390522664940e-01 2.103225208633530824e-02 1.770503968553957530e-01 7.676649747973859905e-02 7.385041368619009727e-01 1.139911671592430897e+00 7.166990367197203504e-01 5.030011965367811033e-01 -1.860577361784116757e-01 4.643931036872129270e-01 6.748134828224356951e-01 5.232949378173507027e-01 5.255172302905537496e-01 5.006461242833983860e-01 2.728547387243315914e+00 5.344686485179585000e-01 5.115616395965520979e-01 -8.618969750377420969e-01 5.324031536098696726e-01 5.735918054543406308e-01 1.783412118914570466e-01 5.110464821505694699e-01 9.257536117823067512e-01 5.274388991543970118e-01 6.809627915759965955e-01 4.204942419263901221e-01 6.155253219867171666e-01 5.537349484110010156e-01 9.637267424318942677e-01 5.995329429215112693e-01 5.432515140672784515e-01 6.809628527597242353e-01 2.870861116614638053e-01 1.277513971470278342e+00 4.995571678157632034e-01 3.574301872866941232e-01 4.455201513016947557e-01 -6.525168760020480518e-02 4.711924638190256864e-01 1.637225829783816311e-01 5.152196357296627838e-01 5.079956769084648105e-01 5.100013761736257312e-01 5.207641650492419449e-01 5.057451050419877747e-01 5.132541245038916289e-01 4.501933286675571799e-01 6.137842496590432129e-01 -6.937971164371454780e-01 5.658507847889017173e-01 3.186595416977966444e-01 4.002608799367485259e-01 1.573737007134977939e-01 1.274727620438381948e+00 9.482468463678832560e-01 5.020399810470711488e-01 -1.046239276860877337e-01 1.045648912387292073e+00 5.074987196038096560e-01 4.514590990663701620e-01 4.743709209056222176e-01 4.176422347130341328e-01 4.164595305356914023e-01 2.005212993812874045e-01 -1.448926935356081580e-01 -1.216175328152937635e-01 3.117977820049696036e-01 5.147376441059670071e-01 -9.774164463546804182e-02 4.726940637225461317e-01 5.044091868226966424e-01 4.528501103108392711e-01 -1.047461719702901389e-01 7.430123525964894560e-01 -2.199214571916618066e+00 5.889733888443131615e-01 -5.436687108509676847e-01 4.961540085874900363e-01 5.098574035509789715e-01 4.889011167449240913e-01 4.744877464878425877e-01 5.324234973356141154e-01 5.188151836548953177e-01 7.323245437959292614e-01 5.377125208584776495e-01 1.681079862967705063e+00 6.716482499235476578e-01 6.974260682460775573e-01 5.098932620062529564e-01 3.484346050085736501e-01 9.086420352223348873e-01 3.764938409685744669e-01 2.621485808290104025e+00 5.579569910189822179e-01 2.430829267042182718e-01 6.792073850412070346e-01 5.106048588059065585e-01 9.081918132611982442e-01 5.096441144308359039e-01 5.352779779205825150e-01 5.085489716661184545e-01 1.056029201597591838e+00 7.613571658948153908e-01 8.672812902630404608e-01 8.106912687174334664e-01 3.459152655793152897e-01 6.740169893691669856e-01 5.594848110044619016e-01 3.968772983788143582e-01 -6.975168798353178490e-01 3.815224350932358011e-01 6.937252382879498525e-01 5.484458745139620950e-01 5.424242543676689454e-01 5.140746775779914124e-01 6.062063363242146119e-01 5.409865730425449382e-01 -7.634861776231991470e-01 6.861679901423930472e-01 5.158213704371167330e-01 5.653319154759040011e-02 5.370659470857315210e-01 1.840119499023193272e+00 4.936795301608264408e-01 5.078077686529296475e-01 4.763372144581237144e-01 -3.332712140841512127e+00 5.226068920125938044e-01 2.696632076785217880e+00 7.221720089953647115e-01 4.926866987658126140e-01 -5.819905748694649272e-01 5.089029446421826641e-01 5.072821171480016433e-01 4.316871911804673889e-01 4.628091976969947452e-01 3.849937891729347528e-01 6.351166857830566892e-01 3.149342307800354623e-01 5.167968021081718044e-01 5.224728889507610496e-01 3.693286126593139929e-01 5.128056762593432572e-01 7.225512485269636187e-01 5.136075626492000445e-01 1.186565485860237912e+00 1.201715088583038896e-02 2.199299223586960395e+00 2.596265930319502591e+00 5.520753978287952224e-01 -1.940227284370425187e-01 4.704372460170495596e-01 4.055371357508253949e-01 7.207490819368702617e-01 1.358137716623172953e+00 5.389513442309409319e-01 1.116571972904486731e+00 5.097657954595377072e-01 1.296860451603560893e-01 1.242853130876657719e+00 3.872270340058218685e-01 5.021878226725258187e-01 5.382670705998875427e-01 8.693205654956001061e-01 -3.601729109375890747e+00 1.608407020828034106e+00 5.534985157857873483e-01 6.398955341080132531e-01 5.065098524443777395e-01 1.737359499928129436e+00 3.112491194165538655e-01 5.347964301810905763e-01 4.919591087591126954e-01 4.254806120207150766e-01 1.383159118511172014e+00 6.242798175477137779e-01 6.809627907616083720e-01 4.726891529821583005e-01 5.995329440137381338e-01 6.521438424707959314e-01 5.595953709291635603e-01 8.882875150576482470e-01 5.105016242900383139e-01 3.972513195064210634e-01 2.369252272917836966e-01 6.404558225646220793e-01 5.085053386370241846e-01 4.680143978704736640e-01 5.347964248803768195e-01 6.607150001296987485e-01 5.145490653128690361e-01 9.886144461158239416e-01 1.004879168189726668e+00 1.116549050555660338e+00 5.183007021239860457e-01 2.468109455392348273e-01 9.086425838916892816e-01 -1.086151712835554811e-01 9.329300425484976511e-01 6.267126334880143146e-01 1.292607823090703191e-02 5.552816110158569352e-01 1.002393893844241379e+00 3.928612252278854133e-01 5.326991891627661513e-01 2.667494740332396752e-01 -3.285680027477908549e-01 -2.408629192581679401e+00 4.673362083556144575e-01 5.995329429429130386e-01 5.995328931351329160e-01 5.244514226104768362e-01 4.649084338976624542e-01 -2.031915062521146842e-01 3.418751808760282507e-01 5.108920295972072534e-01 6.359759536236545552e-01 5.128880315721714434e-01 1.063857553114773591e+00 6.809626343674264337e-01 5.081499535067820483e-01 4.715347231283978924e-01 2.659383160218121156e-01 6.462197837254011201e-01 5.294238607687792308e-01 5.124134958040291732e-01 5.608446396220903019e-01 2.680780612671188057e-01 2.667761473382306708e-02 5.995329440694421308e-01 6.551261157542725977e-01 5.126843963491569678e-01 4.481208937822158123e-01 8.568007990510089211e-01 6.496275962875982524e-01 5.628712351454621121e-01 1.800498766637322223e+00 5.254771122729148258e-01 -2.956897111920411714e+00 7.228403279755916122e-01 1.497438182037716947e+00 5.104877216549175145e-01 -1.031258815773859361e+00 6.965437414964071872e-01 4.750030929965820548e-01 5.137154496497956524e-01 5.304347239371302036e-01 -2.587098708601467956e-01 5.102272930622382408e-01 1.062686040173892010e+00 6.309236751450716385e-01 -3.140952814157159101e-01 5.152573829404316630e-01 5.097870151389198856e-01 7.635865131797197058e-01 5.280412909918211772e-01 4.962202678459280425e-01 -4.995128442593810281e-01 5.625197204404085438e-01 5.048576956203933985e-01 7.143952883602652237e-01 4.862330265570007359e-01 7.635883601722517344e-01 5.161783143800451334e-01 5.658950316963019533e-01 7.308433627656005793e-01 5.524666716796297061e-01 3.463570148779803737e-01 2.620337201462665244e-01 3.081120302333486549e-01 9.519130026419837520e-01 5.442296399811601404e-01 3.143402826418035367e+00 6.607153728290240391e-01 5.954402546010524322e-01 5.609560113975912143e-01 6.368844807255527041e-01 2.771132735022747984e-02 4.824696533129527731e-01 5.976472265390129213e-01 5.225187682362342212e-01 1.165879738431017776e+00 7.638935412386159696e-01 5.285751158477404177e-01 4.535554238090928614e-01 1.113562142504913144e+00 5.320117783967076575e-01 5.308656725101055240e-01 5.212066214309151180e-01 7.056855763469859211e-01 5.117937441874900184e-01 9.159279768328474347e-01 4.783260442510802735e-01 5.098448826114574395e-01 1.095005038133753730e-02 5.371054038728613200e-01 3.666587688494878094e-02 3.688300893017340543e-01 4.206695569572633797e-01 5.474102842544321668e-01 7.694691658176483484e-01 5.137662171085852769e-01 4.028071541484948836e-01 4.301190485341523095e-02 5.653505289103837317e-01 5.394605922464328351e-01 5.301616583218277112e-01 4.557803596570362409e-02 5.085510608721114378e-01 2.476930592981996249e-01 5.068397117248139017e-01 4.343464545339295046e-01 1.248293835099544058e+00 7.923954750220155718e-01 5.107235850830839086e-01 2.802199752543538258e-01 6.152833971913244104e-01 4.174396836678931355e-01 9.846347006348434849e-01 5.780296327090646002e-01 5.234631394552820005e-01 6.822073705366625829e-01 1.959685620281651275e+00 4.532443668686847449e-01 4.097200758622370764e-01 5.139024185342494500e-01 6.859782864314267758e-01 4.359790584747658682e-01 8.187013713444037943e-01 -5.605481229072598603e-01 3.145742993583761082e-01 5.492896259684658666e-01 4.396082092161179289e-01 3.745679954210590079e-01 -5.943275183317366928e-01 3.908622393435186027e-01 5.084332404889861934e-01 7.390859368495670267e-01 6.633810966620378169e-01 1.407757786549969303e+00 5.117374743631709633e-01 5.060412634064243020e-01 -6.752877916365346289e-01 4.927761924338035504e-01 1.193321932139221886e+00 6.905305330653184193e-01 2.493608331573112236e-01 2.879404784656904859e-01 -1.543400462111656601e+00 4.871102072610385414e-01 1.942898057529321154e-01 1.090135049760497132e+00 8.110822907116239655e-01 5.161860886018222461e-01 5.051716127469595419e-01 6.158768329174398870e-01 7.226164992107954044e-01 4.748669872796600355e-01 5.660606445026837852e-01 2.478902703111843589e-02 5.206906880738965127e-01 6.241705934980219528e-01 6.577452120958926507e-01 4.963436079981483062e-01 5.937906632713395583e-01 1.179812828732270225e+00 -1.106765105694488965e-01 -2.249276530398080787e-01 4.578996963249590268e-01 5.419046825715807536e-01 5.630635720296891522e-01 5.294314781638433942e-01 -8.252749265489897068e-01 3.108349991242901122e+00 5.935268016173206318e-01 4.608454761849888892e-01 4.130447576820637789e-01 5.062102277268621942e-01 5.170880261228725239e-01 6.417204472061562859e-01 3.277961967580473868e-01 5.746933258722148885e-01 5.059776437810783456e-01 6.578963171080099981e-01 3.784726402423149727e-01 5.406345731054971182e-01 5.241402653196093331e-01 4.063677271248573586e-01 4.652141543871233798e-01 5.461673337562286124e-01 6.401270421767619734e-01 9.968339832477183249e-01 2.284780670246248313e+00 5.808621493108796496e-01 4.934476730147642209e-01 5.536322767837201786e-01 5.451867700966793739e-01 3.642957108814882106e-01 5.116643365420762146e-01 5.049337719786056722e-01 5.520524782430370481e-01 4.798970064972187810e-01 4.884130947626837971e-01 7.226471918068524403e-01 3.704356743448410372e-01 5.798170295124314144e-01 5.341008299594725006e-01 5.850531296559525751e-01 1.276424449074874401e-01 9.086420182663748069e-01 5.422626550053516459e-01 1.520455109247483283e-01 1.906277158632840418e+00 2.649033964158086785e-01 4.709213145537565204e-01 5.836072067194372215e-01 5.999710484698758672e-02 5.339344500795302206e-01 1.493903550495752297e+00 7.443614548904284867e-01 7.933001907159271671e-01 5.092874824387747523e-01 5.404548360953999042e-01 5.090264063068326017e-01 6.112951856727671940e-01 5.110981050259025826e-01 5.098758212486017571e-01 -1.489386564904204846e-01 5.932323788408420118e-01 -1.350955365701147493e+00 5.406367833006905377e-01 4.900591582013917868e-01 5.523600092684347596e-01 4.763515658661067742e-01 9.086420183039154441e-01 2.283788228090280203e-01 5.676476163115373730e-01 1.305061440405009376e+00 -5.282869659917880378e-01 5.140224978512343279e-01 1.112718370778570609e+00 1.468424121074108246e+00 3.844217304210301722e-01 5.156680711474956880e-01 -4.288390895127321134e-02 -1.631728068741168824e+00 2.847866889828676307e-01 7.214346780109803792e-01 5.268359062197247589e-01 5.062978371973961833e-01 4.688795616291133728e-01 4.889448413237507673e-01 -3.853921789732485115e-01 8.071547886306125186e-01 5.140746808100711274e-01 3.458507641404806043e-01 5.424241323404118686e-01 -2.502090949080121654e-02 -1.766156459945494583e-01 1.745485461312945574e+00 4.174781049806274291e-01 4.362850862148577313e-01 5.132235384918589771e-01 3.332982168001703549e-01 6.261828807218228210e-01 -7.210044148095273546e-03 -9.701001612589676970e-01 5.076828190463245072e-01 5.148389975127463103e-01 4.812256735190560408e-01 5.867432696776364587e-01 5.535567545741895135e-01 5.409324905808597928e-01 5.204694670749636654e-01 5.824690225665416499e-01 1.022572077262950518e+00 7.287282981099324486e-01 5.533892442057152250e-01 5.397699680431637947e-01 4.735106986801138618e-01 4.277692347360159686e-01 5.649540227695795148e-04 5.347964264714595295e-01 5.621367979498766987e-01 4.606380020525918106e-01 7.404546308881334582e-01 9.772811227438175097e-01 8.187017315348159574e-01 -4.600403420512590991e-01 5.534203286741984362e-01 5.308046080995342253e-01 5.091210301109920788e-01 5.704612015828373073e-01 8.943836735081625022e-01 5.471636951295654194e-01 4.963919007143616224e-01 -1.941724499850741303e-01 -8.331285803226506914e-01 2.240934561396646707e+00 5.244530638230555653e-01 8.857343561202446480e-01 4.903297091944694430e-01 5.660445012233691342e-01 3.583517022460518398e-01 1.486323584880960280e-01 5.103860334244511021e-01 5.409759252362396076e-01 4.842686919256138783e-03 5.124452311154582551e-01 4.246327036720034531e-01 5.027789531433819459e-01 7.568040838589829011e-01 5.019329573009229106e-01 5.831911918533029260e-01 3.844203079823643732e-01 5.483924879980327516e-01 3.433543926181942818e-01 5.063363172151236213e-01 4.549187150786648259e-01 5.295722500642449093e-01 -2.963603166628907548e-01 5.055910277147908083e-01 6.430643628393507560e-01 5.380185316549619401e-01 7.232764932338106023e-01 9.086418704448043782e-01 7.358503527791296905e-01 -5.765160015560967244e-01 9.944126866432357881e-01 1.737359501911818649e+00 4.736589692229207782e-01 4.638875168421581763e-01 1.066367753045423861e+00 5.315627599686234550e-01 7.234211208719981689e-01 5.119200118914845055e-01 1.773308143120574387e+00 5.141376940694329933e-01 4.726933584251485354e-01 1.234060923310408286e+00 -5.007372589292390097e-02 5.377589365583593795e-01 -1.689881383793105096e-01 -9.291561890120596523e-01 -1.768918432397852958e-01 7.807402446745065339e-01 5.333415042823679286e-01 5.779952992665785549e-01 -3.361225456974110126e-01 5.046316626720105392e-01 8.266759864398343094e-03 -3.417380720509353709e-01 4.568378059846942563e-01 5.081909966930837630e-01 5.150397251282194944e-01 5.693670878604559782e-01 5.645010216510863987e-01 8.996989729444128114e-01 -3.741775492382633517e-01 5.085739162186664331e-01 5.653560869002951517e-01 6.296252958918896470e-01 1.156151471762338012e+00 5.203700183620894038e-01 6.031805006889198184e-01 5.110307688820903138e-01 1.946049214967960836e-02 -2.583691495418757311e-01 5.135100831384719067e-01 5.117144025088863346e-01 6.566643022309268662e-01 4.936526438478906487e-01 3.339676882006693548e-01 5.129218314494020659e-01 5.144608000097399270e-01 3.305529529564219526e-01 5.081235329812185952e-01 8.366673911974017441e-01 2.509297782933017196e+00 -2.340876961523831734e-01 6.686798406577396658e-01 3.434282002739906803e-01 2.250666108521233166e-01 6.877601295109480040e-01 -5.624531611898852396e-02 -1.471664633149268653e+00 5.221192042160285318e-01 2.569839774559491197e+00 5.064400611930588436e-01 1.445386231169086266e-01 1.833217114783480262e-01 5.140746784503038569e-01 5.516138727370895056e-01 1.530844647652555013e+00 4.872153159583988424e-01 1.255186016941670923e-01 4.477111390022308623e-01 1.654908184471983068e+00 5.665346774767193727e-01 7.011202792816704221e-01 5.050525383135001656e-01 7.427671274021933057e-01 4.521588701809309274e-01 5.600832042518193443e-01 9.236307391105492634e-03 5.060487132608947336e-01 5.576126312465765622e-01 -5.602574553714031458e-01 -2.347431083307134972e-02 1.166486368999855250e+00 2.344828798271753056e-01 4.942951077198837750e-01 6.670489278565193692e-01 5.431880677638741828e-01 1.982005714646796646e+00 7.095941516982179342e-01 2.772038847665102626e-02 2.541671162929501904e-01 4.086306124643697135e-01 1.089451019654773534e+00 5.525280870841962066e-01 -1.928303089516338401e-02 4.908973380260726049e-01 -2.520294525741057293e-02 5.228243761538836631e-01 5.072631204682052086e-01 1.111782163826399543e-02 -7.439754870818753030e-02 6.644790282217186705e-01 6.217212211826602664e-01 5.240185351220190135e-01 3.163779332033534453e-01 5.371556816704654569e-01 4.805045618913251215e-01 5.670299073717612881e-01 5.479394639225638741e-01 4.825018352399046973e-01 6.447954224013826563e-01 1.012139390534859240e+00 3.071977937793394009e+00 8.843781098018826947e-01 5.226366028538499409e-01 6.556845136749923642e-01 2.101119435807363989e-01 5.148521746404769450e-01 8.322173318413970122e-01 4.806724416268348121e-01 1.315632805934125793e+00 5.291172215805725054e-01 -5.601782572000226779e-01 -1.008151144347997630e-02 4.204221823115544265e-01 6.103587781467125772e-01 5.496836447580729645e-01 5.028962325138409684e-01 -6.970951586789508013e-03 4.847972588994652332e-01 3.928757859095524663e-01 -3.518836353481721080e+00 4.920388950821839580e-01 5.294011539043544934e-01 1.115081321221697452e+00 5.170584296315561268e-01 5.979759095991070694e-01 6.793089696087797336e-01 -8.548220961277270824e-01 -5.072630678470436694e-01 5.788111282829299514e-02 5.130381343961892826e-01 4.047943696116654833e-01 2.272965794819122309e-01 4.858354893747929282e-01 -3.281939174521100733e-01 6.613091677403699631e-01 5.585368670152006665e-01 6.929667593293101779e-01 5.332611435607103045e-01 4.781512556765433741e-01 1.677175949605416716e-01 -7.236650345322938049e-01 6.473673837247670981e-01 5.290304378085265435e-01 1.676698634557159673e-01 5.108857446365216992e-01 5.868829231160712645e-01 4.935312909359192424e-01 6.680600845930805276e-01 5.649916568454899091e-01 5.353672086847552913e-01 4.971346376524430344e-01 1.737359501688039209e+00 3.739732045655168036e-01 5.525007766501744966e-01 -1.014088832097954224e-01 5.322044021459038099e-01 6.175665896858709702e-01 5.192914844433821342e-01 5.041919117414742635e-01 3.468760704399111439e-01 8.897507255460527231e-01 1.171474514038039150e+00 5.577747528440113456e-01 5.503579669193086055e-01 5.949074309653051840e-01 4.669070284217818889e-01 5.266406092189757082e-01 5.109002925577492693e-01 9.944454577653248917e-01 7.335246257059030439e-01 -4.459705681270217936e-01 4.413116602514156606e-01 9.211382276388186963e-01 4.839699689173465047e-01 2.366622077913532480e-03 5.342991463384039186e-01 1.158453988385412803e+00 -1.380741415706872310e-01 5.273444449657818112e-01 2.544339445988228476e-01 5.429368884785041871e-01 8.024920720221102588e-01 5.049591731396366745e-01 3.659310040341562931e-01 1.387159298958497100e+00 5.285034893702719172e-01 5.192236189283498948e-01 -6.029369323301467798e-01 4.634188688231843933e-01 1.044497941416115072e+00 5.799054674111721042e-01 1.110444035793075324e-01 9.394133663938077916e-01 -6.749854605202686153e-02 5.297800632168053747e-01 1.577123403470257257e+00 -8.470961598104778112e-01 5.301800081121657016e-01 5.092596652461206519e-01 -4.301076498479546872e-01 3.433996504132259542e-01 5.534396900013320852e-01 4.625098198809454164e-01 5.336683214494344352e-01 3.452916951367644982e-01 2.643323405973848073e-01 3.482829059167917296e-01 5.293391025206932721e-01 5.128870799357778676e-01 3.253954631663445382e-03 -4.714808664347342609e-02 5.166968677896454087e-01 1.057219245944057251e+00 3.868737901765489373e-01 -5.601593231372102855e-01 5.518518247100895335e-01 5.156956077659160531e-01 4.702368627121117362e-01 2.252433725972734224e-02 3.446443000799906953e-01 5.094978279486080952e-01 4.959984299452679934e-01 4.564175066926089985e-01 4.914979996588966088e-02 4.418491858184291909e-01 5.016478106033133155e-01 6.641184128585082558e-01 2.059295756198072258e+00 2.961227293494592822e-02 3.806624609444762553e-01 4.719319855291371768e-01 1.803658314332864832e+00 5.144011838856655805e-01 5.049653362405475132e-01 1.408282181443585267e-02 5.347964273109147015e-01 5.102229773385895673e-01 4.690518264770338619e-01 3.824223160322319237e-01 5.208420787289901321e-01 5.813032408255026651e-01 5.331691525248818397e-01 -4.991352385926729474e-01 5.053816891904302500e-01 5.042428516405484951e-01 5.151432955579495765e-01 9.355396116480189095e-01 5.067301126625594065e-01 -2.378350074350025767e-01 1.034705668701107362e+00 -1.208543703697932292e+00 -4.984320342400145876e-01 5.048603476613893193e-01 5.114667743591883031e-01 6.473917796883204012e-01 5.248737126681752851e-01 3.540612165819763679e-01 6.310096726158750391e-01 5.347964289664032256e-01 5.117795096237711672e-01 6.095838868889882356e-01 5.699316595133221419e-01 5.125077660148457115e-01 2.802892284140992007e-01 4.898998491177311010e-01 4.439229800246797253e-01 3.578294140709597504e-01 5.054743631058999931e-01 5.088733017045551366e-01 5.441532352260758376e-01 6.312372449125182028e-01 5.138941143526851718e-01 6.459383919364682924e-01 4.715355982327568141e-01 4.943165937375556540e-01 5.474349494369845637e-01 3.249644320589702429e-01 4.605115204566810339e-01 2.349478396538190683e+00 5.833986954336104480e-01 5.565166334623191657e-01 3.296859681326802516e-01 5.760231276507429277e-01 1.103094194904555403e+00 5.794983167160172588e-01 7.166458928648018478e-01 5.081381299753736647e-01
6.808479283821108341e-01 2.453362218143466111e-01 4.039786610574606640e-01 5.471038476590416033e-02 3.157032824208885757e-01 2.881152863986670698e-01 5.251505399623214165e-01 4.580127964951223318e-01 2.122424395155680377e-01 3.221426828088397309e-01 2.018180321156913148e+00 1.691262146355671181e+00 -1.406396584921687509e+00 6.220505043861943584e-01 3.118152036921716386e-01 3.757648959745875650e-01 1.281591686258121421e-01 4.198453570573589255e-01 4.490794142733119387e-01 2.969024413220959224e-01 4.730914335184597808e-01 2.071407107132457348e+00 4.043211263652917720e-01 3.587722532863750757e-01 7.006003793027326676e-01 -2.696361261284099808e-01 4.715557978597507693e-01 2.668366123665172340e-01 2.861414162879689083e-01 -8.265253681387294549e-01 2.239872569765444521e-01 -9.215029091443609210e-02 2.895871955881399451e-01 2.546707409660268207e-01 -4.297775993068526090e-01 4.127004972453552356e-01 3.088581957325046701e-01 -3.188600934747081173e-01 -3.157729520727873052e+00 2.873177194194249107e-01 1.099837688630114219e+00 1.381566511038309630e-01 -1.624967488943631633e-01 7.913209208688071206e-01 6.617746733634908285e-01 2.761223969891350993e-01 5.441391555001538760e-02 3.006820863354376927e-01 2.839565554678157855e-01 7.228950120287892522e-01 6.985257527136651268e-01 4.458555134008317378e-01 -2.890197469512406081e-01 1.963379029063068992e-01 6.048193363150460300e-01 6.929185739455677728e-01 3.286968758916606337e-01 2.845576550121070580e-01 3.482965983068894711e-01 3.339714814275933086e-01 4.220135523953300605e-01 3.297823387517812010e-01 3.280778154797136525e-01 4.043211404309851598e-01 -3.453935376858413009e-01 2.323450252695156149e-01 3.066836923513516777e-01 3.432967554422777234e-01 2.672613692457511125e-01 7.305386171777631388e-01 1.187215175487181945e-01 3.354144971944902909e-01 2.900160739884973804e-01 7.085698573853799198e-01 1.884429638000487239e+00 5.207600768764485411e-01 4.653946512152670745e-01 4.780361653643486197e-01 3.132098993470511794e-01 -1.311045397626127373e+00 2.769854129230317485e-01 6.507126866931594034e-01 2.235144064312891032e+00 1.361179373785093016e-01 2.869728272344001518e-01 -4.358984631931911990e-01 1.172250653611615623e-01 2.902327570670107382e-01 -5.673954517529019581e-01 -8.579686332501192947e-01 6.612127517352544004e-01 1.536568985081182337e+00 1.128636305121878819e-01 7.096863113241775878e-01 3.036881866899625027e-01 2.939555341568981794e-01 2.795452407714100196e-01 7.175220130004120733e-01 7.391536654262957917e-01 -2.698479208951051755e-01 -1.633812457240955973e-01 5.704870069683949663e-02 2.855481710729989575e-01 2.176043064145485595e-01 2.349183109945036235e-02 3.025117324965975296e+00 -2.754024269209310316e-01 4.975756647660597304e-02 2.231219537537570685e-01 8.059025270309677635e-01 2.271738857224606389e-01 3.791004433347884839e-01 1.726144812797838490e-01 4.847440007369631099e-01 -4.958225775691496584e-01 2.079326776463075177e-01 3.636755637011299669e-01 3.688444425713438002e-01 9.402872276626271786e-01 3.218915429901685332e-01 -1.421935761128001241e+00 2.808611625538056655e-01 2.472355636173279858e-01 1.273569554816967431e+00 2.992647954946920374e-01 2.122661404764841109e+00 1.626023006017576766e-01 3.872253479072995663e-01 2.906443440209490747e-01 3.306446047075028982e-01 2.443261086229537860e-01 3.104939379073224925e-01 6.704493551874158852e-01 3.969847207342510065e-01 1.867744194277325964e-01 8.867792445876639951e-01 6.900796257105724640e-01 7.262375110562544478e-01 -3.265344595114650361e-01 1.960961264211757982e-01 3.024833590761618063e-01 3.212374606709422764e-01 2.180361740459993980e-01 3.350532253463066046e-01 3.222908420962253273e-01 6.979487089293078261e-01 -1.054973361506152257e-01 3.183354627729521047e-01 4.456826597900045428e-01 3.937713645660831374e-01 -2.944101896941362928e-01 1.962434929663584363e-02 2.761245942604526604e-01 2.905197361025516622e-01 3.769726511803234148e-01 3.053621366087955757e-01 -2.200685799365939666e+00 4.414430749652695773e-01 -5.803506107329520214e-01 -2.681486130682803060e-01 3.809463871042577665e-01 1.796077297434683362e-01 3.137401118858499927e-01 3.141110193973668530e-01 1.056452968690496791e-01 5.196613293467713945e-02 3.135489687757451738e-01 3.881292008226203127e-01 2.447661833743608739e-01 3.736737629674695138e-01 1.930566705822877316e-01 5.304422643951201000e-02 2.761522976373373406e-01 3.113256449364081857e-01 -2.450049753930537033e+00 7.209553676813748035e-01 6.419919299926267753e-01 9.864974589312920372e-01 -4.508521851865316954e-01 1.167003145124765329e+00 -2.625224012954937777e-02 3.467506194161398270e-01 1.223089635567001343e+00 2.482424739764263755e-01 3.027405818192442921e-01 2.584302349530973597e-01 2.596472057470696759e-01 2.959963263327671235e-01 -4.504898763606929868e-01 3.798046019937244000e-01 1.897135861589960559e-01 7.985039598010419404e-01 3.091870503691792060e-01 2.136346090482160731e-01 2.183503580995324878e-01 3.235011066230150667e-01 -1.597770201527060285e+00 2.950385291797595899e-01 1.727269869752525999e-01 3.467887148373633988e-01 1.355333223819379651e-01 3.046302969904809976e-01 3.735529931218184441e-01 1.246811661265478099e-01 -8.087918568563310373e-01 1.727269566414720292e-01 4.415264786502543504e-01 -4.994756512610449284e-01 3.161949709487280047e-01 1.514758559800049587e-01 2.702703123609578317e-01 -3.161057291600640973e+00 4.278480900751611693e-01 9.400561888072505035e-01 3.083592928102756869e-01 3.273248555454161823e-01 3.155271211488389071e-01 2.963241613826759768e-01 3.219623354996977715e-01 3.110567895577797670e-01 3.136101684274624768e-01 2.081447664367411798e-01 6.549325439416578964e-01 1.577997014569149647e-01 5.310574528658991156e-01 4.327700123228463425e-01 3.770344715718889073e-01 -6.226343913476901637e-01 2.219225725038833197e+00 3.737018983992997367e-01 1.223282580803787933e+00 -1.372701592793893699e+00 3.112663157902821331e-01 1.998888660098587788e-01 3.452165084675886675e-01 1.135057450008728264e+00 4.633596913974022402e-01 7.844349022386486459e-01 2.765602314245744209e-01 6.705241882652418495e-01 3.512468226073350852e-01 3.265751732176906397e-01 -1.137099215394527185e+00 3.277731626103956852e-01 3.219480792370221223e-01 4.560557356277979424e-01 9.225430552217720459e-01 -3.297425625408592076e-01 3.048765035825982572e+00 4.491540587362410908e-01 1.199506177156232756e+00 -6.580813194423167090e-02 3.152162534213825418e-01 4.043212989863449458e-01 3.001784290846093439e-01 3.049500918956741247e-01 3.393504493762344865e-01 -7.483392738778280040e-02 1.710350025074577063e-01 5.602597583288400074e-01 2.935809574383659304e-01 9.064299205705646234e-02 2.822734915028661251e-01 3.063201995530778210e-01 4.220135217729447108e-01 2.730540850269422282e-01 3.136606944208664149e+00 3.827858109407661358e-01 6.565793524799943270e-01 5.443595530840924512e-01 3.582523907480555936e-01 4.223579724020710136e-01 3.186012466393005060e-01 2.663409692421214725e-01 3.139842715156470621e-01 -4.859493015722700648e-01 4.820223244072494029e-01 2.855501866437595848e-01 1.115807009565829983e-01 2.302931149150823364e-01 1.504531916340186681e+00 2.208169378422229212e-01 2.728436323804567798e-01 1.971845884000592131e+00 4.876941678033375749e-01 3.620725506350189193e-01 2.793997093119331976e-01 3.069382418539370327e-01 2.079326768531367109e-01 -2.035786890645547409e+00 2.871621916960456766e-01 1.448512785359724386e+00 2.193180076480715293e-02 2.107360570490395546e-01 7.174848609338972949e-01 2.476219075229696420e-01 -7.077651347416228367e-01 4.477684513241987907e-01 3.259787761030614739e-01 4.457178179372786042e-01 -3.729202684229805387e-01 2.936965576315225257e-01 -2.078481227010420263e+00 5.355325278828341334e-02 3.375801910845727671e-01 6.082197121204713230e-01 3.067595824362695511e-01 3.214271335369959237e-01 4.359155908867060059e-01 2.299585115817714687e-01 -1.301228596753025990e-01 -7.472312032951976546e-01 7.388369687445536793e-03 6.778661932861579364e-01 2.976750223820239794e-01 4.747191792346963646e-01 3.109392578327726531e-01 5.409508475063932315e-02 3.055894399271807949e-01 2.384867445308811007e+00 6.927401378355074746e-01 2.464230283820786627e-01 -1.121999779324343027e+00 2.230812596952655158e-01 4.537522580023717111e+00 3.106672460001681513e-01 -9.465684876196324427e-02 5.675847734335892625e-01 -5.424536417678573308e+00 4.954437314642609058e-01 1.502942511933870628e+00 3.118399350040347850e-01 5.447336671072334768e-01 -4.282228828378925600e-01 3.402771315755276360e-01 2.950573385372473600e-01 3.539705954624707274e-01 2.595534959640234396e-01 2.839582452220843933e+00 -3.584105878321336980e-01 2.524635493246503160e-01 -1.882925817776838207e+00 2.798203761302229808e-01 -3.188600950166438630e-01 7.360203735623416232e-01 5.590145425978859661e-01 3.664749210376118671e-01 3.513045380274626428e-01 1.289734523732855909e+00 1.334354834754220842e-01 1.727269879623350157e-01 3.277793082031995597e-01 1.246811639607481315e-01 2.402737423841350417e-01 3.994909380125851173e-01 -5.928729509505012985e-01 3.128961875617403687e-01 5.263733951958018409e-01 3.626319004390433087e-01 1.754050212073063608e-01 3.174736858668673056e-01 4.309816960453625168e-01 5.590145562835859838e-01 3.352731554338026498e-01 3.117392387863974212e-01 2.112570354771655390e-01 4.639650970718005030e-01 3.276591861468937328e+00 2.985687893069685073e-01 1.779448559911306627e-01 4.220127716394661554e-01 8.570820890683805704e-01 4.618049346638535835e-01 -1.881314232518847274e-01 6.970388062249702754e-01 2.217172033164505063e-01 1.109023457487023773e-01 3.836775729326311057e-01 6.447040462042731290e-01 6.701636663850667475e-01 7.679455806983404020e-01 8.037858855932653590e-01 3.884864728046666937e-01 1.246811661183636066e-01 1.246812477647502443e-01 3.681110435016531346e-01 1.017932505301264862e-01 1.120034560133644996e+00 4.180331942619400776e-01 3.168892071221511286e-01 3.905780564724214421e-01 3.112063377568927147e-01 7.906661677413135969e-01 1.727273610321911901e-01 3.128191945826830911e-01 4.324878280323500301e-01 3.172157920522784003e-01 -6.276603044782669283e-01 2.919763417389706905e-01 3.023205402365767291e-01 3.504678097541449322e-01 7.060626443950579478e-01 7.491465307988559585e-01 1.246811640581152181e-01 2.939349256898288534e-02 3.117541729453038313e-01 4.013122903930569918e-01 -5.882521180357713764e-01 2.233196084335845322e-01 -3.415566388455324898e+00 1.880335336310166916e+00 6.166369557955703185e-01 -4.306629134303378015e-01 5.476556545098572315e-02 2.012670966650586646e+00 3.232043481704994226e-01 6.268993014231947214e-01 7.104208329537858857e-02 2.704797727152303266e-01 4.659483992650916839e-01 3.281146844115674366e-01 -3.902637934934977682e-01 2.732366209713465444e-01 2.010246806399110575e+00 3.455356899257535086e-01 -3.837621055966421446e-01 2.433776244856742654e-01 3.126557228153138968e-01 -1.433611942004026307e+00 2.709304222224102610e-01 2.747842075962927955e-01 4.025597469117202509e-01 2.400276459769486170e-01 3.140723525391551640e-01 2.452574822772830287e-01 3.265272795052815979e-01 -1.596916045573313625e-01 3.096484922280371421e-01 1.577437692935363400e-01 3.432161597835506894e-01 2.590643484710232758e-01 3.208275848928258955e-02 4.542331082194053238e-01 6.413214996558098679e-01 -1.337845371452751619e+00 -4.592225301825558215e-01 -1.019402109054452221e-01 3.438867432348467063e-02 3.307214355781455950e-01 4.224909367564456675e-01 3.622873928848688307e-01 7.131337453600736787e-01 -8.938831348817510847e-02 3.297645369665829773e-01 2.939296288518314371e-01 9.135840931922505070e-02 -1.600031258223941211e-01 3.388622265682095791e-01 4.252905915509677115e-01 4.782697759426556838e-01 3.048663221292456371e-01 2.946213903761046304e-01 3.202272435342053969e-01 2.629742085071404278e-01 3.132769317694364397e-01 5.172980678408511945e-01 4.275267781857463589e-01 3.139817127002358377e-01 6.979680945680715176e-01 2.877015946580848138e-01 7.060247180500203168e-01 1.243572779058950140e-01 4.679820076262466988e-01 2.120352087612706882e-01 -1.424166736108180897e+00 3.185221300435898684e-01 6.392532173185517808e-01 3.957560052462523736e-01 2.524513113136411246e-01 2.810617993208210930e-01 3.335733773161058124e-01 7.110794141204055396e-01 3.198546782779227993e-01 3.533747359669849875e-01 3.121696220595686633e-01 2.984741176426514708e-01 2.269321425953893800e-01 5.308107108388844253e-01 2.992127806109882715e-01 2.882905247526073023e-01 2.260402558348448832e-01 3.423021035182662736e-02 1.596153061797139339e+00 3.475234514576211464e-01 3.754233774855205152e-01 3.704315121504212494e-01 -8.127649674773617106e-01 4.436134689933459163e-01 3.586034809429204384e-01 5.428037735520818696e-01 2.244162698206865827e-02 3.375388738200265637e-01 1.466527433429817284e+00 8.839923321426532699e-01 3.751832582148497131e-01 2.575797459163174929e-01 3.991810392229145910e-01 3.173209017294318923e-01 9.033186225395060109e-01 2.961630641925663276e+00 3.199249632249429598e-01 6.908742937217518532e-02 5.969332140623595517e-01 -1.520621216337353088e-01 3.191422746352249318e-01 3.121136776958320924e-01 1.046417759766071098e+00 3.450073648073415100e-01 -2.998493007232658769e-01 3.657117230053582579e-01 1.107633849673834298e-01 6.670151326721980301e-01 1.652700095255809742e+00 3.848342168722899692e-01 2.308851785124971245e-01 1.637701858304790870e+00 4.181693364055916740e-01 2.810705943073861790e-01 2.980606708111767089e-01 3.812219573906524550e-01 5.476944311232068846e-02 4.091856147241563213e-01 2.330962342019816391e-01 7.137398593055398477e-01 3.358906298319081496e-01 3.539451246660519912e-01 2.971567919313676809e-01 4.592411592587246072e-01 2.623121874708140844e-01 2.505163047890539008e-01 9.288548903611881791e-01 4.985541429387487788e-01 3.631360466788769448e-01 2.901140134219783451e-01 3.213215172442265843e-01 3.327244435587384808e-01 5.813770710320484980e-01 7.619540485284750364e-01 2.982357538350282611e-01 2.703488963901176656e-01 3.769339334971437694e-01 3.110141629452576328e-01 7.483669803136718812e-01 2.041698285954830216e-01 4.307619286126778690e-01 -3.172808456145015943e-01 3.154455208734171512e-01 2.221396215102264537e-01 3.992119188765441140e-01 3.524451503856355639e-01 2.277611000569826627e-01 1.729854028606279348e+00 1.586529510603353899e-01 2.904412684763666985e-01 -1.341995748806501521e-01 1.581907815122837624e+00 1.132492297716320317e+00 8.755786241278153137e-02 -4.654601166994084549e-01 2.944354075913871993e-01 3.229285627991658747e-01 5.128502561791118408e-01 3.124291175748732940e-01 3.165184362864381651e-01 2.051960946909564820e-01 3.238869530626846682e-01 3.525983719703071340e-01 5.505198092599711962e-02 -1.591900579793802117e-01 3.860886082533537822e-01 3.826446309007287550e-01 1.857710543098849143e-01 8.515188419863434222e-01 4.220135357698889256e-01 2.159848454853327548e-01 8.155084799952745378e-01 4.763694527426367009e-01 6.615732844592370210e-01 4.178598015935293675e-01 6.828046443430805246e-01 1.453020537456103600e+00 3.071563546211778517e-01 2.018141917556249609e+00 -9.594929933754284268e-03 1.298877783062781788e-01 3.163308479903660930e-01 2.865368458976716437e-01 3.074903035844137600e-01 3.736941181002357837e-01 3.261539783590880481e-01 3.163147233815419845e-01 3.502487682871442409e-01 1.808155537052037187e-01 -2.670730393575453943e-01 3.151114980817725786e-01 -7.708616373794441312e-02 2.514662801931349945e-01 4.457795468357805269e-01 4.220135357205649362e-01 1.939266388172364852e-01 2.631188204550416465e-01 -1.167024370207176753e+00 1.912264315085558275e+00 3.154612073021336727e-01 -6.792224833090636515e-01 2.982112077498870750e-01 3.170758579598730864e-01 3.100966262345527524e-01 -4.632362632069572328e+00 3.442507848311962437e+00 6.156808310101932191e-01 1.249464237962795432e-01 3.446010933538105059e-01 3.161830093970272593e-01 3.390732572265214295e-01 2.548578224885524879e+00 6.112251487247379877e-01 3.209945002024430782e-01 2.079326634264268281e-01 2.335660948685659433e-01 2.935591846345713130e-01 8.777728584102499898e-01 -3.799361252862694105e-01 -1.120644398057383917e+00 -1.172810260997446230e+00 3.219051857315181064e-01 3.182812997250828446e-01 6.979198864181543893e-01 3.227166647169352198e-01 1.231033225641227524e+00 4.567748790484981170e-01 3.114050655260656719e-01 3.077231474793900023e-01 2.904703514315868929e-01 2.648879076813189792e-01 2.519799576965043864e-01 6.537932448885088732e-01 2.876564632116107023e-01 6.291175606032797241e-01 2.121566122605054172e-01 1.623508620511418879e-02 2.520825208894764691e-01 2.255863088797565030e-01 3.223310464229180439e-01 3.686929821863454970e-01 7.181136844899962401e-01 5.590145507890456056e-01 4.933604072200412083e-01 3.954313016144608839e-01 3.212648443358666617e-01 2.509874214251480717e-01 1.466551346416758772e+00 1.801464305889295181e+00 2.510683794533424829e-01 3.244247260788452047e-01 3.123501960794511922e-01 1.897779864692480389e-01 2.416960962407279367e-01 1.839317650698240880e-01 3.462741854216115356e-01 3.191009335385439627e-01 7.839441593549708598e-01 8.580387145246067826e-01 2.645317903828910966e-01 1.820918285241118539e+00 1.646744187540170323e-01 -1.268712684218044340e-01 -2.692264324245142726e-01 -3.270442615987395052e-01 3.168700917963209185e-01 2.858671467316309944e-01 7.031134640789324930e-01 3.103027941886644103e-01 4.449921709061714914e-01 2.982474755351416928e-01 3.800341587731976833e-01 4.057213183886103081e-01 6.666221411263952012e-02 1.023264033210238511e+00 3.066646663907837689e-01 5.036561016779690370e-01 3.206867986671430582e-01 3.625144133028878612e-01 3.046407119345873604e-01 3.848715447995353922e-01 -1.263153979140410055e-01 2.238064630811678057e-01 3.005878938919393506e-01 5.418687371808518505e-02 4.220136395487467107e-01 1.123667051488896007e+00 9.365938532765643032e-01 -7.412498005707058857e-01 -3.188600934683971100e-01 6.338800783194594723e-01 -3.224966807200507546e+00 1.546932856206075568e+00 2.930406145879982938e-01 5.474450597491487686e-02 3.188464464511673313e-01 8.616657990261530342e-01 3.119607663124443486e-01 3.277737897012645840e-01 -4.349052873751168002e-01 8.298389707620444922e-01 2.707253721017463532e-01 8.899824497224692044e-01 2.044803135329251731e+00 -3.799763295430729215e-01 -1.416743229689707340e+00 2.990513060604294560e-01 2.317025460261641634e-01 7.843598347857485553e-01 3.107949597005957298e-01 6.972509548145614522e-01 4.689179151505389886e-01 1.284008030469465100e-01 3.180904888677525966e-01 3.482705819540388714e-01 2.224948220610450389e-01 3.709621958526090890e-01 1.363146229132830678e+00 1.567301989062799938e+00 3.123383946446697812e-01 2.587156953212175203e-01 5.778404719029303985e-03 -2.311531847819307817e-01 1.948381607025145568e-01 3.131387943309248134e-02 3.101067747036181377e-01 7.013856875044272021e-01 -3.913169476224445664e-01 3.132769679013809871e-01 3.359688741319508121e-01 1.624958385020027485e-01 3.259596055263648817e-01 2.905351141743216514e-01 3.079923621294509695e-01 3.147602814283320671e-01 -3.879793907975023076e-02 2.396582871041126606e-01 4.433332727947174035e-01 1.094936091860707172e+00 1.093608466418878544e+00 9.421129386517317350e-01 1.977500735930023679e-01 7.600955041609267493e-01 1.160287432949329706e-01 4.459943904535084158e-01 -2.028041978143169111e+00 2.961571012205424513e-01 6.476600488484026696e-01 2.867909269582811227e-01 9.591077520504219800e-01 1.347646610208446782e+00 2.079326768725201779e-01 3.071382747202526797e-01 3.712698430872019006e-01 1.943229429931632168e-01 5.586160372487916081e-01 7.724744572778777796e-01 -7.314552642370866220e-01 1.410242940074442897e-01 1.487145909302337865e-01 3.146564676131175520e-01 3.443317707756109458e-01 7.667579146801334344e-01 -1.313884885285411808e-01 3.830190304575607496e-01 3.203766120436755682e-01 2.524506968295420206e-01 8.843395949731506223e-01 4.193963587631022727e-01 -2.004143910406869233e-01 8.591983328160378575e-01 -4.142832389820700484e-02 5.715465385233694517e-01 2.861683676289571432e-01 1.267235890452739211e+00 5.275815438617863506e-01 7.128152916239207659e-01 4.331109184156540781e-01 4.732584329042094362e-01 -4.976913975153486325e-01 2.978534276360317312e-01 7.623744880178107142e-01 2.903737258448786940e-01 6.518065734470410710e-01 3.518282173208799879e-01 3.186486496987810946e-01 7.329270961643193916e-01 1.156409273538598070e-01 -2.002642097204648142e+00 3.233539984969776571e-01 2.811676875559420696e-01 7.021389432559473898e-01 3.758894914979045154e-01 3.829055806354506597e-01 2.396115100962703526e-01 2.381033019348770541e-01 3.566124826818344307e-01 1.503843955158867471e-02 -1.600582801094387886e+00 7.388594456484627315e-01 2.698962059166830629e-01 2.972896052404633838e-01 1.836864239676655464e-01 8.240904439713426788e-01 3.107804940036634767e-01 -1.224877237580850459e-01 3.090290955355953773e-01 1.111413612085166758e+00 3.263329766435934531e-01 4.141347649933135866e-01 1.068245806686990873e+00 2.973044480406936141e-01 2.677820151841569185e+00 2.682778128144928664e-01 3.293608299882361257e-01 6.911648065648197115e-01 3.217686970093109333e-01 2.794111262516479344e-01 -1.984794937119843672e+00 3.549778152053667535e-01 2.878018442920391440e-01 5.104533112899870551e-01 2.973001832128660538e-01 3.570228355199782100e-01 -2.647120171976727332e-01 2.003281520689732087e+00 -5.205324354033429302e-01 8.261738682495765040e-01 3.129777404282591546e-01 4.027446757435430014e-01 7.376220604802676828e-01 3.413379674389482865e-01 1.307523588677527826e+00 1.496759035046937858e-01 2.903701867400447223e-01 -8.747473856398925163e-01 -1.243600054836668245e-01 -2.092412630304145427e-01 -3.763750758255689721e+00 2.869224406765181978e+00 9.136083902194824802e-02 2.812200574754271654e-01 -1.564424910206387853e+00 3.099996209217498744e-01 1.685914881568172374e-01 3.426416013679252637e-01 1.286899430169012593e-01 6.364224988760696089e-01 5.890804123542278115e-01 9.613053972636932398e-01 -3.188600934269342213e-01 -2.077990506243227731e-01 2.088505987172660228e-01 -1.166520481198311865e+00 2.817673092423010339e-01 -6.230839055591346209e-01 3.513104705798175686e-01 4.862857657767913899e-01 3.430308529165146392e-02 4.080126581707996247e-01 2.754654099376401821e-01 -1.188963925475565453e-01 2.071175119067943660e-01 3.075513728779459832e-01 3.422593254602430690e-01 3.098130871140722942e-01 3.156554094142239308e-01 -7.411266993221695687e-01 5.887609822999011477e-01 1.520853189712630282e+00 5.136235136855922534e-02 2.433158506210335859e-01 4.126477256787851045e-01 1.216188112876622762e+00 2.802745874330784814e-01 1.730804864330030002e-01 8.981732845503850315e-01 3.389394786263953963e-01 1.815692178597853923e+00 4.054943157161813305e-01 1.149154047539656220e+00 3.225806320443329600e-01 7.367919331166924435e-01 1.337535888759765479e+00 3.079351409954714236e-01 3.953848506445296618e-01 8.967634480945956277e-01 -1.822093536289558224e-01 -4.518257383470124927e-02 1.379442228846246565e-01 2.938879644202053720e-01 3.409589311973941772e-01 1.408307591877356602e-01 2.717881815172102922e-01 -3.399346072038398336e-01 1.292380326353409936e+00 2.720211433041268556e-01 3.167647458044522968e-01 -3.055913147006357633e+00 4.637779565101711188e-01 3.942108723422256822e-01 4.744318126906604816e-01 4.372623146730594268e-01 5.092975883616045474e-01 -1.019539501939446202e+00 5.816551265750518063e-01 2.731079937719272932e-01 3.080831415789369032e-01 1.049214771849890537e+00 4.393225489835528297e-01 3.105640726284004671e-01 -1.372922124611492878e+00 4.687661274791108945e-01 8.843811764992636215e-01 2.927512786206045159e-01 3.086582028253622711e-01 2.847354477919949445e-01 6.933371173756540662e-01 -8.991339035998664742e-02 3.149964513134616007e-01 3.412738156072500639e-01 6.471054108230975266e-02 7.212477671868423590e-01 3.591456089230692927e-01 7.460171861819092642e-01 1.811872734319842360e-01 6.827340508986156076e-01 -1.983967271898157136e-01 -1.497557091603638479e+00 3.447065333316324254e-01 -1.337217003819142144e-02 2.950630020355139993e-01 2.836972154161701010e-01 5.738008493198065024e-02 5.590145506891688321e-01 3.149332530180884437e-01 8.942815304123966080e-02 4.581253113580616709e-01 3.416148195468139970e-01 2.864809910620744748e-01 2.730197202183546334e-01 -7.919835211753785131e-01 3.280609457153272346e-01 3.147769511833243272e-01 3.487839736791123468e-01 -4.841873504362784186e-02 3.165590038935198192e-01 7.843153984437448711e-01 -4.643268788306584849e-01 1.078499862221568906e+00 5.975190297518838678e-01 3.503920939400737566e-01 3.120792486872657756e-01 -2.006622455322303100e+00 2.917602124885053105e-01 1.772818354080420988e-01 2.207826740261339959e-01 5.590145523316898402e-01 3.091877225896537129e-01 2.621489095259446622e-01 1.392361525657220545e-01 3.170109319863022579e-01 4.346744133893745698e-01 4.272954675360606802e-01 4.017512151224991723e-01 3.072066433271695152e-01 3.141351990608330369e-01 3.196790907013585814e-01 2.903147665014039203e-01 -1.469301438352480296e-03 3.120795481189146403e-01 5.722826564661929183e-01 2.370208318610904086e-01 2.839899026894442402e-01 -1.139232156885496422e-01 1.152560076054070654e-01 4.575496022753055558e-01 4.286390458809565374e+00 2.515119839925938350e-01 1.542495145872725681e-01 5.015508509905600709e-01 2.306561252125780281e-01 1.520909931432371298e+00 2.956456359973492209e-01 6.661031447194579735e-01 3.092112608028935727e-01
