# 
#                 ----------------------------------------------------
#                 Data from a 3D direct N-body simulation. 
# 
#                 rows are i-particle; 
#                 coumns are :mass, tag, x ,y, z, vx, vy, vz, ax, ay, az
# 
#                 NTHU, Computational Physics 
# 
#                 ----------------------------------------------------
#                 Time = 0.0
0.000000000000000000e+00 1.000000000000000000e+00 2.000000000000000000e+00 3.000000000000000000e+00 4.000000000000000000e+00 5.000000000000000000e+00 6.000000000000000000e+00 7.000000000000000000e+00 8.000000000000000000e+00 9.000000000000000000e+00 1.000000000000000000e+01 1.100000000000000000e+01 1.200000000000000000e+01 1.300000000000000000e+01 1.400000000000000000e+01 1.500000000000000000e+01 1.600000000000000000e+01 1.700000000000000000e+01 1.800000000000000000e+01 1.900000000000000000e+01 2.000000000000000000e+01 2.100000000000000000e+01 2.200000000000000000e+01 2.300000000000000000e+01 2.400000000000000000e+01 2.500000000000000000e+01 2.600000000000000000e+01 2.700000000000000000e+01 2.800000000000000000e+01 2.900000000000000000e+01 3.000000000000000000e+01 3.100000000000000000e+01 3.200000000000000000e+01 3.300000000000000000e+01 3.400000000000000000e+01 3.500000000000000000e+01 3.600000000000000000e+01 3.700000000000000000e+01 3.800000000000000000e+01 3.900000000000000000e+01 4.000000000000000000e+01 4.100000000000000000e+01 4.200000000000000000e+01 4.300000000000000000e+01 4.400000000000000000e+01 4.500000000000000000e+01 4.600000000000000000e+01 4.700000000000000000e+01 4.800000000000000000e+01 4.900000000000000000e+01 5.000000000000000000e+01 5.100000000000000000e+01 5.200000000000000000e+01 5.300000000000000000e+01 5.400000000000000000e+01 5.500000000000000000e+01 5.600000000000000000e+01 5.700000000000000000e+01 5.800000000000000000e+01 5.900000000000000000e+01 6.000000000000000000e+01 6.100000000000000000e+01 6.200000000000000000e+01 6.300000000000000000e+01 6.400000000000000000e+01 6.500000000000000000e+01 6.600000000000000000e+01 6.700000000000000000e+01 6.800000000000000000e+01 6.900000000000000000e+01 7.000000000000000000e+01 7.100000000000000000e+01 7.200000000000000000e+01 7.300000000000000000e+01 7.400000000000000000e+01 7.500000000000000000e+01 7.600000000000000000e+01 7.700000000000000000e+01 7.800000000000000000e+01 7.900000000000000000e+01 8.000000000000000000e+01 8.100000000000000000e+01 8.200000000000000000e+01 8.300000000000000000e+01 8.400000000000000000e+01 8.500000000000000000e+01 8.600000000000000000e+01 8.700000000000000000e+01 8.800000000000000000e+01 8.900000000000000000e+01 9.000000000000000000e+01 9.100000000000000000e+01 9.200000000000000000e+01 9.300000000000000000e+01 9.400000000000000000e+01 9.500000000000000000e+01 9.600000000000000000e+01 9.700000000000000000e+01 9.800000000000000000e+01 9.900000000000000000e+01 1.000000000000000000e+02 1.010000000000000000e+02 1.020000000000000000e+02 1.030000000000000000e+02 1.040000000000000000e+02 1.050000000000000000e+02 1.060000000000000000e+02 1.070000000000000000e+02 1.080000000000000000e+02 1.090000000000000000e+02 1.100000000000000000e+02 1.110000000000000000e+02 1.120000000000000000e+02 1.130000000000000000e+02 1.140000000000000000e+02 1.150000000000000000e+02 1.160000000000000000e+02 1.170000000000000000e+02 1.180000000000000000e+02 1.190000000000000000e+02 1.200000000000000000e+02 1.210000000000000000e+02 1.220000000000000000e+02 1.230000000000000000e+02 1.240000000000000000e+02 1.250000000000000000e+02 1.260000000000000000e+02 1.270000000000000000e+02 1.280000000000000000e+02 1.290000000000000000e+02 1.300000000000000000e+02 1.310000000000000000e+02 1.320000000000000000e+02 1.330000000000000000e+02 1.340000000000000000e+02 1.350000000000000000e+02 1.360000000000000000e+02 1.370000000000000000e+02 1.380000000000000000e+02 1.390000000000000000e+02 1.400000000000000000e+02 1.410000000000000000e+02 1.420000000000000000e+02 1.430000000000000000e+02 1.440000000000000000e+02 1.450000000000000000e+02 1.460000000000000000e+02 1.470000000000000000e+02 1.480000000000000000e+02 1.490000000000000000e+02 1.500000000000000000e+02 1.510000000000000000e+02 1.520000000000000000e+02 1.530000000000000000e+02 1.540000000000000000e+02 1.550000000000000000e+02 1.560000000000000000e+02 1.570000000000000000e+02 1.580000000000000000e+02 1.590000000000000000e+02 1.600000000000000000e+02 1.610000000000000000e+02 1.620000000000000000e+02 1.630000000000000000e+02 1.640000000000000000e+02 1.650000000000000000e+02 1.660000000000000000e+02 1.670000000000000000e+02 1.680000000000000000e+02 1.690000000000000000e+02 1.700000000000000000e+02 1.710000000000000000e+02 1.720000000000000000e+02 1.730000000000000000e+02 1.740000000000000000e+02 1.750000000000000000e+02 1.760000000000000000e+02 1.770000000000000000e+02 1.780000000000000000e+02 1.790000000000000000e+02 1.800000000000000000e+02 1.810000000000000000e+02 1.820000000000000000e+02 1.830000000000000000e+02 1.840000000000000000e+02 1.850000000000000000e+02 1.860000000000000000e+02 1.870000000000000000e+02 1.880000000000000000e+02 1.890000000000000000e+02 1.900000000000000000e+02 1.910000000000000000e+02 1.920000000000000000e+02 1.930000000000000000e+02 1.940000000000000000e+02 1.950000000000000000e+02 1.960000000000000000e+02 1.970000000000000000e+02 1.980000000000000000e+02 1.990000000000000000e+02 2.000000000000000000e+02 2.010000000000000000e+02 2.020000000000000000e+02 2.030000000000000000e+02 2.040000000000000000e+02 2.050000000000000000e+02 2.060000000000000000e+02 2.070000000000000000e+02 2.080000000000000000e+02 2.090000000000000000e+02 2.100000000000000000e+02 2.110000000000000000e+02 2.120000000000000000e+02 2.130000000000000000e+02 2.140000000000000000e+02 2.150000000000000000e+02 2.160000000000000000e+02 2.170000000000000000e+02 2.180000000000000000e+02 2.190000000000000000e+02 2.200000000000000000e+02 2.210000000000000000e+02 2.220000000000000000e+02 2.230000000000000000e+02 2.240000000000000000e+02 2.250000000000000000e+02 2.260000000000000000e+02 2.270000000000000000e+02 2.280000000000000000e+02 2.290000000000000000e+02 2.300000000000000000e+02 2.310000000000000000e+02 2.320000000000000000e+02 2.330000000000000000e+02 2.340000000000000000e+02 2.350000000000000000e+02 2.360000000000000000e+02 2.370000000000000000e+02 2.380000000000000000e+02 2.390000000000000000e+02 2.400000000000000000e+02 2.410000000000000000e+02 2.420000000000000000e+02 2.430000000000000000e+02 2.440000000000000000e+02 2.450000000000000000e+02 2.460000000000000000e+02 2.470000000000000000e+02 2.480000000000000000e+02 2.490000000000000000e+02 2.500000000000000000e+02 2.510000000000000000e+02 2.520000000000000000e+02 2.530000000000000000e+02 2.540000000000000000e+02 2.550000000000000000e+02 2.560000000000000000e+02 2.570000000000000000e+02 2.580000000000000000e+02 2.590000000000000000e+02 2.600000000000000000e+02 2.610000000000000000e+02 2.620000000000000000e+02 2.630000000000000000e+02 2.640000000000000000e+02 2.650000000000000000e+02 2.660000000000000000e+02 2.670000000000000000e+02 2.680000000000000000e+02 2.690000000000000000e+02 2.700000000000000000e+02 2.710000000000000000e+02 2.720000000000000000e+02 2.730000000000000000e+02 2.740000000000000000e+02 2.750000000000000000e+02 2.760000000000000000e+02 2.770000000000000000e+02 2.780000000000000000e+02 2.790000000000000000e+02 2.800000000000000000e+02 2.810000000000000000e+02 2.820000000000000000e+02 2.830000000000000000e+02 2.840000000000000000e+02 2.850000000000000000e+02 2.860000000000000000e+02 2.870000000000000000e+02 2.880000000000000000e+02 2.890000000000000000e+02 2.900000000000000000e+02 2.910000000000000000e+02 2.920000000000000000e+02 2.930000000000000000e+02 2.940000000000000000e+02 2.950000000000000000e+02 2.960000000000000000e+02 2.970000000000000000e+02 2.980000000000000000e+02 2.990000000000000000e+02 3.000000000000000000e+02 3.010000000000000000e+02 3.020000000000000000e+02 3.030000000000000000e+02 3.040000000000000000e+02 3.050000000000000000e+02 3.060000000000000000e+02 3.070000000000000000e+02 3.080000000000000000e+02 3.090000000000000000e+02 3.100000000000000000e+02 3.110000000000000000e+02 3.120000000000000000e+02 3.130000000000000000e+02 3.140000000000000000e+02 3.150000000000000000e+02 3.160000000000000000e+02 3.170000000000000000e+02 3.180000000000000000e+02 3.190000000000000000e+02 3.200000000000000000e+02 3.210000000000000000e+02 3.220000000000000000e+02 3.230000000000000000e+02 3.240000000000000000e+02 3.250000000000000000e+02 3.260000000000000000e+02 3.270000000000000000e+02 3.280000000000000000e+02 3.290000000000000000e+02 3.300000000000000000e+02 3.310000000000000000e+02 3.320000000000000000e+02 3.330000000000000000e+02 3.340000000000000000e+02 3.350000000000000000e+02 3.360000000000000000e+02 3.370000000000000000e+02 3.380000000000000000e+02 3.390000000000000000e+02 3.400000000000000000e+02 3.410000000000000000e+02 3.420000000000000000e+02 3.430000000000000000e+02 3.440000000000000000e+02 3.450000000000000000e+02 3.460000000000000000e+02 3.470000000000000000e+02 3.480000000000000000e+02 3.490000000000000000e+02 3.500000000000000000e+02 3.510000000000000000e+02 3.520000000000000000e+02 3.530000000000000000e+02 3.540000000000000000e+02 3.550000000000000000e+02 3.560000000000000000e+02 3.570000000000000000e+02 3.580000000000000000e+02 3.590000000000000000e+02 3.600000000000000000e+02 3.610000000000000000e+02 3.620000000000000000e+02 3.630000000000000000e+02 3.640000000000000000e+02 3.650000000000000000e+02 3.660000000000000000e+02 3.670000000000000000e+02 3.680000000000000000e+02 3.690000000000000000e+02 3.700000000000000000e+02 3.710000000000000000e+02 3.720000000000000000e+02 3.730000000000000000e+02 3.740000000000000000e+02 3.750000000000000000e+02 3.760000000000000000e+02 3.770000000000000000e+02 3.780000000000000000e+02 3.790000000000000000e+02 3.800000000000000000e+02 3.810000000000000000e+02 3.820000000000000000e+02 3.830000000000000000e+02 3.840000000000000000e+02 3.850000000000000000e+02 3.860000000000000000e+02 3.870000000000000000e+02 3.880000000000000000e+02 3.890000000000000000e+02 3.900000000000000000e+02 3.910000000000000000e+02 3.920000000000000000e+02 3.930000000000000000e+02 3.940000000000000000e+02 3.950000000000000000e+02 3.960000000000000000e+02 3.970000000000000000e+02 3.980000000000000000e+02 3.990000000000000000e+02 4.000000000000000000e+02 4.010000000000000000e+02 4.020000000000000000e+02 4.030000000000000000e+02 4.040000000000000000e+02 4.050000000000000000e+02 4.060000000000000000e+02 4.070000000000000000e+02 4.080000000000000000e+02 4.090000000000000000e+02 4.100000000000000000e+02 4.110000000000000000e+02 4.120000000000000000e+02 4.130000000000000000e+02 4.140000000000000000e+02 4.150000000000000000e+02 4.160000000000000000e+02 4.170000000000000000e+02 4.180000000000000000e+02 4.190000000000000000e+02 4.200000000000000000e+02 4.210000000000000000e+02 4.220000000000000000e+02 4.230000000000000000e+02 4.240000000000000000e+02 4.250000000000000000e+02 4.260000000000000000e+02 4.270000000000000000e+02 4.280000000000000000e+02 4.290000000000000000e+02 4.300000000000000000e+02 4.310000000000000000e+02 4.320000000000000000e+02 4.330000000000000000e+02 4.340000000000000000e+02 4.350000000000000000e+02 4.360000000000000000e+02 4.370000000000000000e+02 4.380000000000000000e+02 4.390000000000000000e+02 4.400000000000000000e+02 4.410000000000000000e+02 4.420000000000000000e+02 4.430000000000000000e+02 4.440000000000000000e+02 4.450000000000000000e+02 4.460000000000000000e+02 4.470000000000000000e+02 4.480000000000000000e+02 4.490000000000000000e+02 4.500000000000000000e+02 4.510000000000000000e+02 4.520000000000000000e+02 4.530000000000000000e+02 4.540000000000000000e+02 4.550000000000000000e+02 4.560000000000000000e+02 4.570000000000000000e+02 4.580000000000000000e+02 4.590000000000000000e+02 4.600000000000000000e+02 4.610000000000000000e+02 4.620000000000000000e+02 4.630000000000000000e+02 4.640000000000000000e+02 4.650000000000000000e+02 4.660000000000000000e+02 4.670000000000000000e+02 4.680000000000000000e+02 4.690000000000000000e+02 4.700000000000000000e+02 4.710000000000000000e+02 4.720000000000000000e+02 4.730000000000000000e+02 4.740000000000000000e+02 4.750000000000000000e+02 4.760000000000000000e+02 4.770000000000000000e+02 4.780000000000000000e+02 4.790000000000000000e+02 4.800000000000000000e+02 4.810000000000000000e+02 4.820000000000000000e+02 4.830000000000000000e+02 4.840000000000000000e+02 4.850000000000000000e+02 4.860000000000000000e+02 4.870000000000000000e+02 4.880000000000000000e+02 4.890000000000000000e+02 4.900000000000000000e+02 4.910000000000000000e+02 4.920000000000000000e+02 4.930000000000000000e+02 4.940000000000000000e+02 4.950000000000000000e+02 4.960000000000000000e+02 4.970000000000000000e+02 4.980000000000000000e+02 4.990000000000000000e+02 5.000000000000000000e+02 5.010000000000000000e+02 5.020000000000000000e+02 5.030000000000000000e+02 5.040000000000000000e+02 5.050000000000000000e+02 5.060000000000000000e+02 5.070000000000000000e+02 5.080000000000000000e+02 5.090000000000000000e+02 5.100000000000000000e+02 5.110000000000000000e+02 5.120000000000000000e+02 5.130000000000000000e+02 5.140000000000000000e+02 5.150000000000000000e+02 5.160000000000000000e+02 5.170000000000000000e+02 5.180000000000000000e+02 5.190000000000000000e+02 5.200000000000000000e+02 5.210000000000000000e+02 5.220000000000000000e+02 5.230000000000000000e+02 5.240000000000000000e+02 5.250000000000000000e+02 5.260000000000000000e+02 5.270000000000000000e+02 5.280000000000000000e+02 5.290000000000000000e+02 5.300000000000000000e+02 5.310000000000000000e+02 5.320000000000000000e+02 5.330000000000000000e+02 5.340000000000000000e+02 5.350000000000000000e+02 5.360000000000000000e+02 5.370000000000000000e+02 5.380000000000000000e+02 5.390000000000000000e+02 5.400000000000000000e+02 5.410000000000000000e+02 5.420000000000000000e+02 5.430000000000000000e+02 5.440000000000000000e+02 5.450000000000000000e+02 5.460000000000000000e+02 5.470000000000000000e+02 5.480000000000000000e+02 5.490000000000000000e+02 5.500000000000000000e+02 5.510000000000000000e+02 5.520000000000000000e+02 5.530000000000000000e+02 5.540000000000000000e+02 5.550000000000000000e+02 5.560000000000000000e+02 5.570000000000000000e+02 5.580000000000000000e+02 5.590000000000000000e+02 5.600000000000000000e+02 5.610000000000000000e+02 5.620000000000000000e+02 5.630000000000000000e+02 5.640000000000000000e+02 5.650000000000000000e+02 5.660000000000000000e+02 5.670000000000000000e+02 5.680000000000000000e+02 5.690000000000000000e+02 5.700000000000000000e+02 5.710000000000000000e+02 5.720000000000000000e+02 5.730000000000000000e+02 5.740000000000000000e+02 5.750000000000000000e+02 5.760000000000000000e+02 5.770000000000000000e+02 5.780000000000000000e+02 5.790000000000000000e+02 5.800000000000000000e+02 5.810000000000000000e+02 5.820000000000000000e+02 5.830000000000000000e+02 5.840000000000000000e+02 5.850000000000000000e+02 5.860000000000000000e+02 5.870000000000000000e+02 5.880000000000000000e+02 5.890000000000000000e+02 5.900000000000000000e+02 5.910000000000000000e+02 5.920000000000000000e+02 5.930000000000000000e+02 5.940000000000000000e+02 5.950000000000000000e+02 5.960000000000000000e+02 5.970000000000000000e+02 5.980000000000000000e+02 5.990000000000000000e+02 6.000000000000000000e+02 6.010000000000000000e+02 6.020000000000000000e+02 6.030000000000000000e+02 6.040000000000000000e+02 6.050000000000000000e+02 6.060000000000000000e+02 6.070000000000000000e+02 6.080000000000000000e+02 6.090000000000000000e+02 6.100000000000000000e+02 6.110000000000000000e+02 6.120000000000000000e+02 6.130000000000000000e+02 6.140000000000000000e+02 6.150000000000000000e+02 6.160000000000000000e+02 6.170000000000000000e+02 6.180000000000000000e+02 6.190000000000000000e+02 6.200000000000000000e+02 6.210000000000000000e+02 6.220000000000000000e+02 6.230000000000000000e+02 6.240000000000000000e+02 6.250000000000000000e+02 6.260000000000000000e+02 6.270000000000000000e+02 6.280000000000000000e+02 6.290000000000000000e+02 6.300000000000000000e+02 6.310000000000000000e+02 6.320000000000000000e+02 6.330000000000000000e+02 6.340000000000000000e+02 6.350000000000000000e+02 6.360000000000000000e+02 6.370000000000000000e+02 6.380000000000000000e+02 6.390000000000000000e+02 6.400000000000000000e+02 6.410000000000000000e+02 6.420000000000000000e+02 6.430000000000000000e+02 6.440000000000000000e+02 6.450000000000000000e+02 6.460000000000000000e+02 6.470000000000000000e+02 6.480000000000000000e+02 6.490000000000000000e+02 6.500000000000000000e+02 6.510000000000000000e+02 6.520000000000000000e+02 6.530000000000000000e+02 6.540000000000000000e+02 6.550000000000000000e+02 6.560000000000000000e+02 6.570000000000000000e+02 6.580000000000000000e+02 6.590000000000000000e+02 6.600000000000000000e+02 6.610000000000000000e+02 6.620000000000000000e+02 6.630000000000000000e+02 6.640000000000000000e+02 6.650000000000000000e+02 6.660000000000000000e+02 6.670000000000000000e+02 6.680000000000000000e+02 6.690000000000000000e+02 6.700000000000000000e+02 6.710000000000000000e+02 6.720000000000000000e+02 6.730000000000000000e+02 6.740000000000000000e+02 6.750000000000000000e+02 6.760000000000000000e+02 6.770000000000000000e+02 6.780000000000000000e+02 6.790000000000000000e+02 6.800000000000000000e+02 6.810000000000000000e+02 6.820000000000000000e+02 6.830000000000000000e+02 6.840000000000000000e+02 6.850000000000000000e+02 6.860000000000000000e+02 6.870000000000000000e+02 6.880000000000000000e+02 6.890000000000000000e+02 6.900000000000000000e+02 6.910000000000000000e+02 6.920000000000000000e+02 6.930000000000000000e+02 6.940000000000000000e+02 6.950000000000000000e+02 6.960000000000000000e+02 6.970000000000000000e+02 6.980000000000000000e+02 6.990000000000000000e+02 7.000000000000000000e+02 7.010000000000000000e+02 7.020000000000000000e+02 7.030000000000000000e+02 7.040000000000000000e+02 7.050000000000000000e+02 7.060000000000000000e+02 7.070000000000000000e+02 7.080000000000000000e+02 7.090000000000000000e+02 7.100000000000000000e+02 7.110000000000000000e+02 7.120000000000000000e+02 7.130000000000000000e+02 7.140000000000000000e+02 7.150000000000000000e+02 7.160000000000000000e+02 7.170000000000000000e+02 7.180000000000000000e+02 7.190000000000000000e+02 7.200000000000000000e+02 7.210000000000000000e+02 7.220000000000000000e+02 7.230000000000000000e+02 7.240000000000000000e+02 7.250000000000000000e+02 7.260000000000000000e+02 7.270000000000000000e+02 7.280000000000000000e+02 7.290000000000000000e+02 7.300000000000000000e+02 7.310000000000000000e+02 7.320000000000000000e+02 7.330000000000000000e+02 7.340000000000000000e+02 7.350000000000000000e+02 7.360000000000000000e+02 7.370000000000000000e+02 7.380000000000000000e+02 7.390000000000000000e+02 7.400000000000000000e+02 7.410000000000000000e+02 7.420000000000000000e+02 7.430000000000000000e+02 7.440000000000000000e+02 7.450000000000000000e+02 7.460000000000000000e+02 7.470000000000000000e+02 7.480000000000000000e+02 7.490000000000000000e+02 7.500000000000000000e+02 7.510000000000000000e+02 7.520000000000000000e+02 7.530000000000000000e+02 7.540000000000000000e+02 7.550000000000000000e+02 7.560000000000000000e+02 7.570000000000000000e+02 7.580000000000000000e+02 7.590000000000000000e+02 7.600000000000000000e+02 7.610000000000000000e+02 7.620000000000000000e+02 7.630000000000000000e+02 7.640000000000000000e+02 7.650000000000000000e+02 7.660000000000000000e+02 7.670000000000000000e+02 7.680000000000000000e+02 7.690000000000000000e+02 7.700000000000000000e+02 7.710000000000000000e+02 7.720000000000000000e+02 7.730000000000000000e+02 7.740000000000000000e+02 7.750000000000000000e+02 7.760000000000000000e+02 7.770000000000000000e+02 7.780000000000000000e+02 7.790000000000000000e+02 7.800000000000000000e+02 7.810000000000000000e+02 7.820000000000000000e+02 7.830000000000000000e+02 7.840000000000000000e+02 7.850000000000000000e+02 7.860000000000000000e+02 7.870000000000000000e+02 7.880000000000000000e+02 7.890000000000000000e+02 7.900000000000000000e+02 7.910000000000000000e+02 7.920000000000000000e+02 7.930000000000000000e+02 7.940000000000000000e+02 7.950000000000000000e+02 7.960000000000000000e+02 7.970000000000000000e+02 7.980000000000000000e+02 7.990000000000000000e+02 8.000000000000000000e+02 8.010000000000000000e+02 8.020000000000000000e+02 8.030000000000000000e+02 8.040000000000000000e+02 8.050000000000000000e+02 8.060000000000000000e+02 8.070000000000000000e+02 8.080000000000000000e+02 8.090000000000000000e+02 8.100000000000000000e+02 8.110000000000000000e+02 8.120000000000000000e+02 8.130000000000000000e+02 8.140000000000000000e+02 8.150000000000000000e+02 8.160000000000000000e+02 8.170000000000000000e+02 8.180000000000000000e+02 8.190000000000000000e+02 8.200000000000000000e+02 8.210000000000000000e+02 8.220000000000000000e+02 8.230000000000000000e+02 8.240000000000000000e+02 8.250000000000000000e+02 8.260000000000000000e+02 8.270000000000000000e+02 8.280000000000000000e+02 8.290000000000000000e+02 8.300000000000000000e+02 8.310000000000000000e+02 8.320000000000000000e+02 8.330000000000000000e+02 8.340000000000000000e+02 8.350000000000000000e+02 8.360000000000000000e+02 8.370000000000000000e+02 8.380000000000000000e+02 8.390000000000000000e+02 8.400000000000000000e+02 8.410000000000000000e+02 8.420000000000000000e+02 8.430000000000000000e+02 8.440000000000000000e+02 8.450000000000000000e+02 8.460000000000000000e+02 8.470000000000000000e+02 8.480000000000000000e+02 8.490000000000000000e+02 8.500000000000000000e+02 8.510000000000000000e+02 8.520000000000000000e+02 8.530000000000000000e+02 8.540000000000000000e+02 8.550000000000000000e+02 8.560000000000000000e+02 8.570000000000000000e+02 8.580000000000000000e+02 8.590000000000000000e+02 8.600000000000000000e+02 8.610000000000000000e+02 8.620000000000000000e+02 8.630000000000000000e+02 8.640000000000000000e+02 8.650000000000000000e+02 8.660000000000000000e+02 8.670000000000000000e+02 8.680000000000000000e+02 8.690000000000000000e+02 8.700000000000000000e+02 8.710000000000000000e+02 8.720000000000000000e+02 8.730000000000000000e+02 8.740000000000000000e+02 8.750000000000000000e+02 8.760000000000000000e+02 8.770000000000000000e+02 8.780000000000000000e+02 8.790000000000000000e+02 8.800000000000000000e+02 8.810000000000000000e+02 8.820000000000000000e+02 8.830000000000000000e+02 8.840000000000000000e+02 8.850000000000000000e+02 8.860000000000000000e+02 8.870000000000000000e+02 8.880000000000000000e+02 8.890000000000000000e+02 8.900000000000000000e+02 8.910000000000000000e+02 8.920000000000000000e+02 8.930000000000000000e+02 8.940000000000000000e+02 8.950000000000000000e+02 8.960000000000000000e+02 8.970000000000000000e+02 8.980000000000000000e+02 8.990000000000000000e+02 9.000000000000000000e+02 9.010000000000000000e+02 9.020000000000000000e+02 9.030000000000000000e+02 9.040000000000000000e+02 9.050000000000000000e+02 9.060000000000000000e+02 9.070000000000000000e+02 9.080000000000000000e+02 9.090000000000000000e+02 9.100000000000000000e+02 9.110000000000000000e+02 9.120000000000000000e+02 9.130000000000000000e+02 9.140000000000000000e+02 9.150000000000000000e+02 9.160000000000000000e+02 9.170000000000000000e+02 9.180000000000000000e+02 9.190000000000000000e+02 9.200000000000000000e+02 9.210000000000000000e+02 9.220000000000000000e+02 9.230000000000000000e+02 9.240000000000000000e+02 9.250000000000000000e+02 9.260000000000000000e+02 9.270000000000000000e+02 9.280000000000000000e+02 9.290000000000000000e+02 9.300000000000000000e+02 9.310000000000000000e+02 9.320000000000000000e+02 9.330000000000000000e+02 9.340000000000000000e+02 9.350000000000000000e+02 9.360000000000000000e+02 9.370000000000000000e+02 9.380000000000000000e+02 9.390000000000000000e+02 9.400000000000000000e+02 9.410000000000000000e+02 9.420000000000000000e+02 9.430000000000000000e+02 9.440000000000000000e+02 9.450000000000000000e+02 9.460000000000000000e+02 9.470000000000000000e+02 9.480000000000000000e+02 9.490000000000000000e+02 9.500000000000000000e+02 9.510000000000000000e+02 9.520000000000000000e+02 9.530000000000000000e+02 9.540000000000000000e+02 9.550000000000000000e+02 9.560000000000000000e+02 9.570000000000000000e+02 9.580000000000000000e+02 9.590000000000000000e+02 9.600000000000000000e+02 9.610000000000000000e+02 9.620000000000000000e+02 9.630000000000000000e+02 9.640000000000000000e+02 9.650000000000000000e+02 9.660000000000000000e+02 9.670000000000000000e+02 9.680000000000000000e+02 9.690000000000000000e+02 9.700000000000000000e+02 9.710000000000000000e+02 9.720000000000000000e+02 9.730000000000000000e+02 9.740000000000000000e+02 9.750000000000000000e+02 9.760000000000000000e+02 9.770000000000000000e+02 9.780000000000000000e+02 9.790000000000000000e+02 9.800000000000000000e+02 9.810000000000000000e+02 9.820000000000000000e+02 9.830000000000000000e+02 9.840000000000000000e+02 9.850000000000000000e+02 9.860000000000000000e+02 9.870000000000000000e+02 9.880000000000000000e+02 9.890000000000000000e+02 9.900000000000000000e+02 9.910000000000000000e+02 9.920000000000000000e+02 9.930000000000000000e+02 9.940000000000000000e+02 9.950000000000000000e+02 9.960000000000000000e+02 9.970000000000000000e+02 9.980000000000000000e+02 9.990000000000000000e+02
1.000000000000000000e+00 1.000000000000000000e+00 1.000000000000000000e+00 1.000000000000000000e+00 1.000000000000000000e+00 1.000000000000000000e+00 1.000000000000000000e+00 1.000000000000000000e+00 1.000000000000000000e+00 1.000000000000000000e+00 1.000000000000000000e+00 1.000000000000000000e+00 1.000000000000000000e+00 1.000000000000000000e+00 1.000000000000000000e+00 1.000000000000000000e+00 1.000000000000000000e+00 1.000000000000000000e+00 1.000000000000000000e+00 1.000000000000000000e+00 1.000000000000000000e+00 1.000000000000000000e+00 1.000000000000000000e+00 1.000000000000000000e+00 1.000000000000000000e+00 1.000000000000000000e+00 1.000000000000000000e+00 1.000000000000000000e+00 1.000000000000000000e+00 1.000000000000000000e+00 1.000000000000000000e+00 1.000000000000000000e+00 1.000000000000000000e+00 1.000000000000000000e+00 1.000000000000000000e+00 1.000000000000000000e+00 1.000000000000000000e+00 1.000000000000000000e+00 1.000000000000000000e+00 1.000000000000000000e+00 1.000000000000000000e+00 1.000000000000000000e+00 1.000000000000000000e+00 1.000000000000000000e+00 1.000000000000000000e+00 1.000000000000000000e+00 1.000000000000000000e+00 1.000000000000000000e+00 1.000000000000000000e+00 1.000000000000000000e+00 1.000000000000000000e+00 1.000000000000000000e+00 1.000000000000000000e+00 1.000000000000000000e+00 1.000000000000000000e+00 1.000000000000000000e+00 1.000000000000000000e+00 1.000000000000000000e+00 1.000000000000000000e+00 1.000000000000000000e+00 1.000000000000000000e+00 1.000000000000000000e+00 1.000000000000000000e+00 1.000000000000000000e+00 1.000000000000000000e+00 1.000000000000000000e+00 1.000000000000000000e+00 1.000000000000000000e+00 1.000000000000000000e+00 1.000000000000000000e+00 1.000000000000000000e+00 1.000000000000000000e+00 1.000000000000000000e+00 1.000000000000000000e+00 1.000000000000000000e+00 1.000000000000000000e+00 1.000000000000000000e+00 1.000000000000000000e+00 1.000000000000000000e+00 1.000000000000000000e+00 1.000000000000000000e+00 1.000000000000000000e+00 1.000000000000000000e+00 1.000000000000000000e+00 1.000000000000000000e+00 1.000000000000000000e+00 1.000000000000000000e+00 1.000000000000000000e+00 1.000000000000000000e+00 1.000000000000000000e+00 1.000000000000000000e+00 1.000000000000000000e+00 1.000000000000000000e+00 1.000000000000000000e+00 1.000000000000000000e+00 1.000000000000000000e+00 1.000000000000000000e+00 1.000000000000000000e+00 1.000000000000000000e+00 1.000000000000000000e+00 1.000000000000000000e+00 1.000000000000000000e+00 1.000000000000000000e+00 1.000000000000000000e+00 1.000000000000000000e+00 1.000000000000000000e+00 1.000000000000000000e+00 1.000000000000000000e+00 1.000000000000000000e+00 1.000000000000000000e+00 1.000000000000000000e+00 1.000000000000000000e+00 1.000000000000000000e+00 1.000000000000000000e+00 1.000000000000000000e+00 1.000000000000000000e+00 1.000000000000000000e+00 1.000000000000000000e+00 1.000000000000000000e+00 1.000000000000000000e+00 1.000000000000000000e+00 1.000000000000000000e+00 1.000000000000000000e+00 1.000000000000000000e+00 1.000000000000000000e+00 1.000000000000000000e+00 1.000000000000000000e+00 1.000000000000000000e+00 1.000000000000000000e+00 1.000000000000000000e+00 1.000000000000000000e+00 1.000000000000000000e+00 1.000000000000000000e+00 1.000000000000000000e+00 1.000000000000000000e+00 1.000000000000000000e+00 1.000000000000000000e+00 1.000000000000000000e+00 1.000000000000000000e+00 1.000000000000000000e+00 1.000000000000000000e+00 1.000000000000000000e+00 1.000000000000000000e+00 1.000000000000000000e+00 1.000000000000000000e+00 1.000000000000000000e+00 1.000000000000000000e+00 1.000000000000000000e+00 1.000000000000000000e+00 1.000000000000000000e+00 1.000000000000000000e+00 1.000000000000000000e+00 1.000000000000000000e+00 1.000000000000000000e+00 1.000000000000000000e+00 1.000000000000000000e+00 1.000000000000000000e+00 1.000000000000000000e+00 1.000000000000000000e+00 1.000000000000000000e+00 1.000000000000000000e+00 1.000000000000000000e+00 1.000000000000000000e+00 1.000000000000000000e+00 1.000000000000000000e+00 1.000000000000000000e+00 1.000000000000000000e+00 1.000000000000000000e+00 1.000000000000000000e+00 1.000000000000000000e+00 1.000000000000000000e+00 1.000000000000000000e+00 1.000000000000000000e+00 1.000000000000000000e+00 1.000000000000000000e+00 1.000000000000000000e+00 1.000000000000000000e+00 1.000000000000000000e+00 1.000000000000000000e+00 1.000000000000000000e+00 1.000000000000000000e+00 1.000000000000000000e+00 1.000000000000000000e+00 1.000000000000000000e+00 1.000000000000000000e+00 1.000000000000000000e+00 1.000000000000000000e+00 1.000000000000000000e+00 1.000000000000000000e+00 1.000000000000000000e+00 1.000000000000000000e+00 1.000000000000000000e+00 1.000000000000000000e+00 1.000000000000000000e+00 1.000000000000000000e+00 1.000000000000000000e+00 1.000000000000000000e+00 1.000000000000000000e+00 1.000000000000000000e+00 1.000000000000000000e+00 1.000000000000000000e+00 1.000000000000000000e+00 1.000000000000000000e+00 1.000000000000000000e+00 1.000000000000000000e+00 1.000000000000000000e+00 1.000000000000000000e+00 1.000000000000000000e+00 1.000000000000000000e+00 1.000000000000000000e+00 1.000000000000000000e+00 1.000000000000000000e+00 1.000000000000000000e+00 1.000000000000000000e+00 1.000000000000000000e+00 1.000000000000000000e+00 1.000000000000000000e+00 1.000000000000000000e+00 1.000000000000000000e+00 1.000000000000000000e+00 1.000000000000000000e+00 1.000000000000000000e+00 1.000000000000000000e+00 1.000000000000000000e+00 1.000000000000000000e+00 1.000000000000000000e+00 1.000000000000000000e+00 1.000000000000000000e+00 1.000000000000000000e+00 1.000000000000000000e+00 1.000000000000000000e+00 1.000000000000000000e+00 1.000000000000000000e+00 1.000000000000000000e+00 1.000000000000000000e+00 1.000000000000000000e+00 1.000000000000000000e+00 1.000000000000000000e+00 1.000000000000000000e+00 1.000000000000000000e+00 1.000000000000000000e+00 1.000000000000000000e+00 1.000000000000000000e+00 1.000000000000000000e+00 1.000000000000000000e+00 1.000000000000000000e+00 1.000000000000000000e+00 1.000000000000000000e+00 1.000000000000000000e+00 1.000000000000000000e+00 1.000000000000000000e+00 1.000000000000000000e+00 1.000000000000000000e+00 1.000000000000000000e+00 1.000000000000000000e+00 1.000000000000000000e+00 1.000000000000000000e+00 1.000000000000000000e+00 1.000000000000000000e+00 1.000000000000000000e+00 1.000000000000000000e+00 1.000000000000000000e+00 1.000000000000000000e+00 1.000000000000000000e+00 1.000000000000000000e+00 1.000000000000000000e+00 1.000000000000000000e+00 1.000000000000000000e+00 1.000000000000000000e+00 1.000000000000000000e+00 1.000000000000000000e+00 1.000000000000000000e+00 1.000000000000000000e+00 1.000000000000000000e+00 1.000000000000000000e+00 1.000000000000000000e+00 1.000000000000000000e+00 1.000000000000000000e+00 1.000000000000000000e+00 1.000000000000000000e+00 1.000000000000000000e+00 1.000000000000000000e+00 1.000000000000000000e+00 1.000000000000000000e+00 1.000000000000000000e+00 1.000000000000000000e+00 1.000000000000000000e+00 1.000000000000000000e+00 1.000000000000000000e+00 1.000000000000000000e+00 1.000000000000000000e+00 1.000000000000000000e+00 1.000000000000000000e+00 1.000000000000000000e+00 1.000000000000000000e+00 1.000000000000000000e+00 1.000000000000000000e+00 1.000000000000000000e+00 1.000000000000000000e+00 1.000000000000000000e+00 1.000000000000000000e+00 1.000000000000000000e+00 1.000000000000000000e+00 1.000000000000000000e+00 1.000000000000000000e+00 1.000000000000000000e+00 1.000000000000000000e+00 1.000000000000000000e+00 1.000000000000000000e+00 1.000000000000000000e+00 1.000000000000000000e+00 1.000000000000000000e+00 1.000000000000000000e+00 1.000000000000000000e+00 1.000000000000000000e+00 1.000000000000000000e+00 1.000000000000000000e+00 1.000000000000000000e+00 1.000000000000000000e+00 1.000000000000000000e+00 1.000000000000000000e+00 1.000000000000000000e+00 1.000000000000000000e+00 1.000000000000000000e+00 1.000000000000000000e+00 1.000000000000000000e+00 1.000000000000000000e+00 1.000000000000000000e+00 1.000000000000000000e+00 1.000000000000000000e+00 1.000000000000000000e+00 1.000000000000000000e+00 1.000000000000000000e+00 1.000000000000000000e+00 1.000000000000000000e+00 1.000000000000000000e+00 1.000000000000000000e+00 1.000000000000000000e+00 1.000000000000000000e+00 1.000000000000000000e+00 1.000000000000000000e+00 1.000000000000000000e+00 1.000000000000000000e+00 1.000000000000000000e+00 1.000000000000000000e+00 1.000000000000000000e+00 1.000000000000000000e+00 1.000000000000000000e+00 1.000000000000000000e+00 1.000000000000000000e+00 1.000000000000000000e+00 1.000000000000000000e+00 1.000000000000000000e+00 1.000000000000000000e+00 1.000000000000000000e+00 1.000000000000000000e+00 1.000000000000000000e+00 1.000000000000000000e+00 1.000000000000000000e+00 1.000000000000000000e+00 1.000000000000000000e+00 1.000000000000000000e+00 1.000000000000000000e+00 1.000000000000000000e+00 1.000000000000000000e+00 1.000000000000000000e+00 1.000000000000000000e+00 1.000000000000000000e+00 1.000000000000000000e+00 1.000000000000000000e+00 1.000000000000000000e+00 1.000000000000000000e+00 1.000000000000000000e+00 1.000000000000000000e+00 1.000000000000000000e+00 1.000000000000000000e+00 1.000000000000000000e+00 1.000000000000000000e+00 1.000000000000000000e+00 1.000000000000000000e+00 1.000000000000000000e+00 1.000000000000000000e+00 1.000000000000000000e+00 1.000000000000000000e+00 1.000000000000000000e+00 1.000000000000000000e+00 1.000000000000000000e+00 1.000000000000000000e+00 1.000000000000000000e+00 1.000000000000000000e+00 1.000000000000000000e+00 1.000000000000000000e+00 1.000000000000000000e+00 1.000000000000000000e+00 1.000000000000000000e+00 1.000000000000000000e+00 1.000000000000000000e+00 1.000000000000000000e+00 1.000000000000000000e+00 1.000000000000000000e+00 1.000000000000000000e+00 1.000000000000000000e+00 1.000000000000000000e+00 1.000000000000000000e+00 1.000000000000000000e+00 1.000000000000000000e+00 1.000000000000000000e+00 1.000000000000000000e+00 1.000000000000000000e+00 1.000000000000000000e+00 1.000000000000000000e+00 1.000000000000000000e+00 1.000000000000000000e+00 1.000000000000000000e+00 1.000000000000000000e+00 1.000000000000000000e+00 1.000000000000000000e+00 1.000000000000000000e+00 1.000000000000000000e+00 1.000000000000000000e+00 1.000000000000000000e+00 1.000000000000000000e+00 1.000000000000000000e+00 1.000000000000000000e+00 1.000000000000000000e+00 1.000000000000000000e+00 1.000000000000000000e+00 1.000000000000000000e+00 1.000000000000000000e+00 1.000000000000000000e+00 1.000000000000000000e+00 1.000000000000000000e+00 1.000000000000000000e+00 1.000000000000000000e+00 1.000000000000000000e+00 1.000000000000000000e+00 1.000000000000000000e+00 1.000000000000000000e+00 1.000000000000000000e+00 1.000000000000000000e+00 1.000000000000000000e+00 1.000000000000000000e+00 1.000000000000000000e+00 1.000000000000000000e+00 1.000000000000000000e+00 1.000000000000000000e+00 1.000000000000000000e+00 1.000000000000000000e+00 1.000000000000000000e+00 1.000000000000000000e+00 1.000000000000000000e+00 1.000000000000000000e+00 1.000000000000000000e+00 1.000000000000000000e+00 1.000000000000000000e+00 1.000000000000000000e+00 1.000000000000000000e+00 1.000000000000000000e+00 1.000000000000000000e+00 1.000000000000000000e+00 1.000000000000000000e+00 1.000000000000000000e+00 1.000000000000000000e+00 1.000000000000000000e+00 1.000000000000000000e+00 1.000000000000000000e+00 1.000000000000000000e+00 1.000000000000000000e+00 1.000000000000000000e+00 1.000000000000000000e+00 1.000000000000000000e+00 1.000000000000000000e+00 1.000000000000000000e+00 1.000000000000000000e+00 1.000000000000000000e+00 1.000000000000000000e+00 1.000000000000000000e+00 1.000000000000000000e+00 1.000000000000000000e+00 1.000000000000000000e+00 1.000000000000000000e+00 1.000000000000000000e+00 1.000000000000000000e+00 1.000000000000000000e+00 1.000000000000000000e+00 1.000000000000000000e+00 1.000000000000000000e+00 1.000000000000000000e+00 1.000000000000000000e+00 1.000000000000000000e+00 1.000000000000000000e+00 1.000000000000000000e+00 1.000000000000000000e+00 1.000000000000000000e+00 1.000000000000000000e+00 1.000000000000000000e+00 1.000000000000000000e+00 1.000000000000000000e+00 1.000000000000000000e+00 1.000000000000000000e+00 1.000000000000000000e+00 1.000000000000000000e+00 1.000000000000000000e+00 1.000000000000000000e+00 1.000000000000000000e+00 1.000000000000000000e+00 1.000000000000000000e+00 1.000000000000000000e+00 1.000000000000000000e+00 1.000000000000000000e+00 1.000000000000000000e+00 1.000000000000000000e+00 1.000000000000000000e+00 1.000000000000000000e+00 1.000000000000000000e+00 1.000000000000000000e+00 1.000000000000000000e+00 1.000000000000000000e+00 1.000000000000000000e+00 1.000000000000000000e+00 1.000000000000000000e+00 1.000000000000000000e+00 1.000000000000000000e+00 1.000000000000000000e+00 1.000000000000000000e+00 1.000000000000000000e+00 1.000000000000000000e+00 1.000000000000000000e+00 1.000000000000000000e+00 1.000000000000000000e+00 1.000000000000000000e+00 1.000000000000000000e+00 1.000000000000000000e+00 1.000000000000000000e+00 1.000000000000000000e+00 1.000000000000000000e+00 1.000000000000000000e+00 1.000000000000000000e+00 1.000000000000000000e+00 1.000000000000000000e+00 1.000000000000000000e+00 1.000000000000000000e+00 1.000000000000000000e+00 1.000000000000000000e+00 1.000000000000000000e+00 1.000000000000000000e+00 1.000000000000000000e+00 1.000000000000000000e+00 1.000000000000000000e+00 1.000000000000000000e+00 1.000000000000000000e+00 1.000000000000000000e+00 1.000000000000000000e+00 1.000000000000000000e+00 1.000000000000000000e+00 1.000000000000000000e+00 1.000000000000000000e+00 1.000000000000000000e+00 1.000000000000000000e+00 1.000000000000000000e+00 1.000000000000000000e+00 1.000000000000000000e+00 1.000000000000000000e+00 1.000000000000000000e+00 1.000000000000000000e+00 1.000000000000000000e+00 1.000000000000000000e+00 1.000000000000000000e+00 1.000000000000000000e+00 1.000000000000000000e+00 1.000000000000000000e+00 1.000000000000000000e+00 1.000000000000000000e+00 1.000000000000000000e+00 1.000000000000000000e+00 1.000000000000000000e+00 1.000000000000000000e+00 1.000000000000000000e+00 1.000000000000000000e+00 1.000000000000000000e+00 1.000000000000000000e+00 1.000000000000000000e+00 1.000000000000000000e+00 1.000000000000000000e+00 1.000000000000000000e+00 1.000000000000000000e+00 1.000000000000000000e+00 1.000000000000000000e+00 1.000000000000000000e+00 1.000000000000000000e+00 1.000000000000000000e+00 1.000000000000000000e+00 1.000000000000000000e+00 1.000000000000000000e+00 1.000000000000000000e+00 1.000000000000000000e+00 1.000000000000000000e+00 1.000000000000000000e+00 1.000000000000000000e+00 1.000000000000000000e+00 1.000000000000000000e+00 1.000000000000000000e+00 1.000000000000000000e+00 1.000000000000000000e+00 1.000000000000000000e+00 1.000000000000000000e+00 1.000000000000000000e+00 1.000000000000000000e+00 1.000000000000000000e+00 1.000000000000000000e+00 1.000000000000000000e+00 1.000000000000000000e+00 1.000000000000000000e+00 1.000000000000000000e+00 1.000000000000000000e+00 1.000000000000000000e+00 1.000000000000000000e+00 1.000000000000000000e+00 1.000000000000000000e+00 1.000000000000000000e+00 1.000000000000000000e+00 1.000000000000000000e+00 1.000000000000000000e+00 1.000000000000000000e+00 1.000000000000000000e+00 1.000000000000000000e+00 1.000000000000000000e+00 1.000000000000000000e+00 1.000000000000000000e+00 1.000000000000000000e+00 1.000000000000000000e+00 1.000000000000000000e+00 1.000000000000000000e+00 1.000000000000000000e+00 1.000000000000000000e+00 1.000000000000000000e+00 1.000000000000000000e+00 1.000000000000000000e+00 1.000000000000000000e+00 1.000000000000000000e+00 1.000000000000000000e+00 1.000000000000000000e+00 1.000000000000000000e+00 1.000000000000000000e+00 1.000000000000000000e+00 1.000000000000000000e+00 1.000000000000000000e+00 1.000000000000000000e+00 1.000000000000000000e+00 1.000000000000000000e+00 1.000000000000000000e+00 1.000000000000000000e+00 1.000000000000000000e+00 1.000000000000000000e+00 1.000000000000000000e+00 1.000000000000000000e+00 1.000000000000000000e+00 1.000000000000000000e+00 1.000000000000000000e+00 1.000000000000000000e+00 1.000000000000000000e+00 1.000000000000000000e+00 1.000000000000000000e+00 1.000000000000000000e+00 1.000000000000000000e+00 1.000000000000000000e+00 1.000000000000000000e+00 1.000000000000000000e+00 1.000000000000000000e+00 1.000000000000000000e+00 1.000000000000000000e+00 1.000000000000000000e+00 1.000000000000000000e+00 1.000000000000000000e+00 1.000000000000000000e+00 1.000000000000000000e+00 1.000000000000000000e+00 1.000000000000000000e+00 1.000000000000000000e+00 1.000000000000000000e+00 1.000000000000000000e+00 1.000000000000000000e+00 1.000000000000000000e+00 1.000000000000000000e+00 1.000000000000000000e+00 1.000000000000000000e+00 1.000000000000000000e+00 1.000000000000000000e+00 1.000000000000000000e+00 1.000000000000000000e+00 1.000000000000000000e+00 1.000000000000000000e+00 1.000000000000000000e+00 1.000000000000000000e+00 1.000000000000000000e+00 1.000000000000000000e+00 1.000000000000000000e+00 1.000000000000000000e+00 1.000000000000000000e+00 1.000000000000000000e+00 1.000000000000000000e+00 1.000000000000000000e+00 1.000000000000000000e+00 1.000000000000000000e+00 1.000000000000000000e+00 1.000000000000000000e+00 1.000000000000000000e+00 1.000000000000000000e+00 1.000000000000000000e+00 1.000000000000000000e+00 1.000000000000000000e+00 1.000000000000000000e+00 1.000000000000000000e+00 1.000000000000000000e+00 1.000000000000000000e+00 1.000000000000000000e+00 1.000000000000000000e+00 1.000000000000000000e+00 1.000000000000000000e+00 1.000000000000000000e+00 1.000000000000000000e+00 1.000000000000000000e+00 1.000000000000000000e+00 1.000000000000000000e+00 1.000000000000000000e+00 1.000000000000000000e+00 1.000000000000000000e+00 1.000000000000000000e+00 1.000000000000000000e+00 1.000000000000000000e+00 1.000000000000000000e+00 1.000000000000000000e+00 1.000000000000000000e+00 1.000000000000000000e+00 1.000000000000000000e+00 1.000000000000000000e+00 1.000000000000000000e+00 1.000000000000000000e+00 1.000000000000000000e+00 1.000000000000000000e+00 1.000000000000000000e+00 1.000000000000000000e+00 1.000000000000000000e+00 1.000000000000000000e+00 1.000000000000000000e+00 1.000000000000000000e+00 1.000000000000000000e+00 1.000000000000000000e+00 1.000000000000000000e+00 1.000000000000000000e+00 1.000000000000000000e+00 1.000000000000000000e+00 1.000000000000000000e+00 1.000000000000000000e+00 1.000000000000000000e+00 1.000000000000000000e+00 1.000000000000000000e+00 1.000000000000000000e+00 1.000000000000000000e+00 1.000000000000000000e+00 1.000000000000000000e+00 1.000000000000000000e+00 1.000000000000000000e+00 1.000000000000000000e+00 1.000000000000000000e+00 1.000000000000000000e+00 1.000000000000000000e+00 1.000000000000000000e+00 1.000000000000000000e+00 1.000000000000000000e+00 1.000000000000000000e+00 1.000000000000000000e+00 1.000000000000000000e+00 1.000000000000000000e+00 1.000000000000000000e+00 1.000000000000000000e+00 1.000000000000000000e+00 1.000000000000000000e+00 1.000000000000000000e+00 1.000000000000000000e+00 1.000000000000000000e+00 1.000000000000000000e+00 1.000000000000000000e+00 1.000000000000000000e+00 1.000000000000000000e+00 1.000000000000000000e+00 1.000000000000000000e+00 1.000000000000000000e+00 1.000000000000000000e+00 1.000000000000000000e+00 1.000000000000000000e+00 1.000000000000000000e+00 1.000000000000000000e+00 1.000000000000000000e+00 1.000000000000000000e+00 1.000000000000000000e+00 1.000000000000000000e+00 1.000000000000000000e+00 1.000000000000000000e+00 1.000000000000000000e+00 1.000000000000000000e+00 1.000000000000000000e+00 1.000000000000000000e+00 1.000000000000000000e+00 1.000000000000000000e+00 1.000000000000000000e+00 1.000000000000000000e+00 1.000000000000000000e+00 1.000000000000000000e+00 1.000000000000000000e+00 1.000000000000000000e+00 1.000000000000000000e+00 1.000000000000000000e+00 1.000000000000000000e+00 1.000000000000000000e+00 1.000000000000000000e+00 1.000000000000000000e+00 1.000000000000000000e+00 1.000000000000000000e+00 1.000000000000000000e+00 1.000000000000000000e+00 1.000000000000000000e+00 1.000000000000000000e+00 1.000000000000000000e+00 1.000000000000000000e+00 1.000000000000000000e+00 1.000000000000000000e+00 1.000000000000000000e+00 1.000000000000000000e+00 1.000000000000000000e+00 1.000000000000000000e+00 1.000000000000000000e+00 1.000000000000000000e+00 1.000000000000000000e+00 1.000000000000000000e+00 1.000000000000000000e+00 1.000000000000000000e+00 1.000000000000000000e+00 1.000000000000000000e+00 1.000000000000000000e+00 1.000000000000000000e+00 1.000000000000000000e+00 1.000000000000000000e+00 1.000000000000000000e+00 1.000000000000000000e+00 1.000000000000000000e+00 1.000000000000000000e+00 1.000000000000000000e+00 1.000000000000000000e+00 1.000000000000000000e+00 1.000000000000000000e+00 1.000000000000000000e+00 1.000000000000000000e+00 1.000000000000000000e+00 1.000000000000000000e+00 1.000000000000000000e+00 1.000000000000000000e+00 1.000000000000000000e+00 1.000000000000000000e+00 1.000000000000000000e+00 1.000000000000000000e+00 1.000000000000000000e+00 1.000000000000000000e+00 1.000000000000000000e+00 1.000000000000000000e+00 1.000000000000000000e+00 1.000000000000000000e+00 1.000000000000000000e+00 1.000000000000000000e+00 1.000000000000000000e+00 1.000000000000000000e+00 1.000000000000000000e+00 1.000000000000000000e+00 1.000000000000000000e+00 1.000000000000000000e+00 1.000000000000000000e+00 1.000000000000000000e+00 1.000000000000000000e+00 1.000000000000000000e+00 1.000000000000000000e+00 1.000000000000000000e+00 1.000000000000000000e+00 1.000000000000000000e+00 1.000000000000000000e+00 1.000000000000000000e+00 1.000000000000000000e+00 1.000000000000000000e+00 1.000000000000000000e+00 1.000000000000000000e+00 1.000000000000000000e+00 1.000000000000000000e+00 1.000000000000000000e+00 1.000000000000000000e+00 1.000000000000000000e+00 1.000000000000000000e+00 1.000000000000000000e+00 1.000000000000000000e+00 1.000000000000000000e+00 1.000000000000000000e+00 1.000000000000000000e+00 1.000000000000000000e+00 1.000000000000000000e+00 1.000000000000000000e+00 1.000000000000000000e+00 1.000000000000000000e+00 1.000000000000000000e+00 1.000000000000000000e+00 1.000000000000000000e+00 1.000000000000000000e+00 1.000000000000000000e+00 1.000000000000000000e+00 1.000000000000000000e+00 1.000000000000000000e+00 1.000000000000000000e+00 1.000000000000000000e+00 1.000000000000000000e+00 1.000000000000000000e+00 1.000000000000000000e+00 1.000000000000000000e+00 1.000000000000000000e+00 1.000000000000000000e+00 1.000000000000000000e+00 1.000000000000000000e+00 1.000000000000000000e+00 1.000000000000000000e+00 1.000000000000000000e+00 1.000000000000000000e+00 1.000000000000000000e+00 1.000000000000000000e+00 1.000000000000000000e+00 1.000000000000000000e+00 1.000000000000000000e+00 1.000000000000000000e+00 1.000000000000000000e+00 1.000000000000000000e+00 1.000000000000000000e+00 1.000000000000000000e+00 1.000000000000000000e+00 1.000000000000000000e+00 1.000000000000000000e+00 1.000000000000000000e+00 1.000000000000000000e+00 1.000000000000000000e+00 1.000000000000000000e+00 1.000000000000000000e+00 1.000000000000000000e+00 1.000000000000000000e+00 1.000000000000000000e+00 1.000000000000000000e+00 1.000000000000000000e+00 1.000000000000000000e+00 1.000000000000000000e+00 1.000000000000000000e+00 1.000000000000000000e+00 1.000000000000000000e+00 1.000000000000000000e+00 1.000000000000000000e+00 1.000000000000000000e+00 1.000000000000000000e+00 1.000000000000000000e+00 1.000000000000000000e+00 1.000000000000000000e+00 1.000000000000000000e+00 1.000000000000000000e+00 1.000000000000000000e+00 1.000000000000000000e+00 1.000000000000000000e+00 1.000000000000000000e+00 1.000000000000000000e+00 1.000000000000000000e+00 1.000000000000000000e+00 1.000000000000000000e+00 1.000000000000000000e+00 1.000000000000000000e+00 1.000000000000000000e+00 1.000000000000000000e+00 1.000000000000000000e+00 1.000000000000000000e+00 1.000000000000000000e+00 1.000000000000000000e+00 1.000000000000000000e+00 1.000000000000000000e+00 1.000000000000000000e+00 1.000000000000000000e+00 1.000000000000000000e+00 1.000000000000000000e+00 1.000000000000000000e+00 1.000000000000000000e+00 1.000000000000000000e+00 1.000000000000000000e+00 1.000000000000000000e+00 1.000000000000000000e+00 1.000000000000000000e+00 1.000000000000000000e+00 1.000000000000000000e+00 1.000000000000000000e+00 1.000000000000000000e+00 1.000000000000000000e+00 1.000000000000000000e+00 1.000000000000000000e+00
5.545262132327952870e-02 5.169066132028554694e-01 -2.791863098032522639e-01 7.741261669724687211e-01 5.222246568437032277e-01 5.380718392554199037e-01 5.793530238607998983e-01 3.712401842987848033e-01 5.635064752620720929e-01 5.183731816072718601e-01 1.085607526437081471e+00 -7.261598987726189947e-01 1.420510955318215807e+00 4.660638313353004381e-01 5.243494474621516188e-01 4.139937096349721180e-01 8.465221626175164493e-01 9.799144909685761906e-01 7.437903878131494340e-01 5.244660195355784760e-01 3.696300305939891895e-01 9.927862172764891913e-01 3.602133590265528817e-01 5.475019991659410001e-01 7.130370424629879633e-02 6.653447726542009999e-01 4.071356611581612439e-01 7.078386171940218574e-01 5.224042859994562082e-01 1.624393334725762861e+00 4.937655010397181687e-01 6.045517523984004216e-01 7.185364733982415597e-01 5.156304666957718386e-01 6.929381957224663990e-01 4.596791325108941506e-01 5.589520524300666260e-01 1.849271078129977042e+00 -8.887731066524610923e-02 5.253579388665098326e-01 -2.150180631844276768e-01 -5.622738150918450417e-01 7.466126264689078029e-01 2.303780839150846305e-01 3.166159819159474753e-01 4.916842334255413505e-01 7.744159613955492460e-01 5.164385978168977154e-01 6.672615620712551987e-01 9.640124704107024337e-03 3.200704058230718907e-02 7.708594454453526756e-01 6.820911220970442557e-01 4.206096238997225623e-01 4.637846412062533452e-01 2.109873168270505819e-02 5.581076542990748290e-01 5.068024289356802825e-01 1.988157211358990428e-01 5.372449162715587923e-01 9.260407524618963215e-01 4.679149684113027008e-01 4.994659889849942802e-01 3.602132112474420444e-01 6.763752681385739596e-01 6.457641274188068437e-01 5.338592951620337868e-01 4.002004332661337482e-01 5.609927066847985033e-01 3.887055784862773061e-02 4.560150239794660276e-01 5.985380779714702948e-01 5.224619539412523883e-01 1.121881373397739384e-02 1.524251837360445450e+00 5.353935876871095401e-01 6.380831127390206303e-01 7.190862238955844088e-01 5.207005935464523727e-01 1.388124444905826760e+00 5.452454674393456546e-01 3.504535317251202264e-01 1.442423690038356909e+00 7.587138205854093709e-01 5.152330029768400488e-01 7.520556586795056342e-01 7.971512375128871897e-01 5.263224384526440369e-01 4.235562737171245651e-01 5.765818935331707973e-01 3.177900118912027616e-01 2.227921581508549576e+00 7.809444253539858938e-01 4.855724304448864187e-02 4.757781125423931057e-01 5.031714223550024512e-01 5.642541877277829077e-01 4.833453259020258352e-01 1.900774464440803946e-01 6.575185506554637183e-01 1.639709038672133801e+00 6.882943286049991727e-01 5.279916804773858718e-01 6.030129545979395767e-01 8.557979142131643124e-01 -2.135355489351042468e+00 -1.246358258190376267e+00 5.225765370573939306e-01 6.204324308364248530e-01 9.684686563667158632e-01 5.916436312124239150e-01 4.221096199743835098e-01 1.804541907279721691e-01 5.060050613704204503e-01 5.273441472165401045e-01 4.985346811440603543e-01 4.586156040818700208e-01 5.008408401939726806e-01 9.900326477459507890e-01 5.074554464302066803e-01 1.316480468766276779e+00 5.393631976636301673e-01 6.354739919503646917e-01 -5.321991090376791966e-01 5.121113614623133969e-01 1.974185449242641610e+00 5.098199991760934413e-01 5.278235632343789563e-01 6.748925350536394419e-01 5.025863603414179037e-01 5.721284222886003912e-01 5.279890561010107675e-01 4.361312555455333362e-01 4.677067423440562921e-01 -3.699297953645150905e-01 -1.725180501694563717e-01 6.704099529379718980e-01 5.249487922685078939e-02 1.009528309578192840e+00 5.594069221760874511e-01 5.284084658173029414e-01 8.737297476756225034e-01 5.037124642315689016e-01 4.908395076041150440e-01 5.245235413288492632e-01 3.613551177247807666e-02 9.683107489517112088e-01 -1.441794142804267986e-01 4.248377628220995073e-01 -9.215017073131998027e-01 7.549984678094938673e-01 -2.858897915035512050e-01 4.916941713124560187e-01 5.497058159814951495e-01 5.163031488044895756e-01 5.151121078317919544e-01 2.028214119538437998e+00 -1.590178097598846096e-01 8.248891689046990994e-01 6.619006597709463646e-01 5.563640323356715545e-01 4.447842429894097727e-01 5.246080622068233223e-01 5.229901813840377445e-01 1.068242569611009607e+00 2.433221381264479843e-01 8.522613484739415268e-01 3.128603382091380558e-01 4.014694974702234798e-01 6.466975254561664332e-01 5.976687095714111608e-01 7.720913270849100174e-01 4.916390627215285192e-01 5.202696254608731863e-01 4.030468037850837293e-01 4.616787598540381121e-02 2.171926606027262396e-01 1.073310563133157425e-01 7.560843303539472871e-01 1.143937562518394069e+00 6.714269304543369898e-01 5.153410268133172822e-01 -1.679139009560783324e-01 4.410166007687924550e-01 4.745749881284145322e-01 5.437707057568123004e-01 5.184512847871756147e-01 5.121004057697559064e-01 2.860298169198565610e+00 4.840819664347602580e-01 5.653819037168548167e-01 -9.210604230156891337e-01 5.244666707845572207e-01 5.087527734131770396e-01 1.997755901781463894e-01 5.276448666132138587e-01 9.447430517454677990e-01 4.955978581196315846e-01 4.513979678109242277e-01 5.499898613216036569e-01 6.331679799888529914e-01 5.166016009587326430e-01 8.594000780903381376e-01 6.022608648851276447e-01 5.432094946323421381e-01 4.513979661883668615e-01 2.009987786000143606e-01 1.299957090138600613e+00 5.576410406895858651e-01 4.680299886936412634e-01 4.225401553605226956e-01 -9.485418719468156901e-02 4.963713638053566801e-01 1.548507439199896807e-01 5.183284776347543144e-01 5.181504244417880489e-01 5.186950035414858995e-01 5.234061908254321605e-01 5.226862498070877772e-01 5.195173762933466000e-01 4.396747720292210615e-01 5.628092987628269261e-01 -7.203196787153273162e-01 6.231903117633763589e-01 4.584220441130629209e-01 3.548502445328837740e-01 1.946059462679596008e-02 1.336396924092809524e+00 9.710154971294453485e-01 4.910949975559690817e-01 -1.021825393565952145e-01 1.066228206076751395e+00 5.237192082988462172e-01 4.662544330497659373e-01 6.560691250938123220e-01 4.074295509016504502e-01 2.601190589414782428e-01 1.669595678706196906e-01 -1.643126273464108333e-01 -6.929986159339796004e-02 4.941464123541500220e-01 4.962915106262769660e-01 -1.178219697470086341e-01 4.352653782777785585e-01 5.192917068744906661e-01 5.169306862891714927e-01 -9.392034224744222337e-02 7.617714969145681358e-01 -2.364785497662206915e+00 6.174866586032260463e-01 -6.615407823140196930e-01 4.996677836194287625e-01 5.193972959545211099e-01 3.602144792951886831e-01 4.851934977211306843e-01 5.597871098903781650e-01 5.213878406770892093e-01 7.843519953321834715e-01 5.694095299423708179e-01 1.700917827543341421e+00 6.833237139141564720e-01 6.802028305365557248e-01 4.547611222866206893e-01 3.960278453014070554e-01 9.260407354004278613e-01 4.660515548912628758e-01 2.736494715726520255e+00 4.537062962122606069e-01 2.216829839711832728e-01 7.646165590883218233e-01 5.088106022846585752e-01 9.259951699989926732e-01 5.237994007262948282e-01 5.811237023246426103e-01 5.220915765115825558e-01 1.145871102859869817e+00 7.675766504389243128e-01 8.572433089478348478e-01 8.017918904171513761e-01 5.787091594805598982e-01 6.844958144820499912e-01 5.090201781089271904e-01 3.743467454849395137e-01 -7.452864103029155363e-01 3.903789106315178614e-01 4.567530627591074865e-01 5.558021296324777705e-01 5.213826837011070747e-01 4.985347594015302475e-01 6.111530057568076435e-01 5.243875519230722926e-01 -9.147989953349949799e-01 7.582436741571008110e-01 5.182396354652848425e-01 -1.153510251557395526e-02 4.681012760918125126e-01 1.858995877119245410e+00 5.067503524441907548e-01 5.231923492696871625e-01 4.248506974363134847e-01 -3.496324712808569490e+00 5.251017577221325228e-01 2.931155694972574999e+00 7.727541432933433541e-01 5.091084426940833962e-01 -5.710437573036842851e-01 5.282956838398229493e-01 5.231538593434482687e-01 4.519414264538688109e-01 4.495204282829298181e-01 3.404329485434128277e-01 6.502171294753866793e-01 3.138816993940111155e-01 5.244702419821462014e-01 5.261165136405400178e-01 3.536167309374656509e-01 5.247477740773460742e-01 7.732914609116733340e-01 5.226062910332155420e-01 1.212285802020088621e+00 3.512839864405683382e-02 2.238413353265223282e+00 2.679920538111654871e+00 4.879484666910990920e-01 -2.336418458510328144e-01 3.896993212885216940e-01 3.998671438674173406e-01 7.410192950822624969e-01 1.395552947903818231e+00 5.317634688571021284e-01 1.135102047479081167e+00 5.232432309922939728e-01 1.194465972128992276e-01 1.260847759348189934e+00 5.454058443426006431e-01 5.616966027565936104e-01 5.263857468121163619e-01 9.083161328485865882e-01 -3.832267709303475378e+00 1.657267655520128002e+00 5.246138853127421120e-01 6.354821530833236753e-01 5.189601084981863011e-01 1.849271085913053447e+00 2.966729823578286296e-01 5.633143977582655282e-01 4.871294991650080841e-01 5.873516653648701569e-01 1.371275241435800041e+00 5.338641043241768580e-01 4.513983330131244309e-01 4.352596966374102094e-01 6.022608698405542693e-01 4.430373453143464646e-01 5.707382280212648373e-01 9.029277319111828071e-01 5.241341905635324983e-01 3.814944863731743463e-01 1.487250135259269579e-01 6.582887360124820564e-01 5.195128090651148778e-01 2.965796107325797126e-01 5.633143562140444649e-01 6.303998418987202257e-01 5.220142018047141397e-01 1.044364811667153337e+00 9.401099564622666938e-01 1.157388056568392720e+00 5.195543284042206666e-01 2.146958483632631642e-01 9.260407609489853531e-01 -1.098273264420107503e-01 9.337500836204625232e-01 6.304675612719241595e-01 3.659870300551948397e-02 4.733877687419093538e-01 9.020517482713251711e-01 3.845140386239528918e-01 4.848356639183604710e-01 3.102802041526048216e-01 -3.403023200620533539e-01 -2.520247995279680797e+00 5.329770423486680508e-01 6.022608653233013642e-01 6.022609168839612170e-01 5.102429327403024129e-01 3.642275541518197879e-01 -2.364828881700609675e-01 2.851597726927500576e-01 5.180553356354933303e-01 7.127275493719856803e-01 5.215463804311275542e-01 1.025793092567780063e+00 4.513979567387805258e-01 5.215539536985894786e-01 4.942566750705357226e-01 2.885956530643942197e-01 6.612358676903604682e-01 5.276952792367536338e-01 5.166324892564292393e-01 5.007167098462720345e-01 3.127527379382111783e-01 1.835647014370487759e-02 6.022608659318522406e-01 6.634960702546897071e-01 5.234173166493774065e-01 3.923737622365544020e-01 8.600783320078128069e-01 7.585370926228443000e-01 5.645256521734770550e-01 1.913377691749394760e+00 4.920466773484554746e-01 -3.183339539395929840e+00 7.740869470279075903e-01 1.543917803405513212e+00 5.938927207764522764e-01 -1.109337096720342863e+00 8.364248479950830983e-01 4.366483874667499432e-01 5.320170072939046646e-01 5.068407315485433662e-01 -4.273696210730116296e-01 5.053968344698139825e-01 1.077284454279404891e+00 4.515084880908641352e-01 -4.013585332651641302e-01 5.114015723424583104e-01 5.291701228603933327e-01 7.940040413426358024e-01 4.921775354096141197e-01 6.020744977249800067e-01 -5.450213291875353194e-01 5.612131436740235291e-01 5.270968012253320900e-01 5.545045958711458667e-01 5.321514871676082947e-01 7.701587682708633809e-01 5.235607822369908737e-01 6.232698053848005904e-01 4.548176816438062042e-01 5.136312239402660573e-01 2.429490970904986669e-01 3.277651479194094164e-01 3.602076454973324182e-01 9.721538735153474331e-01 5.575808457463108381e-01 3.252800154233994601e+00 6.562051207168223543e-01 6.619092296843368528e-01 5.458918581560079364e-01 5.516496520661249292e-01 1.762477506588811318e-02 4.934385797485126846e-01 5.226790012311196554e-01 5.191242605333494797e-01 1.157214061557391593e+00 7.702931235596750525e-01 5.114795984068373214e-01 4.378106576296691976e-01 1.119624583320883549e+00 5.131075707605875502e-01 5.665585425824978261e-01 5.058113802514970780e-01 8.448620317646426958e-01 5.266724140520645525e-01 9.453858084380608595e-01 5.239695455826497428e-01 5.219360641538496326e-01 3.435282901279113066e-02 5.360277872143184297e-01 1.357016779042842861e-02 2.934165047037525231e-01 4.000198749903208228e-01 5.765528834589510598e-01 7.879958559780733118e-01 5.160611407569500875e-01 3.840007578597155469e-01 1.154035347585114640e-01 5.010173467586429563e-01 5.296888226793408094e-01 4.432595128536602758e-01 8.515291377830410541e-03 5.245139089769599305e-01 2.616224001048324532e-01 5.202184822912464535e-01 4.094350698901669250e-01 1.263326179750549505e+00 7.572609656687713242e-01 5.009773474411910454e-01 2.476797245200281494e-01 7.956019697203553509e-01 4.462122853524360666e-01 1.002178379697902688e+00 5.826196865754675880e-01 6.230099030595412923e-01 7.063724049748952849e-01 2.026094569482555841e+00 4.917258206036916879e-01 5.437183102281940572e-01 5.099208389484576331e-01 7.579240292112183752e-01 6.083233885596440738e-01 8.669690880021175827e-01 -5.844968129446539429e-01 4.004205897331875041e-01 5.233141946821050494e-01 4.348860613835678901e-01 4.307082214558924926e-01 -6.369501075997754391e-01 3.853906228562360980e-01 5.205778676992129927e-01 7.257470893279629465e-01 6.696237253936851985e-01 1.546812620417968853e+00 5.230918194182498926e-01 5.179422293464975846e-01 -7.301453896203042859e-01 5.143617093393271222e-01 1.242870273610368281e+00 7.238221447735073699e-01 2.886907236076762251e-01 2.356251739440710646e-01 -1.828469487489366774e+00 5.641254875488014298e-01 1.910733558243161434e-01 1.108948392340123101e+00 8.267298594690795088e-01 5.399449317450284447e-01 5.535400117659967645e-01 5.638429960545336961e-01 7.737720593473456088e-01 4.221241989641694725e-01 5.538516205198155129e-01 1.504248256692918527e-02 5.853884253416262728e-01 5.284572848292413694e-01 4.091905959402146187e-01 5.142487686814297687e-01 4.430401191763970181e-01 1.234452502145092279e+00 -9.737584744016258842e-02 -2.451488414514960412e-01 4.107377351994461190e-01 5.285902490392841990e-01 5.289537985659250596e-01 4.973512427559323434e-01 -8.845860624756169965e-01 3.217024287765457569e+00 4.814769358506656438e-01 4.387032075349879268e-01 4.499264160148264691e-01 5.260155615236500326e-01 5.061089621027823338e-01 4.924509688496052084e-01 3.277168376713517350e-01 6.115491866780133901e-01 5.222153659533261827e-01 4.748052212936192396e-01 3.204041574506596990e-01 4.020564951873626947e-01 5.702529012430191946e-01 4.051963243736298459e-01 5.443165727491382500e-01 5.256132122589394218e-01 6.795017011278601249e-01 1.024311759497735785e+00 2.344981371835255679e+00 5.002625469947564740e-01 5.004407535578602184e-01 3.509397382751718864e-01 4.740635004875398129e-01 3.829762385922050871e-01 5.244235484041250839e-01 5.166243982313437622e-01 4.950788144863226825e-01 5.794108642269527598e-01 5.296314670915147627e-01 7.736487267439998705e-01 3.644542170105103951e-01 3.955386667906876097e-01 4.018917666150856882e-01 4.930665744264443595e-01 1.065932998166621987e-01 9.260407387615551267e-01 5.559616360402872548e-01 9.021810989029099837e-02 1.914194591095984777e+00 3.181171169490242256e-01 4.043492367053727055e-01 5.964732610894490916e-01 6.574668085485146918e-02 5.527345826928534711e-01 1.532692174555821296e+00 8.023963107397862338e-01 6.990980204046574054e-01 5.213361271948193654e-01 5.250788285317534720e-01 4.301886483294811714e-01 6.466971802951763104e-01 5.263831064857072972e-01 5.197994292926094717e-01 -2.663184056609573247e-01 4.833478970364153415e-01 -1.594482522034604166e+00 4.880132161817749559e-01 5.206382953099377708e-01 5.263593359398824889e-01 4.248631701065992972e-01 9.260407387006865942e-01 2.233717938982031082e-01 5.106605882091824755e-01 1.369941151570530424e+00 -5.808740729389133550e-01 5.190854420089264787e-01 1.155864189801163455e+00 1.558493193320402037e+00 5.823657049170246625e-01 5.202324920483309967e-01 -6.514071798370728306e-02 -1.719270666012371551e+00 2.688516760296240093e-01 8.395994899626455510e-01 5.305005407585997590e-01 5.240915705899208410e-01 6.195014296671097487e-01 4.806443286722509312e-01 -4.257564425838155642e-01 8.340009987204008990e-01 4.985340462877750900e-01 3.251471879998473757e-01 5.173082312523632487e-01 4.933847376857618998e-04 -1.651315273916060533e-01 1.830387643123261299e+00 4.110030837449390462e-01 5.349893943012256070e-01 5.217866213091898464e-01 3.207298467745347548e-01 5.089960781105113963e-01 -1.345961051820073195e-01 -1.317194837503080862e+00 5.267503819034614621e-01 4.985661688953634263e-01 4.789712702589453142e-01 5.671916982103372140e-01 5.246457171307394862e-01 5.469252735589732461e-01 5.219050255475622402e-01 5.603676832265852559e-01 1.039681223425343637e+00 7.135740969786623644e-01 5.248656363708953387e-01 6.279165368134521641e-01 5.337514402094167831e-01 5.311967673942046275e-01 5.535278494550457951e-02 5.633143809700097426e-01 4.301326717241465980e-01 5.697123629700453495e-01 7.538445790991539219e-01 8.480378434199615789e-01 8.669542629837247993e-01 -5.424366775829423393e-01 5.248123251385018451e-01 4.625180304431107947e-01 5.198376541160506514e-01 5.956114198431921025e-01 9.146221665156352154e-01 5.040086646311826568e-01 5.214131380798194826e-01 -3.018961812096400132e-01 -8.990133840226178785e-01 2.341882908825906551e+00 5.083876922325485381e-01 9.047318117300222617e-01 4.136177231942323451e-01 5.768863836436394221e-01 3.983366439022089089e-01 1.523051894340924639e-01 5.220801616271361079e-01 5.269324116275914127e-01 -3.546520867333554858e-03 5.181242399045439262e-01 4.503777379741287223e-01 5.252256695890618055e-01 5.151988976859906977e-01 5.206877290937378389e-01 6.348787907532796870e-01 4.261041118210510126e-01 5.674565195513604499e-01 5.039784083270912873e-01 5.177413935237273890e-01 4.134366944114455378e-01 5.143013022611151452e-01 -2.512537122381690025e-01 5.169048197111019149e-01 6.416950044758964466e-01 5.602710882982799845e-01 7.744004688557261096e-01 9.260406138086219041e-01 7.259327609803358783e-01 -6.154389136851673436e-01 9.793984180655136429e-01 1.849271078098067456e+00 5.073144498243370437e-01 4.637577007032447907e-01 1.087843985194978380e+00 5.648873545671792007e-01 7.746191071946517681e-01 5.214179233224581766e-01 1.880000022685475614e+00 5.203953206255932384e-01 4.352645673492694378e-01 1.236302300268994792e+00 -6.739915056644998903e-02 4.962781746879911804e-01 -1.538765733842631656e-01 -9.866379531010575077e-01 -1.653047401535999994e-01 7.742313591675136220e-01 5.719922720741674738e-01 5.222179428664706080e-01 -3.194228045309542297e-01 5.469002724468506882e-01 5.240003066937064941e-02 -4.107473560970127946e-01 5.387355997190022006e-01 5.181772068801848707e-01 5.189601206343715800e-01 5.161995543438598899e-01 4.762840524750185933e-01 9.182885325023284473e-01 -4.417584191011671435e-01 5.221654700262496895e-01 4.953311311394031358e-01 5.874307904894766619e-01 1.175865136200031413e+00 4.831531558516654057e-01 6.862060161629676136e-01 5.208129647915992200e-01 4.955018583602278232e-02 -4.276244061474236413e-01 5.557237675476598415e-01 5.597983831185878723e-01 6.872057723367678284e-01 5.094827344040888661e-01 3.707603207276694568e-01 5.210514189554515951e-01 5.248538072874318061e-01 4.070668866583938561e-01 5.363507600552531729e-01 8.410606424371314116e-01 2.594742344258198496e+00 -2.503301854914055657e-01 6.574207173159190010e-01 3.427502822858130571e-01 2.007265328582899799e-01 6.545532545703256488e-01 -5.554700448821181524e-02 -1.588948920641821250e+00 4.953349232282423520e-01 2.657303644600763182e+00 5.854669483152945553e-01 1.683439681009465672e-01 1.561800941191894276e-01 4.985346809918126953e-01 5.913406235092503183e-01 1.584287438580935126e+00 5.164635131244001975e-01 1.260249732097989128e-01 4.159149809397396647e-01 1.739389127536966617e+00 6.019794808406592201e-01 7.908919314351251506e-01 5.273864268021889457e-01 7.379664243029012693e-01 4.648708265630631109e-01 5.813088081158761522e-01 2.542327494269577132e-02 5.223293447011874147e-01 5.702753075803842497e-01 -5.843218236367681007e-01 -1.006036408063824689e-01 1.182487434379009938e+00 2.399473993587515619e-01 4.794519261334739268e-01 7.199232788518858950e-01 5.256884600741763558e-01 2.022295860205384876e+00 6.647343681257277259e-01 1.761573482009670330e-02 3.610924949660269667e-01 3.968464677842717392e-01 1.141745996738947611e+00 5.023614738553119352e-01 -2.564078930770475814e-02 5.250885411241054124e-01 -7.928853585101638610e-03 5.382540636033814607e-01 5.204591174364150419e-01 6.968291676147239481e-03 -2.724235254229296146e-02 6.612549646238826684e-01 5.142641508168823705e-01 5.903485192444513086e-01 1.967768012110352738e-01 4.094939032342522212e-01 5.255981855062024088e-01 4.597343661652069091e-01 4.901707569967542200e-01 4.794540570713069494e-01 5.851343004824788308e-01 1.020887512601615033e+00 3.177409869330381387e+00 9.615604822353727155e-01 5.297937675636688049e-01 5.784983239712611081e-01 2.181119210951439902e-01 5.253563937389771343e-01 8.587661119877961768e-01 5.074427277106030587e-01 1.317170318101787529e+00 4.822931481919036645e-01 -5.921383346356305921e-01 -2.045389327918847519e-02 4.223031229851242907e-01 6.155835013297145109e-01 5.727317907528455265e-01 5.230519445579319138e-01 5.849627815429880862e-02 5.300402975833978791e-01 5.061998359087181987e-01 -3.823622657464202934e+00 4.784223042488179312e-01 5.138064920451089757e-01 1.138918597553476575e+00 5.253610762670852807e-01 4.298118362088363398e-01 6.741744560893814242e-01 -9.108555389382446688e-01 -4.995343375006626174e-01 2.677645692732979338e-02 5.255307849800093800e-01 5.732359076747634008e-01 2.111672507516174080e-01 5.177087297156310886e-01 -3.458615008041963090e-01 5.604021104990887236e-01 5.496180829927442835e-01 6.965538356233499373e-01 5.532464982766370776e-01 4.676207592345841824e-01 1.461158631757132897e-01 -7.822263788723157196e-01 6.554250843661609816e-01 5.617058399686278847e-01 1.554815358872485009e-01 5.228782015991210175e-01 5.275973971123851802e-01 5.114906374079727369e-01 6.677923670087427821e-01 5.799604612871394060e-01 5.494281161620747644e-01 5.039044550179125892e-01 1.849271077981927025e+00 3.514972581468601143e-01 5.348201033319175401e-01 -1.357358325309059310e-01 5.289045239024839917e-01 6.398727547256956028e-01 5.141825758386405765e-01 4.845004749132454380e-01 3.684206863228307594e-01 9.558015430810512525e-01 1.224716814311748836e+00 5.545482995149674244e-01 5.877785491758638070e-01 5.970308855653918556e-01 4.916815427361266866e-01 5.458828703550554495e-01 5.229749311796924038e-01 9.794544115454425492e-01 6.893246312304718293e-01 -4.643333925814508989e-01 4.638071102484532249e-01 9.039000519396660493e-01 5.172897642112558314e-01 -3.531066410298446673e-02 5.296680749300245461e-01 1.480265844897107108e+00 -1.385417678766929783e-01 6.465328342150860053e-01 2.360658697207828338e-01 4.689612875986082230e-01 8.663453545587151972e-01 5.195960264094255932e-01 3.733919558659634652e-01 1.410525324855260942e+00 4.691075750295231606e-01 5.194591496333439418e-01 -7.037825696136548181e-01 4.423231208848786289e-01 1.039698117744437322e+00 6.221404609880593073e-01 6.755847270895166956e-02 9.901129990109753809e-01 -2.138484583490605703e-02 7.225559993963357464e-01 1.653156779107312957e+00 -8.666671886215708831e-01 5.819777479686103483e-01 5.226208062340954585e-01 -4.778070235003181732e-01 3.024289347935564254e-01 5.833938127108730942e-01 5.100538518985880954e-01 4.816932691583780679e-01 4.186756195894817956e-01 2.627663181503195888e-01 3.472979832868335892e-01 5.789758860817177943e-01 5.197359888972485908e-01 8.779966894464832222e-03 -1.510822340439201272e-01 5.386152894920511747e-01 1.068241741674043732e+00 5.304105943134873602e-01 -5.840191045407712167e-01 4.545577373969127977e-01 5.230370067173479853e-01 5.629312061921185606e-01 4.649734238855211810e-02 3.250402408674977206e-01 5.199877784997745112e-01 5.347253236296297674e-01 4.526782863181719185e-01 -1.080675627506823278e-02 5.614955869703984748e-01 5.307225341393247975e-01 5.858012411519506468e-01 2.106667628233310996e+00 -1.042821436139528858e-02 3.887558214110659049e-01 5.737551044396200783e-01 1.854057065066691434e+00 4.929483206002457929e-01 5.490858823377703368e-01 2.507834876893352480e-02 5.633144033470173229e-01 5.201641642436659607e-01 4.778358773012281180e-01 3.955200807343598468e-01 5.161727163736548052e-01 4.320301286301780896e-01 5.118928982545137840e-01 -5.582820317936256771e-01 5.207958873204446837e-01 4.955069567087422300e-01 5.100825478193394824e-01 1.235840077957131022e+00 5.264934229446077696e-01 -2.487247816984669568e-01 1.122633169765430816e+00 -1.312955428423680626e+00 -5.420084467356708346e-01 5.445701569568957012e-01 5.209039540641016153e-01 6.642632054628463401e-01 5.220848704186797917e-01 4.870238901939759057e-01 5.259053849803924097e-01 5.633144118151511837e-01 5.231309329578803791e-01 4.979234675287690370e-01 6.011945986530594643e-01 5.253347990404743095e-01 3.160303731628208990e-01 5.186076653731047648e-01 5.412207250219527310e-01 4.045377833353357433e-01 5.328112218878133799e-01 5.225265669388138301e-01 5.269433494142939933e-01 6.546035107637189210e-01 5.231373345939455133e-01 7.169575243978908441e-01 5.112894229788289557e-01 5.350170949270861565e-01 5.380796700417369571e-01 4.125815535091915121e-01 3.655424948846964228e-01 2.470365752507782009e+00 4.973579251301524229e-01 6.233070824919745290e-01 2.969222486148593299e-01 5.800176006343779056e-01 1.120131601243348873e+00 4.158507644087253152e-01 6.920492674423768253e-01 5.226628597668192544e-01
7.163267288442896064e-01 2.996298587688310811e-01 4.472663840099780908e-01 -2.775260299321258631e-02 3.132633678169383096e-01 3.818972983709790214e-01 5.382579353722231064e-01 3.987513891241191710e-01 3.638481045377453538e-01 2.951414795768270705e-01 2.079036948667587925e+00 1.734418524250725513e+00 -1.471659249578844753e+00 5.920059020150729712e-01 3.082457890933564260e-01 4.597281086785817150e-01 1.349521476395334763e-01 4.462479525360450450e-01 4.122918211663860744e-01 2.932073870962362827e-01 4.225202800240051015e-01 2.149920101518655979e+00 3.585397347509425847e-01 3.486714469302901742e-01 7.500723022657278527e-01 -1.752173164434295827e-01 4.128850049975975045e-01 1.907101442379378065e-01 2.761681256116856331e-01 -9.239407690253599315e-01 4.413113158228967881e-01 -1.576288667229791829e-01 2.892005311918096622e-01 3.276722030786525797e-01 -4.125049195837949267e-01 5.006816456536115068e-01 3.344161046135638582e-01 -3.895281476311350799e-01 -3.300613538573008210e+00 3.287897629838252844e-01 1.194189525933872398e+00 1.458292780190303672e-01 -1.689244335417879606e-01 7.916061895355471778e-01 5.656305113374822113e-01 3.222897596993549163e-01 -2.817018475327192142e-02 2.986980651515544483e-01 1.455970477931639584e-01 6.529515839554478340e-01 6.898091942201810545e-01 5.029532959448250740e-01 -1.598335881000825520e-01 2.388694292975828970e-01 5.943172274918063769e-01 6.569308051216344868e-01 3.040612575122910721e-01 2.466090808370190179e-01 3.452175636402173287e-01 3.308089866999116002e-01 4.325340494528598367e-01 4.381390495954861630e-01 3.413029088732762450e-01 3.585397491340931997e-01 -3.427043859466776810e-01 1.244182895323888843e-01 2.976238061469973495e-01 3.103152232189720916e-01 2.310244561041845113e-01 7.080452710257921778e-01 1.550814167420772327e-01 2.443764441853822911e-01 3.160654590139860831e-01 7.259206407552659668e-01 1.944126260718217480e+00 4.235964435461275213e-01 4.775816912973838146e-01 4.826187350512872731e-01 3.110346207155061382e-01 -1.356587903326872846e+00 3.231779537451631157e-01 5.465729955259605033e-01 2.392846530414214801e+00 7.127485489347877567e-02 2.514232589912706595e-01 -3.577983023996743062e-01 1.393234787510105044e-01 2.880383931592763735e-01 -5.837576194019421516e-01 -9.095768767740233240e-01 5.656272525473409196e-01 1.609820028568315076e+00 5.554948817344045053e-02 6.805083817422916681e-01 3.606936445308672190e-01 3.447378491602264283e-01 2.687560260471678619e-01 7.816239377452244286e-01 7.366927383449560773e-01 -1.718667706649270044e-01 -1.812486884688254141e-01 5.566783640748832612e-02 3.013383021693857300e-01 2.161418910114383529e-01 -5.464080118472142145e-02 3.164958766292953030e+00 -2.943409465705172923e-01 3.253433543800768879e-01 8.286604144257188331e-02 8.119151663702602884e-01 2.710230074604905171e-01 5.222029497594916636e-01 1.618773632934830120e-01 3.776092573187206369e-01 -4.744193525999925720e-01 2.657480701957923297e-01 1.026181760402606058e-01 4.190909667215371170e-01 1.167338139172535705e+00 3.459034447923769462e-01 -1.473852081926068314e+00 1.362045388408198443e-01 8.109704414712551324e-02 1.468309076626098220e+00 3.089479812123765989e-01 2.202329827411670493e+00 3.726105220341042745e-01 2.067367001362553358e-01 3.116128551845539496e-01 3.160404883694234446e-01 3.430293034845875444e-01 3.155210525383194686e-01 6.727813776810319668e-01 4.178832890914717102e-01 1.618965610504099206e-01 8.564047816155819781e-01 7.266896383889025479e-01 7.088911289213631894e-01 -3.399144955386282363e-01 2.188555633680501489e-01 2.839459293520309457e-01 3.220721696550791768e-01 3.529428213982264695e-01 2.492496281786493184e-01 3.137826960472864246e-01 7.005724600505680577e-01 -1.778751846966042383e-01 3.193168940181820292e-01 4.257360746051910283e-01 4.030986961481651809e-01 -2.041391906773955545e-01 2.778486852514744018e-02 3.222821331236649933e-01 2.816220043509787829e-01 2.800806080039954238e-01 3.110056644396496650e-01 -2.483394394093475288e+00 4.677146283482170319e-01 -6.077294898442964222e-01 -1.767891947322391411e-01 1.502026802244429138e-01 3.674042068071500244e-01 3.085815571769189858e-01 3.124675126565367722e-01 1.285905871631438102e-01 1.144302953275272983e-01 3.194529075468341972e-01 4.844751076414812729e-01 4.481196303877924558e-01 2.845086536069902916e-01 2.197077099150062385e-01 -3.026449824785925474e-02 3.222950701059639766e-01 3.085164642423224857e-01 -2.534777892643520492e+00 6.713643486802693960e-01 5.782582282880470714e-01 9.381244419523885325e-01 -4.603108279299690242e-01 1.174509773462860451e+00 3.924997105758871313e-02 3.211298585489589241e-01 1.245626199642292820e+00 3.543936684249144875e-01 3.115321456774388098e-01 3.164230942196094576e-01 3.218601070331746916e-01 3.353499931382402655e-01 -4.982307881886149370e-01 3.197521417412343414e-01 3.234426548646189836e-01 8.236327732238791777e-01 2.955040124840131455e-01 3.608608286558389056e-01 2.475701996509670766e-01 3.077255912225753121e-01 -1.691195269686882607e+00 3.249696967913316414e-01 3.501547512295353770e-01 2.890897522336128844e-01 3.936452269837685536e-02 3.812495939653058330e-01 3.896956380735518977e-01 1.498478101128368489e-01 -7.610438543607155326e-01 3.501547205111348315e-01 4.899605272917608723e-01 -5.231094765748940389e-01 3.445197716540979727e-01 2.135319883556648646e-01 2.330028839027724064e-01 -3.302592992523165183e+00 4.304869584930388626e-01 9.151076137213254302e-01 3.264066250249216816e-01 3.130891254098330800e-01 3.126960083152308112e-01 3.209225307237135172e-01 3.058643551389149118e-01 3.151458135470290300e-01 3.715883506708776429e-01 9.226557832418286198e-02 6.714018525525099479e-01 1.056808531606527601e-01 4.571150970933009483e-01 5.202222767376085688e-01 4.077145730294985948e-01 -7.010938754951920870e-01 2.328864632509642707e+00 4.070431725717915117e-01 1.251023391728837586e+00 -1.400817001682661767e+00 3.123318416821518340e-01 2.633724642050599973e-01 3.498582332094100633e-01 1.191073141633651744e+00 5.256651571081522034e-01 8.314680379235330765e-01 2.878178844061456965e-01 6.670843983254253207e-01 2.347101021916984664e-01 2.933499120051245579e-01 -1.189421455083436108e+00 4.213702172702684656e-01 3.093012774166994938e-01 5.027696013092995964e-01 8.789760035556785089e-01 -3.797046922076789399e-01 3.215444494083675941e+00 5.018313685787125777e-01 1.300258828339510231e+00 -2.788508063403096204e-01 3.177087130944871718e-01 3.585428049866137834e-01 3.496991506760606105e-01 2.521403551455647096e-01 3.288128653861481787e-01 -1.528108961512620323e-01 9.563501140974650649e-02 5.626205295402736395e-01 2.424208220646328071e-01 1.014545225900771591e-01 2.393179020884284025e-01 4.732703737616461015e-01 4.325340490498678081e-01 2.554671481499937169e-01 3.291948049506573160e+00 3.489431823818034961e-01 6.513801534059968645e-01 5.252971270527275749e-01 2.353978965113273925e-01 4.326442289516398421e-01 3.092823306328579269e-01 3.007251668155041524e-01 3.114254967077123570e-01 -6.126581946075948526e-01 4.221464263418192031e-01 2.851808836139393954e-01 1.443714624872154406e-01 3.378695106106837653e-01 1.551843502429228749e+00 3.715930699872016518e-01 3.170638513596510388e-01 2.009534674248425468e+00 5.093705875598750765e-01 2.820211092246111551e-01 2.730209881438661057e-01 2.950487159671518755e-01 2.657486783518641649e-01 -2.073535133025445898e+00 3.015624548606978816e-01 1.586250714080892799e+00 -7.756528382831077983e-02 3.593336576770502777e-01 6.678596928577704706e-01 3.335874238995393259e-01 -7.303473470874615181e-01 3.760303475503320447e-01 3.026795824318561090e-01 4.257734532638410840e-01 -4.017687828670061800e-01 2.963290182986594301e-01 -2.337212056985583875e+00 -2.956537038175559989e-02 3.185065894415882171e-01 5.982460571328844789e-01 3.113482078828654909e-01 3.106143186265973299e-01 4.929651754151362919e-01 1.731466169167452940e-01 -8.564661184256561199e-02 -7.741657688069879528e-01 -2.942675427856646011e-03 6.883385431634924112e-01 3.177977661667589215e-01 5.010213934904469424e-01 3.118352760891296427e-01 -2.878540930158640654e-02 3.134249502565693013e-01 2.473329341065205966e+00 6.788344440513319755e-01 2.471399918050840583e-01 -1.179004276209145274e+00 2.368804567653570725e-01 4.768772517683726342e+00 3.988550468511136704e-01 -1.827680182204976800e-01 5.716945053168083213e-01 -5.673497779113284345e+00 5.292788253323595926e-01 1.574643100559025122e+00 3.140450808714913000e-01 5.263098804988287638e-01 -4.528930587179159084e-01 4.346340116970320855e-01 2.688389906316881461e-01 3.215417446651763766e-01 2.186918574750899569e-01 2.981685887516186018e+00 -3.810376366205712184e-01 3.015573195871460443e-01 -1.933779465082478888e+00 3.242733076172949480e-01 -3.895281519057773867e-01 7.571671531327346383e-01 5.052444346297635391e-01 2.604210384890862651e-01 2.829404320172895781e-01 1.266472333936291994e+00 1.540822350035765120e-01 3.501545340417140939e-01 4.213769090108664961e-01 1.498478007568175285e-01 3.566122772575128774e-01 3.879282521343160872e-01 -6.217025551117107973e-01 3.095817936759820421e-01 5.603754979430377592e-01 4.005687223619931459e-01 1.750327344931714435e-01 3.147624777154722220e-01 5.040074216188327183e-01 5.052444786367655816e-01 4.889416624505503184e-01 3.143197283520195451e-01 1.703350345460769022e-01 3.896764910169083218e-01 3.497501098509440798e+00 3.147254791861517353e-01 1.129766785486534947e-01 4.325338197986566269e-01 8.392707981751704738e-01 4.693742392119713558e-01 -1.941332414877936507e-01 6.851964093880139606e-01 3.544114440982385483e-01 1.246008692178120769e-01 4.187876338898445794e-01 6.786260603219562704e-01 5.497580591402031480e-01 7.942950621634804476e-01 8.210416055183084039e-01 2.839016355482769649e-01 1.498478100540120150e-01 1.498477271888123130e-01 2.385229579079036766e-01 2.013525017740673551e-01 1.119760719608908550e+00 3.914537949399136685e-01 3.091280106152003992e-01 2.860002805103531442e-01 3.123465026742874850e-01 7.520118746690150902e-01 3.501541174802456080e-01 3.106747204776911797e-01 4.308603845450095782e-01 2.154542458645045400e-01 -6.400503509759456477e-01 3.047418957965614683e-01 3.123518094237927034e-01 3.792064934583347924e-01 6.755503619940799176e-01 6.776065737911413089e-01 1.498478106426003875e-01 1.220771833896729663e-01 3.149376323848443460e-01 5.091095958602631644e-01 -5.946023804568885129e-01 1.769827793079756240e-01 -3.566986949316579558e+00 2.014006860534261367e+00 6.332294948728033335e-01 -4.787651101110070306e-01 -2.762989551864291141e-02 2.079517488239974288e+00 3.203039272907235446e-01 6.491983992311498586e-01 -4.680568439013969156e-02 3.828564929234251624e-01 4.069044958800613898e-01 2.935481473042613199e-01 -5.357274062686987470e-01 3.703738649113247905e-01 2.085761601032629198e+00 2.444358972223478754e-01 -4.542851039275342395e-01 2.997774090757354126e-01 3.061601722235883782e-01 -1.462871018267539291e+00 2.773198353229114899e-01 3.700297396967493491e-01 4.034473462273657773e-01 1.228599789890354177e-01 3.086028452299955371e-01 2.104771446831499027e-01 3.187278985066805403e-01 -1.612014419759932871e-01 3.127644707013066960e-01 1.056271935422665453e-01 3.032887840744204477e-01 3.051853435275923565e-01 1.179305659346946422e-02 3.851464618443786736e-01 5.223682159259066538e-01 -1.415120934707831069e+00 -6.455985441232888755e-01 -1.175657452618732168e-01 1.313512321685523510e-01 1.788443799033402615e-01 4.343054953702483179e-01 3.601406217932014431e-01 7.189946463106207108e-01 -1.383040869464392808e-01 3.310281932923865300e-01 3.192986904962313299e-01 9.522390338730696291e-02 -1.615138968170587719e-01 2.755068513326855983e-01 4.633094095862929085e-01 4.799464704068258647e-01 3.255701577210504127e-01 2.844821374962142047e-01 3.120638599726185403e-01 2.469118923800611154e-01 3.086847193548993284e-01 4.909015245476826550e-01 2.939381288472719400e-01 3.123708137715464073e-01 6.857422754078202898e-01 3.309722831813522448e-01 7.270934164745643802e-01 -3.851136596899743837e-03 5.642434388289602198e-01 2.815464765624290933e-01 -1.468474454672901608e+00 3.066913660886620430e-01 6.370576921560795469e-01 3.546785607935998841e-01 3.383834434723133056e-01 2.895365161626006767e-01 1.743518687542213175e-01 6.845383311964092776e-01 3.099560553167964860e-01 4.194820966681832575e-01 3.103903681486376298e-01 2.753737971686654462e-01 1.843173766697473459e-01 4.853305851847122265e-01 3.226082358444362086e-01 1.814545270607508254e-01 5.499703887261536001e-02 9.347358586569595729e-02 1.661277026801597057e+00 1.767951173322986347e-01 3.472946427768082156e-01 3.884114388841217180e-01 -8.615340129527998547e-01 3.302990972402728431e-01 2.369996550982639283e-01 3.366525482969661143e-01 -7.739129965239163744e-02 2.741729094654511978e-01 1.669420576797383760e+00 8.938015219062779293e-01 4.630816885519948856e-01 3.009854603231715831e-01 3.264811832685165505e-01 3.459249432795791779e-01 9.309061910419188512e-01 3.079781836715750565e+00 3.107432152985631357e-01 1.795219992476108917e-02 5.864929580953412991e-01 -2.302103433638504060e-01 3.112064247417869467e-01 3.207730670955070695e-01 1.083552645050224195e+00 3.131696095304753458e-01 -3.406346805786196752e-01 3.880301656126640131e-01 1.352665774346811234e-01 6.251666053866391515e-01 1.837356313477157777e+00 2.460346893708109939e-01 2.753980704639489852e-01 1.670203941798800384e+00 3.934001449111419468e-01 2.477356878466643597e-01 1.590499559674529995e-01 1.998831958721671298e-01 -2.790049511297580664e-02 5.187410758707901026e-01 2.438769425433141291e-01 7.194945039321279934e-01 2.757461419818763582e-01 2.148235561135692639e-01 3.250026838683300334e-01 3.922164155970015442e-01 4.166601213449362962e-01 2.622979550863624998e-01 8.860166710430411596e-01 5.155996257506728631e-01 4.997579361843386692e-01 2.947167726178014924e-01 2.432245422508460264e-01 3.061443507679773024e-01 5.918200320324426000e-01 7.782574583615293751e-01 3.696403446281286143e-01 3.194234104400549001e-01 5.745647209380113640e-01 3.152984154658290961e-01 7.048343610890047684e-01 3.078495666439687306e-01 4.750576547876159683e-01 -3.081468941272952899e-01 3.084090964088997411e-01 3.352398569978379816e-01 4.464748677576125813e-01 2.263396482272865551e-01 3.409211409099429657e-01 1.815625364084920923e+00 1.967871679488482350e-02 2.878398356757129739e-01 -2.106574179364749666e-01 1.675126647192805462e+00 1.160112148296276846e+00 3.732987473546007379e-02 -4.449157817670018056e-01 4.379605473309147734e-01 2.928886276893911678e-01 4.952148122062349223e-01 3.110222866053750645e-01 3.163610033771514507e-01 2.207361772061895711e-01 3.362677900679216236e-01 2.983764213474898175e-01 -2.741277316499520292e-02 -2.272004831315564410e-01 3.259265472633312566e-01 2.434639207076826906e-01 2.425704073585734089e-01 8.790774224480298882e-01 4.325340509139194434e-01 3.016226049555734146e-01 8.552640455332575220e-01 4.754307032521765675e-01 5.658809222477986234e-01 4.603909418951988020e-01 6.975914611865929871e-01 1.480801804373949704e+00 3.875867106631247228e-01 2.113806023460704342e+00 -2.372848180582505170e-02 1.534374030521608312e-01 3.120859581234434188e-01 3.000412948630625243e-01 3.737053578011278465e-01 2.845394805611252131e-01 3.201476578377716042e-01 3.130973225813128979e-01 3.678746241111020554e-01 2.139530443296135398e-01 -3.453981533795390524e-01 2.672333821171585799e-01 -6.271688982982877303e-02 3.026447618686216035e-01 4.258438834194955835e-01 4.325340509693971769e-01 2.266773668635804762e-01 2.145919752204253350e-01 -1.282877392560030749e+00 1.979168808302711913e+00 3.107822105166432314e-01 -7.496655378104424283e-01 2.970037378825609031e-01 3.267888550627869870e-01 3.082323167330672242e-01 -4.836484090578713868e+00 3.571250225592240923e+00 6.326327361208272659e-01 3.287705302946993674e-02 3.284179976586041882e-01 3.067265063125930724e-01 2.635445506201159471e-01 2.647833193342014724e+00 6.289508044236225004e-01 3.191490936636530718e-01 2.657482179679936940e-01 2.977873871521437565e-01 3.170442828999174290e-01 8.583981573023841127e-01 -3.740201811124923004e-01 -1.217878970919730852e+00 -1.231943906563214508e+00 3.156425628981288645e-01 3.061451876618973555e-01 7.352966406697297730e-01 3.712375216982020665e-01 1.465156130350588448e+00 4.871976424625550917e-01 3.131038334918135879e-01 3.223980781209962454e-01 3.179517674410810568e-01 3.388804632245502879e-01 3.020672066342631190e-01 6.415042896449301146e-01 2.733284644768834704e-01 6.614214164485748837e-01 2.315634668716016475e-01 5.483667627624701224e-02 3.019226145646319859e-01 1.799084091503571903e-01 3.040717431216701239e-01 2.585430164952119414e-01 6.365630596802166474e-01 5.052444621591709595e-01 3.094846118949992064e-01 2.496307302765068958e-01 3.064580099950601211e-01 2.724236762890544505e-01 1.669441262105109125e+00 1.924114458220135715e+00 3.030650139178213687e-01 3.407380905354068235e-01 3.064253692419935948e-01 1.652387296027447994e-01 2.241570208652038099e-01 3.912287498290399901e-01 3.179089361410220582e-01 3.271729490591162581e-01 8.071757367543410666e-01 8.918700169900629637e-01 2.726217305241202538e-01 1.885298102697504641e+00 3.286508644697485604e-01 -2.583712372271988467e-01 -2.720272432366766524e-01 -3.066383403588644474e-01 3.122781786865752029e-01 2.991663455790588566e-01 7.109608980213214524e-01 3.165481971516503901e-01 4.516373860004872509e-01 3.241022746762315943e-01 3.377571626447478104e-01 2.846214421387533444e-01 -5.000024365837386214e-02 1.012161522318522078e+00 3.238184618457691233e-01 3.689154754193960106e-01 3.169622245837636632e-01 3.526063447861012001e-01 3.384145412450229040e-01 3.954424175221139537e-01 -8.563557849657089938e-02 2.223578995546470760e-01 2.836234745554930825e-01 -2.838994753018496409e-02 4.325342564977853188e-01 1.099402807669109361e+00 9.679172683344305916e-01 -7.227688542457667564e-01 -3.895281475523439951e-01 6.598651023303301333e-01 -3.362280679623627755e+00 1.579489685291146639e+00 2.823061464832432033e-01 -2.749225955302811789e-02 3.075280496931143137e-01 9.008850402221699749e-01 3.071822377422979145e-01 4.213704531628534866e-01 -4.379118664986281773e-01 8.183880868973670841e-01 3.200663683392824810e-01 8.653340642715137143e-01 2.106447687544166225e+00 -3.739153759708836455e-01 -1.478860747388220487e+00 2.422488192001251150e-01 3.095105196071231690e-01 7.533699456627311886e-01 2.751494591589805916e-01 7.024066252166107915e-01 4.691208609272204955e-01 2.866635372534949155e-01 2.991369030019955244e-01 3.094680793236450067e-01 2.785877801998049019e-01 3.075636958002985200e-01 1.427708411410053113e+00 1.656588078412611020e+00 3.059687588306710948e-01 3.480662549671977302e-01 1.980253339841291371e-01 -2.479887860883448480e-01 2.233098988076043789e-01 -4.759481366081168285e-02 3.106665085815643601e-01 7.035492814281796292e-01 -5.358973702405692707e-01 2.716969636236919450e-01 2.905848459473368006e-01 1.537031395786008781e-01 3.258523336326938358e-01 1.975293641316898385e-01 3.122323429871844969e-01 3.110767483550760382e-01 3.992867406954440923e-02 2.914937318436374158e-01 4.342479020290175851e-01 1.130860215797096613e+00 1.109089740920632394e+00 9.173712842647880894e-01 2.075551168988619410e-01 7.907510139997280252e-01 1.537341192795503575e-01 4.965472502528626708e-01 -2.166233754610864093e+00 3.006807174957912832e-01 6.612163126805568059e-01 2.920053352415593051e-01 9.483390373408654428e-01 1.377917154479870288e+00 2.657480694671972565e-01 2.482498514134045264e-01 3.754250200424054107e-01 3.871579380114975599e-01 5.488990441026680989e-01 9.378400849641848058e-01 -8.091125901617252092e-01 2.334997906465811901e-01 3.770560852873176827e-02 2.987134636443667390e-01 3.409444927610595366e-01 7.653756400981521768e-01 -2.545254991107254727e-01 4.077056384729320637e-01 3.117590043204285233e-01 3.615641661595221379e-01 8.942097591282741620e-01 4.322259366179666551e-01 -2.196841538456182075e-01 8.584836088326680548e-01 -3.983385060035822545e-02 5.643393657526893925e-01 3.018578156321242156e-01 1.294496747274411330e+00 5.946645712984390819e-01 7.194387368617317646e-01 4.361903341151959212e-01 4.855159250951602834e-01 -5.798336523541628429e-01 2.276863703920832538e-01 7.547712153131034274e-01 3.225077271223411590e-01 6.132012863974498629e-01 3.087985234900591514e-01 3.146475555387698853e-01 7.173303222129200352e-01 1.588239302283755705e-01 -2.065894795719912302e+00 2.021887552862946524e-01 2.522683171225952869e-01 9.050583441654798111e-01 3.527399657206116146e-01 3.735232268837400671e-01 3.810931145997560887e-01 3.133158562347634346e-01 3.989087786906629352e-01 9.425652154327759935e-02 -1.630917010973303771e+00 7.621808513684560360e-01 2.444273577530770847e-01 3.192469478899833679e-01 2.325650167548413139e-01 8.202630414868563591e-01 3.158216016367202394e-01 -1.534883215472414297e-01 3.464082789645829830e-01 1.124766203052241176e+00 2.734747124634052673e-01 4.162643178162388491e-01 1.043955471882441755e+00 4.134234538194861974e-01 2.831216221424218915e+00 3.290927281124483295e-01 3.165065713203792375e-01 7.093076292103394076e-01 3.117013889611573996e-01 3.375659327495530992e-01 -2.156037322610920626e+00 4.504391522131864778e-01 3.159325686067491201e-01 5.185546594259492492e-01 3.066818015044702195e-01 1.949964568335809389e-01 -1.820694150194818173e-01 2.075430710522259137e+00 -5.185773266617644817e-01 8.262281624977594330e-01 3.107465928023366852e-01 2.984214267180745339e-01 8.393361153406527775e-01 2.897546452925101601e-01 1.343307666910349862e+00 2.187264391523338902e-01 3.933758784990809554e-01 -8.865490301858937050e-01 -1.316742046618603612e-01 -5.542024790928985478e-01 -4.037178054154212603e+00 2.990941333556424997e+00 2.365408919573664184e-02 2.862171048645991145e-01 -1.656731048472368961e+00 3.108507049998185945e-01 4.109734130580180445e-01 3.280482122153283164e-01 1.778103081495033544e-01 6.423810712239942378e-01 6.028134785967507181e-01 1.083681460495956594e+00 -3.895281476896129136e-01 -2.347278444093863770e-01 2.435828399430175484e-01 -1.195480126989098668e+00 2.811868302197793046e-01 -6.555344666897812145e-01 3.015961647981909577e-01 4.481630818716503262e-01 1.032382617239394618e-01 4.557805650913847040e-01 2.636191441495647769e-01 -2.891054586509409288e-02 2.436572233544294364e-01 2.855339935072817026e-01 3.658762442602643272e-01 3.343344414285210342e-01 3.137518284712988437e-01 -7.228249533041820607e-01 4.843803653540448284e-01 1.545671488832830009e+00 7.401217116804308105e-02 2.361782957798675697e-01 2.524468791611559348e-01 1.204986705376865253e+00 3.344348874442151787e-01 9.914596045767060106e-02 8.864902655746383919e-01 2.447718681306583210e-01 1.882767474888735304e+00 2.759639535563123691e-01 1.343091059606163595e+00 3.272610250694812928e-01 7.347963922176886653e-01 1.356379092104660122e+00 3.874359992493661697e-01 3.051971078125321202e-01 9.451509024837035922e-01 -1.856374918952906350e-01 -6.523024533595532526e-02 2.371625336849383370e-01 3.047785746121787209e-01 3.619027872896175557e-01 1.450167382131826443e-01 1.244017580301673559e-01 -3.824080931400645200e-01 1.292311718062111314e+00 2.971162046761667841e-01 3.137086569216061549e-01 -3.240481030935354667e+00 5.552635444312647994e-01 2.367664974910441145e-01 3.686684559821718499e-01 3.797874089467732084e-01 4.422772655453514057e-01 -1.114077081539895264e+00 6.307409355898480063e-01 2.927144894584898793e-01 3.146792732448844832e-01 1.022625602906832576e+00 4.659158557613735097e-01 3.021494493721772479e-01 -1.415367364507053471e+00 3.677544351878828666e-01 8.943095676699340801e-01 3.479399216525033145e-01 3.051050853143769670e-01 3.107914061840193476e-01 7.117445722591615453e-01 -5.150013257500646313e-02 3.141153447667518472e-01 2.944309041632161561e-01 9.570951785138263890e-02 6.677151345898972856e-01 2.509014462979740068e-01 6.955645388391772377e-01 1.795029304595323338e-01 6.927969613020970030e-01 -2.441465628314997416e-01 -1.511232305014145849e+00 2.864889804288069941e-01 -2.045099244946156636e-02 2.952827460095264756e-01 3.645241144401331068e-01 5.522374623971351010e-02 5.052444685786307010e-01 3.108667495012163995e-01 8.345482358363337516e-02 4.319626568627674690e-01 3.175325067276057456e-01 2.912659441337190902e-01 3.029872787617641228e-01 -8.578202942504361550e-01 3.154243689121664640e-01 3.019827982735023841e-01 2.996471490032113216e-01 -3.053165217513875151e-01 3.056973185935075721e-01 8.335553414137087946e-01 -6.028280452912496701e-01 1.132341996147491647e+00 6.183001224847570754e-01 2.956130620049856050e-01 3.146077040367879496e-01 -2.062653844927932134e+00 3.158712978214611167e-01 2.315893918698792853e-01 3.008510807354640715e-01 5.052444315950129772e-01 3.100467347315420397e-01 3.396223697972848843e-01 6.114224450783160153e-02 3.133634117332010915e-01 4.341678534822755453e-01 3.120308206991577737e-01 2.392636185666060789e-01 2.847975347078806618e-01 3.065376502483674326e-01 3.125390064790473099e-01 2.896958831225154851e-01 1.161703512627774160e-01 3.097423766436273040e-01 6.259678047570440551e-01 1.662098117491712657e-01 3.116413048525539797e-01 -1.464780954415220438e-01 1.880603558764244454e-01 6.291528936103871761e-01 4.548253294848304762e+00 3.418075251671047199e-01 7.122727959610788973e-02 5.673568715287153896e-01 1.783585435527594854e-01 1.567160176724204490e+00 3.370237386831002047e-01 6.360212140518659574e-01 3.172221301411343175e-01
