# 
#                 ----------------------------------------------------
#                 Data from a 3D direct N-body simulation. 
# 
#                 rows are i-particle; 
#                 coumns are :mass, tag, x ,y, z, vx, vy, vz, ax, ay, az
# 
#                 NTHU, Computational Physics 
# 
#                 ----------------------------------------------------
#                 Time = 0.0
0.000000000000000000e+00 1.000000000000000000e+00 2.000000000000000000e+00 3.000000000000000000e+00 4.000000000000000000e+00 5.000000000000000000e+00 6.000000000000000000e+00 7.000000000000000000e+00 8.000000000000000000e+00 9.000000000000000000e+00 1.000000000000000000e+01 1.100000000000000000e+01 1.200000000000000000e+01 1.300000000000000000e+01 1.400000000000000000e+01 1.500000000000000000e+01 1.600000000000000000e+01 1.700000000000000000e+01 1.800000000000000000e+01 1.900000000000000000e+01 2.000000000000000000e+01 2.100000000000000000e+01 2.200000000000000000e+01 2.300000000000000000e+01 2.400000000000000000e+01 2.500000000000000000e+01 2.600000000000000000e+01 2.700000000000000000e+01 2.800000000000000000e+01 2.900000000000000000e+01 3.000000000000000000e+01 3.100000000000000000e+01 3.200000000000000000e+01 3.300000000000000000e+01 3.400000000000000000e+01 3.500000000000000000e+01 3.600000000000000000e+01 3.700000000000000000e+01 3.800000000000000000e+01 3.900000000000000000e+01 4.000000000000000000e+01 4.100000000000000000e+01 4.200000000000000000e+01 4.300000000000000000e+01 4.400000000000000000e+01 4.500000000000000000e+01 4.600000000000000000e+01 4.700000000000000000e+01 4.800000000000000000e+01 4.900000000000000000e+01 5.000000000000000000e+01 5.100000000000000000e+01 5.200000000000000000e+01 5.300000000000000000e+01 5.400000000000000000e+01 5.500000000000000000e+01 5.600000000000000000e+01 5.700000000000000000e+01 5.800000000000000000e+01 5.900000000000000000e+01 6.000000000000000000e+01 6.100000000000000000e+01 6.200000000000000000e+01 6.300000000000000000e+01 6.400000000000000000e+01 6.500000000000000000e+01 6.600000000000000000e+01 6.700000000000000000e+01 6.800000000000000000e+01 6.900000000000000000e+01 7.000000000000000000e+01 7.100000000000000000e+01 7.200000000000000000e+01 7.300000000000000000e+01 7.400000000000000000e+01 7.500000000000000000e+01 7.600000000000000000e+01 7.700000000000000000e+01 7.800000000000000000e+01 7.900000000000000000e+01 8.000000000000000000e+01 8.100000000000000000e+01 8.200000000000000000e+01 8.300000000000000000e+01 8.400000000000000000e+01 8.500000000000000000e+01 8.600000000000000000e+01 8.700000000000000000e+01 8.800000000000000000e+01 8.900000000000000000e+01 9.000000000000000000e+01 9.100000000000000000e+01 9.200000000000000000e+01 9.300000000000000000e+01 9.400000000000000000e+01 9.500000000000000000e+01 9.600000000000000000e+01 9.700000000000000000e+01 9.800000000000000000e+01 9.900000000000000000e+01 1.000000000000000000e+02 1.010000000000000000e+02 1.020000000000000000e+02 1.030000000000000000e+02 1.040000000000000000e+02 1.050000000000000000e+02 1.060000000000000000e+02 1.070000000000000000e+02 1.080000000000000000e+02 1.090000000000000000e+02 1.100000000000000000e+02 1.110000000000000000e+02 1.120000000000000000e+02 1.130000000000000000e+02 1.140000000000000000e+02 1.150000000000000000e+02 1.160000000000000000e+02 1.170000000000000000e+02 1.180000000000000000e+02 1.190000000000000000e+02 1.200000000000000000e+02 1.210000000000000000e+02 1.220000000000000000e+02 1.230000000000000000e+02 1.240000000000000000e+02 1.250000000000000000e+02 1.260000000000000000e+02 1.270000000000000000e+02 1.280000000000000000e+02 1.290000000000000000e+02 1.300000000000000000e+02 1.310000000000000000e+02 1.320000000000000000e+02 1.330000000000000000e+02 1.340000000000000000e+02 1.350000000000000000e+02 1.360000000000000000e+02 1.370000000000000000e+02 1.380000000000000000e+02 1.390000000000000000e+02 1.400000000000000000e+02 1.410000000000000000e+02 1.420000000000000000e+02 1.430000000000000000e+02 1.440000000000000000e+02 1.450000000000000000e+02 1.460000000000000000e+02 1.470000000000000000e+02 1.480000000000000000e+02 1.490000000000000000e+02 1.500000000000000000e+02 1.510000000000000000e+02 1.520000000000000000e+02 1.530000000000000000e+02 1.540000000000000000e+02 1.550000000000000000e+02 1.560000000000000000e+02 1.570000000000000000e+02 1.580000000000000000e+02 1.590000000000000000e+02 1.600000000000000000e+02 1.610000000000000000e+02 1.620000000000000000e+02 1.630000000000000000e+02 1.640000000000000000e+02 1.650000000000000000e+02 1.660000000000000000e+02 1.670000000000000000e+02 1.680000000000000000e+02 1.690000000000000000e+02 1.700000000000000000e+02 1.710000000000000000e+02 1.720000000000000000e+02 1.730000000000000000e+02 1.740000000000000000e+02 1.750000000000000000e+02 1.760000000000000000e+02 1.770000000000000000e+02 1.780000000000000000e+02 1.790000000000000000e+02 1.800000000000000000e+02 1.810000000000000000e+02 1.820000000000000000e+02 1.830000000000000000e+02 1.840000000000000000e+02 1.850000000000000000e+02 1.860000000000000000e+02 1.870000000000000000e+02 1.880000000000000000e+02 1.890000000000000000e+02 1.900000000000000000e+02 1.910000000000000000e+02 1.920000000000000000e+02 1.930000000000000000e+02 1.940000000000000000e+02 1.950000000000000000e+02 1.960000000000000000e+02 1.970000000000000000e+02 1.980000000000000000e+02 1.990000000000000000e+02 2.000000000000000000e+02 2.010000000000000000e+02 2.020000000000000000e+02 2.030000000000000000e+02 2.040000000000000000e+02 2.050000000000000000e+02 2.060000000000000000e+02 2.070000000000000000e+02 2.080000000000000000e+02 2.090000000000000000e+02 2.100000000000000000e+02 2.110000000000000000e+02 2.120000000000000000e+02 2.130000000000000000e+02 2.140000000000000000e+02 2.150000000000000000e+02 2.160000000000000000e+02 2.170000000000000000e+02 2.180000000000000000e+02 2.190000000000000000e+02 2.200000000000000000e+02 2.210000000000000000e+02 2.220000000000000000e+02 2.230000000000000000e+02 2.240000000000000000e+02 2.250000000000000000e+02 2.260000000000000000e+02 2.270000000000000000e+02 2.280000000000000000e+02 2.290000000000000000e+02 2.300000000000000000e+02 2.310000000000000000e+02 2.320000000000000000e+02 2.330000000000000000e+02 2.340000000000000000e+02 2.350000000000000000e+02 2.360000000000000000e+02 2.370000000000000000e+02 2.380000000000000000e+02 2.390000000000000000e+02 2.400000000000000000e+02 2.410000000000000000e+02 2.420000000000000000e+02 2.430000000000000000e+02 2.440000000000000000e+02 2.450000000000000000e+02 2.460000000000000000e+02 2.470000000000000000e+02 2.480000000000000000e+02 2.490000000000000000e+02 2.500000000000000000e+02 2.510000000000000000e+02 2.520000000000000000e+02 2.530000000000000000e+02 2.540000000000000000e+02 2.550000000000000000e+02 2.560000000000000000e+02 2.570000000000000000e+02 2.580000000000000000e+02 2.590000000000000000e+02 2.600000000000000000e+02 2.610000000000000000e+02 2.620000000000000000e+02 2.630000000000000000e+02 2.640000000000000000e+02 2.650000000000000000e+02 2.660000000000000000e+02 2.670000000000000000e+02 2.680000000000000000e+02 2.690000000000000000e+02 2.700000000000000000e+02 2.710000000000000000e+02 2.720000000000000000e+02 2.730000000000000000e+02 2.740000000000000000e+02 2.750000000000000000e+02 2.760000000000000000e+02 2.770000000000000000e+02 2.780000000000000000e+02 2.790000000000000000e+02 2.800000000000000000e+02 2.810000000000000000e+02 2.820000000000000000e+02 2.830000000000000000e+02 2.840000000000000000e+02 2.850000000000000000e+02 2.860000000000000000e+02 2.870000000000000000e+02 2.880000000000000000e+02 2.890000000000000000e+02 2.900000000000000000e+02 2.910000000000000000e+02 2.920000000000000000e+02 2.930000000000000000e+02 2.940000000000000000e+02 2.950000000000000000e+02 2.960000000000000000e+02 2.970000000000000000e+02 2.980000000000000000e+02 2.990000000000000000e+02 3.000000000000000000e+02 3.010000000000000000e+02 3.020000000000000000e+02 3.030000000000000000e+02 3.040000000000000000e+02 3.050000000000000000e+02 3.060000000000000000e+02 3.070000000000000000e+02 3.080000000000000000e+02 3.090000000000000000e+02 3.100000000000000000e+02 3.110000000000000000e+02 3.120000000000000000e+02 3.130000000000000000e+02 3.140000000000000000e+02 3.150000000000000000e+02 3.160000000000000000e+02 3.170000000000000000e+02 3.180000000000000000e+02 3.190000000000000000e+02 3.200000000000000000e+02 3.210000000000000000e+02 3.220000000000000000e+02 3.230000000000000000e+02 3.240000000000000000e+02 3.250000000000000000e+02 3.260000000000000000e+02 3.270000000000000000e+02 3.280000000000000000e+02 3.290000000000000000e+02 3.300000000000000000e+02 3.310000000000000000e+02 3.320000000000000000e+02 3.330000000000000000e+02 3.340000000000000000e+02 3.350000000000000000e+02 3.360000000000000000e+02 3.370000000000000000e+02 3.380000000000000000e+02 3.390000000000000000e+02 3.400000000000000000e+02 3.410000000000000000e+02 3.420000000000000000e+02 3.430000000000000000e+02 3.440000000000000000e+02 3.450000000000000000e+02 3.460000000000000000e+02 3.470000000000000000e+02 3.480000000000000000e+02 3.490000000000000000e+02 3.500000000000000000e+02 3.510000000000000000e+02 3.520000000000000000e+02 3.530000000000000000e+02 3.540000000000000000e+02 3.550000000000000000e+02 3.560000000000000000e+02 3.570000000000000000e+02 3.580000000000000000e+02 3.590000000000000000e+02 3.600000000000000000e+02 3.610000000000000000e+02 3.620000000000000000e+02 3.630000000000000000e+02 3.640000000000000000e+02 3.650000000000000000e+02 3.660000000000000000e+02 3.670000000000000000e+02 3.680000000000000000e+02 3.690000000000000000e+02 3.700000000000000000e+02 3.710000000000000000e+02 3.720000000000000000e+02 3.730000000000000000e+02 3.740000000000000000e+02 3.750000000000000000e+02 3.760000000000000000e+02 3.770000000000000000e+02 3.780000000000000000e+02 3.790000000000000000e+02 3.800000000000000000e+02 3.810000000000000000e+02 3.820000000000000000e+02 3.830000000000000000e+02 3.840000000000000000e+02 3.850000000000000000e+02 3.860000000000000000e+02 3.870000000000000000e+02 3.880000000000000000e+02 3.890000000000000000e+02 3.900000000000000000e+02 3.910000000000000000e+02 3.920000000000000000e+02 3.930000000000000000e+02 3.940000000000000000e+02 3.950000000000000000e+02 3.960000000000000000e+02 3.970000000000000000e+02 3.980000000000000000e+02 3.990000000000000000e+02 4.000000000000000000e+02 4.010000000000000000e+02 4.020000000000000000e+02 4.030000000000000000e+02 4.040000000000000000e+02 4.050000000000000000e+02 4.060000000000000000e+02 4.070000000000000000e+02 4.080000000000000000e+02 4.090000000000000000e+02 4.100000000000000000e+02 4.110000000000000000e+02 4.120000000000000000e+02 4.130000000000000000e+02 4.140000000000000000e+02 4.150000000000000000e+02 4.160000000000000000e+02 4.170000000000000000e+02 4.180000000000000000e+02 4.190000000000000000e+02 4.200000000000000000e+02 4.210000000000000000e+02 4.220000000000000000e+02 4.230000000000000000e+02 4.240000000000000000e+02 4.250000000000000000e+02 4.260000000000000000e+02 4.270000000000000000e+02 4.280000000000000000e+02 4.290000000000000000e+02 4.300000000000000000e+02 4.310000000000000000e+02 4.320000000000000000e+02 4.330000000000000000e+02 4.340000000000000000e+02 4.350000000000000000e+02 4.360000000000000000e+02 4.370000000000000000e+02 4.380000000000000000e+02 4.390000000000000000e+02 4.400000000000000000e+02 4.410000000000000000e+02 4.420000000000000000e+02 4.430000000000000000e+02 4.440000000000000000e+02 4.450000000000000000e+02 4.460000000000000000e+02 4.470000000000000000e+02 4.480000000000000000e+02 4.490000000000000000e+02 4.500000000000000000e+02 4.510000000000000000e+02 4.520000000000000000e+02 4.530000000000000000e+02 4.540000000000000000e+02 4.550000000000000000e+02 4.560000000000000000e+02 4.570000000000000000e+02 4.580000000000000000e+02 4.590000000000000000e+02 4.600000000000000000e+02 4.610000000000000000e+02 4.620000000000000000e+02 4.630000000000000000e+02 4.640000000000000000e+02 4.650000000000000000e+02 4.660000000000000000e+02 4.670000000000000000e+02 4.680000000000000000e+02 4.690000000000000000e+02 4.700000000000000000e+02 4.710000000000000000e+02 4.720000000000000000e+02 4.730000000000000000e+02 4.740000000000000000e+02 4.750000000000000000e+02 4.760000000000000000e+02 4.770000000000000000e+02 4.780000000000000000e+02 4.790000000000000000e+02 4.800000000000000000e+02 4.810000000000000000e+02 4.820000000000000000e+02 4.830000000000000000e+02 4.840000000000000000e+02 4.850000000000000000e+02 4.860000000000000000e+02 4.870000000000000000e+02 4.880000000000000000e+02 4.890000000000000000e+02 4.900000000000000000e+02 4.910000000000000000e+02 4.920000000000000000e+02 4.930000000000000000e+02 4.940000000000000000e+02 4.950000000000000000e+02 4.960000000000000000e+02 4.970000000000000000e+02 4.980000000000000000e+02 4.990000000000000000e+02 5.000000000000000000e+02 5.010000000000000000e+02 5.020000000000000000e+02 5.030000000000000000e+02 5.040000000000000000e+02 5.050000000000000000e+02 5.060000000000000000e+02 5.070000000000000000e+02 5.080000000000000000e+02 5.090000000000000000e+02 5.100000000000000000e+02 5.110000000000000000e+02 5.120000000000000000e+02 5.130000000000000000e+02 5.140000000000000000e+02 5.150000000000000000e+02 5.160000000000000000e+02 5.170000000000000000e+02 5.180000000000000000e+02 5.190000000000000000e+02 5.200000000000000000e+02 5.210000000000000000e+02 5.220000000000000000e+02 5.230000000000000000e+02 5.240000000000000000e+02 5.250000000000000000e+02 5.260000000000000000e+02 5.270000000000000000e+02 5.280000000000000000e+02 5.290000000000000000e+02 5.300000000000000000e+02 5.310000000000000000e+02 5.320000000000000000e+02 5.330000000000000000e+02 5.340000000000000000e+02 5.350000000000000000e+02 5.360000000000000000e+02 5.370000000000000000e+02 5.380000000000000000e+02 5.390000000000000000e+02 5.400000000000000000e+02 5.410000000000000000e+02 5.420000000000000000e+02 5.430000000000000000e+02 5.440000000000000000e+02 5.450000000000000000e+02 5.460000000000000000e+02 5.470000000000000000e+02 5.480000000000000000e+02 5.490000000000000000e+02 5.500000000000000000e+02 5.510000000000000000e+02 5.520000000000000000e+02 5.530000000000000000e+02 5.540000000000000000e+02 5.550000000000000000e+02 5.560000000000000000e+02 5.570000000000000000e+02 5.580000000000000000e+02 5.590000000000000000e+02 5.600000000000000000e+02 5.610000000000000000e+02 5.620000000000000000e+02 5.630000000000000000e+02 5.640000000000000000e+02 5.650000000000000000e+02 5.660000000000000000e+02 5.670000000000000000e+02 5.680000000000000000e+02 5.690000000000000000e+02 5.700000000000000000e+02 5.710000000000000000e+02 5.720000000000000000e+02 5.730000000000000000e+02 5.740000000000000000e+02 5.750000000000000000e+02 5.760000000000000000e+02 5.770000000000000000e+02 5.780000000000000000e+02 5.790000000000000000e+02 5.800000000000000000e+02 5.810000000000000000e+02 5.820000000000000000e+02 5.830000000000000000e+02 5.840000000000000000e+02 5.850000000000000000e+02 5.860000000000000000e+02 5.870000000000000000e+02 5.880000000000000000e+02 5.890000000000000000e+02 5.900000000000000000e+02 5.910000000000000000e+02 5.920000000000000000e+02 5.930000000000000000e+02 5.940000000000000000e+02 5.950000000000000000e+02 5.960000000000000000e+02 5.970000000000000000e+02 5.980000000000000000e+02 5.990000000000000000e+02 6.000000000000000000e+02 6.010000000000000000e+02 6.020000000000000000e+02 6.030000000000000000e+02 6.040000000000000000e+02 6.050000000000000000e+02 6.060000000000000000e+02 6.070000000000000000e+02 6.080000000000000000e+02 6.090000000000000000e+02 6.100000000000000000e+02 6.110000000000000000e+02 6.120000000000000000e+02 6.130000000000000000e+02 6.140000000000000000e+02 6.150000000000000000e+02 6.160000000000000000e+02 6.170000000000000000e+02 6.180000000000000000e+02 6.190000000000000000e+02 6.200000000000000000e+02 6.210000000000000000e+02 6.220000000000000000e+02 6.230000000000000000e+02 6.240000000000000000e+02 6.250000000000000000e+02 6.260000000000000000e+02 6.270000000000000000e+02 6.280000000000000000e+02 6.290000000000000000e+02 6.300000000000000000e+02 6.310000000000000000e+02 6.320000000000000000e+02 6.330000000000000000e+02 6.340000000000000000e+02 6.350000000000000000e+02 6.360000000000000000e+02 6.370000000000000000e+02 6.380000000000000000e+02 6.390000000000000000e+02 6.400000000000000000e+02 6.410000000000000000e+02 6.420000000000000000e+02 6.430000000000000000e+02 6.440000000000000000e+02 6.450000000000000000e+02 6.460000000000000000e+02 6.470000000000000000e+02 6.480000000000000000e+02 6.490000000000000000e+02 6.500000000000000000e+02 6.510000000000000000e+02 6.520000000000000000e+02 6.530000000000000000e+02 6.540000000000000000e+02 6.550000000000000000e+02 6.560000000000000000e+02 6.570000000000000000e+02 6.580000000000000000e+02 6.590000000000000000e+02 6.600000000000000000e+02 6.610000000000000000e+02 6.620000000000000000e+02 6.630000000000000000e+02 6.640000000000000000e+02 6.650000000000000000e+02 6.660000000000000000e+02 6.670000000000000000e+02 6.680000000000000000e+02 6.690000000000000000e+02 6.700000000000000000e+02 6.710000000000000000e+02 6.720000000000000000e+02 6.730000000000000000e+02 6.740000000000000000e+02 6.750000000000000000e+02 6.760000000000000000e+02 6.770000000000000000e+02 6.780000000000000000e+02 6.790000000000000000e+02 6.800000000000000000e+02 6.810000000000000000e+02 6.820000000000000000e+02 6.830000000000000000e+02 6.840000000000000000e+02 6.850000000000000000e+02 6.860000000000000000e+02 6.870000000000000000e+02 6.880000000000000000e+02 6.890000000000000000e+02 6.900000000000000000e+02 6.910000000000000000e+02 6.920000000000000000e+02 6.930000000000000000e+02 6.940000000000000000e+02 6.950000000000000000e+02 6.960000000000000000e+02 6.970000000000000000e+02 6.980000000000000000e+02 6.990000000000000000e+02 7.000000000000000000e+02 7.010000000000000000e+02 7.020000000000000000e+02 7.030000000000000000e+02 7.040000000000000000e+02 7.050000000000000000e+02 7.060000000000000000e+02 7.070000000000000000e+02 7.080000000000000000e+02 7.090000000000000000e+02 7.100000000000000000e+02 7.110000000000000000e+02 7.120000000000000000e+02 7.130000000000000000e+02 7.140000000000000000e+02 7.150000000000000000e+02 7.160000000000000000e+02 7.170000000000000000e+02 7.180000000000000000e+02 7.190000000000000000e+02 7.200000000000000000e+02 7.210000000000000000e+02 7.220000000000000000e+02 7.230000000000000000e+02 7.240000000000000000e+02 7.250000000000000000e+02 7.260000000000000000e+02 7.270000000000000000e+02 7.280000000000000000e+02 7.290000000000000000e+02 7.300000000000000000e+02 7.310000000000000000e+02 7.320000000000000000e+02 7.330000000000000000e+02 7.340000000000000000e+02 7.350000000000000000e+02 7.360000000000000000e+02 7.370000000000000000e+02 7.380000000000000000e+02 7.390000000000000000e+02 7.400000000000000000e+02 7.410000000000000000e+02 7.420000000000000000e+02 7.430000000000000000e+02 7.440000000000000000e+02 7.450000000000000000e+02 7.460000000000000000e+02 7.470000000000000000e+02 7.480000000000000000e+02 7.490000000000000000e+02 7.500000000000000000e+02 7.510000000000000000e+02 7.520000000000000000e+02 7.530000000000000000e+02 7.540000000000000000e+02 7.550000000000000000e+02 7.560000000000000000e+02 7.570000000000000000e+02 7.580000000000000000e+02 7.590000000000000000e+02 7.600000000000000000e+02 7.610000000000000000e+02 7.620000000000000000e+02 7.630000000000000000e+02 7.640000000000000000e+02 7.650000000000000000e+02 7.660000000000000000e+02 7.670000000000000000e+02 7.680000000000000000e+02 7.690000000000000000e+02 7.700000000000000000e+02 7.710000000000000000e+02 7.720000000000000000e+02 7.730000000000000000e+02 7.740000000000000000e+02 7.750000000000000000e+02 7.760000000000000000e+02 7.770000000000000000e+02 7.780000000000000000e+02 7.790000000000000000e+02 7.800000000000000000e+02 7.810000000000000000e+02 7.820000000000000000e+02 7.830000000000000000e+02 7.840000000000000000e+02 7.850000000000000000e+02 7.860000000000000000e+02 7.870000000000000000e+02 7.880000000000000000e+02 7.890000000000000000e+02 7.900000000000000000e+02 7.910000000000000000e+02 7.920000000000000000e+02 7.930000000000000000e+02 7.940000000000000000e+02 7.950000000000000000e+02 7.960000000000000000e+02 7.970000000000000000e+02 7.980000000000000000e+02 7.990000000000000000e+02 8.000000000000000000e+02 8.010000000000000000e+02 8.020000000000000000e+02 8.030000000000000000e+02 8.040000000000000000e+02 8.050000000000000000e+02 8.060000000000000000e+02 8.070000000000000000e+02 8.080000000000000000e+02 8.090000000000000000e+02 8.100000000000000000e+02 8.110000000000000000e+02 8.120000000000000000e+02 8.130000000000000000e+02 8.140000000000000000e+02 8.150000000000000000e+02 8.160000000000000000e+02 8.170000000000000000e+02 8.180000000000000000e+02 8.190000000000000000e+02 8.200000000000000000e+02 8.210000000000000000e+02 8.220000000000000000e+02 8.230000000000000000e+02 8.240000000000000000e+02 8.250000000000000000e+02 8.260000000000000000e+02 8.270000000000000000e+02 8.280000000000000000e+02 8.290000000000000000e+02 8.300000000000000000e+02 8.310000000000000000e+02 8.320000000000000000e+02 8.330000000000000000e+02 8.340000000000000000e+02 8.350000000000000000e+02 8.360000000000000000e+02 8.370000000000000000e+02 8.380000000000000000e+02 8.390000000000000000e+02 8.400000000000000000e+02 8.410000000000000000e+02 8.420000000000000000e+02 8.430000000000000000e+02 8.440000000000000000e+02 8.450000000000000000e+02 8.460000000000000000e+02 8.470000000000000000e+02 8.480000000000000000e+02 8.490000000000000000e+02 8.500000000000000000e+02 8.510000000000000000e+02 8.520000000000000000e+02 8.530000000000000000e+02 8.540000000000000000e+02 8.550000000000000000e+02 8.560000000000000000e+02 8.570000000000000000e+02 8.580000000000000000e+02 8.590000000000000000e+02 8.600000000000000000e+02 8.610000000000000000e+02 8.620000000000000000e+02 8.630000000000000000e+02 8.640000000000000000e+02 8.650000000000000000e+02 8.660000000000000000e+02 8.670000000000000000e+02 8.680000000000000000e+02 8.690000000000000000e+02 8.700000000000000000e+02 8.710000000000000000e+02 8.720000000000000000e+02 8.730000000000000000e+02 8.740000000000000000e+02 8.750000000000000000e+02 8.760000000000000000e+02 8.770000000000000000e+02 8.780000000000000000e+02 8.790000000000000000e+02 8.800000000000000000e+02 8.810000000000000000e+02 8.820000000000000000e+02 8.830000000000000000e+02 8.840000000000000000e+02 8.850000000000000000e+02 8.860000000000000000e+02 8.870000000000000000e+02 8.880000000000000000e+02 8.890000000000000000e+02 8.900000000000000000e+02 8.910000000000000000e+02 8.920000000000000000e+02 8.930000000000000000e+02 8.940000000000000000e+02 8.950000000000000000e+02 8.960000000000000000e+02 8.970000000000000000e+02 8.980000000000000000e+02 8.990000000000000000e+02 9.000000000000000000e+02 9.010000000000000000e+02 9.020000000000000000e+02 9.030000000000000000e+02 9.040000000000000000e+02 9.050000000000000000e+02 9.060000000000000000e+02 9.070000000000000000e+02 9.080000000000000000e+02 9.090000000000000000e+02 9.100000000000000000e+02 9.110000000000000000e+02 9.120000000000000000e+02 9.130000000000000000e+02 9.140000000000000000e+02 9.150000000000000000e+02 9.160000000000000000e+02 9.170000000000000000e+02 9.180000000000000000e+02 9.190000000000000000e+02 9.200000000000000000e+02 9.210000000000000000e+02 9.220000000000000000e+02 9.230000000000000000e+02 9.240000000000000000e+02 9.250000000000000000e+02 9.260000000000000000e+02 9.270000000000000000e+02 9.280000000000000000e+02 9.290000000000000000e+02 9.300000000000000000e+02 9.310000000000000000e+02 9.320000000000000000e+02 9.330000000000000000e+02 9.340000000000000000e+02 9.350000000000000000e+02 9.360000000000000000e+02 9.370000000000000000e+02 9.380000000000000000e+02 9.390000000000000000e+02 9.400000000000000000e+02 9.410000000000000000e+02 9.420000000000000000e+02 9.430000000000000000e+02 9.440000000000000000e+02 9.450000000000000000e+02 9.460000000000000000e+02 9.470000000000000000e+02 9.480000000000000000e+02 9.490000000000000000e+02 9.500000000000000000e+02 9.510000000000000000e+02 9.520000000000000000e+02 9.530000000000000000e+02 9.540000000000000000e+02 9.550000000000000000e+02 9.560000000000000000e+02 9.570000000000000000e+02 9.580000000000000000e+02 9.590000000000000000e+02 9.600000000000000000e+02 9.610000000000000000e+02 9.620000000000000000e+02 9.630000000000000000e+02 9.640000000000000000e+02 9.650000000000000000e+02 9.660000000000000000e+02 9.670000000000000000e+02 9.680000000000000000e+02 9.690000000000000000e+02 9.700000000000000000e+02 9.710000000000000000e+02 9.720000000000000000e+02 9.730000000000000000e+02 9.740000000000000000e+02 9.750000000000000000e+02 9.760000000000000000e+02 9.770000000000000000e+02 9.780000000000000000e+02 9.790000000000000000e+02 9.800000000000000000e+02 9.810000000000000000e+02 9.820000000000000000e+02 9.830000000000000000e+02 9.840000000000000000e+02 9.850000000000000000e+02 9.860000000000000000e+02 9.870000000000000000e+02 9.880000000000000000e+02 9.890000000000000000e+02 9.900000000000000000e+02 9.910000000000000000e+02 9.920000000000000000e+02 9.930000000000000000e+02 9.940000000000000000e+02 9.950000000000000000e+02 9.960000000000000000e+02 9.970000000000000000e+02 9.980000000000000000e+02 9.990000000000000000e+02
1.000000000000000000e+00 1.000000000000000000e+00 1.000000000000000000e+00 1.000000000000000000e+00 1.000000000000000000e+00 1.000000000000000000e+00 1.000000000000000000e+00 1.000000000000000000e+00 1.000000000000000000e+00 1.000000000000000000e+00 1.000000000000000000e+00 1.000000000000000000e+00 1.000000000000000000e+00 1.000000000000000000e+00 1.000000000000000000e+00 1.000000000000000000e+00 1.000000000000000000e+00 1.000000000000000000e+00 1.000000000000000000e+00 1.000000000000000000e+00 1.000000000000000000e+00 1.000000000000000000e+00 1.000000000000000000e+00 1.000000000000000000e+00 1.000000000000000000e+00 1.000000000000000000e+00 1.000000000000000000e+00 1.000000000000000000e+00 1.000000000000000000e+00 1.000000000000000000e+00 1.000000000000000000e+00 1.000000000000000000e+00 1.000000000000000000e+00 1.000000000000000000e+00 1.000000000000000000e+00 1.000000000000000000e+00 1.000000000000000000e+00 1.000000000000000000e+00 1.000000000000000000e+00 1.000000000000000000e+00 1.000000000000000000e+00 1.000000000000000000e+00 1.000000000000000000e+00 1.000000000000000000e+00 1.000000000000000000e+00 1.000000000000000000e+00 1.000000000000000000e+00 1.000000000000000000e+00 1.000000000000000000e+00 1.000000000000000000e+00 1.000000000000000000e+00 1.000000000000000000e+00 1.000000000000000000e+00 1.000000000000000000e+00 1.000000000000000000e+00 1.000000000000000000e+00 1.000000000000000000e+00 1.000000000000000000e+00 1.000000000000000000e+00 1.000000000000000000e+00 1.000000000000000000e+00 1.000000000000000000e+00 1.000000000000000000e+00 1.000000000000000000e+00 1.000000000000000000e+00 1.000000000000000000e+00 1.000000000000000000e+00 1.000000000000000000e+00 1.000000000000000000e+00 1.000000000000000000e+00 1.000000000000000000e+00 1.000000000000000000e+00 1.000000000000000000e+00 1.000000000000000000e+00 1.000000000000000000e+00 1.000000000000000000e+00 1.000000000000000000e+00 1.000000000000000000e+00 1.000000000000000000e+00 1.000000000000000000e+00 1.000000000000000000e+00 1.000000000000000000e+00 1.000000000000000000e+00 1.000000000000000000e+00 1.000000000000000000e+00 1.000000000000000000e+00 1.000000000000000000e+00 1.000000000000000000e+00 1.000000000000000000e+00 1.000000000000000000e+00 1.000000000000000000e+00 1.000000000000000000e+00 1.000000000000000000e+00 1.000000000000000000e+00 1.000000000000000000e+00 1.000000000000000000e+00 1.000000000000000000e+00 1.000000000000000000e+00 1.000000000000000000e+00 1.000000000000000000e+00 1.000000000000000000e+00 1.000000000000000000e+00 1.000000000000000000e+00 1.000000000000000000e+00 1.000000000000000000e+00 1.000000000000000000e+00 1.000000000000000000e+00 1.000000000000000000e+00 1.000000000000000000e+00 1.000000000000000000e+00 1.000000000000000000e+00 1.000000000000000000e+00 1.000000000000000000e+00 1.000000000000000000e+00 1.000000000000000000e+00 1.000000000000000000e+00 1.000000000000000000e+00 1.000000000000000000e+00 1.000000000000000000e+00 1.000000000000000000e+00 1.000000000000000000e+00 1.000000000000000000e+00 1.000000000000000000e+00 1.000000000000000000e+00 1.000000000000000000e+00 1.000000000000000000e+00 1.000000000000000000e+00 1.000000000000000000e+00 1.000000000000000000e+00 1.000000000000000000e+00 1.000000000000000000e+00 1.000000000000000000e+00 1.000000000000000000e+00 1.000000000000000000e+00 1.000000000000000000e+00 1.000000000000000000e+00 1.000000000000000000e+00 1.000000000000000000e+00 1.000000000000000000e+00 1.000000000000000000e+00 1.000000000000000000e+00 1.000000000000000000e+00 1.000000000000000000e+00 1.000000000000000000e+00 1.000000000000000000e+00 1.000000000000000000e+00 1.000000000000000000e+00 1.000000000000000000e+00 1.000000000000000000e+00 1.000000000000000000e+00 1.000000000000000000e+00 1.000000000000000000e+00 1.000000000000000000e+00 1.000000000000000000e+00 1.000000000000000000e+00 1.000000000000000000e+00 1.000000000000000000e+00 1.000000000000000000e+00 1.000000000000000000e+00 1.000000000000000000e+00 1.000000000000000000e+00 1.000000000000000000e+00 1.000000000000000000e+00 1.000000000000000000e+00 1.000000000000000000e+00 1.000000000000000000e+00 1.000000000000000000e+00 1.000000000000000000e+00 1.000000000000000000e+00 1.000000000000000000e+00 1.000000000000000000e+00 1.000000000000000000e+00 1.000000000000000000e+00 1.000000000000000000e+00 1.000000000000000000e+00 1.000000000000000000e+00 1.000000000000000000e+00 1.000000000000000000e+00 1.000000000000000000e+00 1.000000000000000000e+00 1.000000000000000000e+00 1.000000000000000000e+00 1.000000000000000000e+00 1.000000000000000000e+00 1.000000000000000000e+00 1.000000000000000000e+00 1.000000000000000000e+00 1.000000000000000000e+00 1.000000000000000000e+00 1.000000000000000000e+00 1.000000000000000000e+00 1.000000000000000000e+00 1.000000000000000000e+00 1.000000000000000000e+00 1.000000000000000000e+00 1.000000000000000000e+00 1.000000000000000000e+00 1.000000000000000000e+00 1.000000000000000000e+00 1.000000000000000000e+00 1.000000000000000000e+00 1.000000000000000000e+00 1.000000000000000000e+00 1.000000000000000000e+00 1.000000000000000000e+00 1.000000000000000000e+00 1.000000000000000000e+00 1.000000000000000000e+00 1.000000000000000000e+00 1.000000000000000000e+00 1.000000000000000000e+00 1.000000000000000000e+00 1.000000000000000000e+00 1.000000000000000000e+00 1.000000000000000000e+00 1.000000000000000000e+00 1.000000000000000000e+00 1.000000000000000000e+00 1.000000000000000000e+00 1.000000000000000000e+00 1.000000000000000000e+00 1.000000000000000000e+00 1.000000000000000000e+00 1.000000000000000000e+00 1.000000000000000000e+00 1.000000000000000000e+00 1.000000000000000000e+00 1.000000000000000000e+00 1.000000000000000000e+00 1.000000000000000000e+00 1.000000000000000000e+00 1.000000000000000000e+00 1.000000000000000000e+00 1.000000000000000000e+00 1.000000000000000000e+00 1.000000000000000000e+00 1.000000000000000000e+00 1.000000000000000000e+00 1.000000000000000000e+00 1.000000000000000000e+00 1.000000000000000000e+00 1.000000000000000000e+00 1.000000000000000000e+00 1.000000000000000000e+00 1.000000000000000000e+00 1.000000000000000000e+00 1.000000000000000000e+00 1.000000000000000000e+00 1.000000000000000000e+00 1.000000000000000000e+00 1.000000000000000000e+00 1.000000000000000000e+00 1.000000000000000000e+00 1.000000000000000000e+00 1.000000000000000000e+00 1.000000000000000000e+00 1.000000000000000000e+00 1.000000000000000000e+00 1.000000000000000000e+00 1.000000000000000000e+00 1.000000000000000000e+00 1.000000000000000000e+00 1.000000000000000000e+00 1.000000000000000000e+00 1.000000000000000000e+00 1.000000000000000000e+00 1.000000000000000000e+00 1.000000000000000000e+00 1.000000000000000000e+00 1.000000000000000000e+00 1.000000000000000000e+00 1.000000000000000000e+00 1.000000000000000000e+00 1.000000000000000000e+00 1.000000000000000000e+00 1.000000000000000000e+00 1.000000000000000000e+00 1.000000000000000000e+00 1.000000000000000000e+00 1.000000000000000000e+00 1.000000000000000000e+00 1.000000000000000000e+00 1.000000000000000000e+00 1.000000000000000000e+00 1.000000000000000000e+00 1.000000000000000000e+00 1.000000000000000000e+00 1.000000000000000000e+00 1.000000000000000000e+00 1.000000000000000000e+00 1.000000000000000000e+00 1.000000000000000000e+00 1.000000000000000000e+00 1.000000000000000000e+00 1.000000000000000000e+00 1.000000000000000000e+00 1.000000000000000000e+00 1.000000000000000000e+00 1.000000000000000000e+00 1.000000000000000000e+00 1.000000000000000000e+00 1.000000000000000000e+00 1.000000000000000000e+00 1.000000000000000000e+00 1.000000000000000000e+00 1.000000000000000000e+00 1.000000000000000000e+00 1.000000000000000000e+00 1.000000000000000000e+00 1.000000000000000000e+00 1.000000000000000000e+00 1.000000000000000000e+00 1.000000000000000000e+00 1.000000000000000000e+00 1.000000000000000000e+00 1.000000000000000000e+00 1.000000000000000000e+00 1.000000000000000000e+00 1.000000000000000000e+00 1.000000000000000000e+00 1.000000000000000000e+00 1.000000000000000000e+00 1.000000000000000000e+00 1.000000000000000000e+00 1.000000000000000000e+00 1.000000000000000000e+00 1.000000000000000000e+00 1.000000000000000000e+00 1.000000000000000000e+00 1.000000000000000000e+00 1.000000000000000000e+00 1.000000000000000000e+00 1.000000000000000000e+00 1.000000000000000000e+00 1.000000000000000000e+00 1.000000000000000000e+00 1.000000000000000000e+00 1.000000000000000000e+00 1.000000000000000000e+00 1.000000000000000000e+00 1.000000000000000000e+00 1.000000000000000000e+00 1.000000000000000000e+00 1.000000000000000000e+00 1.000000000000000000e+00 1.000000000000000000e+00 1.000000000000000000e+00 1.000000000000000000e+00 1.000000000000000000e+00 1.000000000000000000e+00 1.000000000000000000e+00 1.000000000000000000e+00 1.000000000000000000e+00 1.000000000000000000e+00 1.000000000000000000e+00 1.000000000000000000e+00 1.000000000000000000e+00 1.000000000000000000e+00 1.000000000000000000e+00 1.000000000000000000e+00 1.000000000000000000e+00 1.000000000000000000e+00 1.000000000000000000e+00 1.000000000000000000e+00 1.000000000000000000e+00 1.000000000000000000e+00 1.000000000000000000e+00 1.000000000000000000e+00 1.000000000000000000e+00 1.000000000000000000e+00 1.000000000000000000e+00 1.000000000000000000e+00 1.000000000000000000e+00 1.000000000000000000e+00 1.000000000000000000e+00 1.000000000000000000e+00 1.000000000000000000e+00 1.000000000000000000e+00 1.000000000000000000e+00 1.000000000000000000e+00 1.000000000000000000e+00 1.000000000000000000e+00 1.000000000000000000e+00 1.000000000000000000e+00 1.000000000000000000e+00 1.000000000000000000e+00 1.000000000000000000e+00 1.000000000000000000e+00 1.000000000000000000e+00 1.000000000000000000e+00 1.000000000000000000e+00 1.000000000000000000e+00 1.000000000000000000e+00 1.000000000000000000e+00 1.000000000000000000e+00 1.000000000000000000e+00 1.000000000000000000e+00 1.000000000000000000e+00 1.000000000000000000e+00 1.000000000000000000e+00 1.000000000000000000e+00 1.000000000000000000e+00 1.000000000000000000e+00 1.000000000000000000e+00 1.000000000000000000e+00 1.000000000000000000e+00 1.000000000000000000e+00 1.000000000000000000e+00 1.000000000000000000e+00 1.000000000000000000e+00 1.000000000000000000e+00 1.000000000000000000e+00 1.000000000000000000e+00 1.000000000000000000e+00 1.000000000000000000e+00 1.000000000000000000e+00 1.000000000000000000e+00 1.000000000000000000e+00 1.000000000000000000e+00 1.000000000000000000e+00 1.000000000000000000e+00 1.000000000000000000e+00 1.000000000000000000e+00 1.000000000000000000e+00 1.000000000000000000e+00 1.000000000000000000e+00 1.000000000000000000e+00 1.000000000000000000e+00 1.000000000000000000e+00 1.000000000000000000e+00 1.000000000000000000e+00 1.000000000000000000e+00 1.000000000000000000e+00 1.000000000000000000e+00 1.000000000000000000e+00 1.000000000000000000e+00 1.000000000000000000e+00 1.000000000000000000e+00 1.000000000000000000e+00 1.000000000000000000e+00 1.000000000000000000e+00 1.000000000000000000e+00 1.000000000000000000e+00 1.000000000000000000e+00 1.000000000000000000e+00 1.000000000000000000e+00 1.000000000000000000e+00 1.000000000000000000e+00 1.000000000000000000e+00 1.000000000000000000e+00 1.000000000000000000e+00 1.000000000000000000e+00 1.000000000000000000e+00 1.000000000000000000e+00 1.000000000000000000e+00 1.000000000000000000e+00 1.000000000000000000e+00 1.000000000000000000e+00 1.000000000000000000e+00 1.000000000000000000e+00 1.000000000000000000e+00 1.000000000000000000e+00 1.000000000000000000e+00 1.000000000000000000e+00 1.000000000000000000e+00 1.000000000000000000e+00 1.000000000000000000e+00 1.000000000000000000e+00 1.000000000000000000e+00 1.000000000000000000e+00 1.000000000000000000e+00 1.000000000000000000e+00 1.000000000000000000e+00 1.000000000000000000e+00 1.000000000000000000e+00 1.000000000000000000e+00 1.000000000000000000e+00 1.000000000000000000e+00 1.000000000000000000e+00 1.000000000000000000e+00 1.000000000000000000e+00 1.000000000000000000e+00 1.000000000000000000e+00 1.000000000000000000e+00 1.000000000000000000e+00 1.000000000000000000e+00 1.000000000000000000e+00 1.000000000000000000e+00 1.000000000000000000e+00 1.000000000000000000e+00 1.000000000000000000e+00 1.000000000000000000e+00 1.000000000000000000e+00 1.000000000000000000e+00 1.000000000000000000e+00 1.000000000000000000e+00 1.000000000000000000e+00 1.000000000000000000e+00 1.000000000000000000e+00 1.000000000000000000e+00 1.000000000000000000e+00 1.000000000000000000e+00 1.000000000000000000e+00 1.000000000000000000e+00 1.000000000000000000e+00 1.000000000000000000e+00 1.000000000000000000e+00 1.000000000000000000e+00 1.000000000000000000e+00 1.000000000000000000e+00 1.000000000000000000e+00 1.000000000000000000e+00 1.000000000000000000e+00 1.000000000000000000e+00 1.000000000000000000e+00 1.000000000000000000e+00 1.000000000000000000e+00 1.000000000000000000e+00 1.000000000000000000e+00 1.000000000000000000e+00 1.000000000000000000e+00 1.000000000000000000e+00 1.000000000000000000e+00 1.000000000000000000e+00 1.000000000000000000e+00 1.000000000000000000e+00 1.000000000000000000e+00 1.000000000000000000e+00 1.000000000000000000e+00 1.000000000000000000e+00 1.000000000000000000e+00 1.000000000000000000e+00 1.000000000000000000e+00 1.000000000000000000e+00 1.000000000000000000e+00 1.000000000000000000e+00 1.000000000000000000e+00 1.000000000000000000e+00 1.000000000000000000e+00 1.000000000000000000e+00 1.000000000000000000e+00 1.000000000000000000e+00 1.000000000000000000e+00 1.000000000000000000e+00 1.000000000000000000e+00 1.000000000000000000e+00 1.000000000000000000e+00 1.000000000000000000e+00 1.000000000000000000e+00 1.000000000000000000e+00 1.000000000000000000e+00 1.000000000000000000e+00 1.000000000000000000e+00 1.000000000000000000e+00 1.000000000000000000e+00 1.000000000000000000e+00 1.000000000000000000e+00 1.000000000000000000e+00 1.000000000000000000e+00 1.000000000000000000e+00 1.000000000000000000e+00 1.000000000000000000e+00 1.000000000000000000e+00 1.000000000000000000e+00 1.000000000000000000e+00 1.000000000000000000e+00 1.000000000000000000e+00 1.000000000000000000e+00 1.000000000000000000e+00 1.000000000000000000e+00 1.000000000000000000e+00 1.000000000000000000e+00 1.000000000000000000e+00 1.000000000000000000e+00 1.000000000000000000e+00 1.000000000000000000e+00 1.000000000000000000e+00 1.000000000000000000e+00 1.000000000000000000e+00 1.000000000000000000e+00 1.000000000000000000e+00 1.000000000000000000e+00 1.000000000000000000e+00 1.000000000000000000e+00 1.000000000000000000e+00 1.000000000000000000e+00 1.000000000000000000e+00 1.000000000000000000e+00 1.000000000000000000e+00 1.000000000000000000e+00 1.000000000000000000e+00 1.000000000000000000e+00 1.000000000000000000e+00 1.000000000000000000e+00 1.000000000000000000e+00 1.000000000000000000e+00 1.000000000000000000e+00 1.000000000000000000e+00 1.000000000000000000e+00 1.000000000000000000e+00 1.000000000000000000e+00 1.000000000000000000e+00 1.000000000000000000e+00 1.000000000000000000e+00 1.000000000000000000e+00 1.000000000000000000e+00 1.000000000000000000e+00 1.000000000000000000e+00 1.000000000000000000e+00 1.000000000000000000e+00 1.000000000000000000e+00 1.000000000000000000e+00 1.000000000000000000e+00 1.000000000000000000e+00 1.000000000000000000e+00 1.000000000000000000e+00 1.000000000000000000e+00 1.000000000000000000e+00 1.000000000000000000e+00 1.000000000000000000e+00 1.000000000000000000e+00 1.000000000000000000e+00 1.000000000000000000e+00 1.000000000000000000e+00 1.000000000000000000e+00 1.000000000000000000e+00 1.000000000000000000e+00 1.000000000000000000e+00 1.000000000000000000e+00 1.000000000000000000e+00 1.000000000000000000e+00 1.000000000000000000e+00 1.000000000000000000e+00 1.000000000000000000e+00 1.000000000000000000e+00 1.000000000000000000e+00 1.000000000000000000e+00 1.000000000000000000e+00 1.000000000000000000e+00 1.000000000000000000e+00 1.000000000000000000e+00 1.000000000000000000e+00 1.000000000000000000e+00 1.000000000000000000e+00 1.000000000000000000e+00 1.000000000000000000e+00 1.000000000000000000e+00 1.000000000000000000e+00 1.000000000000000000e+00 1.000000000000000000e+00 1.000000000000000000e+00 1.000000000000000000e+00 1.000000000000000000e+00 1.000000000000000000e+00 1.000000000000000000e+00 1.000000000000000000e+00 1.000000000000000000e+00 1.000000000000000000e+00 1.000000000000000000e+00 1.000000000000000000e+00 1.000000000000000000e+00 1.000000000000000000e+00 1.000000000000000000e+00 1.000000000000000000e+00 1.000000000000000000e+00 1.000000000000000000e+00 1.000000000000000000e+00 1.000000000000000000e+00 1.000000000000000000e+00 1.000000000000000000e+00 1.000000000000000000e+00 1.000000000000000000e+00 1.000000000000000000e+00 1.000000000000000000e+00 1.000000000000000000e+00 1.000000000000000000e+00 1.000000000000000000e+00 1.000000000000000000e+00 1.000000000000000000e+00 1.000000000000000000e+00 1.000000000000000000e+00 1.000000000000000000e+00 1.000000000000000000e+00 1.000000000000000000e+00 1.000000000000000000e+00 1.000000000000000000e+00 1.000000000000000000e+00 1.000000000000000000e+00 1.000000000000000000e+00 1.000000000000000000e+00 1.000000000000000000e+00 1.000000000000000000e+00 1.000000000000000000e+00 1.000000000000000000e+00 1.000000000000000000e+00 1.000000000000000000e+00 1.000000000000000000e+00 1.000000000000000000e+00 1.000000000000000000e+00 1.000000000000000000e+00 1.000000000000000000e+00 1.000000000000000000e+00 1.000000000000000000e+00 1.000000000000000000e+00 1.000000000000000000e+00 1.000000000000000000e+00 1.000000000000000000e+00 1.000000000000000000e+00 1.000000000000000000e+00 1.000000000000000000e+00 1.000000000000000000e+00 1.000000000000000000e+00 1.000000000000000000e+00 1.000000000000000000e+00 1.000000000000000000e+00 1.000000000000000000e+00 1.000000000000000000e+00 1.000000000000000000e+00 1.000000000000000000e+00 1.000000000000000000e+00 1.000000000000000000e+00 1.000000000000000000e+00 1.000000000000000000e+00 1.000000000000000000e+00 1.000000000000000000e+00 1.000000000000000000e+00 1.000000000000000000e+00 1.000000000000000000e+00 1.000000000000000000e+00 1.000000000000000000e+00 1.000000000000000000e+00 1.000000000000000000e+00 1.000000000000000000e+00 1.000000000000000000e+00 1.000000000000000000e+00 1.000000000000000000e+00 1.000000000000000000e+00 1.000000000000000000e+00 1.000000000000000000e+00 1.000000000000000000e+00 1.000000000000000000e+00 1.000000000000000000e+00 1.000000000000000000e+00 1.000000000000000000e+00 1.000000000000000000e+00 1.000000000000000000e+00 1.000000000000000000e+00 1.000000000000000000e+00 1.000000000000000000e+00 1.000000000000000000e+00 1.000000000000000000e+00 1.000000000000000000e+00 1.000000000000000000e+00 1.000000000000000000e+00 1.000000000000000000e+00 1.000000000000000000e+00 1.000000000000000000e+00 1.000000000000000000e+00 1.000000000000000000e+00 1.000000000000000000e+00 1.000000000000000000e+00 1.000000000000000000e+00 1.000000000000000000e+00 1.000000000000000000e+00 1.000000000000000000e+00 1.000000000000000000e+00 1.000000000000000000e+00 1.000000000000000000e+00 1.000000000000000000e+00 1.000000000000000000e+00 1.000000000000000000e+00 1.000000000000000000e+00 1.000000000000000000e+00 1.000000000000000000e+00 1.000000000000000000e+00 1.000000000000000000e+00 1.000000000000000000e+00 1.000000000000000000e+00 1.000000000000000000e+00 1.000000000000000000e+00 1.000000000000000000e+00 1.000000000000000000e+00 1.000000000000000000e+00 1.000000000000000000e+00 1.000000000000000000e+00 1.000000000000000000e+00 1.000000000000000000e+00 1.000000000000000000e+00 1.000000000000000000e+00 1.000000000000000000e+00 1.000000000000000000e+00 1.000000000000000000e+00 1.000000000000000000e+00 1.000000000000000000e+00 1.000000000000000000e+00 1.000000000000000000e+00 1.000000000000000000e+00 1.000000000000000000e+00 1.000000000000000000e+00 1.000000000000000000e+00 1.000000000000000000e+00 1.000000000000000000e+00 1.000000000000000000e+00 1.000000000000000000e+00 1.000000000000000000e+00 1.000000000000000000e+00 1.000000000000000000e+00 1.000000000000000000e+00 1.000000000000000000e+00 1.000000000000000000e+00 1.000000000000000000e+00 1.000000000000000000e+00 1.000000000000000000e+00 1.000000000000000000e+00 1.000000000000000000e+00 1.000000000000000000e+00 1.000000000000000000e+00 1.000000000000000000e+00 1.000000000000000000e+00 1.000000000000000000e+00 1.000000000000000000e+00 1.000000000000000000e+00 1.000000000000000000e+00 1.000000000000000000e+00 1.000000000000000000e+00 1.000000000000000000e+00 1.000000000000000000e+00 1.000000000000000000e+00 1.000000000000000000e+00 1.000000000000000000e+00 1.000000000000000000e+00 1.000000000000000000e+00 1.000000000000000000e+00 1.000000000000000000e+00 1.000000000000000000e+00 1.000000000000000000e+00 1.000000000000000000e+00 1.000000000000000000e+00 1.000000000000000000e+00 1.000000000000000000e+00 1.000000000000000000e+00 1.000000000000000000e+00 1.000000000000000000e+00 1.000000000000000000e+00 1.000000000000000000e+00 1.000000000000000000e+00 1.000000000000000000e+00 1.000000000000000000e+00 1.000000000000000000e+00 1.000000000000000000e+00 1.000000000000000000e+00 1.000000000000000000e+00 1.000000000000000000e+00 1.000000000000000000e+00 1.000000000000000000e+00 1.000000000000000000e+00 1.000000000000000000e+00 1.000000000000000000e+00 1.000000000000000000e+00 1.000000000000000000e+00 1.000000000000000000e+00 1.000000000000000000e+00 1.000000000000000000e+00 1.000000000000000000e+00 1.000000000000000000e+00 1.000000000000000000e+00 1.000000000000000000e+00 1.000000000000000000e+00 1.000000000000000000e+00 1.000000000000000000e+00 1.000000000000000000e+00 1.000000000000000000e+00 1.000000000000000000e+00 1.000000000000000000e+00 1.000000000000000000e+00 1.000000000000000000e+00 1.000000000000000000e+00 1.000000000000000000e+00 1.000000000000000000e+00 1.000000000000000000e+00 1.000000000000000000e+00 1.000000000000000000e+00 1.000000000000000000e+00 1.000000000000000000e+00 1.000000000000000000e+00 1.000000000000000000e+00 1.000000000000000000e+00 1.000000000000000000e+00 1.000000000000000000e+00 1.000000000000000000e+00 1.000000000000000000e+00 1.000000000000000000e+00 1.000000000000000000e+00 1.000000000000000000e+00 1.000000000000000000e+00 1.000000000000000000e+00 1.000000000000000000e+00 1.000000000000000000e+00 1.000000000000000000e+00 1.000000000000000000e+00 1.000000000000000000e+00 1.000000000000000000e+00 1.000000000000000000e+00 1.000000000000000000e+00 1.000000000000000000e+00 1.000000000000000000e+00 1.000000000000000000e+00 1.000000000000000000e+00 1.000000000000000000e+00 1.000000000000000000e+00 1.000000000000000000e+00 1.000000000000000000e+00 1.000000000000000000e+00 1.000000000000000000e+00 1.000000000000000000e+00 1.000000000000000000e+00 1.000000000000000000e+00 1.000000000000000000e+00 1.000000000000000000e+00 1.000000000000000000e+00 1.000000000000000000e+00 1.000000000000000000e+00 1.000000000000000000e+00 1.000000000000000000e+00 1.000000000000000000e+00 1.000000000000000000e+00 1.000000000000000000e+00 1.000000000000000000e+00 1.000000000000000000e+00 1.000000000000000000e+00 1.000000000000000000e+00 1.000000000000000000e+00 1.000000000000000000e+00 1.000000000000000000e+00 1.000000000000000000e+00 1.000000000000000000e+00 1.000000000000000000e+00 1.000000000000000000e+00 1.000000000000000000e+00 1.000000000000000000e+00 1.000000000000000000e+00 1.000000000000000000e+00 1.000000000000000000e+00 1.000000000000000000e+00 1.000000000000000000e+00 1.000000000000000000e+00 1.000000000000000000e+00 1.000000000000000000e+00 1.000000000000000000e+00 1.000000000000000000e+00 1.000000000000000000e+00 1.000000000000000000e+00 1.000000000000000000e+00 1.000000000000000000e+00 1.000000000000000000e+00 1.000000000000000000e+00 1.000000000000000000e+00 1.000000000000000000e+00 1.000000000000000000e+00 1.000000000000000000e+00 1.000000000000000000e+00 1.000000000000000000e+00 1.000000000000000000e+00 1.000000000000000000e+00 1.000000000000000000e+00 1.000000000000000000e+00 1.000000000000000000e+00 1.000000000000000000e+00 1.000000000000000000e+00 1.000000000000000000e+00 1.000000000000000000e+00 1.000000000000000000e+00 1.000000000000000000e+00 1.000000000000000000e+00 1.000000000000000000e+00 1.000000000000000000e+00 1.000000000000000000e+00 1.000000000000000000e+00 1.000000000000000000e+00 1.000000000000000000e+00 1.000000000000000000e+00 1.000000000000000000e+00 1.000000000000000000e+00 1.000000000000000000e+00 1.000000000000000000e+00 1.000000000000000000e+00 1.000000000000000000e+00 1.000000000000000000e+00 1.000000000000000000e+00 1.000000000000000000e+00 1.000000000000000000e+00 1.000000000000000000e+00 1.000000000000000000e+00 1.000000000000000000e+00 1.000000000000000000e+00 1.000000000000000000e+00 1.000000000000000000e+00 1.000000000000000000e+00 1.000000000000000000e+00 1.000000000000000000e+00
-1.407036857576398139e-02 5.051701301370153940e-01 6.224948624388846330e-01 4.632836085768388124e-01 5.127592759983126136e-01 4.892315624122041684e-01 7.588727837552129429e-01 2.068291420940590319e-01 5.836732838714665528e-01 5.186258225531195087e-01 1.032352087358151316e+00 -4.082626459364214200e-01 1.233871813972958309e+00 5.179762673706643783e-01 5.241047208871031371e-01 7.188812046010415457e-01 1.005280173568498192e+00 7.187027077673890929e-01 1.799801375441635043e-01 5.208723602560076937e-01 3.750671102204289342e-01 8.988547243613268511e-01 4.581330586516627057e-01 4.894019058272246481e-01 6.360061145204463084e-01 7.723258650711538609e-01 4.198537331196295908e-01 6.566758499375673352e-01 5.158702590194901294e-01 1.124567168421278573e+00 4.444823646898425351e-01 3.069638067679339999e-01 7.966740821884028545e-01 5.011313759397321155e-01 7.565379224756144660e-01 4.966444601432196682e-01 5.084989951529750307e-01 1.198011883663224308e+00 6.602465436572620139e-02 5.229125561842626890e-01 2.718892912286818841e-01 -4.640592620848534300e-01 7.556759566174148235e-01 1.940347326790600735e-01 2.353179474082645606e-01 5.225167026002968118e-01 4.627957959472508431e-01 5.060295535854302251e-01 5.274142304252941171e-01 -3.315675789669909456e-03 1.555562550421267856e-02 4.322296641018137375e-01 5.665977878604391282e-01 5.796951873598038540e-01 5.134359772280944201e-01 -1.909509903862857683e-02 5.567216068498487269e-01 4.468402702716884889e-01 1.553347952902846274e-01 5.267822498930586628e-01 8.086364569139022906e-01 5.062063173606925481e-01 4.480973847196586535e-01 4.581319813354605697e-01 6.468780491417642775e-01 6.060354356837098777e-01 5.125647446234015137e-01 7.008393480906034423e-01 5.472881720327019694e-01 -1.853209877472863226e-02 5.476311550503679682e-01 5.851105489983395858e-01 4.914074473934694209e-01 1.833761180043104455e-02 1.341155259243721254e+00 6.149734214153127487e-01 6.044899577575653105e-01 7.888742322275411611e-01 5.038223503375619527e-01 1.313981985503917205e+00 4.905142361418486363e-01 1.553267058986380345e-01 1.022475180034042364e+00 5.259793909861046890e-01 4.057245923351286976e-01 7.470366155922304463e-01 8.463290703270964777e-01 4.944818874642133433e-01 3.275169915676434118e-01 5.685312239524181743e-01 2.297477957105353852e-01 1.699212201862599247e+00 4.610689865086884387e-01 -1.223506407492400139e-02 3.641016185065577559e-01 5.574167410556508662e-01 4.885668270815939351e-01 4.658896525289705770e-01 2.108308028363794495e-01 7.803215204204334565e-01 1.178692781044485161e+00 5.791617404503386357e-01 5.121516354557148487e-01 1.076434303936840697e+00 2.344675591548585070e-01 -1.421792114817289843e+00 -9.397976398827099231e-01 5.622124640416750196e-01 5.299781527346221210e-01 9.482563347946092458e-01 5.371403126626694835e-01 5.163538962113702890e-01 6.925790188968701244e-01 5.090003666444747887e-01 4.701912199456639296e-01 6.802677028662791336e-01 3.703672879997529366e-01 5.994628638357142325e-01 5.039957620990064280e-01 5.407724114825015471e-01 1.168656374197114545e+00 3.486318333332557029e-01 4.662358702541296585e-01 5.368547067790585547e-01 5.002090185437879644e-01 1.683131302278725983e+00 5.174769850055886966e-01 5.281612852801224056e-01 5.924451532904987383e-01 4.994622661457606694e-01 5.219825892857925531e-01 4.943216854582290765e-01 4.120978362700732367e-01 1.195759953103864848e-01 5.135790759934828476e-01 -6.690472854879263298e-02 6.658776915722268708e-01 3.342952601283601805e-02 9.086399142972659826e-01 5.184340934926419120e-01 5.058004394584407759e-01 7.499397736008142079e-01 5.871154987170811301e-01 4.926351335574760126e-01 5.076881055917893404e-01 2.586792317615970241e-02 4.836299836399738372e-01 5.203996447621761501e-01 5.422506173325420953e-01 -5.810088145580922792e-01 7.313140159386755101e-01 -2.075184516185084871e-01 5.225701514167059303e-01 4.975370417449405669e-01 8.107574939191356522e-01 5.193912771057078714e-01 1.160096413114305225e+00 4.379767059921728101e-01 8.150859634116093266e-01 7.800229064666933665e-01 4.853245120759345776e-01 4.702768134341606121e-01 4.940414371142901051e-01 5.103306150655371187e-01 1.141417971501134776e+00 -9.767167993385399150e-02 7.605385701694474809e-01 5.626152499754721870e-01 4.746828950951516024e-01 4.613749928952478596e-01 4.650249307185853609e-01 4.627128567313516516e-01 5.224352173255861764e-01 5.123374246330882897e-01 4.226070751815358961e-01 7.675874800590296032e-02 1.337677493421782215e-01 3.638838350015822370e-02 6.464475941257223912e-01 1.086653076370684978e+00 5.949910056865798103e-01 5.264713698504712713e-01 -2.366374012956329320e-01 3.864452371614656156e-01 6.089283877064534112e-01 4.276401622112809275e-01 5.240903824807872091e-01 5.098658637263341342e-01 2.104797562168547742e+00 8.332718835201993191e-01 5.946113718750283272e-01 -5.206137418112275483e-01 5.112595716121882683e-01 5.397783021471131981e-01 1.169131532622866426e-01 4.942143705071382342e-01 8.310528864171957686e-01 5.157523629888688399e-01 5.805210627648096366e-01 4.714821404701108332e-01 4.391952025961126105e-01 5.109991602846845060e-01 1.070710516524806977e+00 5.774631729857018225e-01 5.420815315787855804e-01 5.805211625552182397e-01 5.301750050370667156e-01 1.165230603119081110e+00 5.272536176682045550e-01 5.884581499901373469e-01 3.912400197223376286e-01 6.299055576636941600e-02 4.980530716515719214e-01 2.794521630265797141e-01 5.082770924363725351e-01 4.908323484202141707e-01 5.448539315172895581e-01 5.297177303947988580e-01 5.385061486513103013e-01 5.173000915493657370e-01 4.927322590081700815e-01 4.268079462466475849e-01 -5.083311245158581571e-01 4.705704491137784329e-01 3.423208127676543588e-01 5.613959586421213288e-01 5.362559905785537762e-01 9.159973914216726909e-01 8.424873744985621471e-01 7.718478920053100101e-01 -1.117263079980888724e-01 9.458176649444630657e-01 5.055075554854234765e-01 6.721903230082537650e-01 -3.802255112955731792e-02 4.762128452643096810e-01 4.559264165648511113e-01 3.550254594611846892e-01 -5.292873823284614115e-02 -1.903080720722706842e-01 3.571977854788043749e-01 5.124297846475476259e-01 3.044559947001842896e-03 5.231526372637252953e-01 4.984480839158557663e-01 9.971434785949293556e-01 -1.206342890350154406e-01 5.409589405449274357e-01 -1.442381232329119856e+00 5.558721567151866383e-01 5.564717976768038254e-02 5.085087711299927093e-01 5.440569004796738106e-01 4.581299696676215394e-01 4.629079541952814680e-01 4.998635021559383329e-01 5.603787730521915256e-01 5.296088502062585857e-01 6.257117003813617018e-01 1.541375391456819344e+00 4.911675166510079404e-01 5.189004950019295848e-01 5.649446113833849203e-01 7.960495707950070443e-01 8.069173047890572104e-01 4.850010378083442486e-01 2.095072689315030878e+00 5.295927581249924021e-01 3.406207790826193404e-01 7.248355924303638842e-01 5.000821493085213509e-01 8.051119125608220406e-01 5.143694004866983249e-01 5.003668059694610371e-01 5.112717306771947801e-01 5.873146762493443029e-01 2.514332576728293134e-01 8.877368830940630673e-01 8.517590082667920726e-01 -6.434775094463530964e-02 6.263340057390265336e-01 5.213184212371417825e-01 5.263526753051641638e-01 -4.696245167213493610e-01 3.521333721559185559e-01 8.685387158816760822e-01 5.589952964756871312e-01 4.998041376623712506e-01 6.802676401584236698e-01 6.294519051474000149e-01 4.946652459603706475e-01 -3.024604868180450629e-02 4.593546884969129662e-01 5.235456583648433471e-01 4.492628352544039694e-02 5.055265513411882905e-01 1.707806385213301859e+00 7.164078360805276047e-01 5.065345708542966507e-01 5.423713636520073322e-01 -2.582150189914172334e+00 4.553856391747351240e-01 1.624927518507603974e+00 4.632505880519897090e-01 4.935425643680768082e-01 -5.800082241103065028e-01 5.099878770727682697e-01 5.149208453114917372e-01 7.701220921818400234e-01 5.010956449826989845e-01 6.526962610317789126e-01 5.727605935636478351e-01 3.252496756747179085e-01 5.367719577540288611e-01 5.276865912059749419e-01 5.338458090809211631e-01 5.188310719130924120e-01 4.621357382875418418e-01 5.095342623630612078e-01 1.068585269947740057e+00 4.207843744616642824e-03 2.000061127799503957e+00 2.195793881751678889e+00 4.417396087096095991e-01 -1.367545843562865786e-02 5.389684229138965721e-01 5.066954381144012087e-01 5.961154879395477169e-01 1.188918561855599743e+00 5.630049523335376449e-01 1.026331041939595456e+00 5.148699760633320688e-01 2.574929215610193278e-01 1.186733181644866741e+00 5.657091627919916821e-01 4.634725847224055451e-01 5.143526852013956541e-01 4.283770241088123432e-01 -2.553706950679751841e+00 1.385947580711716975e+00 4.941977765237107190e-01 6.540262831449484837e-01 5.518370963078119695e-01 1.198011877805564618e+00 3.901185729423930493e-01 5.620764133952776964e-01 2.530439833064774269e-01 4.645388282221983856e-01 1.388881976843360677e+00 4.933339675071780617e-01 5.805210124099582369e-01 5.231592986868409678e-01 5.774631682595647852e-01 5.652215116331115174e-01 4.754015933935912819e-01 7.708304930808480560e-01 5.039536377828721658e-01 4.567076009766731226e-01 4.726373612612796427e-01 4.571848344288789723e-01 5.109383859223488589e-01 4.117139942084481197e-01 5.620765996335506109e-01 4.594820360432237405e-01 5.092536696297571552e-01 4.039487517125577853e-01 1.089041191826489063e+00 9.276354820346760510e-01 5.215287316753394187e-01 6.169538843103903325e-01 8.098990646624143475e-01 -7.976435331156223052e-02 8.758055093308407812e-01 5.428993797553823830e-01 7.372920348737786733e-03 5.749423126203490053e-01 1.135975294021623450e+00 5.286096549422577562e-01 4.803515017149723176e-01 2.364663274629375533e-01 -2.601364185955540309e-01 -1.895135551392397533e+00 4.244351556724126895e-01 5.774631729862552687e-01 5.774631729857038209e-01 4.914310263319691119e-01 4.698782951517075923e-01 -4.345403557871854033e-02 4.949173854260107697e-01 5.147814531811231165e-01 1.543246243120519334e-01 5.062416820363977443e-01 1.154424726250576461e+00 5.805211986297809101e-01 5.205561550077242305e-01 4.945577741559297746e-01 5.957616562955275752e-01 5.613714312884313662e-01 5.120683612104739435e-01 4.786151841633000670e-01 6.059033564593039323e-01 3.549324394768996749e-01 3.738406586945200449e-02 5.774631727252274027e-01 5.938880016360289504e-01 5.135184308154880917e-01 8.154698362778263210e-01 7.940211245660020456e-01 5.245277473787115508e-01 5.545150504788904922e-01 1.281667434048260779e+00 4.657434029466946956e-01 -1.923121188762977329e+00 4.621393719365605723e-01 1.302861430373727147e+00 4.851531645732158338e-01 -6.626653642254664023e-01 4.771507831069691785e-01 3.446264748615764928e-01 5.584687565355714867e-01 5.170919877881793303e-01 6.270540519155305415e-01 4.937596244986814931e-01 9.960597935710003847e-01 4.501876078028403949e-01 1.275449057034884204e-01 5.210174819448259997e-01 5.015392704685049940e-01 7.182445041680383113e-01 5.143543505651366754e-01 7.985451828634373417e-01 -1.886492448927292453e-01 5.090777345111374697e-01 5.110382299858374777e-01 3.637552652138337783e-01 5.114567979059728708e-01 7.326065351205258702e-01 5.112575659597987654e-01 4.705928877990401271e-01 9.237898596769446025e-01 4.917631870921871373e-01 3.772985978925517681e-01 9.295989235296379938e-02 1.270834182444554317e-01 8.592650816129919766e-01 4.959874300275554648e-01 2.645152538319286872e+00 6.217544464237656499e-01 4.025272592172387531e-01 5.932148592678803123e-01 7.856372470085769555e-01 3.345351767980701829e-02 5.035947854724501793e-01 5.183540715451342429e-01 5.680674070678624066e-01 1.120322209679060821e+00 7.332446707291169208e-01 5.062177694681329054e-01 4.244552313728547910e-01 1.001353676009552718e+00 4.866007880044292966e-01 4.925082259435353271e-01 5.239137340722515024e-01 5.660491791835245978e-01 5.231981532936523793e-01 7.723859196234377222e-01 5.000399795328813735e-01 5.102815231837363186e-01 1.200216936527756170e-02 5.244837545795475453e-01 2.581727949799755145e-02 5.325049766929130790e-01 5.034818681360596626e-01 5.270796376381798876e-01 7.009647670418143184e-01 4.940449327836942683e-01 5.844582481452750278e-01 3.289072819925648039e-02 4.640122690846796849e-01 5.118112022329641686e-01 3.753704565426939643e-01 2.359474379422459890e-03 5.039436577719023092e-01 6.873825888361310144e-01 5.137430445616131269e-01 6.035856194887390114e-01 9.827567887080747022e-01 3.903559111226301281e-01 5.111225461581879737e-01 5.674381781332298313e-01 4.178943368449236084e-01 4.849811778483699154e-01 9.000567343433243384e-01 3.615720862389127932e-01 6.990637989817782838e-01 5.970407093642488006e-01 1.658927986018018164e+00 4.739287328693300161e-01 5.908875321932505198e-01 5.079716437237236093e-01 4.588050771837303698e-01 5.492479414779742886e-01 5.249494036732481606e-01 -4.280609207562266483e-01 6.704879863399259010e-01 6.294865908140384603e-01 5.452127312340395715e-01 4.175376949001127214e-01 -3.322709562629150293e-01 4.158271130489105127e-01 5.050605559611572870e-01 5.055519390599640950e-01 6.131127085931931120e-01 5.049332536175050734e-01 5.072472226676402185e-01 4.852669595035944416e-01 -3.579346917941831907e-01 5.973054864725806379e-01 9.622469487493109375e-01 5.655967044132627075e-01 1.109918380122265485e-01 5.818692216888015079e-01 -2.223196597823209886e-01 4.930341723477946747e-01 6.954674372537312799e-01 9.957736967053922861e-01 8.341544738343186216e-01 5.396175922364163657e-01 4.949110865644704704e-01 1.572092289592754988e-01 4.628638919106400906e-01 3.838872301517404773e-01 6.473338997809118256e-01 2.485884885052151716e-02 6.255362014256703462e-01 5.630195930789929637e-01 5.717895391996344889e-01 4.723921296598908026e-01 5.128656063920739028e-01 5.416350527668819526e-01 -1.253203854776290815e-01 -1.291399360564357279e-01 4.943229382124137983e-01 5.095616126403719193e-01 6.054491167010178643e-01 5.472619951509906100e-01 -5.564766826638175568e-01 2.597896247910637779e+00 2.317046948029310993e-01 4.150690789952956594e-01 9.418179505583958999e-01 5.081530954429914759e-01 5.286275540132893136e-01 4.901953121694476723e-01 4.947564353536224036e-01 4.339112594480736274e-01 5.086499236825148262e-01 6.238425533799772937e-01 4.564879180399423197e-01 5.029182135659560071e-01 5.054695231469175098e-01 4.126522279510449476e-01 5.757627707493256919e-01 4.907113209060435244e-01 4.997820427315226022e-01 8.421730326634128128e-01 1.987932074313587538e+00 3.714056631241853257e-01 4.817883961649420677e-01 5.678533147277742277e-01 4.536425385855238357e-01 5.492271661425252027e-01 5.076829761535412988e-01 5.204485640493314857e-01 2.896919614877196403e-01 5.566245703375404252e-01 4.817971615409085695e-01 4.626063752134245144e-01 5.120662107237022864e-01 3.822402559898132046e-01 9.445425521799877266e-01 8.922027702710393360e-01 2.263867109578390213e-01 8.076308788051503873e-01 5.018266563992521689e-01 4.966569325581908778e-01 1.802845234430397126e+00 2.280162449091118482e-01 4.981176823912793483e-01 5.256939353771129531e-01 3.867570520213608337e-02 5.108143737201118473e-01 1.302140932953963715e+00 5.241511126964115697e-01 9.451210238791275531e-01 5.003269670312244788e-01 4.965955961570096555e-01 5.361778427310280870e-01 4.613151992295143611e-01 4.910868188906502563e-01 5.153513428577505273e-01 5.668858413765356374e-01 3.224511760008319516e-01 -2.347075028484196246e-01 4.932326425710890083e-01 5.298838855847848306e-01 4.955177434997650732e-01 5.424341608838618711e-01 8.076341747524087289e-01 5.772005477099056980e-01 5.881828748204871449e-01 9.791817103503633879e-01 -2.879924901384562919e-01 5.210128296507602341e-01 8.634382182573674402e-01 1.024473381983606712e+00 5.233418846196493668e-01 5.080993369997628406e-01 5.827627148694081854e-02 -1.229852825306229525e+00 3.578397933205310077e-01 5.057799427925112612e-01 5.348988378228006768e-01 5.157755565787548457e-01 5.478279843210314137e-01 5.264002746956225609e-01 -1.982059168328674237e-01 7.702598031434276793e-01 6.802675093702307274e-01 6.894473778863798863e-01 4.985512196804068874e-01 -1.241871204242944310e-01 -1.854565214495920711e-01 1.335716358345644617e+00 4.541889168447518776e-01 4.644478728651794674e-01 5.170700132771303137e-01 3.913093948140458633e-01 5.888247535763750928e-01 6.440393322837547618e-01 6.720026453684903034e-01 5.370018608202065113e-01 5.312645858398183929e-01 5.416391968192252326e-01 4.844280250764759210e-01 4.959498377768621347e-01 4.569936171889569798e-01 5.070740182050984535e-01 4.948289598041709647e-01 9.199731539967286320e-01 4.214878858190402866e-01 4.986902433313756822e-01 5.047189241435592333e-01 5.228682218996135722e-01 4.219431401937566717e-01 4.745098678070241993e-03 5.620764154564628079e-01 6.974953450911193231e-01 4.784079111076745550e-01 5.757380137584439117e-01 1.203066718052739015e+00 5.249654657100908395e-01 -8.130240349264168664e-02 5.001401426474776368e-01 5.464498004817801569e-01 5.275620768661393178e-01 6.107917618317290076e-01 4.346292240804763285e-01 4.750067255453814807e-01 5.033027559119426231e-01 7.140981251107325622e-01 -5.347757524083001091e-01 1.749141112557468958e+00 4.370494165716592994e-01 7.994123301803269799e-01 5.916702344065150054e-01 4.458689660871358873e-01 2.876521071344347869e-01 1.530020288882826263e-01 5.030044241264579608e-01 4.975582061652016885e-01 2.814038631794236328e-02 5.009949769831708588e-01 5.672423339232248729e-01 4.990116006987398434e-01 1.051265602204596972e+00 5.200466111758778043e-01 3.785784306382157793e-01 2.457001053128119172e-01 5.362520487240806100e-01 1.627781651254105733e-01 5.144452482744285016e-01 6.323058325851557138e-01 4.835834194236104389e-01 -4.371618997954316299e-01 4.584481409987761213e-01 5.992698340730299167e-01 4.780751297343897588e-01 4.619302260427990414e-01 8.044146384904665714e-01 7.572635659382476181e-01 -3.967247208781665702e-01 1.022480725690211534e+00 1.198011882425242591e+00 5.988653501915736088e-01 4.645611869819946116e-01 9.667113274015239899e-01 4.931149922677770525e-01 4.624923579649506955e-01 5.227545724396929216e-01 1.261840674262860063e+00 5.078832255183690636e-01 5.231554104935650651e-01 1.171402839119635608e+00 -4.124022467645941520e-02 7.114511807412843281e-01 -7.982664816068371638e-02 -6.635612901781325901e-01 -1.859666826113391680e-01 7.034089602004003350e-01 4.938125057883518965e-01 4.463392974925249890e-01 -3.394014604335828245e-01 5.292698064495132693e-01 -1.079816293378666262e-02 9.369137622167941770e-02 5.398779557252386674e-01 5.077315242886808466e-01 5.143107756414341258e-01 5.100223210046516131e-01 5.241011231168455353e-01 8.126034786092489748e-01 -5.442440011529132982e-02 5.117970499143361662e-01 4.784054691962659756e-01 6.320370788759310798e-01 1.064090305222872734e+00 3.356332228449049881e-01 6.189777090102939194e-01 4.991225020839315518e-01 5.752305012619305519e-02 6.284830889629745565e-01 4.970309214724671909e-01 4.929463634610934397e-01 5.315425271089386783e-01 4.978342244293088026e-01 5.698922265776041884e-01 5.119768327756900606e-01 5.199006141870643471e-01 2.601680512657943978e-01 2.992540505772498527e-01 8.009623792243364404e-01 2.109859525497186361e+00 -1.492729592667727812e-01 6.466736123231842104e-01 4.985620140852515814e-01 5.510531440613285481e-01 7.366027502705181362e-01 1.052840304437568791e-01 -9.314662482553257572e-01 5.137894943307089735e-01 2.171520188492353842e+00 5.072495758472734817e-01 1.517980217901231388e-01 3.134646332792830892e-01 6.802677051588886803e-01 6.538943030504755782e-01 1.260822145748645484e+00 4.857241263693583555e-01 9.706777731583407509e-02 6.610235634273468053e-01 1.219311944897015998e+00 4.698255952279147829e-01 5.366142059571032963e-01 5.237773592005415813e-01 8.179717073376945313e-01 6.122977542931766770e-01 4.544875023979263462e-01 -2.188758029133522354e-02 5.199495725753127129e-01 5.226037523770009630e-01 -4.317404812954255822e-01 5.596502464194288429e-01 1.064347589673395822e+00 2.355810641685986973e-01 3.008151487776002386e-01 7.912416607282428682e-01 5.007025096165060862e-01 1.786323567962417869e+00 5.245749518444448034e-01 2.873225514792364377e-02 6.579972130258827656e-01 5.169269481826284096e-01 7.434709176191757196e-01 4.937407668854814635e-01 7.166886940317046539e-02 5.086217568403725853e-01 -7.712934022023396063e-02 5.158572829802383630e-01 4.829198692083989664e-01 -3.379622470616152480e-02 -1.097176354514371177e-01 5.942551389751867807e-01 6.113807152630694741e-01 5.174639233220961199e-01 5.239034541064390149e-01 6.152782326088519493e-01 4.913323424505149362e-01 4.612514029821772055e-01 6.393265111556197811e-01 4.740949987007125332e-01 7.341870503439393847e-01 9.670813548850595298e-01 2.608114059670844309e+00 3.327315741692254414e-01 4.973847112742096344e-01 5.135275329156298030e-01 1.650198161362444460e-01 5.100011261010292118e-01 5.987557153257855314e-01 4.978616385169024050e-01 1.287657255856851757e+00 4.308972954189992932e-01 -4.086553359899123272e-01 5.160020364423627964e-02 4.790189913789952292e-01 5.866193836312527665e-01 5.190110539507792886e-01 4.983064341864024693e-01 2.688205084509490833e-02 5.164280102233244074e-01 3.824550669898074129e-01 -2.134942983080385215e+00 4.402501485742971732e-01 4.932141307152972942e-01 1.002309354170543010e+00 4.610255846527178680e-01 4.700298535496167385e-01 7.756991134990176562e-01 -5.991023658178966649e-01 -4.786693517405440912e-01 2.911239787511118657e-02 4.795168020093915628e-01 5.081417297077274187e-01 8.557640715950705079e-01 5.150264421480068577e-01 -2.078178822898714140e-01 8.897770990315349016e-01 4.792826069511291753e-01 6.677421712717194202e-01 5.184278283320180591e-01 4.463022309472582938e-01 2.661316481043746185e-01 -4.529445667612531090e-01 3.255075222498534648e-01 5.151540803287389947e-01 2.357636163989391409e-01 5.239836163500587451e-01 4.378909270796641495e-01 5.154058230684411823e-01 5.081142611045454949e-01 5.062336005632279701e-01 4.643964068219035846e-01 5.543153149661798063e-01 1.198011968460455545e+00 4.960131739170079435e-01 5.293981647004682989e-01 5.234385746209174045e-02 4.926536709819070436e-01 5.429930247543344191e-01 4.929577365890120966e-01 5.037802677447130728e-01 5.617848862675820509e-01 6.979892368758339183e-01 4.342143598401453919e-01 5.524341362728318883e-01 5.009278084655620633e-01 5.521864576926774903e-01 4.986158960189929767e-01 4.924354184543970336e-01 4.968388043810626487e-01 1.022486291614530307e+00 5.441931100672166011e-01 -3.360438756011389638e-01 3.598297752503233360e-01 8.645389114656395479e-01 4.890895238898816944e-01 1.780727171246330176e-01 5.008193954009130255e-01 2.084728901533363377e-01 -4.178824371676421318e-02 7.705090380353135648e-01 3.437281795430821019e-01 5.398314978613805160e-01 4.789012850780248187e-01 5.157984099847923165e-01 3.700437994670258135e-01 1.271347679658977770e+00 5.771452239744395696e-01 5.247641387217857334e-01 -7.514524910298907290e-02 4.118631611008803928e-01 1.054221416378320564e+00 4.055100001292971656e-01 6.068619984819110247e-01 4.078756781423715227e-01 -2.078639543051058192e-01 5.115393089488771139e-01 1.192361439496068876e+00 -7.259101685887101585e-01 4.962498337106613366e-01 5.092447625830153202e-01 -2.098883144402205470e-01 4.872992019232111893e-01 4.423626769038030981e-01 4.469934019640949829e-01 5.044968848160249486e-01 6.307672570325500994e-01 2.924605150339626425e-01 5.474715876908075041e-01 4.966325464293153691e-01 5.139417780321313689e-01 4.753217663748876554e-02 8.801324236699258341e-01 5.170952094909101460e-01 1.000156477762628393e+00 4.182682033408109956e-01 -4.299082980139211085e-01 6.943911809430309834e-01 5.111123087965638856e-01 3.251425375028741405e-01 1.124662228793291488e-02 5.833590103798412807e-01 5.122979995722096724e-01 5.157571370757969564e-01 4.727230575791457334e-01 4.618113470080063496e-03 5.181425468176947824e-01 3.826817939901522858e-01 4.874349584863258422e-01 1.831599817470567437e+00 3.848076956401716431e-01 3.480024288051011827e-01 5.095119332769055820e-01 1.560067026133918677e+00 2.047981975774537111e-01 5.209190609146689965e-01 3.446267814679838670e-01 5.620764137653061487e-01 5.106071541340971853e-01 5.228089139349628711e-01 4.866102127874026295e-01 5.063468825952435193e-01 5.068317798920486394e-01 4.083033154735326575e-01 -1.915557535137792644e-01 4.908628000337711961e-01 3.936190928709766279e-01 4.918371895887130862e-01 4.155301026978555634e-01 5.257686312730572853e-01 -1.266868540025231915e-01 5.300504991916890063e-01 -7.283951628226039698e-01 -2.995466919516567295e-01 4.867202013604287614e-01 5.171677479036415059e-01 6.107033092661077189e-01 4.934818710325016289e-01 3.373695477881835658e-01 5.142059751163421399e-01 5.620764124724400013e-01 5.224301331629803702e-01 4.851688267152023393e-01 4.918629538209178254e-01 5.037740780648988226e-01 7.770509566989385331e-01 4.803756236151475734e-01 5.197294399940869392e-01 1.907667915197132080e-01 5.101335996049307653e-01 5.036028030788599619e-01 4.989669163710683253e-01 4.150060858587861778e-01 4.973283936391345028e-01 6.362590367237299649e-01 6.340494561438968502e-01 5.263509861862447625e-01 5.731941890601816025e-01 1.302376906437806570e-01 6.758073228941438026e-01 1.801338354183838364e+00 4.927250512381637915e-01 2.890654996481507588e-01 6.764692175061169932e-01 5.298964756917583507e-01 1.030859219406943694e+00 5.222420173258542908e-01 7.882133495786309840e-01 5.187022558872083078e-01
7.404537677508040705e-01 3.248317728027332318e-01 3.030387418624314044e-01 4.602121253970657966e-01 2.961507399893090753e-01 3.611233312113355520e-01 3.634883839870652333e-01 5.366125007536227676e-01 3.015760328492212983e-01 2.917215989875149296e-01 1.736437551011255520e+00 1.490609368413542413e+00 -1.076398129112728919e+00 2.986483929674311200e-01 2.821977292342602861e-01 2.556698147960933531e-01 1.835028758837245755e-01 3.761228983932635717e-01 1.986827521640111283e-01 2.844374987133031496e-01 3.774158207812569610e-01 1.713853060417787733e+00 1.997339829876258743e-01 3.534885333656264672e-01 2.703681328285864605e-01 -5.525263905988431201e-01 3.995562785458720567e-01 1.852594972129024131e-01 3.003759392726822464e-01 -3.699590840852953200e-01 3.568429227237565060e-01 4.479932912451342064e-01 3.598224485944119255e-01 3.185029321201820474e-01 -3.254931133133975862e-01 3.588889696968791121e-01 4.150707624126003803e-01 1.402938534102406501e-02 -2.513734580622527748e+00 2.856601521367528873e-01 6.179193648656298166e-01 1.210065521930577814e-01 -1.046941736332453188e-01 7.236666801482877220e-01 8.801799475208225143e-01 2.957660171425580131e-01 4.611126371385965705e-01 3.039207207479826534e-01 2.704492494762543719e-01 7.477828710277003577e-01 7.449224565824487110e-01 1.525910977284960779e-01 -6.374207862992605778e-01 2.278185137006815131e-01 2.959960747161536343e-01 6.969500817142867399e-01 2.178142893957016046e-01 3.943718663964769777e-01 3.668951164456372704e-01 2.779749993975921818e-01 3.587746753585893678e-01 2.386134405377535739e-01 3.571627765312112568e-01 1.997338967311496627e-01 -1.171121673936844354e-01 3.165898707955633884e-01 3.072176364216416267e-01 2.354183979158914752e-01 3.430003227157759071e-01 8.119626344972610266e-01 2.367840346177832178e-01 2.688595490870643312e-01 3.420306084982255301e-01 8.111507454768004388e-01 1.609447885770723508e+00 2.244166303143119989e-01 4.100426501011165126e-01 4.168251616955930272e-01 3.208428531744469403e-01 -1.066221138129476165e+00 3.314770455015754735e-01 9.115104674771286053e-01 1.498370717843778399e+00 2.588533672423178889e-01 4.373010587620183021e-01 -6.515463684563598257e-01 1.415370250178333341e-03 3.402800390396125696e-01 -4.595797823629995671e-01 -5.877580279323273427e-01 8.806941120737652451e-01 1.196451872779482839e+00 3.433332924732001579e-01 8.114909467240358776e-01 4.872446363456226504e-01 2.419813865822101340e-01 2.858825305917218618e-01 3.132161492732563057e-01 7.766816741072947172e-01 -5.470780454339330134e-01 -3.903079971291209538e-02 1.605927154074369700e-01 2.947226493862251107e-01 2.710308511369900475e-01 3.498082968339639720e-01 2.389012143899917007e+00 -1.873196879454394059e-01 -4.941468463582527337e-01 2.371205734139100185e-01 7.338835377185018993e-01 2.046456536129439840e-01 2.805558668237395081e-01 4.016010539409962110e-01 3.078082797001923110e-01 -5.556941816919859223e-01 1.972204906255204393e-01 5.847693489532144184e-01 1.015811546016779782e-01 -1.193141455946313545e-01 2.924712185891977234e-01 -1.174759724136442030e+00 3.104934791653942705e-01 3.550913751610235702e-01 2.655857528684263391e-01 3.259486842282720565e-01 1.761239209097201552e+00 2.702668010688041855e-01 3.671103768501748355e-01 2.616290088910785405e-01 3.222659177199393987e-01 2.951166418814077930e-01 3.519032996166568394e-01 4.204132189883216242e-01 1.736643976336541551e-01 3.169870276673148468e-01 9.261052503472936293e-01 1.337888417612717040e-01 7.620031008494737579e-01 -2.566447728567157194e-01 2.917677192156165611e-01 3.094753000906224072e-01 3.183706449497072377e-01 3.801029055533726164e-01 3.053317343712509957e-01 2.747044329665722096e-01 7.387087652055218667e-01 6.231589633703296105e-01 3.105504429089394614e-01 2.237308298235690940e-01 3.520792577516339561e-01 -5.005479961981653680e-01 4.002798338929379474e-02 2.957820768604808581e-01 3.447592494450962275e-01 5.053487021191942485e-01 3.145988554801528725e-01 -9.001909303260051676e-01 3.319818125516988405e-01 -5.048439800862454252e-01 -5.356342123227126883e-01 3.288208840863000582e-01 4.157774319291895893e-01 3.434043916544043396e-01 3.117151892479114172e-01 2.519847392523739960e-02 -1.044175831380140251e-01 3.831860812031126495e-01 2.726165517199609645e-01 4.071339677755833053e-01 3.907030435606587693e-01 6.910062417423061820e-01 4.611127215751650299e-01 2.957504563546838883e-01 3.006935716041365114e-01 -2.043418942522057691e+00 7.021407624129358815e-01 8.074482129696983757e-01 1.051932620332954427e+00 -3.729535950596825633e-01 1.089091406521070171e+00 1.770057086491295117e-01 2.962984836949179024e-01 1.072325499073806920e+00 3.607072280157925803e-01 3.275636468328082529e-01 4.578131174387185531e-01 2.913410856792264525e-01 3.181040635306098818e-01 -2.259869019887350838e-01 1.508962250750544021e-01 4.858403092938284318e-01 6.625803278964147447e-01 3.362700209678810004e-01 3.245732782670777139e-01 1.081133583938332227e-01 3.399410265499384076e-01 -1.132264872301803615e+00 2.971282855739786344e-01 1.570227359617667184e-01 3.716515123811513499e-01 4.029653392633262277e-01 3.282833796301803941e-01 2.471919730776755975e-01 5.412111438667738250e-02 -9.300000472865082024e-01 1.570229635836725146e-01 2.696275757100425885e-01 -3.866333573536250290e-01 2.877385037397949819e-01 4.208211526344814990e-01 4.072936244186171617e-01 -2.513987072240032816e+00 3.425186793325739054e-01 8.972565557782002932e-01 3.016244831229634715e-01 3.386504345821848005e-01 2.578982659439067460e-01 2.773766792949272086e-01 2.957552221493408018e-01 3.013901824567935539e-01 3.539593300455290414e-01 2.511033979548386030e-01 5.674465295440892509e-01 4.480339170217166878e-01 3.622865218969752443e-01 2.178445434415063331e-01 3.037003436130198963e-01 -1.789944877572849646e-01 1.713030055380585503e+00 -4.308750050517706764e-02 1.092052970362409559e+00 -1.225024491537375138e+00 3.019393668761373162e-01 2.424647979844113399e-01 2.741228099334245827e-01 6.708390346397583581e-01 -1.998164401839355730e-01 5.679934937632100667e-01 2.291939937179006404e-01 6.066607839324784646e-01 6.023680480086055500e-01 3.421171637864147130e-01 -9.313960638598609565e-01 2.772006923576514903e-01 3.397495904417680013e-01 4.989271990096122433e-02 1.050873798403211046e+00 1.410447808005201031e-01 2.286926114873831128e+00 4.308413906663676740e-01 6.868843223722397306e-01 2.766728217800433209e-01 3.542571789634255119e-01 1.997349571087776443e-01 3.824205695831739416e-01 3.438568714729398623e-01 4.030940861509905715e-01 3.162433627464100172e-01 3.916696325066191253e-01 5.380532551047354506e-01 3.007287743539330815e-01 2.896784443664071618e-01 3.026026892087368414e-01 4.082182449513986899e-01 3.598154964089953500e-01 3.638120375726178746e-01 2.426030335441243579e+00 2.956291938606880887e-01 6.702392361404558851e-01 1.104811948068087392e-02 3.140482532170907337e-01 3.610039295120721081e-01 3.019196642546580489e-01 3.451377030170995619e-01 3.213378841355639670e-01 1.802590456837576960e-01 2.815470337277685697e-01 2.839787107920241915e-01 7.190284454569029898e-03 8.944026075276600984e-02 1.284914957416886105e+00 2.637636956335659977e-01 8.132092912240398985e-02 1.784131675980512366e+00 3.893169036195906485e-01 6.971274137917253810e-01 2.055325116155342913e-01 3.007996872022775658e-01 1.972206106812392501e-01 -1.762750381646565501e+00 3.416603201808491308e-01 7.817774012306750731e-01 4.447309413495573183e-01 -3.586286104320938750e-01 7.576733727394330264e-01 3.077814915357908188e-01 -5.734113077960678595e-01 1.711187861999368121e-01 2.988639998069461678e-01 2.238948268839773270e-01 -2.405048850540199290e-01 3.739581212064013171e-01 -8.970395102086912154e-01 4.607785039619015088e-01 3.274049351737612357e-01 6.437690564748282940e-01 2.975648033101029877e-01 3.023154289261689165e-01 2.406107977252249230e-01 3.371233910369040854e-01 -6.823378836316169871e-02 -6.121373287399979324e-01 6.033632877079776746e-02 2.564804866263060146e-01 3.103989230173356262e-01 2.828032313972163037e-01 3.074017743638171041e-01 4.614662888740779789e-01 2.957830499281756120e-01 1.980549263827569018e+00 7.688863190470067721e-01 2.431523066917037623e-01 -8.501119216922966570e-01 3.686071142975363424e-01 3.483858516599823041e+00 2.646197302820998409e-01 3.110138322903315822e-01 5.339017096751972336e-01 -4.298521759535164577e+00 3.306870327817416078e-01 1.191404664535387736e+00 2.969690898725488304e-01 5.844303598962393709e-01 -3.716945347847703252e-01 4.423870992697059856e-01 4.040477890417150109e-01 3.082080964770911313e-01 2.952275886723440546e-01 2.193738174992475365e+00 -2.547973452956170948e-01 3.413958210458330478e-01 -1.656130600935180830e+00 2.551302063308352741e-01 1.402939554485234733e-02 6.023568166218220554e-01 2.520736829957133107e-01 4.518562366081514958e-01 2.794755413031186353e-01 1.343125352502465342e+00 3.389346091634595215e-01 1.570225623824293149e-01 2.771955368402725939e-01 5.412107021901409881e-02 1.327210976896602002e-01 4.192303272695504512e-01 -4.757442967791025157e-01 3.336627889201348451e-01 4.537157430990517715e-01 3.267403501916321118e-01 4.531942048945737378e-01 2.963312534271148047e-01 9.165258262836910308e-02 2.520733942352753054e-01 3.985438474256273178e-01 3.018055094760562218e-01 3.057692333312026500e-01 7.002757815279938569e-01 2.259159916868237694e+00 2.929899402245073059e-01 4.810743671989203829e-01 3.607239478909348152e-01 9.500256922205168042e-01 3.893531549871516728e-01 1.434470308062496535e-01 7.780634027907596950e-01 1.297694114833456425e-01 1.412097089654199278e-01 3.143928824436607039e-01 2.060944224590880169e-01 8.762535258888903833e-01 6.439250946971044609e-01 7.244898117030535989e-01 4.079702152776406576e-01 5.412111438625618470e-02 5.412111438679510084e-02 3.399797693003672738e-01 5.084372783274011542e-01 1.107396784489332653e+00 -1.032937990777829246e-01 3.199573249980040557e-01 4.477385396081766666e-01 3.054394747092567530e-01 8.939563128958408766e-01 1.570230455533477565e-01 3.109854008741443909e-01 3.360976777651074610e-01 3.306741492745139399e-01 -5.094001868054457427e-01 4.968992122524726884e-01 3.108702067156544069e-01 3.292486111842837793e-01 4.645791502809701323e-01 7.830154966587534737e-01 5.412111508466443954e-02 -2.747530092296196491e-01 3.039364964626684040e-01 -3.960846550107043756e-02 -4.805668049505452677e-01 3.622783726149375605e-01 -2.727869496562034701e+00 1.266415550914392396e+00 3.767269954795971487e-01 -2.108922130274500095e-01 4.614820618863901824e-01 1.638997185586277938e+00 3.223127336542130905e-01 5.250156169544251128e-01 7.995491016025112474e-01 5.339467131084695284e-01 2.180750934127400620e-01 3.117874587450011337e-01 4.647287900782830494e-01 3.441604009060562075e-01 1.667624567296257521e+00 2.972798047548044775e-01 -2.334978534905473094e-02 2.731866335037980154e-01 3.215702335475307816e-01 -1.201306720541804207e+00 2.904640404645038032e-01 1.914488806123534545e-02 3.941301063332722787e-01 1.604271327974486350e-01 2.996002532766638415e-01 3.460697327301121007e-01 3.025687367613021372e-01 -1.425100940821482365e-01 3.027200654975076843e-01 4.479941920937639543e-01 3.461666276620259386e-01 3.477912685856348052e-01 6.778495384477876140e-01 6.815971781172485144e-01 8.432545538601934343e-01 -9.843005186842400667e-01 4.902064170057252035e-01 -3.027430547004378303e-02 -2.859918123813997015e-01 3.494607019900526357e-01 3.621225542812558928e-01 3.356110877620473443e-01 8.056983907586617866e-01 2.924779561849786269e-01 3.170712005069682426e-01 1.853053201265548733e-01 9.984993771121526696e-02 -1.428667324461891652e-01 3.056519813980222988e-01 3.998334647007518172e-01 4.462483779416320795e-01 3.482105203303788032e-01 3.427500423785471151e-01 3.019744202905981223e-01 4.904770941727113476e-01 2.891987787070927629e-01 4.908644769124322904e-01 3.431614603334932068e-01 2.970519453703912571e-01 7.760495035668917296e-01 3.004830420474220443e-01 8.165952448037392397e-01 1.690004562880879913e-01 3.261626331577408000e-01 2.806236416086480001e-01 -1.220738756270049574e+00 3.429380283795633311e-01 1.504276546592420716e-01 5.236109643980201289e-01 4.113972252962440068e-01 3.096748378783413802e-01 5.629934891896605231e-01 7.620822162374428776e-01 3.054148028798625569e-01 1.897810210844926293e-01 3.216449792267467855e-01 -1.269942687212278522e-02 4.102946807206119817e-01 2.439809118871084648e-01 2.577545543578151355e-01 2.287166132418057829e-01 3.549122515040843417e-01 8.393330327975552507e-02 1.288826272719063804e+00 4.036382093154212147e-01 2.549300980787598814e-01 2.963462402077650104e-01 -5.917897041937055791e-01 3.326001628871865790e-01 1.512668030578672440e-01 2.257258009530139775e-01 4.448674830745790176e-01 2.613571094808243012e-01 3.381690115471612801e-01 8.310958505903880411e-01 3.329290233131649290e-01 1.458492520807037063e-01 1.730811716348993612e-01 3.741210237282641127e-01 7.469109082713333292e-01 2.426782064537000849e+00 3.287178205832199107e-01 3.990146548501362078e-01 6.008919412706618113e-01 3.043541136254163115e-01 3.037113306555369596e-01 3.704200681870291056e-01 8.369053777185256893e-01 1.897312451303238834e-01 -1.082273985823478391e-01 3.105351847980337143e-01 4.191051604335033903e-02 3.411251967329894663e-01 7.963447411435939927e-01 3.535943465055004231e-01 4.255778901238511103e-01 1.465978272703331919e+00 4.755707200432686133e-01 2.483642057874019260e-01 1.603661016395716565e-01 3.960315241419044008e-01 4.597602908196259386e-01 3.715078355866445747e-01 2.053350181482883063e-01 8.087141946735041387e-01 1.345363903688001905e-01 2.925979918573789473e-01 3.218971403727575731e-01 3.424663459492713335e-01 2.833875451143668678e-01 2.609927902208632466e-01 9.789306119863917521e-01 4.192463236158359141e-01 3.599324818166703133e-01 3.331620615608978930e-01 1.967065366373862145e-01 2.852197265098924683e-01 5.373674784067385968e-01 6.379340910308025636e-01 3.251417292547583715e-01 3.208240445163980104e-01 3.544344077066816090e-01 3.013834364559602186e-01 5.248708626953543233e-01 3.198707004116264074e-01 3.010191194949395355e-01 -4.171198904042339173e-02 2.937524179155370785e-01 4.257135762282269198e-01 5.308936341768054623e-01 4.493328857870486637e-01 3.442019242469178120e-01 1.334157262797126320e+00 4.414974644890580224e-01 3.392790192094387591e-01 3.276210972390347642e-01 1.089217145890343685e+00 9.963200668533099824e-01 2.091563442170810971e-01 -3.397266861589626208e-01 -1.829072078334845752e-01 4.617717552000893955e-01 3.936660392167838918e-01 3.013188564519301837e-01 2.931872369321570915e-01 4.073286314394143903e-01 2.355809711458702882e-01 3.780689867523357450e-01 4.603268760563278272e-01 3.059802354859813556e-01 3.415276169957947028e-01 7.528753019131897428e-01 1.204129252199608903e-02 7.214988526626925358e-01 3.592468380821901008e-01 3.299002001424587993e-01 1.368523813379698140e-01 4.706362966329918351e-01 8.798964069512562602e-01 3.217729157358825698e-01 6.161446333582859536e-01 1.311390645811063127e+00 2.830563103429219463e-01 1.656088571461412862e+00 5.865316430425236982e-01 1.056968038902984242e-01 2.946160920304382591e-01 3.434550078339432821e-01 2.309247468096800315e-01 3.907071529253731135e-01 2.963567379841381966e-01 3.151792290730108803e-01 2.836111798652590776e-01 3.711083086487874105e-01 9.261207131061371944e-02 3.664175432428552481e-01 4.796886379394298960e-01 3.456537218282722534e-01 2.242550689480179438e-01 3.592385325051584144e-01 2.123950451512981730e-01 2.634138985144615086e-01 -5.850739614005855405e-01 1.605273440842047705e+00 2.844703934418986169e-01 -2.667328306190589471e-01 3.044371794376468099e-01 2.568863909847075577e-01 2.953103672148086334e-01 -3.705401627420200406e+00 2.851090383979563381e+00 5.375430712651547704e-01 3.044536293423181217e-01 2.603533536951747607e-01 3.050662555850965352e-01 2.518010790054604486e-01 2.099463263404837576e+00 5.300966891859221208e-01 3.682404306841569053e-01 1.972208027564162358e-01 6.686032678685430719e-01 3.416674827403639036e-01 9.361988038885811214e-01 -3.639349005801413850e-01 -6.536053220331810021e-01 -8.392443199425317912e-01 6.326131568853446407e-02 3.049806963185589526e-01 5.196724068065013968e-01 2.566502757021632553e-01 1.705806197237608179e-01 2.594162199339865582e-01 2.746007072229528223e-01 2.419948120191297569e-01 3.630642467328040746e-01 4.326429870496833474e-01 3.408867302406852762e-01 5.322709100776360502e-01 3.227460028849705731e-01 1.645919487388438351e-01 1.337335050994047925e-01 4.610373979869890060e-01 3.409805569582651796e-01 3.133642788282511860e-01 2.894930459826760560e-01 2.930117386951539560e-01 7.408424361953962478e-01 2.520736825652606372e-01 3.684094460458089970e-01 3.474861162083517363e-01 2.888086194234224524e-01 1.976670275102864471e-01 3.382065632418817525e-01 1.238363744469673344e+00 3.325605212648145570e-01 2.703576094461399015e-01 3.064372611010989789e-01 2.131379521630883123e-01 2.496734298472659264e-01 1.945767884367612943e-01 3.150968564753567347e-01 2.821166578674804137e-01 6.752860170616337143e-01 6.932202392620666620e-01 4.294026004144505526e-01 1.527836571827122736e+00 3.612370278762402909e-01 3.243349079500806864e-01 3.896443452842957011e-05 -3.880712384188483854e-01 3.126731980314977344e-01 3.412924621443133022e-01 7.941632243363621058e-01 3.129879192663349574e-01 2.272296226306829980e-01 3.310939575464517115e-01 3.015096302971353448e-01 2.881599907219433709e-01 6.342688489980752298e-01 8.389799696976157906e-01 3.044638627373288386e-01 5.550777867291526446e-01 2.962696416334702487e-01 -1.096801021318361338e-02 3.175803644132926262e-01 3.519038867801473347e-01 -2.726809098507872453e-01 2.210114833246049626e-01 3.453649090989496240e-01 4.604679828597113000e-01 3.583193532281822580e-01 1.170599934588777202e+00 7.926616659789232910e-01 -7.475226451374820114e-01 1.402938098833278122e-02 2.501359389678080025e-01 -2.598939513571046689e+00 1.398511145911433218e+00 3.443424139654129301e-01 4.597524819538594820e-01 3.103171006305760482e-01 6.710436145433024135e-01 3.008823912418788216e-01 2.772002436856445540e-01 -3.447584690793054074e-01 6.697366557879933513e-01 1.999378040366853529e-02 9.119425334187882815e-01 1.758896152809389157e+00 -3.642336686353070396e-01 -1.193514020917914253e+00 3.438958840437270625e-01 4.567312651769013243e-01 9.066731128618096269e-01 3.189919260942030155e-01 7.682993709990018072e-01 4.498525731533191130e-01 4.028603470480129900e-01 2.968394284266808736e-01 2.946304836276917860e-01 3.235812635638815604e-01 2.168330717548954401e-01 1.065555518995907391e+00 1.141234539128730630e+00 3.074636458786718096e-01 3.489205451491388388e-01 -2.023872525996549820e-01 -1.057793848676215481e-01 4.867554550455110429e-01 3.270918362707851412e-01 3.226046939430227689e-01 7.079176959601618524e-01 4.633154071827255693e-01 3.481929925251752156e-01 2.956579659306154961e-01 2.749460664724908687e-01 3.000860129640346430e-01 4.857815086765039370e-01 3.140155043435231552e-01 2.947813046962249328e-01 -1.594886871854076307e-02 4.258557290351187574e-01 4.735541142385197300e-01 9.275062827272296806e-01 1.010107263633589936e+00 8.054003182863170851e-01 3.006887075819907329e-01 2.105850393931824327e-01 -2.072527867940669732e-02 2.143192409289095268e-01 -1.391739499630675558e+00 2.993628537082790864e-01 5.862390856952337526e-01 3.151285293980332636e-01 8.151250970254497741e-01 1.170352836723356216e+00 1.972204680158939349e-01 3.293593413375014295e-02 3.496659704999787732e-01 4.305580157943176278e-01 6.530471054982003309e-01 1.901555456487058204e-01 -3.346949063384919709e-01 5.294514736552756728e-01 4.455015688071817803e-01 2.945806163800034350e-01 3.338687191471657045e-01 2.291570908365401227e-01 3.222126099832040014e-01 2.752141549860079306e-01 2.973909880886936308e-01 2.868549533738924406e-01 8.303650961543053155e-01 2.907168495792161744e-01 -1.470924484573447322e-01 8.055664840821431527e-01 4.282807292584023817e-01 2.047108667691699413e-01 3.399930192163068132e-01 1.136688775099872872e+00 4.055066939542398274e-02 8.084979705797269434e-01 3.192792298011531971e-01 2.984999616601853312e-01 1.617605253912027252e-02 2.259327514126788228e-01 6.583786538482619966e-01 3.006039481610340847e-01 8.276955111346279148e-01 2.944086443222257432e-01 3.744594101474786885e-01 7.978431175551357057e-01 -1.021265001010583304e-02 -1.718344774494788840e+00 3.944895408484485055e-01 2.974205146272294598e-01 2.945807069932272482e-01 5.359938826509131893e-01 3.598792374212646528e-01 3.632341079625570623e-01 2.013500859409224353e-01 3.539841564588023237e-01 2.170132789966014442e-02 -1.437780117325081264e+00 6.822486748697791370e-01 3.533225389485967760e-01 3.465665970994018519e-01 3.031898650495915004e-01 7.568171650448756171e-01 2.952539404772659970e-01 1.569294254427710811e-01 3.063732203308462410e-01 1.030741826455654264e+00 2.752129848027716763e-01 4.050088736316578841e-01 1.084430818825734111e+00 2.608773345480664418e-01 1.976622816450750664e+00 2.910025136067508345e-01 3.381231101832207209e-01 7.299404987797724065e-01 3.068082681755167629e-01 3.857022635344111716e-01 -1.207127145915027899e+00 3.281334308279084677e-01 3.425371326114033388e-01 4.714020118292206463e-01 3.486638823624245709e-01 2.322511289936972090e-01 -5.300202201497645760e-01 1.674196922135729348e+00 -4.785690629348740566e-01 6.052562231039912977e-01 3.704369098193645016e-01 9.032921089200117437e-02 3.149921998576642457e-01 2.960517645327078728e-01 1.095358761721837659e+00 -5.937547555100541885e-02 3.707342045115424312e-01 -7.289354620516564909e-01 5.513253122279089258e-01 4.121233947833589095e-01 -2.520366864967057197e+00 2.305947684613491422e+00 3.380473720817966377e-01 3.123297939409039325e-01 -1.102134535044642094e+00 2.621325833961163365e-01 -3.836850928316720699e-02 2.988393799122281425e-01 3.067972419893305047e-01 5.963944712373714374e-01 4.704823245526595366e-01 2.534867957065858879e-01 1.402935516895621737e-02 6.987796190947942465e-03 2.645603759790707277e-01 -9.833817518079842612e-01 3.387839044226308438e-01 -5.252443209234402000e-01 3.115253184307592016e-01 2.924745617175123491e-01 3.359225610841606313e-01 2.845474028878818840e-01 3.023098870415222295e-01 -3.655017295881425599e-02 3.377559876700347852e-01 3.675892704799650357e-01 3.252303827907181977e-01 2.951866748865644152e-01 3.289169182916778511e-01 -7.470702600889513878e-01 5.052586151264287784e-01 1.370756564341842010e+00 -1.649931279065276844e-03 2.708061291625148970e-01 3.572249945003462268e-01 1.226871393713041325e+00 3.434000894459867115e-01 2.673052053775521464e-01 9.155459932602675321e-01 1.659147721923515950e-01 1.453652787831237525e+00 3.771777325803830627e-01 2.361911588800607587e-01 3.002412063816523036e-01 6.407187242029320773e-01 1.242343940295152382e+00 2.925006569120097710e-01 4.152529358924755276e-01 6.429244685152764038e-01 4.454680421750803476e-01 4.125777769515654586e-02 -2.034839559273625420e-01 3.236671922716811700e-01 4.109352735953302749e-01 1.530834627029062089e-01 5.011124479079850369e-01 -1.226258193093381216e-01 1.269064493572990227e+00 3.472452081995884288e-01 3.240184431802525244e-01 -2.207283941366730673e+00 2.263384918703512660e-01 3.504718099498555506e-01 3.816487112635327805e-01 -1.292721520452950190e-01 2.842526560058060148e-01 -5.165125308524241010e-01 1.800585654421900939e-01 3.440786032733384459e-01 3.173031975771450353e-01 1.123453218743971860e+00 2.356955663319834915e-01 3.102058077123525659e-01 -1.164234209019708421e+00 3.698067295348650418e-01 8.301227932720706137e-01 6.278011524667537202e-01 2.944148577016764134e-01 -1.485097052064366929e-01 7.539206072092660138e-01 5.005579164206795661e-02 3.093475874482543575e-01 2.980205039666399269e-01 4.409282173160269935e-01 7.554325044478975570e-01 3.095217473177749312e-01 6.992597012940489076e-01 3.486766095060833126e-01 6.338059034789285118e-01 1.948401496131137167e-01 -1.388296972260548490e+00 3.073241103112778205e-01 2.305293244659331955e-02 4.256403508746677833e-01 2.917574037745152560e-01 2.545917963316852717e-01 2.520736821742989298e-01 3.065075597071718616e-01 3.177858962591047498e-01 3.481294940864912979e-01 3.083851610809056343e-01 3.304262369705000535e-01 4.363396949656926371e-01 -4.507962788388904518e-01 3.395937951100732599e-01 3.228749462966369888e-01 3.067144410524267339e-01 3.717180738715846200e-01 3.104012918580620339e-01 5.337912367903127064e-01 3.027689871161085566e-01 8.323430548794297223e-01 5.033969118229717488e-01 3.610319638315488966e-01 3.109564688805510069e-01 -1.729147673874299240e+00 3.382354734182650424e-01 3.494351163207898847e-01 3.211840891292024325e-01 2.520736840026355785e-01 2.903258283802307993e-01 3.236702700193199722e-01 4.007901182808895624e-01 3.024521311784204025e-01 2.473010448734322964e-01 3.497093474724896622e-01 2.775112178157561615e-01 4.186067682943454549e-01 2.941872613364472366e-01 3.217133991736614851e-01 3.439784302310061603e-01 6.324115426729856604e-02 3.420538261995362816e-01 1.694832705567618780e-01 2.244313731571691561e-01 2.842521193556775128e-01 1.283055479973897184e-01 -2.626557768172027921e-02 -2.920398047634987226e-01 3.099227257114376410e+00 3.475828686683585800e-01 6.137367016352821558e-01 1.532604296937931376e-01 2.642528174596530666e-01 1.298039563959485276e+00 2.782210886697347174e-01 7.460476813940517538e-01 3.042112378489247870e-01
