# 
#                 ----------------------------------------------------
#                 Data from a 3D direct N-body simulation. 
# 
#                 rows are i-particle; 
#                 coumns are :mass, tag, x ,y, z, vx, vy, vz, ax, ay, az
# 
#                 NTHU, Computational Physics 
# 
#                 ----------------------------------------------------
#                 Time = 0.0
0.000000000000000000e+00 1.000000000000000000e+00 2.000000000000000000e+00 3.000000000000000000e+00 4.000000000000000000e+00 5.000000000000000000e+00 6.000000000000000000e+00 7.000000000000000000e+00 8.000000000000000000e+00 9.000000000000000000e+00 1.000000000000000000e+01 1.100000000000000000e+01 1.200000000000000000e+01 1.300000000000000000e+01 1.400000000000000000e+01 1.500000000000000000e+01 1.600000000000000000e+01 1.700000000000000000e+01 1.800000000000000000e+01 1.900000000000000000e+01 2.000000000000000000e+01 2.100000000000000000e+01 2.200000000000000000e+01 2.300000000000000000e+01 2.400000000000000000e+01 2.500000000000000000e+01 2.600000000000000000e+01 2.700000000000000000e+01 2.800000000000000000e+01 2.900000000000000000e+01 3.000000000000000000e+01 3.100000000000000000e+01 3.200000000000000000e+01 3.300000000000000000e+01 3.400000000000000000e+01 3.500000000000000000e+01 3.600000000000000000e+01 3.700000000000000000e+01 3.800000000000000000e+01 3.900000000000000000e+01 4.000000000000000000e+01 4.100000000000000000e+01 4.200000000000000000e+01 4.300000000000000000e+01 4.400000000000000000e+01 4.500000000000000000e+01 4.600000000000000000e+01 4.700000000000000000e+01 4.800000000000000000e+01 4.900000000000000000e+01 5.000000000000000000e+01 5.100000000000000000e+01 5.200000000000000000e+01 5.300000000000000000e+01 5.400000000000000000e+01 5.500000000000000000e+01 5.600000000000000000e+01 5.700000000000000000e+01 5.800000000000000000e+01 5.900000000000000000e+01 6.000000000000000000e+01 6.100000000000000000e+01 6.200000000000000000e+01 6.300000000000000000e+01 6.400000000000000000e+01 6.500000000000000000e+01 6.600000000000000000e+01 6.700000000000000000e+01 6.800000000000000000e+01 6.900000000000000000e+01 7.000000000000000000e+01 7.100000000000000000e+01 7.200000000000000000e+01 7.300000000000000000e+01 7.400000000000000000e+01 7.500000000000000000e+01 7.600000000000000000e+01 7.700000000000000000e+01 7.800000000000000000e+01 7.900000000000000000e+01 8.000000000000000000e+01 8.100000000000000000e+01 8.200000000000000000e+01 8.300000000000000000e+01 8.400000000000000000e+01 8.500000000000000000e+01 8.600000000000000000e+01 8.700000000000000000e+01 8.800000000000000000e+01 8.900000000000000000e+01 9.000000000000000000e+01 9.100000000000000000e+01 9.200000000000000000e+01 9.300000000000000000e+01 9.400000000000000000e+01 9.500000000000000000e+01 9.600000000000000000e+01 9.700000000000000000e+01 9.800000000000000000e+01 9.900000000000000000e+01 1.000000000000000000e+02 1.010000000000000000e+02 1.020000000000000000e+02 1.030000000000000000e+02 1.040000000000000000e+02 1.050000000000000000e+02 1.060000000000000000e+02 1.070000000000000000e+02 1.080000000000000000e+02 1.090000000000000000e+02 1.100000000000000000e+02 1.110000000000000000e+02 1.120000000000000000e+02 1.130000000000000000e+02 1.140000000000000000e+02 1.150000000000000000e+02 1.160000000000000000e+02 1.170000000000000000e+02 1.180000000000000000e+02 1.190000000000000000e+02 1.200000000000000000e+02 1.210000000000000000e+02 1.220000000000000000e+02 1.230000000000000000e+02 1.240000000000000000e+02 1.250000000000000000e+02 1.260000000000000000e+02 1.270000000000000000e+02 1.280000000000000000e+02 1.290000000000000000e+02 1.300000000000000000e+02 1.310000000000000000e+02 1.320000000000000000e+02 1.330000000000000000e+02 1.340000000000000000e+02 1.350000000000000000e+02 1.360000000000000000e+02 1.370000000000000000e+02 1.380000000000000000e+02 1.390000000000000000e+02 1.400000000000000000e+02 1.410000000000000000e+02 1.420000000000000000e+02 1.430000000000000000e+02 1.440000000000000000e+02 1.450000000000000000e+02 1.460000000000000000e+02 1.470000000000000000e+02 1.480000000000000000e+02 1.490000000000000000e+02 1.500000000000000000e+02 1.510000000000000000e+02 1.520000000000000000e+02 1.530000000000000000e+02 1.540000000000000000e+02 1.550000000000000000e+02 1.560000000000000000e+02 1.570000000000000000e+02 1.580000000000000000e+02 1.590000000000000000e+02 1.600000000000000000e+02 1.610000000000000000e+02 1.620000000000000000e+02 1.630000000000000000e+02 1.640000000000000000e+02 1.650000000000000000e+02 1.660000000000000000e+02 1.670000000000000000e+02 1.680000000000000000e+02 1.690000000000000000e+02 1.700000000000000000e+02 1.710000000000000000e+02 1.720000000000000000e+02 1.730000000000000000e+02 1.740000000000000000e+02 1.750000000000000000e+02 1.760000000000000000e+02 1.770000000000000000e+02 1.780000000000000000e+02 1.790000000000000000e+02 1.800000000000000000e+02 1.810000000000000000e+02 1.820000000000000000e+02 1.830000000000000000e+02 1.840000000000000000e+02 1.850000000000000000e+02 1.860000000000000000e+02 1.870000000000000000e+02 1.880000000000000000e+02 1.890000000000000000e+02 1.900000000000000000e+02 1.910000000000000000e+02 1.920000000000000000e+02 1.930000000000000000e+02 1.940000000000000000e+02 1.950000000000000000e+02 1.960000000000000000e+02 1.970000000000000000e+02 1.980000000000000000e+02 1.990000000000000000e+02 2.000000000000000000e+02 2.010000000000000000e+02 2.020000000000000000e+02 2.030000000000000000e+02 2.040000000000000000e+02 2.050000000000000000e+02 2.060000000000000000e+02 2.070000000000000000e+02 2.080000000000000000e+02 2.090000000000000000e+02 2.100000000000000000e+02 2.110000000000000000e+02 2.120000000000000000e+02 2.130000000000000000e+02 2.140000000000000000e+02 2.150000000000000000e+02 2.160000000000000000e+02 2.170000000000000000e+02 2.180000000000000000e+02 2.190000000000000000e+02 2.200000000000000000e+02 2.210000000000000000e+02 2.220000000000000000e+02 2.230000000000000000e+02 2.240000000000000000e+02 2.250000000000000000e+02 2.260000000000000000e+02 2.270000000000000000e+02 2.280000000000000000e+02 2.290000000000000000e+02 2.300000000000000000e+02 2.310000000000000000e+02 2.320000000000000000e+02 2.330000000000000000e+02 2.340000000000000000e+02 2.350000000000000000e+02 2.360000000000000000e+02 2.370000000000000000e+02 2.380000000000000000e+02 2.390000000000000000e+02 2.400000000000000000e+02 2.410000000000000000e+02 2.420000000000000000e+02 2.430000000000000000e+02 2.440000000000000000e+02 2.450000000000000000e+02 2.460000000000000000e+02 2.470000000000000000e+02 2.480000000000000000e+02 2.490000000000000000e+02 2.500000000000000000e+02 2.510000000000000000e+02 2.520000000000000000e+02 2.530000000000000000e+02 2.540000000000000000e+02 2.550000000000000000e+02 2.560000000000000000e+02 2.570000000000000000e+02 2.580000000000000000e+02 2.590000000000000000e+02 2.600000000000000000e+02 2.610000000000000000e+02 2.620000000000000000e+02 2.630000000000000000e+02 2.640000000000000000e+02 2.650000000000000000e+02 2.660000000000000000e+02 2.670000000000000000e+02 2.680000000000000000e+02 2.690000000000000000e+02 2.700000000000000000e+02 2.710000000000000000e+02 2.720000000000000000e+02 2.730000000000000000e+02 2.740000000000000000e+02 2.750000000000000000e+02 2.760000000000000000e+02 2.770000000000000000e+02 2.780000000000000000e+02 2.790000000000000000e+02 2.800000000000000000e+02 2.810000000000000000e+02 2.820000000000000000e+02 2.830000000000000000e+02 2.840000000000000000e+02 2.850000000000000000e+02 2.860000000000000000e+02 2.870000000000000000e+02 2.880000000000000000e+02 2.890000000000000000e+02 2.900000000000000000e+02 2.910000000000000000e+02 2.920000000000000000e+02 2.930000000000000000e+02 2.940000000000000000e+02 2.950000000000000000e+02 2.960000000000000000e+02 2.970000000000000000e+02 2.980000000000000000e+02 2.990000000000000000e+02 3.000000000000000000e+02 3.010000000000000000e+02 3.020000000000000000e+02 3.030000000000000000e+02 3.040000000000000000e+02 3.050000000000000000e+02 3.060000000000000000e+02 3.070000000000000000e+02 3.080000000000000000e+02 3.090000000000000000e+02 3.100000000000000000e+02 3.110000000000000000e+02 3.120000000000000000e+02 3.130000000000000000e+02 3.140000000000000000e+02 3.150000000000000000e+02 3.160000000000000000e+02 3.170000000000000000e+02 3.180000000000000000e+02 3.190000000000000000e+02 3.200000000000000000e+02 3.210000000000000000e+02 3.220000000000000000e+02 3.230000000000000000e+02 3.240000000000000000e+02 3.250000000000000000e+02 3.260000000000000000e+02 3.270000000000000000e+02 3.280000000000000000e+02 3.290000000000000000e+02 3.300000000000000000e+02 3.310000000000000000e+02 3.320000000000000000e+02 3.330000000000000000e+02 3.340000000000000000e+02 3.350000000000000000e+02 3.360000000000000000e+02 3.370000000000000000e+02 3.380000000000000000e+02 3.390000000000000000e+02 3.400000000000000000e+02 3.410000000000000000e+02 3.420000000000000000e+02 3.430000000000000000e+02 3.440000000000000000e+02 3.450000000000000000e+02 3.460000000000000000e+02 3.470000000000000000e+02 3.480000000000000000e+02 3.490000000000000000e+02 3.500000000000000000e+02 3.510000000000000000e+02 3.520000000000000000e+02 3.530000000000000000e+02 3.540000000000000000e+02 3.550000000000000000e+02 3.560000000000000000e+02 3.570000000000000000e+02 3.580000000000000000e+02 3.590000000000000000e+02 3.600000000000000000e+02 3.610000000000000000e+02 3.620000000000000000e+02 3.630000000000000000e+02 3.640000000000000000e+02 3.650000000000000000e+02 3.660000000000000000e+02 3.670000000000000000e+02 3.680000000000000000e+02 3.690000000000000000e+02 3.700000000000000000e+02 3.710000000000000000e+02 3.720000000000000000e+02 3.730000000000000000e+02 3.740000000000000000e+02 3.750000000000000000e+02 3.760000000000000000e+02 3.770000000000000000e+02 3.780000000000000000e+02 3.790000000000000000e+02 3.800000000000000000e+02 3.810000000000000000e+02 3.820000000000000000e+02 3.830000000000000000e+02 3.840000000000000000e+02 3.850000000000000000e+02 3.860000000000000000e+02 3.870000000000000000e+02 3.880000000000000000e+02 3.890000000000000000e+02 3.900000000000000000e+02 3.910000000000000000e+02 3.920000000000000000e+02 3.930000000000000000e+02 3.940000000000000000e+02 3.950000000000000000e+02 3.960000000000000000e+02 3.970000000000000000e+02 3.980000000000000000e+02 3.990000000000000000e+02 4.000000000000000000e+02 4.010000000000000000e+02 4.020000000000000000e+02 4.030000000000000000e+02 4.040000000000000000e+02 4.050000000000000000e+02 4.060000000000000000e+02 4.070000000000000000e+02 4.080000000000000000e+02 4.090000000000000000e+02 4.100000000000000000e+02 4.110000000000000000e+02 4.120000000000000000e+02 4.130000000000000000e+02 4.140000000000000000e+02 4.150000000000000000e+02 4.160000000000000000e+02 4.170000000000000000e+02 4.180000000000000000e+02 4.190000000000000000e+02 4.200000000000000000e+02 4.210000000000000000e+02 4.220000000000000000e+02 4.230000000000000000e+02 4.240000000000000000e+02 4.250000000000000000e+02 4.260000000000000000e+02 4.270000000000000000e+02 4.280000000000000000e+02 4.290000000000000000e+02 4.300000000000000000e+02 4.310000000000000000e+02 4.320000000000000000e+02 4.330000000000000000e+02 4.340000000000000000e+02 4.350000000000000000e+02 4.360000000000000000e+02 4.370000000000000000e+02 4.380000000000000000e+02 4.390000000000000000e+02 4.400000000000000000e+02 4.410000000000000000e+02 4.420000000000000000e+02 4.430000000000000000e+02 4.440000000000000000e+02 4.450000000000000000e+02 4.460000000000000000e+02 4.470000000000000000e+02 4.480000000000000000e+02 4.490000000000000000e+02 4.500000000000000000e+02 4.510000000000000000e+02 4.520000000000000000e+02 4.530000000000000000e+02 4.540000000000000000e+02 4.550000000000000000e+02 4.560000000000000000e+02 4.570000000000000000e+02 4.580000000000000000e+02 4.590000000000000000e+02 4.600000000000000000e+02 4.610000000000000000e+02 4.620000000000000000e+02 4.630000000000000000e+02 4.640000000000000000e+02 4.650000000000000000e+02 4.660000000000000000e+02 4.670000000000000000e+02 4.680000000000000000e+02 4.690000000000000000e+02 4.700000000000000000e+02 4.710000000000000000e+02 4.720000000000000000e+02 4.730000000000000000e+02 4.740000000000000000e+02 4.750000000000000000e+02 4.760000000000000000e+02 4.770000000000000000e+02 4.780000000000000000e+02 4.790000000000000000e+02 4.800000000000000000e+02 4.810000000000000000e+02 4.820000000000000000e+02 4.830000000000000000e+02 4.840000000000000000e+02 4.850000000000000000e+02 4.860000000000000000e+02 4.870000000000000000e+02 4.880000000000000000e+02 4.890000000000000000e+02 4.900000000000000000e+02 4.910000000000000000e+02 4.920000000000000000e+02 4.930000000000000000e+02 4.940000000000000000e+02 4.950000000000000000e+02 4.960000000000000000e+02 4.970000000000000000e+02 4.980000000000000000e+02 4.990000000000000000e+02 5.000000000000000000e+02 5.010000000000000000e+02 5.020000000000000000e+02 5.030000000000000000e+02 5.040000000000000000e+02 5.050000000000000000e+02 5.060000000000000000e+02 5.070000000000000000e+02 5.080000000000000000e+02 5.090000000000000000e+02 5.100000000000000000e+02 5.110000000000000000e+02 5.120000000000000000e+02 5.130000000000000000e+02 5.140000000000000000e+02 5.150000000000000000e+02 5.160000000000000000e+02 5.170000000000000000e+02 5.180000000000000000e+02 5.190000000000000000e+02 5.200000000000000000e+02 5.210000000000000000e+02 5.220000000000000000e+02 5.230000000000000000e+02 5.240000000000000000e+02 5.250000000000000000e+02 5.260000000000000000e+02 5.270000000000000000e+02 5.280000000000000000e+02 5.290000000000000000e+02 5.300000000000000000e+02 5.310000000000000000e+02 5.320000000000000000e+02 5.330000000000000000e+02 5.340000000000000000e+02 5.350000000000000000e+02 5.360000000000000000e+02 5.370000000000000000e+02 5.380000000000000000e+02 5.390000000000000000e+02 5.400000000000000000e+02 5.410000000000000000e+02 5.420000000000000000e+02 5.430000000000000000e+02 5.440000000000000000e+02 5.450000000000000000e+02 5.460000000000000000e+02 5.470000000000000000e+02 5.480000000000000000e+02 5.490000000000000000e+02 5.500000000000000000e+02 5.510000000000000000e+02 5.520000000000000000e+02 5.530000000000000000e+02 5.540000000000000000e+02 5.550000000000000000e+02 5.560000000000000000e+02 5.570000000000000000e+02 5.580000000000000000e+02 5.590000000000000000e+02 5.600000000000000000e+02 5.610000000000000000e+02 5.620000000000000000e+02 5.630000000000000000e+02 5.640000000000000000e+02 5.650000000000000000e+02 5.660000000000000000e+02 5.670000000000000000e+02 5.680000000000000000e+02 5.690000000000000000e+02 5.700000000000000000e+02 5.710000000000000000e+02 5.720000000000000000e+02 5.730000000000000000e+02 5.740000000000000000e+02 5.750000000000000000e+02 5.760000000000000000e+02 5.770000000000000000e+02 5.780000000000000000e+02 5.790000000000000000e+02 5.800000000000000000e+02 5.810000000000000000e+02 5.820000000000000000e+02 5.830000000000000000e+02 5.840000000000000000e+02 5.850000000000000000e+02 5.860000000000000000e+02 5.870000000000000000e+02 5.880000000000000000e+02 5.890000000000000000e+02 5.900000000000000000e+02 5.910000000000000000e+02 5.920000000000000000e+02 5.930000000000000000e+02 5.940000000000000000e+02 5.950000000000000000e+02 5.960000000000000000e+02 5.970000000000000000e+02 5.980000000000000000e+02 5.990000000000000000e+02 6.000000000000000000e+02 6.010000000000000000e+02 6.020000000000000000e+02 6.030000000000000000e+02 6.040000000000000000e+02 6.050000000000000000e+02 6.060000000000000000e+02 6.070000000000000000e+02 6.080000000000000000e+02 6.090000000000000000e+02 6.100000000000000000e+02 6.110000000000000000e+02 6.120000000000000000e+02 6.130000000000000000e+02 6.140000000000000000e+02 6.150000000000000000e+02 6.160000000000000000e+02 6.170000000000000000e+02 6.180000000000000000e+02 6.190000000000000000e+02 6.200000000000000000e+02 6.210000000000000000e+02 6.220000000000000000e+02 6.230000000000000000e+02 6.240000000000000000e+02 6.250000000000000000e+02 6.260000000000000000e+02 6.270000000000000000e+02 6.280000000000000000e+02 6.290000000000000000e+02 6.300000000000000000e+02 6.310000000000000000e+02 6.320000000000000000e+02 6.330000000000000000e+02 6.340000000000000000e+02 6.350000000000000000e+02 6.360000000000000000e+02 6.370000000000000000e+02 6.380000000000000000e+02 6.390000000000000000e+02 6.400000000000000000e+02 6.410000000000000000e+02 6.420000000000000000e+02 6.430000000000000000e+02 6.440000000000000000e+02 6.450000000000000000e+02 6.460000000000000000e+02 6.470000000000000000e+02 6.480000000000000000e+02 6.490000000000000000e+02 6.500000000000000000e+02 6.510000000000000000e+02 6.520000000000000000e+02 6.530000000000000000e+02 6.540000000000000000e+02 6.550000000000000000e+02 6.560000000000000000e+02 6.570000000000000000e+02 6.580000000000000000e+02 6.590000000000000000e+02 6.600000000000000000e+02 6.610000000000000000e+02 6.620000000000000000e+02 6.630000000000000000e+02 6.640000000000000000e+02 6.650000000000000000e+02 6.660000000000000000e+02 6.670000000000000000e+02 6.680000000000000000e+02 6.690000000000000000e+02 6.700000000000000000e+02 6.710000000000000000e+02 6.720000000000000000e+02 6.730000000000000000e+02 6.740000000000000000e+02 6.750000000000000000e+02 6.760000000000000000e+02 6.770000000000000000e+02 6.780000000000000000e+02 6.790000000000000000e+02 6.800000000000000000e+02 6.810000000000000000e+02 6.820000000000000000e+02 6.830000000000000000e+02 6.840000000000000000e+02 6.850000000000000000e+02 6.860000000000000000e+02 6.870000000000000000e+02 6.880000000000000000e+02 6.890000000000000000e+02 6.900000000000000000e+02 6.910000000000000000e+02 6.920000000000000000e+02 6.930000000000000000e+02 6.940000000000000000e+02 6.950000000000000000e+02 6.960000000000000000e+02 6.970000000000000000e+02 6.980000000000000000e+02 6.990000000000000000e+02 7.000000000000000000e+02 7.010000000000000000e+02 7.020000000000000000e+02 7.030000000000000000e+02 7.040000000000000000e+02 7.050000000000000000e+02 7.060000000000000000e+02 7.070000000000000000e+02 7.080000000000000000e+02 7.090000000000000000e+02 7.100000000000000000e+02 7.110000000000000000e+02 7.120000000000000000e+02 7.130000000000000000e+02 7.140000000000000000e+02 7.150000000000000000e+02 7.160000000000000000e+02 7.170000000000000000e+02 7.180000000000000000e+02 7.190000000000000000e+02 7.200000000000000000e+02 7.210000000000000000e+02 7.220000000000000000e+02 7.230000000000000000e+02 7.240000000000000000e+02 7.250000000000000000e+02 7.260000000000000000e+02 7.270000000000000000e+02 7.280000000000000000e+02 7.290000000000000000e+02 7.300000000000000000e+02 7.310000000000000000e+02 7.320000000000000000e+02 7.330000000000000000e+02 7.340000000000000000e+02 7.350000000000000000e+02 7.360000000000000000e+02 7.370000000000000000e+02 7.380000000000000000e+02 7.390000000000000000e+02 7.400000000000000000e+02 7.410000000000000000e+02 7.420000000000000000e+02 7.430000000000000000e+02 7.440000000000000000e+02 7.450000000000000000e+02 7.460000000000000000e+02 7.470000000000000000e+02 7.480000000000000000e+02 7.490000000000000000e+02 7.500000000000000000e+02 7.510000000000000000e+02 7.520000000000000000e+02 7.530000000000000000e+02 7.540000000000000000e+02 7.550000000000000000e+02 7.560000000000000000e+02 7.570000000000000000e+02 7.580000000000000000e+02 7.590000000000000000e+02 7.600000000000000000e+02 7.610000000000000000e+02 7.620000000000000000e+02 7.630000000000000000e+02 7.640000000000000000e+02 7.650000000000000000e+02 7.660000000000000000e+02 7.670000000000000000e+02 7.680000000000000000e+02 7.690000000000000000e+02 7.700000000000000000e+02 7.710000000000000000e+02 7.720000000000000000e+02 7.730000000000000000e+02 7.740000000000000000e+02 7.750000000000000000e+02 7.760000000000000000e+02 7.770000000000000000e+02 7.780000000000000000e+02 7.790000000000000000e+02 7.800000000000000000e+02 7.810000000000000000e+02 7.820000000000000000e+02 7.830000000000000000e+02 7.840000000000000000e+02 7.850000000000000000e+02 7.860000000000000000e+02 7.870000000000000000e+02 7.880000000000000000e+02 7.890000000000000000e+02 7.900000000000000000e+02 7.910000000000000000e+02 7.920000000000000000e+02 7.930000000000000000e+02 7.940000000000000000e+02 7.950000000000000000e+02 7.960000000000000000e+02 7.970000000000000000e+02 7.980000000000000000e+02 7.990000000000000000e+02 8.000000000000000000e+02 8.010000000000000000e+02 8.020000000000000000e+02 8.030000000000000000e+02 8.040000000000000000e+02 8.050000000000000000e+02 8.060000000000000000e+02 8.070000000000000000e+02 8.080000000000000000e+02 8.090000000000000000e+02 8.100000000000000000e+02 8.110000000000000000e+02 8.120000000000000000e+02 8.130000000000000000e+02 8.140000000000000000e+02 8.150000000000000000e+02 8.160000000000000000e+02 8.170000000000000000e+02 8.180000000000000000e+02 8.190000000000000000e+02 8.200000000000000000e+02 8.210000000000000000e+02 8.220000000000000000e+02 8.230000000000000000e+02 8.240000000000000000e+02 8.250000000000000000e+02 8.260000000000000000e+02 8.270000000000000000e+02 8.280000000000000000e+02 8.290000000000000000e+02 8.300000000000000000e+02 8.310000000000000000e+02 8.320000000000000000e+02 8.330000000000000000e+02 8.340000000000000000e+02 8.350000000000000000e+02 8.360000000000000000e+02 8.370000000000000000e+02 8.380000000000000000e+02 8.390000000000000000e+02 8.400000000000000000e+02 8.410000000000000000e+02 8.420000000000000000e+02 8.430000000000000000e+02 8.440000000000000000e+02 8.450000000000000000e+02 8.460000000000000000e+02 8.470000000000000000e+02 8.480000000000000000e+02 8.490000000000000000e+02 8.500000000000000000e+02 8.510000000000000000e+02 8.520000000000000000e+02 8.530000000000000000e+02 8.540000000000000000e+02 8.550000000000000000e+02 8.560000000000000000e+02 8.570000000000000000e+02 8.580000000000000000e+02 8.590000000000000000e+02 8.600000000000000000e+02 8.610000000000000000e+02 8.620000000000000000e+02 8.630000000000000000e+02 8.640000000000000000e+02 8.650000000000000000e+02 8.660000000000000000e+02 8.670000000000000000e+02 8.680000000000000000e+02 8.690000000000000000e+02 8.700000000000000000e+02 8.710000000000000000e+02 8.720000000000000000e+02 8.730000000000000000e+02 8.740000000000000000e+02 8.750000000000000000e+02 8.760000000000000000e+02 8.770000000000000000e+02 8.780000000000000000e+02 8.790000000000000000e+02 8.800000000000000000e+02 8.810000000000000000e+02 8.820000000000000000e+02 8.830000000000000000e+02 8.840000000000000000e+02 8.850000000000000000e+02 8.860000000000000000e+02 8.870000000000000000e+02 8.880000000000000000e+02 8.890000000000000000e+02 8.900000000000000000e+02 8.910000000000000000e+02 8.920000000000000000e+02 8.930000000000000000e+02 8.940000000000000000e+02 8.950000000000000000e+02 8.960000000000000000e+02 8.970000000000000000e+02 8.980000000000000000e+02 8.990000000000000000e+02 9.000000000000000000e+02 9.010000000000000000e+02 9.020000000000000000e+02 9.030000000000000000e+02 9.040000000000000000e+02 9.050000000000000000e+02 9.060000000000000000e+02 9.070000000000000000e+02 9.080000000000000000e+02 9.090000000000000000e+02 9.100000000000000000e+02 9.110000000000000000e+02 9.120000000000000000e+02 9.130000000000000000e+02 9.140000000000000000e+02 9.150000000000000000e+02 9.160000000000000000e+02 9.170000000000000000e+02 9.180000000000000000e+02 9.190000000000000000e+02 9.200000000000000000e+02 9.210000000000000000e+02 9.220000000000000000e+02 9.230000000000000000e+02 9.240000000000000000e+02 9.250000000000000000e+02 9.260000000000000000e+02 9.270000000000000000e+02 9.280000000000000000e+02 9.290000000000000000e+02 9.300000000000000000e+02 9.310000000000000000e+02 9.320000000000000000e+02 9.330000000000000000e+02 9.340000000000000000e+02 9.350000000000000000e+02 9.360000000000000000e+02 9.370000000000000000e+02 9.380000000000000000e+02 9.390000000000000000e+02 9.400000000000000000e+02 9.410000000000000000e+02 9.420000000000000000e+02 9.430000000000000000e+02 9.440000000000000000e+02 9.450000000000000000e+02 9.460000000000000000e+02 9.470000000000000000e+02 9.480000000000000000e+02 9.490000000000000000e+02 9.500000000000000000e+02 9.510000000000000000e+02 9.520000000000000000e+02 9.530000000000000000e+02 9.540000000000000000e+02 9.550000000000000000e+02 9.560000000000000000e+02 9.570000000000000000e+02 9.580000000000000000e+02 9.590000000000000000e+02 9.600000000000000000e+02 9.610000000000000000e+02 9.620000000000000000e+02 9.630000000000000000e+02 9.640000000000000000e+02 9.650000000000000000e+02 9.660000000000000000e+02 9.670000000000000000e+02 9.680000000000000000e+02 9.690000000000000000e+02 9.700000000000000000e+02 9.710000000000000000e+02 9.720000000000000000e+02 9.730000000000000000e+02 9.740000000000000000e+02 9.750000000000000000e+02 9.760000000000000000e+02 9.770000000000000000e+02 9.780000000000000000e+02 9.790000000000000000e+02 9.800000000000000000e+02 9.810000000000000000e+02 9.820000000000000000e+02 9.830000000000000000e+02 9.840000000000000000e+02 9.850000000000000000e+02 9.860000000000000000e+02 9.870000000000000000e+02 9.880000000000000000e+02 9.890000000000000000e+02 9.900000000000000000e+02 9.910000000000000000e+02 9.920000000000000000e+02 9.930000000000000000e+02 9.940000000000000000e+02 9.950000000000000000e+02 9.960000000000000000e+02 9.970000000000000000e+02 9.980000000000000000e+02 9.990000000000000000e+02
1.000000000000000000e+00 1.000000000000000000e+00 1.000000000000000000e+00 1.000000000000000000e+00 1.000000000000000000e+00 1.000000000000000000e+00 1.000000000000000000e+00 1.000000000000000000e+00 1.000000000000000000e+00 1.000000000000000000e+00 1.000000000000000000e+00 1.000000000000000000e+00 1.000000000000000000e+00 1.000000000000000000e+00 1.000000000000000000e+00 1.000000000000000000e+00 1.000000000000000000e+00 1.000000000000000000e+00 1.000000000000000000e+00 1.000000000000000000e+00 1.000000000000000000e+00 1.000000000000000000e+00 1.000000000000000000e+00 1.000000000000000000e+00 1.000000000000000000e+00 1.000000000000000000e+00 1.000000000000000000e+00 1.000000000000000000e+00 1.000000000000000000e+00 1.000000000000000000e+00 1.000000000000000000e+00 1.000000000000000000e+00 1.000000000000000000e+00 1.000000000000000000e+00 1.000000000000000000e+00 1.000000000000000000e+00 1.000000000000000000e+00 1.000000000000000000e+00 1.000000000000000000e+00 1.000000000000000000e+00 1.000000000000000000e+00 1.000000000000000000e+00 1.000000000000000000e+00 1.000000000000000000e+00 1.000000000000000000e+00 1.000000000000000000e+00 1.000000000000000000e+00 1.000000000000000000e+00 1.000000000000000000e+00 1.000000000000000000e+00 1.000000000000000000e+00 1.000000000000000000e+00 1.000000000000000000e+00 1.000000000000000000e+00 1.000000000000000000e+00 1.000000000000000000e+00 1.000000000000000000e+00 1.000000000000000000e+00 1.000000000000000000e+00 1.000000000000000000e+00 1.000000000000000000e+00 1.000000000000000000e+00 1.000000000000000000e+00 1.000000000000000000e+00 1.000000000000000000e+00 1.000000000000000000e+00 1.000000000000000000e+00 1.000000000000000000e+00 1.000000000000000000e+00 1.000000000000000000e+00 1.000000000000000000e+00 1.000000000000000000e+00 1.000000000000000000e+00 1.000000000000000000e+00 1.000000000000000000e+00 1.000000000000000000e+00 1.000000000000000000e+00 1.000000000000000000e+00 1.000000000000000000e+00 1.000000000000000000e+00 1.000000000000000000e+00 1.000000000000000000e+00 1.000000000000000000e+00 1.000000000000000000e+00 1.000000000000000000e+00 1.000000000000000000e+00 1.000000000000000000e+00 1.000000000000000000e+00 1.000000000000000000e+00 1.000000000000000000e+00 1.000000000000000000e+00 1.000000000000000000e+00 1.000000000000000000e+00 1.000000000000000000e+00 1.000000000000000000e+00 1.000000000000000000e+00 1.000000000000000000e+00 1.000000000000000000e+00 1.000000000000000000e+00 1.000000000000000000e+00 1.000000000000000000e+00 1.000000000000000000e+00 1.000000000000000000e+00 1.000000000000000000e+00 1.000000000000000000e+00 1.000000000000000000e+00 1.000000000000000000e+00 1.000000000000000000e+00 1.000000000000000000e+00 1.000000000000000000e+00 1.000000000000000000e+00 1.000000000000000000e+00 1.000000000000000000e+00 1.000000000000000000e+00 1.000000000000000000e+00 1.000000000000000000e+00 1.000000000000000000e+00 1.000000000000000000e+00 1.000000000000000000e+00 1.000000000000000000e+00 1.000000000000000000e+00 1.000000000000000000e+00 1.000000000000000000e+00 1.000000000000000000e+00 1.000000000000000000e+00 1.000000000000000000e+00 1.000000000000000000e+00 1.000000000000000000e+00 1.000000000000000000e+00 1.000000000000000000e+00 1.000000000000000000e+00 1.000000000000000000e+00 1.000000000000000000e+00 1.000000000000000000e+00 1.000000000000000000e+00 1.000000000000000000e+00 1.000000000000000000e+00 1.000000000000000000e+00 1.000000000000000000e+00 1.000000000000000000e+00 1.000000000000000000e+00 1.000000000000000000e+00 1.000000000000000000e+00 1.000000000000000000e+00 1.000000000000000000e+00 1.000000000000000000e+00 1.000000000000000000e+00 1.000000000000000000e+00 1.000000000000000000e+00 1.000000000000000000e+00 1.000000000000000000e+00 1.000000000000000000e+00 1.000000000000000000e+00 1.000000000000000000e+00 1.000000000000000000e+00 1.000000000000000000e+00 1.000000000000000000e+00 1.000000000000000000e+00 1.000000000000000000e+00 1.000000000000000000e+00 1.000000000000000000e+00 1.000000000000000000e+00 1.000000000000000000e+00 1.000000000000000000e+00 1.000000000000000000e+00 1.000000000000000000e+00 1.000000000000000000e+00 1.000000000000000000e+00 1.000000000000000000e+00 1.000000000000000000e+00 1.000000000000000000e+00 1.000000000000000000e+00 1.000000000000000000e+00 1.000000000000000000e+00 1.000000000000000000e+00 1.000000000000000000e+00 1.000000000000000000e+00 1.000000000000000000e+00 1.000000000000000000e+00 1.000000000000000000e+00 1.000000000000000000e+00 1.000000000000000000e+00 1.000000000000000000e+00 1.000000000000000000e+00 1.000000000000000000e+00 1.000000000000000000e+00 1.000000000000000000e+00 1.000000000000000000e+00 1.000000000000000000e+00 1.000000000000000000e+00 1.000000000000000000e+00 1.000000000000000000e+00 1.000000000000000000e+00 1.000000000000000000e+00 1.000000000000000000e+00 1.000000000000000000e+00 1.000000000000000000e+00 1.000000000000000000e+00 1.000000000000000000e+00 1.000000000000000000e+00 1.000000000000000000e+00 1.000000000000000000e+00 1.000000000000000000e+00 1.000000000000000000e+00 1.000000000000000000e+00 1.000000000000000000e+00 1.000000000000000000e+00 1.000000000000000000e+00 1.000000000000000000e+00 1.000000000000000000e+00 1.000000000000000000e+00 1.000000000000000000e+00 1.000000000000000000e+00 1.000000000000000000e+00 1.000000000000000000e+00 1.000000000000000000e+00 1.000000000000000000e+00 1.000000000000000000e+00 1.000000000000000000e+00 1.000000000000000000e+00 1.000000000000000000e+00 1.000000000000000000e+00 1.000000000000000000e+00 1.000000000000000000e+00 1.000000000000000000e+00 1.000000000000000000e+00 1.000000000000000000e+00 1.000000000000000000e+00 1.000000000000000000e+00 1.000000000000000000e+00 1.000000000000000000e+00 1.000000000000000000e+00 1.000000000000000000e+00 1.000000000000000000e+00 1.000000000000000000e+00 1.000000000000000000e+00 1.000000000000000000e+00 1.000000000000000000e+00 1.000000000000000000e+00 1.000000000000000000e+00 1.000000000000000000e+00 1.000000000000000000e+00 1.000000000000000000e+00 1.000000000000000000e+00 1.000000000000000000e+00 1.000000000000000000e+00 1.000000000000000000e+00 1.000000000000000000e+00 1.000000000000000000e+00 1.000000000000000000e+00 1.000000000000000000e+00 1.000000000000000000e+00 1.000000000000000000e+00 1.000000000000000000e+00 1.000000000000000000e+00 1.000000000000000000e+00 1.000000000000000000e+00 1.000000000000000000e+00 1.000000000000000000e+00 1.000000000000000000e+00 1.000000000000000000e+00 1.000000000000000000e+00 1.000000000000000000e+00 1.000000000000000000e+00 1.000000000000000000e+00 1.000000000000000000e+00 1.000000000000000000e+00 1.000000000000000000e+00 1.000000000000000000e+00 1.000000000000000000e+00 1.000000000000000000e+00 1.000000000000000000e+00 1.000000000000000000e+00 1.000000000000000000e+00 1.000000000000000000e+00 1.000000000000000000e+00 1.000000000000000000e+00 1.000000000000000000e+00 1.000000000000000000e+00 1.000000000000000000e+00 1.000000000000000000e+00 1.000000000000000000e+00 1.000000000000000000e+00 1.000000000000000000e+00 1.000000000000000000e+00 1.000000000000000000e+00 1.000000000000000000e+00 1.000000000000000000e+00 1.000000000000000000e+00 1.000000000000000000e+00 1.000000000000000000e+00 1.000000000000000000e+00 1.000000000000000000e+00 1.000000000000000000e+00 1.000000000000000000e+00 1.000000000000000000e+00 1.000000000000000000e+00 1.000000000000000000e+00 1.000000000000000000e+00 1.000000000000000000e+00 1.000000000000000000e+00 1.000000000000000000e+00 1.000000000000000000e+00 1.000000000000000000e+00 1.000000000000000000e+00 1.000000000000000000e+00 1.000000000000000000e+00 1.000000000000000000e+00 1.000000000000000000e+00 1.000000000000000000e+00 1.000000000000000000e+00 1.000000000000000000e+00 1.000000000000000000e+00 1.000000000000000000e+00 1.000000000000000000e+00 1.000000000000000000e+00 1.000000000000000000e+00 1.000000000000000000e+00 1.000000000000000000e+00 1.000000000000000000e+00 1.000000000000000000e+00 1.000000000000000000e+00 1.000000000000000000e+00 1.000000000000000000e+00 1.000000000000000000e+00 1.000000000000000000e+00 1.000000000000000000e+00 1.000000000000000000e+00 1.000000000000000000e+00 1.000000000000000000e+00 1.000000000000000000e+00 1.000000000000000000e+00 1.000000000000000000e+00 1.000000000000000000e+00 1.000000000000000000e+00 1.000000000000000000e+00 1.000000000000000000e+00 1.000000000000000000e+00 1.000000000000000000e+00 1.000000000000000000e+00 1.000000000000000000e+00 1.000000000000000000e+00 1.000000000000000000e+00 1.000000000000000000e+00 1.000000000000000000e+00 1.000000000000000000e+00 1.000000000000000000e+00 1.000000000000000000e+00 1.000000000000000000e+00 1.000000000000000000e+00 1.000000000000000000e+00 1.000000000000000000e+00 1.000000000000000000e+00 1.000000000000000000e+00 1.000000000000000000e+00 1.000000000000000000e+00 1.000000000000000000e+00 1.000000000000000000e+00 1.000000000000000000e+00 1.000000000000000000e+00 1.000000000000000000e+00 1.000000000000000000e+00 1.000000000000000000e+00 1.000000000000000000e+00 1.000000000000000000e+00 1.000000000000000000e+00 1.000000000000000000e+00 1.000000000000000000e+00 1.000000000000000000e+00 1.000000000000000000e+00 1.000000000000000000e+00 1.000000000000000000e+00 1.000000000000000000e+00 1.000000000000000000e+00 1.000000000000000000e+00 1.000000000000000000e+00 1.000000000000000000e+00 1.000000000000000000e+00 1.000000000000000000e+00 1.000000000000000000e+00 1.000000000000000000e+00 1.000000000000000000e+00 1.000000000000000000e+00 1.000000000000000000e+00 1.000000000000000000e+00 1.000000000000000000e+00 1.000000000000000000e+00 1.000000000000000000e+00 1.000000000000000000e+00 1.000000000000000000e+00 1.000000000000000000e+00 1.000000000000000000e+00 1.000000000000000000e+00 1.000000000000000000e+00 1.000000000000000000e+00 1.000000000000000000e+00 1.000000000000000000e+00 1.000000000000000000e+00 1.000000000000000000e+00 1.000000000000000000e+00 1.000000000000000000e+00 1.000000000000000000e+00 1.000000000000000000e+00 1.000000000000000000e+00 1.000000000000000000e+00 1.000000000000000000e+00 1.000000000000000000e+00 1.000000000000000000e+00 1.000000000000000000e+00 1.000000000000000000e+00 1.000000000000000000e+00 1.000000000000000000e+00 1.000000000000000000e+00 1.000000000000000000e+00 1.000000000000000000e+00 1.000000000000000000e+00 1.000000000000000000e+00 1.000000000000000000e+00 1.000000000000000000e+00 1.000000000000000000e+00 1.000000000000000000e+00 1.000000000000000000e+00 1.000000000000000000e+00 1.000000000000000000e+00 1.000000000000000000e+00 1.000000000000000000e+00 1.000000000000000000e+00 1.000000000000000000e+00 1.000000000000000000e+00 1.000000000000000000e+00 1.000000000000000000e+00 1.000000000000000000e+00 1.000000000000000000e+00 1.000000000000000000e+00 1.000000000000000000e+00 1.000000000000000000e+00 1.000000000000000000e+00 1.000000000000000000e+00 1.000000000000000000e+00 1.000000000000000000e+00 1.000000000000000000e+00 1.000000000000000000e+00 1.000000000000000000e+00 1.000000000000000000e+00 1.000000000000000000e+00 1.000000000000000000e+00 1.000000000000000000e+00 1.000000000000000000e+00 1.000000000000000000e+00 1.000000000000000000e+00 1.000000000000000000e+00 1.000000000000000000e+00 1.000000000000000000e+00 1.000000000000000000e+00 1.000000000000000000e+00 1.000000000000000000e+00 1.000000000000000000e+00 1.000000000000000000e+00 1.000000000000000000e+00 1.000000000000000000e+00 1.000000000000000000e+00 1.000000000000000000e+00 1.000000000000000000e+00 1.000000000000000000e+00 1.000000000000000000e+00 1.000000000000000000e+00 1.000000000000000000e+00 1.000000000000000000e+00 1.000000000000000000e+00 1.000000000000000000e+00 1.000000000000000000e+00 1.000000000000000000e+00 1.000000000000000000e+00 1.000000000000000000e+00 1.000000000000000000e+00 1.000000000000000000e+00 1.000000000000000000e+00 1.000000000000000000e+00 1.000000000000000000e+00 1.000000000000000000e+00 1.000000000000000000e+00 1.000000000000000000e+00 1.000000000000000000e+00 1.000000000000000000e+00 1.000000000000000000e+00 1.000000000000000000e+00 1.000000000000000000e+00 1.000000000000000000e+00 1.000000000000000000e+00 1.000000000000000000e+00 1.000000000000000000e+00 1.000000000000000000e+00 1.000000000000000000e+00 1.000000000000000000e+00 1.000000000000000000e+00 1.000000000000000000e+00 1.000000000000000000e+00 1.000000000000000000e+00 1.000000000000000000e+00 1.000000000000000000e+00 1.000000000000000000e+00 1.000000000000000000e+00 1.000000000000000000e+00 1.000000000000000000e+00 1.000000000000000000e+00 1.000000000000000000e+00 1.000000000000000000e+00 1.000000000000000000e+00 1.000000000000000000e+00 1.000000000000000000e+00 1.000000000000000000e+00 1.000000000000000000e+00 1.000000000000000000e+00 1.000000000000000000e+00 1.000000000000000000e+00 1.000000000000000000e+00 1.000000000000000000e+00 1.000000000000000000e+00 1.000000000000000000e+00 1.000000000000000000e+00 1.000000000000000000e+00 1.000000000000000000e+00 1.000000000000000000e+00 1.000000000000000000e+00 1.000000000000000000e+00 1.000000000000000000e+00 1.000000000000000000e+00 1.000000000000000000e+00 1.000000000000000000e+00 1.000000000000000000e+00 1.000000000000000000e+00 1.000000000000000000e+00 1.000000000000000000e+00 1.000000000000000000e+00 1.000000000000000000e+00 1.000000000000000000e+00 1.000000000000000000e+00 1.000000000000000000e+00 1.000000000000000000e+00 1.000000000000000000e+00 1.000000000000000000e+00 1.000000000000000000e+00 1.000000000000000000e+00 1.000000000000000000e+00 1.000000000000000000e+00 1.000000000000000000e+00 1.000000000000000000e+00 1.000000000000000000e+00 1.000000000000000000e+00 1.000000000000000000e+00 1.000000000000000000e+00 1.000000000000000000e+00 1.000000000000000000e+00 1.000000000000000000e+00 1.000000000000000000e+00 1.000000000000000000e+00 1.000000000000000000e+00 1.000000000000000000e+00 1.000000000000000000e+00 1.000000000000000000e+00 1.000000000000000000e+00 1.000000000000000000e+00 1.000000000000000000e+00 1.000000000000000000e+00 1.000000000000000000e+00 1.000000000000000000e+00 1.000000000000000000e+00 1.000000000000000000e+00 1.000000000000000000e+00 1.000000000000000000e+00 1.000000000000000000e+00 1.000000000000000000e+00 1.000000000000000000e+00 1.000000000000000000e+00 1.000000000000000000e+00 1.000000000000000000e+00 1.000000000000000000e+00 1.000000000000000000e+00 1.000000000000000000e+00 1.000000000000000000e+00 1.000000000000000000e+00 1.000000000000000000e+00 1.000000000000000000e+00 1.000000000000000000e+00 1.000000000000000000e+00 1.000000000000000000e+00 1.000000000000000000e+00 1.000000000000000000e+00 1.000000000000000000e+00 1.000000000000000000e+00 1.000000000000000000e+00 1.000000000000000000e+00 1.000000000000000000e+00 1.000000000000000000e+00 1.000000000000000000e+00 1.000000000000000000e+00 1.000000000000000000e+00 1.000000000000000000e+00 1.000000000000000000e+00 1.000000000000000000e+00 1.000000000000000000e+00 1.000000000000000000e+00 1.000000000000000000e+00 1.000000000000000000e+00 1.000000000000000000e+00 1.000000000000000000e+00 1.000000000000000000e+00 1.000000000000000000e+00 1.000000000000000000e+00 1.000000000000000000e+00 1.000000000000000000e+00 1.000000000000000000e+00 1.000000000000000000e+00 1.000000000000000000e+00 1.000000000000000000e+00 1.000000000000000000e+00 1.000000000000000000e+00 1.000000000000000000e+00 1.000000000000000000e+00 1.000000000000000000e+00 1.000000000000000000e+00 1.000000000000000000e+00 1.000000000000000000e+00 1.000000000000000000e+00 1.000000000000000000e+00 1.000000000000000000e+00 1.000000000000000000e+00 1.000000000000000000e+00 1.000000000000000000e+00 1.000000000000000000e+00 1.000000000000000000e+00 1.000000000000000000e+00 1.000000000000000000e+00 1.000000000000000000e+00 1.000000000000000000e+00 1.000000000000000000e+00 1.000000000000000000e+00 1.000000000000000000e+00 1.000000000000000000e+00 1.000000000000000000e+00 1.000000000000000000e+00 1.000000000000000000e+00 1.000000000000000000e+00 1.000000000000000000e+00 1.000000000000000000e+00 1.000000000000000000e+00 1.000000000000000000e+00 1.000000000000000000e+00 1.000000000000000000e+00 1.000000000000000000e+00 1.000000000000000000e+00 1.000000000000000000e+00 1.000000000000000000e+00 1.000000000000000000e+00 1.000000000000000000e+00 1.000000000000000000e+00 1.000000000000000000e+00 1.000000000000000000e+00 1.000000000000000000e+00 1.000000000000000000e+00 1.000000000000000000e+00 1.000000000000000000e+00 1.000000000000000000e+00 1.000000000000000000e+00 1.000000000000000000e+00 1.000000000000000000e+00 1.000000000000000000e+00 1.000000000000000000e+00 1.000000000000000000e+00 1.000000000000000000e+00 1.000000000000000000e+00 1.000000000000000000e+00 1.000000000000000000e+00 1.000000000000000000e+00 1.000000000000000000e+00 1.000000000000000000e+00 1.000000000000000000e+00 1.000000000000000000e+00 1.000000000000000000e+00 1.000000000000000000e+00 1.000000000000000000e+00 1.000000000000000000e+00 1.000000000000000000e+00 1.000000000000000000e+00 1.000000000000000000e+00 1.000000000000000000e+00 1.000000000000000000e+00 1.000000000000000000e+00 1.000000000000000000e+00 1.000000000000000000e+00 1.000000000000000000e+00 1.000000000000000000e+00 1.000000000000000000e+00 1.000000000000000000e+00 1.000000000000000000e+00 1.000000000000000000e+00 1.000000000000000000e+00 1.000000000000000000e+00 1.000000000000000000e+00 1.000000000000000000e+00 1.000000000000000000e+00 1.000000000000000000e+00 1.000000000000000000e+00 1.000000000000000000e+00 1.000000000000000000e+00 1.000000000000000000e+00 1.000000000000000000e+00 1.000000000000000000e+00 1.000000000000000000e+00 1.000000000000000000e+00 1.000000000000000000e+00 1.000000000000000000e+00 1.000000000000000000e+00 1.000000000000000000e+00 1.000000000000000000e+00 1.000000000000000000e+00 1.000000000000000000e+00 1.000000000000000000e+00 1.000000000000000000e+00 1.000000000000000000e+00 1.000000000000000000e+00 1.000000000000000000e+00 1.000000000000000000e+00 1.000000000000000000e+00 1.000000000000000000e+00 1.000000000000000000e+00 1.000000000000000000e+00 1.000000000000000000e+00 1.000000000000000000e+00 1.000000000000000000e+00 1.000000000000000000e+00 1.000000000000000000e+00 1.000000000000000000e+00 1.000000000000000000e+00 1.000000000000000000e+00 1.000000000000000000e+00 1.000000000000000000e+00 1.000000000000000000e+00 1.000000000000000000e+00 1.000000000000000000e+00 1.000000000000000000e+00 1.000000000000000000e+00 1.000000000000000000e+00 1.000000000000000000e+00 1.000000000000000000e+00 1.000000000000000000e+00 1.000000000000000000e+00 1.000000000000000000e+00 1.000000000000000000e+00 1.000000000000000000e+00 1.000000000000000000e+00 1.000000000000000000e+00 1.000000000000000000e+00 1.000000000000000000e+00 1.000000000000000000e+00 1.000000000000000000e+00 1.000000000000000000e+00 1.000000000000000000e+00 1.000000000000000000e+00 1.000000000000000000e+00 1.000000000000000000e+00 1.000000000000000000e+00 1.000000000000000000e+00 1.000000000000000000e+00 1.000000000000000000e+00 1.000000000000000000e+00 1.000000000000000000e+00 1.000000000000000000e+00 1.000000000000000000e+00 1.000000000000000000e+00 1.000000000000000000e+00 1.000000000000000000e+00 1.000000000000000000e+00 1.000000000000000000e+00 1.000000000000000000e+00 1.000000000000000000e+00 1.000000000000000000e+00 1.000000000000000000e+00 1.000000000000000000e+00 1.000000000000000000e+00 1.000000000000000000e+00 1.000000000000000000e+00 1.000000000000000000e+00 1.000000000000000000e+00 1.000000000000000000e+00 1.000000000000000000e+00 1.000000000000000000e+00 1.000000000000000000e+00 1.000000000000000000e+00 1.000000000000000000e+00 1.000000000000000000e+00 1.000000000000000000e+00 1.000000000000000000e+00 1.000000000000000000e+00 1.000000000000000000e+00 1.000000000000000000e+00 1.000000000000000000e+00 1.000000000000000000e+00 1.000000000000000000e+00 1.000000000000000000e+00 1.000000000000000000e+00 1.000000000000000000e+00 1.000000000000000000e+00 1.000000000000000000e+00 1.000000000000000000e+00 1.000000000000000000e+00 1.000000000000000000e+00 1.000000000000000000e+00 1.000000000000000000e+00 1.000000000000000000e+00 1.000000000000000000e+00 1.000000000000000000e+00 1.000000000000000000e+00 1.000000000000000000e+00 1.000000000000000000e+00 1.000000000000000000e+00 1.000000000000000000e+00 1.000000000000000000e+00 1.000000000000000000e+00 1.000000000000000000e+00 1.000000000000000000e+00 1.000000000000000000e+00 1.000000000000000000e+00 1.000000000000000000e+00 1.000000000000000000e+00 1.000000000000000000e+00 1.000000000000000000e+00 1.000000000000000000e+00 1.000000000000000000e+00 1.000000000000000000e+00 1.000000000000000000e+00 1.000000000000000000e+00 1.000000000000000000e+00 1.000000000000000000e+00 1.000000000000000000e+00 1.000000000000000000e+00 1.000000000000000000e+00 1.000000000000000000e+00 1.000000000000000000e+00 1.000000000000000000e+00 1.000000000000000000e+00 1.000000000000000000e+00 1.000000000000000000e+00 1.000000000000000000e+00 1.000000000000000000e+00 1.000000000000000000e+00 1.000000000000000000e+00 1.000000000000000000e+00 1.000000000000000000e+00 1.000000000000000000e+00 1.000000000000000000e+00 1.000000000000000000e+00 1.000000000000000000e+00 1.000000000000000000e+00 1.000000000000000000e+00 1.000000000000000000e+00 1.000000000000000000e+00 1.000000000000000000e+00 1.000000000000000000e+00 1.000000000000000000e+00 1.000000000000000000e+00 1.000000000000000000e+00 1.000000000000000000e+00 1.000000000000000000e+00 1.000000000000000000e+00 1.000000000000000000e+00 1.000000000000000000e+00 1.000000000000000000e+00 1.000000000000000000e+00 1.000000000000000000e+00 1.000000000000000000e+00 1.000000000000000000e+00 1.000000000000000000e+00 1.000000000000000000e+00 1.000000000000000000e+00 1.000000000000000000e+00 1.000000000000000000e+00 1.000000000000000000e+00 1.000000000000000000e+00 1.000000000000000000e+00 1.000000000000000000e+00 1.000000000000000000e+00 1.000000000000000000e+00 1.000000000000000000e+00 1.000000000000000000e+00 1.000000000000000000e+00 1.000000000000000000e+00 1.000000000000000000e+00 1.000000000000000000e+00 1.000000000000000000e+00 1.000000000000000000e+00 1.000000000000000000e+00 1.000000000000000000e+00 1.000000000000000000e+00 1.000000000000000000e+00 1.000000000000000000e+00 1.000000000000000000e+00 1.000000000000000000e+00 1.000000000000000000e+00 1.000000000000000000e+00 1.000000000000000000e+00 1.000000000000000000e+00 1.000000000000000000e+00 1.000000000000000000e+00 1.000000000000000000e+00 1.000000000000000000e+00 1.000000000000000000e+00 1.000000000000000000e+00 1.000000000000000000e+00 1.000000000000000000e+00 1.000000000000000000e+00 1.000000000000000000e+00 1.000000000000000000e+00 1.000000000000000000e+00 1.000000000000000000e+00 1.000000000000000000e+00 1.000000000000000000e+00 1.000000000000000000e+00 1.000000000000000000e+00 1.000000000000000000e+00 1.000000000000000000e+00 1.000000000000000000e+00 1.000000000000000000e+00 1.000000000000000000e+00 1.000000000000000000e+00 1.000000000000000000e+00 1.000000000000000000e+00 1.000000000000000000e+00 1.000000000000000000e+00 1.000000000000000000e+00 1.000000000000000000e+00 1.000000000000000000e+00 1.000000000000000000e+00 1.000000000000000000e+00 1.000000000000000000e+00 1.000000000000000000e+00 1.000000000000000000e+00 1.000000000000000000e+00 1.000000000000000000e+00 1.000000000000000000e+00 1.000000000000000000e+00 1.000000000000000000e+00 1.000000000000000000e+00 1.000000000000000000e+00 1.000000000000000000e+00 1.000000000000000000e+00 1.000000000000000000e+00 1.000000000000000000e+00 1.000000000000000000e+00 1.000000000000000000e+00 1.000000000000000000e+00 1.000000000000000000e+00 1.000000000000000000e+00 1.000000000000000000e+00 1.000000000000000000e+00 1.000000000000000000e+00 1.000000000000000000e+00 1.000000000000000000e+00 1.000000000000000000e+00 1.000000000000000000e+00 1.000000000000000000e+00 1.000000000000000000e+00 1.000000000000000000e+00 1.000000000000000000e+00 1.000000000000000000e+00 1.000000000000000000e+00 1.000000000000000000e+00 1.000000000000000000e+00 1.000000000000000000e+00 1.000000000000000000e+00 1.000000000000000000e+00 1.000000000000000000e+00 1.000000000000000000e+00 1.000000000000000000e+00 1.000000000000000000e+00 1.000000000000000000e+00 1.000000000000000000e+00 1.000000000000000000e+00 1.000000000000000000e+00 1.000000000000000000e+00 1.000000000000000000e+00 1.000000000000000000e+00 1.000000000000000000e+00 1.000000000000000000e+00 1.000000000000000000e+00 1.000000000000000000e+00 1.000000000000000000e+00 1.000000000000000000e+00 1.000000000000000000e+00 1.000000000000000000e+00 1.000000000000000000e+00 1.000000000000000000e+00 1.000000000000000000e+00 1.000000000000000000e+00 1.000000000000000000e+00 1.000000000000000000e+00 1.000000000000000000e+00 1.000000000000000000e+00 1.000000000000000000e+00 1.000000000000000000e+00
-3.840844346278171010e-03 5.567432071962027385e-01 -1.928516832885619758e-01 7.195714835418526301e-01 5.128579210813042355e-01 5.828637652613422038e-01 6.444714014030304972e-01 2.537483661195278906e-01 5.190605367197325126e-01 5.019503092937095401e-01 1.075717149891976421e+00 -6.664478367250712409e-01 1.388500659659658520e+00 4.447849881094991242e-01 5.122053402989118487e-01 4.031025892189598059e-01 9.147174907995925253e-01 9.694370363312309058e-01 6.529655233983983065e-01 5.208983282931705094e-01 4.392581759582082079e-01 9.748968874541613649e-01 4.977297629775687682e-01 4.619502943416214924e-01 1.175392270953861534e-01 6.846192201362919505e-01 3.597324429269094792e-01 5.718397608656452524e-01 5.279862621262361166e-01 1.532236549197195652e+00 5.351947641194876315e-01 6.135960501117394550e-01 7.211748385947696072e-01 4.875615709136068565e-01 7.152488218463204372e-01 4.529121536848501606e-01 5.629989753437166788e-01 1.731567646976024166e+00 -6.153780760725430232e-02 4.910667593221434979e-01 -1.308309986891585397e-01 -5.584203396651008511e-01 7.512714388500758567e-01 2.228104196531148218e-01 2.593737974741248675e-01 5.200672582125853705e-01 7.199240309507711766e-01 5.276113838422256119e-01 5.588149865748199829e-01 2.696186355537077278e-02 8.137467730441910740e-03 8.471721247329202509e-01 6.681494025382530566e-01 4.815031508128106985e-01 4.508406762880681762e-01 1.578764132881020285e-02 4.866557578913556226e-01 5.464703067941585335e-01 1.846309140962223150e-01 4.765021111614682892e-01 9.078542929813974149e-01 5.550443406462419738e-01 4.701063229138238153e-01 4.977296887721864294e-01 6.832076411939984606e-01 5.161019088128270260e-01 5.099335031548847263e-01 2.832789369438374338e-01 5.310108189132227707e-01 -1.084146378829065928e-02 4.075994210014660113e-01 4.679247231839461785e-01 5.235682916858998004e-01 4.121377818667346787e-02 1.490239781953383247e+00 5.597575326397780104e-01 6.316282240538578785e-01 7.440315302012948662e-01 5.085317388189373178e-01 1.378298118301215514e+00 5.424126348253826002e-01 2.835536703826153082e-01 1.364554669226023309e+00 6.662903735847337527e-01 4.864219499938013946e-01 7.579785345206270231e-01 8.169241417723914767e-01 5.422011362544651991e-01 4.028104136511010402e-01 5.753371196911238883e-01 2.628911686246616641e-01 2.129293994515839117e+00 7.068995679430438717e-01 -5.703458881880821979e-02 5.553970241594635704e-01 5.890679069274200597e-01 5.211444865863648079e-01 4.711597385209117528e-01 1.895376014836201994e-01 6.910513740786999870e-01 1.571835430436233860e+00 6.866708355775886785e-01 5.397959471384111696e-01 7.814395121375614650e-01 8.580883680770433619e-01 -2.000183712435839922e+00 -1.189198829248711009e+00 5.488619338940106118e-01 5.504512001195287496e-01 9.731480792712045025e-01 5.208573315627211819e-01 4.751926038191039980e-01 1.667593500041819055e-01 4.699350557203924583e-01 5.167650960485332678e-01 5.159952227655040247e-01 5.265147641537794021e-01 5.520953755381600159e-01 8.613828164697463485e-01 5.138520862303517234e-01 1.289765121147686378e+00 5.640665507929646383e-01 5.324328127768238605e-01 -3.456657209681364140e-01 5.118548561462998858e-01 1.919069744768991059e+00 5.517466731804786528e-01 4.775894335131579127e-01 6.868480326209646103e-01 5.035563540996030873e-01 5.474047315292772664e-01 5.127143866845665920e-01 4.095791372972510391e-01 2.572475305665075651e-01 -2.065836861962483118e-01 -1.526519699083503101e-01 6.153411266042179140e-01 3.767376187629612599e-02 9.904014727148393593e-01 6.812305097784332464e-01 4.991717331774088162e-01 8.554435536488501635e-01 6.514685366895098806e-01 5.936843156316214953e-01 5.046682207965611511e-01 2.526052066475930474e-02 8.627469569430542551e-01 1.194204053475857868e-01 4.798639254280542277e-01 -8.568937464815150618e-01 7.799879461138423675e-01 -2.993989607461212676e-01 5.200679299457950933e-01 5.292520790976632528e-01 5.018714061885439781e-01 5.168624095885417935e-01 1.865336233753686734e+00 -5.252634381313477097e-02 8.072339023956254245e-01 6.998247780608717328e-01 5.116797168590780931e-01 4.273622803934166714e-01 5.090957781231880697e-01 5.096896738244842684e-01 1.091629435166977080e+00 1.438500700659206266e-01 8.437623456021001722e-01 4.450692155570714625e-01 6.013115650394698086e-01 6.037156996738297643e-01 4.282204336745623063e-01 7.176352586619541007e-01 5.200671293920456906e-01 5.104797242559129256e-01 4.065031417015617654e-01 1.858683597205715993e-02 1.754660341378151134e-01 7.543674895574387085e-02 7.375755139165419694e-01 1.139633996284156847e+00 7.182662761798058737e-01 5.025771051045849758e-01 -1.869341613326478690e-01 4.677364829370644350e-01 6.771488342112700343e-01 5.225468072397003727e-01 5.261055190285822691e-01 4.984699507067313351e-01 2.721738997555533057e+00 5.302193330056249598e-01 5.086940958051615613e-01 -8.587260941909176104e-01 5.292964664818594622e-01 5.730658140474931272e-01 1.773087954134827948e-01 5.075292273623495110e-01 9.247634985925078377e-01 5.263020689396182838e-01 6.869334494591953222e-01 4.222828711079325559e-01 6.135980278848945924e-01 5.525948755626606257e-01 9.679524415096754097e-01 5.993706394202649168e-01 5.432541082669302135e-01 6.869334932444093322e-01 2.919512063516314093e-01 1.276341731844904182e+00 5.039900171457746270e-01 3.543360840491254771e-01 4.471764921062808540e-01 -6.299482676906457967e-02 4.702081216510250461e-01 1.643724853010152531e-01 5.253109776323383606e-01 5.066877587857190335e-01 5.155300508106910318e-01 5.224071036808117796e-01 5.059604215559123652e-01 5.070366302166966488e-01 4.526123523638317936e-01 6.143243875786104091e-01 -6.923036788928732532e-01 5.619583522025012323e-01 3.129765781897975718e-01 4.030142523362251206e-01 1.645776113888050007e-01 1.271438342775811581e+00 9.470740275752005388e-01 5.025314523509846198e-01 -1.047420159293474679e-01 1.044579169602457336e+00 5.113313416652094379e-01 4.536420282984866548e-01 4.633437126280212648e-01 4.181864919094470112e-01 4.264615309729492543e-01 2.022481439956400340e-01 -1.438886952213956627e-01 -1.239177014928360965e-01 3.057809659206291442e-01 5.135204419495738026e-01 -9.675147546063164739e-02 4.793307445785082166e-01 5.104774345496007060e-01 4.502493783201726441e-01 -1.052291846097793554e-01 7.419053483611038891e-01 -2.190706622886687605e+00 5.858303413694546657e-01 -5.375294477222943845e-01 4.960999783766450455e-01 5.106226004610940894e-01 4.977295959894771360e-01 4.750893299822706028e-01 5.288416281086147919e-01 5.160137732746582495e-01 7.291241959294681996e-01 5.358475322639131289e-01 1.679962745567912030e+00 6.708005345934964225e-01 6.977439142257934046e-01 5.133561489134638167e-01 3.498349025223991271e-01 9.078543326108948763e-01 3.734206067193220346e-01 2.615574545629970604e+00 5.626761140484545232e-01 2.441846890228521194e-01 6.735838273778224083e-01 5.067446664585562033e-01 9.072499041514916485e-01 5.056708292911817892e-01 5.320372827936961091e-01 5.090666158882842796e-01 1.051359379898846091e+00 7.598847988296214551e-01 8.677453306545384049e-01 8.113006088743837108e-01 3.362645327859634659e-01 6.734788593487823771e-01 5.622784473029753816e-01 3.981307668247252574e-01 -6.950420735167412989e-01 3.810908225457046439e-01 7.008634173934672473e-01 5.462523038254457619e-01 5.361900644263628557e-01 5.159952219211418889e-01 6.061141759869395074e-01 5.379470048338487187e-01 -7.556551587900053324e-01 6.821295595706133863e-01 5.145865265705868996e-01 5.808407107829723082e-02 5.343617406706097084e-01 1.839055794799064669e+00 4.926622992631143894e-01 5.041166143396631494e-01 4.798730036235823171e-01 -3.324298685333729964e+00 5.218843732825784176e-01 2.684585863898229618e+00 7.182197973021685611e-01 4.928281183131444365e-01 -5.824459139259757778e-01 5.088268867107982318e-01 5.066644643614806043e-01 4.315732327922624512e-01 4.646209675644983328e-01 3.875864545749418411e-01 6.343542413456505491e-01 3.149989577882252312e-01 5.164492918022923762e-01 5.234787660758564165e-01 3.722191493689200881e-01 5.050417429736737684e-01 7.186794191675057730e-01 5.132526617213506448e-01 1.185242749774272353e+00 1.367685878099846215e-02 2.197247462369582571e+00 2.591932465951093612e+00 5.566177948379180673e-01 -1.919881407245829508e-01 4.791635488927863951e-01 4.060190362622274618e-01 7.196131273738431977e-01 1.356218293081438597e+00 5.393065652103848917e-01 1.115587621737643031e+00 5.074839362260240572e-01 1.303918300795612883e-01 1.241660609061989717e+00 3.834254003839324687e-01 4.996851836445641015e-01 5.417697601030366794e-01 8.658927962536228096e-01 -3.589892839443791672e+00 1.605897654609442116e+00 5.517545340190326275e-01 6.401219164977988152e-01 5.055526759823233407e-01 1.731567642099272941e+00 3.120218094868015823e-01 5.330537739921651363e-01 4.855857963636662777e-01 4.260561240594837873e-01 1.383660067805926541e+00 6.288026614037391937e-01 6.869334489322563853e-01 4.793265361322254225e-01 5.993706403514015291e-01 6.596300944577693226e-01 5.587328809556699749e-01 8.873276134593272024e-01 5.103761709147014436e-01 3.987657192582184096e-01 2.430090718476857481e-01 6.375220642527287263e-01 5.132528453553970582e-01 4.789652602999568964e-01 5.330537711016860580e-01 6.595843169857407151e-01 5.115333112691333728e-01 9.850173563673016996e-01 1.007640556190843695e+00 1.114447071990517069e+00 5.209317798004735600e-01 2.491164542230821233e-01 9.078550092193951038e-01 -1.085727565592886912e-01 9.328422277266199547e-01 6.264110503272796171e-01 1.405345616006517875e-02 5.492699166270662570e-01 1.006663108077300528e+00 3.934251899907760808e-01 5.350822918795293814e-01 2.646548983218262041e-01 -3.279347836784795023e-01 -2.402886326331841627e+00 4.657982827306474949e-01 5.993706394077766841e-01 5.993705855153188544e-01 5.235495137931566179e-01 4.712750766536011326e-01 -2.014646997817362006e-01 3.456490538807560631e-01 5.022347010756936792e-01 6.290872772762846621e-01 5.116515059320223546e-01 1.065600388251165986e+00 6.869332767513024463e-01 5.105985730099621422e-01 4.698140081060172557e-01 2.658700942744122719e-01 6.451286403418916571e-01 5.323774717774176768e-01 5.140382879308575959e-01 5.620553315158542951e-01 2.662681743939978585e-01 2.749729852677708711e-02 5.993706404088497974e-01 6.546111268060080812e-01 5.102857481574181175e-01 4.540414491681459275e-01 8.565903671153782817e-01 6.405744415127671010e-01 5.627847266730995335e-01 1.794695204435728053e+00 5.271121492431908306e-01 -2.945263928556038024e+00 7.196399874003862607e-01 1.494888720490301859e+00 5.173672841544204593e-01 -1.027226363322407021e+00 6.882362119106146814e-01 4.783087520995755737e-01 5.126625425195246999e-01 5.373368890964341782e-01 -2.498225611570623894e-01 5.119208028604621541e-01 1.061936050855183389e+00 6.350192653317863201e-01 -3.095550500750794964e-01 5.184697366271691088e-01 5.058366698045438925e-01 7.621477291776900254e-01 5.248880457464969451e-01 4.972068435523080976e-01 -4.969837871233507287e-01 5.622838318116817335e-01 5.074931114148149014e-01 7.185217512204450374e-01 4.929200626314140243e-01 7.632742729718670072e-01 5.133296209093195506e-01 5.620216268516495806e-01 7.395510616685457839e-01 5.523530709920267956e-01 3.526204220077031604e-01 2.589373050992912484e-01 3.055034947053929528e-01 9.508726506331284245e-01 5.435416200551466126e-01 3.137784030015838166e+00 6.607164721288184550e-01 5.908742326151357194e-01 5.616828269059478407e-01 6.404343995506063258e-01 2.756478013200492141e-02 4.821034786183264753e-01 6.007323223812599533e-01 5.204175698419003515e-01 1.166131817714191499e+00 7.635346467698167494e-01 5.281317287641118519e-01 4.547598819790447111e-01 1.113102727324579044e+00 5.317947765888970668e-01 5.275366036912996215e-01 5.251463510424557724e-01 6.966153388892988296e-01 5.141030277394680326e-01 9.143367980967351816e-01 4.753808023145382755e-01 5.094864180497202799e-01 1.249749634325629348e-02 5.386610628492329855e-01 3.989256002524963624e-02 3.732096166345977850e-01 4.222407176861912026e-01 5.440639792223681548e-01 7.686873025398212045e-01 5.077899617256599329e-01 4.042823200738651646e-01 4.012361420890009356e-02 5.705479969143677499e-01 5.369391970044348206e-01 5.317298846856018946e-01 4.375210660077383934e-02 5.107021865522980431e-01 2.485186061941279390e-01 5.073787281188502085e-01 4.371690482583001081e-01 1.247182342335856120e+00 7.933041638771846094e-01 5.073454456231794030e-01 2.825696721465756345e-01 6.038920702065565527e-01 4.165729644710622348e-01 9.837248852599226323e-01 5.739717677662798945e-01 5.161336091818344851e-01 6.810100774399490131e-01 1.956278034029242940e+00 4.533074192709736772e-01 4.052632343407008841e-01 5.138619540825749565e-01 6.818727031181716081e-01 4.354803155191521724e-01 8.161807862248797729e-01 -5.592478560172200464e-01 3.122450192652597711e-01 5.526670247292925220e-01 4.427396854618236843e-01 3.769619635879137842e-01 -5.920076667983514840e-01 3.911433482452160715e-01 5.118317615759208072e-01 7.389845378326297398e-01 6.630043403162905191e-01 1.400401296581801347e+00 5.113535479620954227e-01 5.144403082299646712e-01 -6.723489519631848932e-01 4.902873152120729161e-01 1.190768380326201470e+00 6.885828216462329676e-01 2.474238956793355093e-01 2.909887296603023144e-01 -1.528738571386423439e+00 4.882447478029393606e-01 1.960314601797991108e-01 1.089151540313167965e+00 8.105985982587488037e-01 5.165808978780254135e-01 5.052670950349461565e-01 6.115425512031197330e-01 7.193475638260631300e-01 4.787822039406163244e-01 5.666999005872805917e-01 2.526756292962350700e-02 5.280203530688182267e-01 6.217293629818837486e-01 6.638765280739902241e-01 4.950347786051002563e-01 5.959329203831040811e-01 1.176466782673274203e+00 -1.113484151836723335e-01 -2.238818415880723389e-01 4.635574264884329554e-01 5.417546336115190986e-01 5.640563565295168003e-01 5.283774054121779251e-01 -8.222315575505129148e-01 3.102670269192213226e+00 5.934265673445245914e-01 4.625515624248521251e-01 4.139648028135053948e-01 5.089305894162828858e-01 5.175844016842628958e-01 6.457272928847122007e-01 3.282542529115319296e-01 5.727967254239688666e-01 5.096609537271458157e-01 6.614110861287602061e-01 3.815537468702934198e-01 5.548990303770955368e-01 5.229934836542068366e-01 4.064297356968708530e-01 4.616450557876268790e-01 5.436421129540109920e-01 6.380486146281931781e-01 9.953737884598163888e-01 2.281645474452221656e+00 5.850111872676307945e-01 4.931251414220839679e-01 5.594743096588719045e-01 5.467099678571547550e-01 3.646263194347029724e-01 5.125928987743352261e-01 5.075402668299168196e-01 5.557543011964787283e-01 4.858315085772101916e-01 4.918440814459589250e-01 7.190908546433391058e-01 3.710739578069164879e-01 5.897448647409481159e-01 5.416147740743046946e-01 5.896510930675840090e-01 1.287282837809082536e-01 9.078543140773795983e-01 5.402240569125642544e-01 1.555839803734632432e-01 1.905730736610394382e+00 2.629041387972141375e-01 4.768350975703612438e-01 5.829476489673739437e-01 5.971102834634942069e-02 5.404133893215258277e-01 1.492077370183061635e+00 7.404679448279037901e-01 7.973921090541173928e-01 5.110463512102120243e-01 5.376582276164612040e-01 5.132354225388583435e-01 6.037084454204613149e-01 5.161009607897888429e-01 5.095847865599436588e-01 -1.424448779254493536e-01 5.981601413707927639e-01 -1.338445129931170818e+00 5.415822086404288305e-01 4.887534556619020920e-01 5.504096225278350962e-01 4.798867811135036354e-01 9.078543140663385413e-01 2.296796055975668105e-01 5.677670742042613128e-01 1.301679945047272469e+00 -5.255843882826312097e-01 5.061998435971930554e-01 1.110418075060899845e+00 1.463750441007337866e+00 3.787615042728513237e-01 5.088366094730034650e-01 -4.174115771590090201e-02 -1.627225830340781831e+00 2.856072928107714626e-01 7.132299564241069145e-01 5.270145716489850196e-01 5.055356556029741988e-01 4.642089466641022288e-01 4.893705162225320260e-01 -3.833125081540753043e-01 8.060793930365468540e-01 5.159952272639455328e-01 3.476297638808346635e-01 5.382042740310233331e-01 -2.631733238418037038e-02 -1.771253782320717507e-01 1.741086919182235127e+00 4.178224464357546131e-01 4.312610722284668796e-01 5.088638709169761576e-01 3.339478318729799944e-01 6.275934250095180911e-01 -5.760292527583225561e-04 -9.521798402016449225e-01 5.082108917325957043e-01 5.153459947764539306e-01 4.733729071836197955e-01 5.791466450130501320e-01 5.516583559525249925e-01 5.404158022626875946e-01 5.178734125184826231e-01 5.831295331794023040e-01 1.021644470722956832e+00 7.288777386781901679e-01 5.516132996830012125e-01 5.348949245843169775e-01 4.808848776564506045e-01 4.307922862487031934e-01 -1.499028090738443141e-03 5.330537723199509914e-01 5.691872044043315704e-01 4.613299253036496350e-01 7.377443906780754013e-01 9.827713018149554225e-01 8.161750741609345994e-01 -4.558039969258600443e-01 5.514569537998987858e-01 5.391402598656277467e-01 5.052238835920478399e-01 5.677922137431112848e-01 8.929398093005660453e-01 5.446174280213035290e-01 4.961560025481853708e-01 -1.881765594715562595e-01 -8.297475561309199943e-01 2.235693509466943230e+00 5.259528850775726516e-01 8.847590040905441988e-01 4.966757585683475029e-01 5.648060020202569920e-01 3.564495545984744940e-01 1.484870436964785545e-01 5.102648289908753299e-01 5.387672218804157032e-01 6.103507055455544006e-03 5.117894113137063661e-01 4.251864434453966890e-01 5.080704599443532921e-01 7.658269628164503517e-01 4.997530003914678054e-01 5.805514828089863855e-01 3.823386257045800485e-01 5.580643698398171093e-01 3.369080434755822306e-01 5.096614056413918403e-01 4.619627638736679143e-01 5.258065247642453865e-01 -2.985434343264426471e-01 5.050138814537610266e-01 6.430732234243011769e-01 5.350734059137922660e-01 7.198558248317316055e-01 9.078540550063471937e-01 7.363046813170914806e-01 -5.745121136829127728e-01 9.950909110941703606e-01 1.731567647002221877e+00 4.719642209145852307e-01 4.638943246843549306e-01 1.065261175487227430e+00 5.284325362217282551e-01 7.200248760588099373e-01 5.099983040266791168e-01 1.767788875702725582e+00 5.079440680868402280e-01 4.793303690314202892e-01 1.234163335048342525e+00 -4.884586224773154045e-02 5.334808863926088218e-01 -1.691433073992765213e-01 -9.261965201655508739e-01 -1.773807260794123541e-01 7.807857817397391154e-01 5.305321941325846780e-01 5.816689763473090746e-01 -3.368296980022321696e-01 4.995941839103605342e-01 3.343362015287692449e-03 -3.380229447878079219e-01 4.535402309059956005e-01 5.085669281905318417e-01 5.142247775111943309e-01 5.694280214583841149e-01 5.644771215324513314e-01 8.987402929183300193e-01 -3.706864920099020577e-01 5.135882367947582905e-01 5.621918050712455539e-01 6.310038567808162746e-01 1.155169537410534408e+00 5.225880968217656575e-01 5.988864683280418211e-01 5.159832993740430807e-01 1.711886225923898996e-02 -2.496756269873330880e-01 5.064110210705027315e-01 5.157592427411347158e-01 6.537367292714282296e-01 4.885571211678297887e-01 3.334064709765053314e-01 5.117186054539710760e-01 5.085921494012247690e-01 3.272984408000037537e-01 5.072329403830962979e-01 8.364101107232887466e-01 2.504890519956743944e+00 -2.332324441828827477e-01 6.690976165665241115e-01 3.462320064897161376e-01 2.267417008630776276e-01 6.892361034590841484e-01 -5.596283822057330354e-02 -1.465630603747410277e+00 5.236816748206218897e-01 2.565347552756532590e+00 5.107917964974413305e-01 1.435395862278085188e-01 1.847332594300311326e-01 5.159952227145196968e-01 5.478633117424912546e-01 1.528052083541043604e+00 4.873372865007962185e-01 1.254367592924458819e-01 4.494237006453926098e-01 1.650483594831432477e+00 5.631278236701685591e-01 6.947930337653055455e-01 4.935368550423606671e-01 7.431754642486235740e-01 4.515787045967929458e-01 5.598026738914894107e-01 8.495810704829730511e-03 5.105254928574661788e-01 5.679695671782454269e-01 -5.589100259110690860e-01 -1.922032609835796699e-02 1.165571585056666137e+00 2.342565051740207183e-01 4.952790225193306473e-01 6.635760977858489174e-01 5.402722878057547584e-01 1.979913575826060868e+00 7.109175395175763024e-01 2.697759144653648009e-02 2.505849914055362504e-01 4.104092743853812730e-01 1.086617548923668242e+00 5.556737165405882806e-01 -1.816424541361843364e-02 4.889935556813163609e-01 -2.603633014853382055e-02 5.232502808456495069e-01 5.131302348914517086e-01 1.230200166983376128e-02 -7.640784474776886326e-02 6.638202008648942387e-01 6.202181864072141559e-01 5.216179154603486356e-01 3.227311194245581216e-01 5.449386023863227457e-01 4.795631059658142514e-01 5.655107135926503714e-01 5.457435979490961042e-01 4.829752794367813684e-01 6.476045881591453446e-01 1.011680264017835285e+00 3.066662487129155679e+00 8.793043027049570748e-01 5.222348374239136337e-01 6.571686659270939979e-01 2.097207588501759368e-01 5.119570858248014833e-01 8.306461629613074438e-01 4.794488205670214831e-01 1.315510559461204210e+00 5.425999017489467890e-01 -5.585253917891260800e-01 -9.183683224604128476e-03 4.233675087413861782e-01 6.100906779710809635e-01 5.572722737981989916e-01 5.027358292985285582e-01 -9.778613125284699517e-03 4.760888971384491519e-01 3.936925870686320272e-01 -3.503192088532228521e+00 4.936708053554943465e-01 5.320805246107475073e-01 1.113848866575199548e+00 5.169005354392650631e-01 6.005573794550378430e-01 6.793073454592457594e-01 -8.519431924988998261e-01 -5.075247320297936460e-01 5.936257371049220161e-02 5.098631930667676393e-01 4.034273554655132266e-01 2.283995185595008859e-01 4.855364664376838335e-01 -3.272148280183306279e-01 6.659900150755936332e-01 5.643642100717475296e-01 6.927637813880317408e-01 5.323841926476844399e-01 4.788009196271900691e-01 1.688269141824062236e-01 -7.206500394135528786e-01 6.461327053585816937e-01 5.373011362052684259e-01 1.683177279065224408e-01 5.108807174155238773e-01 5.863920803746082155e-01 4.938361583080477790e-01 6.673183603115429019e-01 5.642406867899453227e-01 5.346198381878726202e-01 4.967747600513602868e-01 1.731567646586210429e+00 3.751658060690026830e-01 5.527185257352050796e-01 -9.959071773605741862e-02 5.292413335561270138e-01 6.167604428932595972e-01 5.206906822021539760e-01 5.051899255673041322e-01 3.467612881731706453e-01 8.856798533295754394e-01 1.168187635133954405e+00 5.577833396211230310e-01 5.469750034316805953e-01 5.947427515770484785e-01 4.704310070075454764e-01 5.221221428257867281e-01 5.090634339038804246e-01 9.951353273681237122e-01 7.346053638379422823e-01 -4.449764711860091371e-01 4.401957110543822660e-01 9.217204138182664153e-01 4.821887014447047148e-01 4.318128693865511125e-03 5.367166965875628248e-01 1.141701341992450436e+00 -1.380154562171575228e-01 5.206919306863798669e-01 2.553886632482322838e-01 5.409274109324596624e-01 7.991087357604415020e-01 5.061937702683991791e-01 3.656173880502148754e-01 1.385940573996165437e+00 5.356682473897824703e-01 5.177351019356793982e-01 -5.976485433059208763e-01 4.647148653078352343e-01 1.044725846039525674e+00 5.776330634770728834e-01 1.142535611042331672e-01 9.364197829215851199e-01 -6.972140123257457300e-02 5.177476672089986742e-01 1.573153010976854782e+00 -8.460228807318357358e-01 5.282905027677173848e-01 5.111758207111225527e-01 -4.276527583627278695e-01 3.474888949132126648e-01 5.469061028883305253e-01 4.609323569742392324e-01 5.349249391188384273e-01 3.432580477809542008e-01 2.644432134974867843e-01 3.490600986826952190e-01 5.267217801044389303e-01 5.136804178716910529e-01 2.816526937011665493e-03 -4.122410789883076965e-02 5.197871901450917820e-01 1.056640299353210022e+00 3.810183942176516014e-01 -5.589835970602206050e-01 5.478453603944594130e-01 5.126874259767667530e-01 4.659473921865850410e-01 2.053500800846650223e-02 3.461034771012024280e-01 5.107929781736559871e-01 4.956745154349329607e-01 4.570001556941237775e-01 5.033055016988804281e-02 4.425631650854956467e-01 5.001211607373873269e-01 6.660396331107167889e-01 2.056838757428415043e+00 3.189592512707595251e-02 3.802555772099074916e-01 4.752525284859296373e-01 1.801041005802070272e+00 4.981426505813650318e-01 5.164230502577891180e-01 1.416631359504252549e-02 5.330537713955330048e-01 5.021670987065260938e-01 4.683797306313312037e-01 3.832312516341522812e-01 5.184576137679375307e-01 5.821967353687469426e-01 5.275461524707287797e-01 -4.960289028056954486e-01 5.040099356164335909e-01 5.028185486208479604e-01 5.219692930133241759e-01 9.199192928010049286e-01 5.164174094254940783e-01 -2.371736823568997010e-01 1.030112571179775616e+00 -1.203173708166598299e+00 -4.961931159122022206e-01 5.014162295493886923e-01 5.070724462777211894e-01 6.471783386008101990e-01 5.247734116962254891e-01 3.494919640136087136e-01 6.339787860236302253e-01 5.330537738860343655e-01 5.090011754034430291e-01 6.141159657762695900e-01 5.680585404128719595e-01 5.096380856466731224e-01 2.791866592313055340e-01 4.886754392776598288e-01 4.408416195724934594e-01 3.555219661660221075e-01 5.158596590178260444e-01 5.104067887223843192e-01 5.421242498556286815e-01 6.293660226065102004e-01 5.075919434422508925e-01 6.415435279598021845e-01 4.696826931353589307e-01 4.918316828492880766e-01 5.479009092300299866e-01 3.208367589860000035e-01 4.663470794949994835e-01 2.343274541614084328e+00 5.895675102866800854e-01 5.528579912922074735e-01 3.331799401275615247e-01 5.738446785309716525e-01 1.102250924470707494e+00 5.872477407267472360e-01 7.178271972719187932e-01 5.103072009195321890e-01
6.814361227729428538e-01 2.432587092641450011e-01 4.016541145922690736e-01 6.026352823437568229e-02 3.096785454349959554e-01 2.844337859967531745e-01 5.242879407998179975e-01 4.603133095531420915e-01 2.116086059167919253e-01 3.088539281487273080e-01 2.015045839183504661e+00 1.689037782039245039e+00 -1.402980884832536024e+00 6.211986137711230649e-01 3.108302183385676098e-01 3.690834613047827562e-01 1.280679161025179702e-01 4.185055690162358677e-01 4.492834344643525379e-01 2.899982972161238015e-01 4.727573524412796435e-01 2.067374623269883749e+00 4.052558860293392629e-01 3.536628048126860269e-01 6.976795188387289182e-01 -2.744187501613460922e-01 4.736409636545461654e-01 2.729601726664462880e-01 2.873751591780943082e-01 -8.215016797685488203e-01 2.201135996318924204e-01 -8.773907459841061296e-02 2.896952844224685020e-01 2.574328612877964106e-01 -4.302142070932216678e-01 4.048519779985794154e-01 3.100009808459882055e-01 -3.152128845017847514e-01 -3.150915709819583466e+00 2.845466349514483850e-01 1.094934033439738830e+00 1.377975775539524439e-01 -1.621148376041045835e-01 7.912331773724171624e-01 6.662219134452679326e-01 2.757412906917571793e-01 5.980774251183219870e-02 3.004990802527704452e-01 2.912399108634901035e-01 7.279760738290179667e-01 7.018147523750817296e-01 4.422521750939023555e-01 -2.949419146032341565e-01 1.957341699757760012e-01 6.045032281366093940e-01 6.997256401955028737e-01 3.203119374867353097e-01 2.884753285989943294e-01 3.484666520451895622e-01 3.294035096960866715e-01 4.215402595190986812e-01 3.204515472554708144e-01 3.313027083097095371e-01 4.052558958270107148e-01 -3.450426412453766467e-01 2.405419098204690243e-01 2.968504116451132213e-01 3.449595020932223477e-01 2.795488473817449027e-01 7.301080277615282776e-01 1.197885466850348024e-01 3.408759563538343862e-01 2.883482912758856820e-01 7.060839791796522658e-01 1.881357425227882851e+00 5.237833342197537601e-01 4.647689413985028883e-01 4.777128128201846846e-01 3.159075869332535480e-01 -1.308631627466585234e+00 2.726150582497611774e-01 6.554499964685218671e-01 2.227016549912403054e+00 1.411089982909696505e-01 2.886894759229037266e-01 -4.394991897353606181e-01 1.157797748292507811e-01 2.932725182350628401e-01 -5.664896395788810990e-01 -8.552528044390290685e-01 6.656122982389252041e-01 1.532795310834938141e+00 1.175724716837559941e-01 7.115465506067691903e-01 3.092715905947454047e-01 2.903491340355734973e-01 2.835457274522328874e-01 7.139462808387193604e-01 7.392745555621244025e-01 -2.734233805202049283e-01 -1.623926917080953380e-01 5.741758967440877687e-02 2.858048043595295962e-01 2.179828788688900343e-01 2.789788168745134175e-02 3.017936806514669446e+00 -2.744262394726552090e-01 3.937315304591931103e-02 2.347299164074587163e-01 8.055018105243948456e-01 2.262152260045008634e-01 3.662675679726380973e-01 1.736645585209296017e-01 4.877559438653490398e-01 -4.968482128382507024e-01 2.106026850295558694e-01 3.763019758820417837e-01 3.577952627659294338e-01 9.283390620377298674e-01 3.195757070082341222e-01 -1.419248039423173013e+00 2.881966093730439771e-01 2.620876936961753501e-01 1.263491464933860886e+00 3.031521176418872643e-01 2.118572270672252955e+00 1.578328790443223328e-01 3.886455891749470704e-01 2.897160165357576256e-01 3.301087246120658070e-01 2.398007491851164574e-01 3.112120478632526277e-01 6.695271060180207900e-01 3.945536615045292517e-01 1.881138632592220250e-01 8.888403408284568652e-01 6.877285025676354024e-01 7.265285008481715545e-01 -3.258277258622261918e-01 1.954889229449152388e-01 2.898702699053223308e-01 3.211940575297461131e-01 2.108668231391976899e-01 3.396419684808171247e-01 3.232920209053521954e-01 6.994591450664582322e-01 -1.012002812609602287e-01 3.182545366916318952e-01 4.435587166389768354e-01 3.932937322056538343e-01 -2.986274208962405585e-01 1.933745140566522566e-02 2.757426019364078718e-01 2.957437071402306272e-01 3.811020769176436951e-01 3.021700102932468601e-01 -2.186152603195305133e+00 4.400999018131002694e-01 -5.789457273839051510e-01 -2.717475603794820005e-01 3.910338459743485373e-01 1.727036127039984770e-01 3.000651297172251541e-01 3.180279971313144660e-01 1.045054133055583756e-01 4.913144057840043710e-02 3.134076870648040969e-01 3.813268715792116348e-01 2.392100668622583470e-01 3.756801512796087983e-01 1.968916892514779304e-01 5.783001965890961077e-02 2.757698140640248430e-01 3.113243235911291040e-01 -2.445657155560552187e+00 7.214366647349679251e-01 6.449017530073369864e-01 9.886050286903627082e-01 -4.503021099799356386e-01 1.166529022391503467e+00 -2.836028081562520786e-02 3.502291101772762039e-01 1.221839254502326888e+00 2.444764474557599987e-01 3.023652210550212827e-01 2.584813099138696391e-01 2.591058381098638175e-01 2.999255651835879832e-01 -4.480254084526689162e-01 3.856229199888469572e-01 1.839782816735459348e-01 7.971723372160740562e-01 3.143239772656757913e-01 2.099960850328751738e-01 2.169057265088077391e-01 3.196385228573235815e-01 -1.592899103740980093e+00 2.927388445069190048e-01 1.665178537611948228e-01 3.452265126676990481e-01 1.427314508672474502e-01 3.101585060970160623e-01 3.724630725898251393e-01 1.234887378248470391e-01 -8.110211892774589204e-01 1.665178312551835460e-01 4.387551774685964912e-01 -4.982517889225860919e-01 3.018738347927951704e-01 1.508950739071457658e-01 2.721953306729346656e-01 -3.153271189830174404e+00 4.243724690722130988e-01 9.409777219271524551e-01 3.126473223903850629e-01 3.221374601010424388e-01 3.088615624491360401e-01 2.959279276530921710e-01 3.245593969446192717e-01 3.166726198459954289e-01 3.108946408686419360e-01 2.180677833198105542e-01 6.540584340031343480e-01 1.640567374653154609e-01 5.327583125589913093e-01 4.279438223666109931e-01 3.755040109612562405e-01 -6.184725076176066372e-01 2.213583063543544061e+00 3.716982553128054811e-01 1.221848247131227971e+00 -1.371218935448898391e+00 3.116444018888526180e-01 1.992057123844467037e-01 3.442490302935914959e-01 1.131871137567575403e+00 4.578519811137570783e-01 7.820161545842442274e-01 2.759893961876287993e-01 6.705082219340001704e-01 3.573356270880886365e-01 3.363806402258226469e-01 -1.134504266434774644e+00 3.193110825098179895e-01 3.159133752712894316e-01 4.515515118669897743e-01 9.247060705590651741e-01 -3.268484208288228166e-01 3.040200254283705661e+00 4.434872421952666399e-01 1.194257431996196717e+00 -5.396342406091531735e-02 3.017965903101589298e-01 4.052560167838832883e-01 2.983103360893130662e-01 3.085482728723611401e-01 3.353972039551376128e-01 -6.979720501195449400e-02 1.760869155943109721e-01 5.601157915935219833e-01 2.960647575665026343e-01 9.056295724950857995e-02 2.861817228281862135e-01 2.971603720157188766e-01 4.215402233361801865e-01 2.742650330892525412e-01 3.128623470223531378e+00 3.828182118085424746e-01 6.568249026401519197e-01 5.442583978615190832e-01 3.656736408451793374e-01 4.220242714413952045e-01 3.210970383924283689e-01 2.719969071591130105e-01 3.156050751539826726e-01 -4.793587242051602360e-01 4.843233970879222694e-01 2.855626488362912885e-01 1.102699784893749202e-01 2.265054473198151175e-01 1.502093921481338468e+00 2.183112103927006276e-01 2.705823407881986498e-01 1.969878081963298833e+00 4.865807954862242934e-01 3.686591225193562305e-01 2.816824335540065727e-01 3.164242393399798736e-01 2.106026851665945832e-01 -2.033694665139252233e+00 2.880151700991183117e-01 1.441385181074573030e+00 2.761737278401750137e-02 1.989118054886262199e-01 7.184899880261860217e-01 2.461416490009909197e-01 -7.065407999655858307e-01 4.502897521145378112e-01 3.231771811931686278e-01 4.435865814804555440e-01 -3.714366361907764924e-01 2.958608923144629421e-01 -2.065192687985568210e+00 5.844934587234438400e-02 3.394962015150081447e-01 6.087156678256521181e-01 3.125065030273509459e-01 3.196263366258516037e-01 4.308145370035235677e-01 2.336369945600460241e-01 -1.317690879558583161e-01 -7.458229366649917758e-01 7.930504774677150231e-03 6.767671180646377405e-01 2.967735813246458187e-01 4.711641960083293723e-01 3.127974920538341141e-01 5.916216984201183582e-02 3.076117639463351594e-01 2.380321156400443616e+00 6.921964581081395673e-01 2.463853633261289811e-01 -1.119048719033131301e+00 2.252676015126181264e-01 4.525645377812892889e+00 3.070372138236650561e-01 -8.965493495186183104e-02 5.673365737183106994e-01 -5.411764489918756915e+00 4.936853654149549464e-01 1.499282709569963012e+00 3.195562911599443279e-01 5.455977503469889855e-01 -4.269629063723309748e-01 3.316604700567810093e-01 2.849371312901570752e-01 3.604440865699652941e-01 2.617200654340640087e-01 2.832286876353836913e+00 -3.572474273904099884e-01 2.487092351719784045e-01 -1.880310938433937817e+00 2.786125095461009504e-01 -3.152128842874067360e-01 7.348709431614189880e-01 5.609370730135472272e-01 3.721383376519730168e-01 3.558075714110740528e-01 1.290814402587824983e+00 1.328337167563988785e-01 1.665178549113852102e-01 3.193165478675080715e-01 1.234887359938801749e-01 2.361823699915191754e-01 3.999759218702677588e-01 -5.913269898829964788e-01 3.140214060712543942e-01 5.235168783449906105e-01 3.604468697332404159e-01 1.775467456419041468e-01 3.089111433735655665e-01 4.243639711672861359e-01 5.609370776110511603e-01 3.260098907974244842e-01 3.125978513737581177e-01 2.134201252339979760e-01 4.675654246704994410e-01 3.265228536653623337e+00 2.892151499861708164e-01 1.815984309675448272e-01 4.215391916633582370e-01 8.579866438084515767e-01 4.613001302234319700e-01 -1.873303855750250435e-01 6.989544662680303722e-01 2.178091114109799720e-01 1.104649495628312605e-01 3.818376674291051320e-01 6.422180575214767595e-01 6.737416864432886898e-01 7.665819203217131284e-01 8.028982510775531933e-01 3.891608877624227469e-01 1.234887378652560486e-01 1.234888251613382726e-01 3.740085105834876633e-01 9.848306915114007909e-02 1.120021998184488332e+00 4.191953576511706636e-01 3.068520505692367562e-01 3.951683994318580528e-01 3.113599863835053716e-01 7.924657358399205265e-01 1.665182940968565617e-01 3.125296767622958161e-01 4.298422556404089545e-01 3.224757196464669295e-01 -6.270349545349230835e-01 2.910683405058198669e-01 2.983203231602622463e-01 3.472013280210842767e-01 7.068568256121720017e-01 7.504094642900223100e-01 1.234887360478524182e-01 2.510140294309449321e-02 3.106501945960122857e-01 3.913172476820566681e-01 -5.879628771832982048e-01 2.271909522543849869e-01 -3.407793035138523496e+00 1.873464059578157537e+00 6.139225387849248650e-01 -4.281914414623700371e-01 6.037885547788639229e-02 2.009607268522279444e+00 3.229982299321309536e-01 6.257526017861904100e-01 7.848687817108959686e-02 2.642267775371608396e-01 4.685578671576092757e-01 3.266426173574153990e-01 -3.828334237373060001e-01 2.843681056036427290e-01 2.006370774393761991e+00 3.430799104536860211e-01 -3.800891611660518477e-01 2.357250537044852101e-01 3.232938529933808147e-01 -1.430983679945784903e+00 2.664167666014627955e-01 2.604654247654861754e-01 4.025102890826367519e-01 2.476343142767760686e-01 3.159817196949656903e-01 2.486744148297206081e-01 3.290066795059549687e-01 -1.595821617851836960e-01 3.118708993643221072e-01 1.639971982889727176e-01 3.446893976425641215e-01 2.561830295103704747e-01 3.425872214955686529e-02 4.576124443663183716e-01 6.467853044512336114e-01 -1.333873648676222601e+00 -4.494220375749325980e-01 -1.011367271366358789e-01 2.953097719211343272e-02 3.381279019748735792e-01 4.218430788313008994e-01 3.621907775818424269e-01 7.102477827608234540e-01 -8.568684074689043861e-02 3.292439791887535883e-01 2.950930974124459372e-01 9.122058158440864151e-02 -1.599177158906924523e-01 3.403604993996101613e-01 4.216333942544517321e-01 4.781403177206027255e-01 3.106606625833174817e-01 2.993619558756300814e-01 3.145342007354467451e-01 2.637082572142044889e-01 3.051110669859493640e-01 5.181756043446467119e-01 4.251584328886225950e-01 3.166528120561186710e-01 7.000336367795690906e-01 2.818613600928316920e-01 7.027815796643842594e-01 1.315960013565727615e-01 4.623288523314115772e-01 2.118076914893030349e-01 -1.422265657737057154e+00 3.255946018327517955e-01 6.378768020585647847e-01 3.977896154962017317e-01 2.513598392975978646e-01 2.790258064503420288e-01 3.466942152258825072e-01 7.143738127638955548e-01 3.135286119525316773e-01 3.497136395291706723e-01 3.157648690064667751e-01 3.003581587691603327e-01 2.291352440645375299e-01 5.323340649332533037e-01 3.021527170884279467e-01 2.938547902487031460e-01 2.366052309428904044e-01 3.232415771701264290e-02 1.592788525570198566e+00 3.562675540341495584e-01 3.756603428466034345e-01 3.695192747678184841e-01 -8.102623285242575024e-01 4.467074972132843436e-01 3.644541061625283240e-01 5.489089785685106193e-01 2.803440773967510666e-02 3.391207917210204981e-01 1.455952812727465684e+00 8.835480977240713907e-01 3.698540460662907425e-01 2.584565083376446082e-01 4.021736074414753448e-01 3.154252199712841431e-01 9.018404624740986586e-01 2.955568499121066672e+00 3.114167745615010752e-01 7.231830796213521706e-02 5.973633478210355063e-01 -1.479517192211149967e-01 3.158889476904622184e-01 3.205383741066283321e-01 1.044435427548789264e+00 3.487027410410509232e-01 -2.977453043863961812e-01 3.645395560721956252e-01 1.095941342059841006e-01 6.686039358155065893e-01 1.643203076811277530e+00 3.857554768007724344e-01 2.289668873938759397e-01 1.635980840163320016e+00 4.194490181858370748e-01 2.788043193665968866e-01 3.072390841870643596e-01 3.895605484045364109e-01 5.999070127619322845e-02 3.986986226436657899e-01 2.325539932273497368e-01 7.104370129510239051e-01 3.508558184715501738e-01 3.602995060926655890e-01 2.967416206080326080e-01 4.578457593296896277e-01 2.604140144997779127e-01 2.499214309928710631e-01 9.307917549269075774e-01 4.976748951845300084e-01 3.534190948514409070e-01 2.904950743742997776e-01 3.237008628582841996e-01 3.359348800353016973e-01 5.808475233048727704e-01 7.610604956454176673e-01 2.913233388256966094e-01 2.684346411660806231e-01 3.649021317479075877e-01 3.183548362866334136e-01 7.497703629609712150e-01 2.031706939691500513e-01 4.283190237788068733e-01 -3.171767097993898887e-01 3.126576111928131563e-01 2.157046141880118451e-01 3.966853086926435124e-01 3.489232169236934911e-01 2.302544932119828525e-01 1.725440312161403034e+00 1.669438685457186877e-01 2.923501205404300807e-01 -1.299902456093054437e-01 1.577007478597984180e+00 1.131053853595698433e+00 9.253565986419295952e-02 -4.660462453909605673e-01 2.763266041462100198e-01 3.116849183973464665e-01 5.116949947722098102e-01 3.143026026728162337e-01 3.207149295869217154e-01 2.093820210895957212e-01 3.174763323140185056e-01 3.461767588081615110e-01 6.056780755176302544e-02 -1.549091696040898469e-01 3.854943470140857475e-01 3.897908712726599889e-01 1.831523205664769283e-01 8.500964007310743975e-01 4.215402409380116233e-01 2.148929551951953010e-01 8.129944610120387605e-01 4.763965716912522130e-01 6.660641570678074164e-01 4.114521824659960747e-01 6.820464854364027829e-01 1.451563256302587313e+00 3.059644856106777944e-01 2.012867288366246399e+00 -7.686730306550744116e-03 1.288400094962122711e-01 3.113059492501733527e-01 2.857898978197899731e-01 3.041334690857340206e-01 3.757047601776893897e-01 3.222123468764139798e-01 3.124267628935682439e-01 3.493348152116475536e-01 1.811221576044553250e-01 -2.630492531686706714e-01 3.247502105282633056e-01 -7.659764398024206111e-02 2.489398865980008979e-01 4.436330925816374116e-01 4.215402409010869933e-01 1.926181600085291046e-01 2.734543232333470075e-01 -1.160986201439440313e+00 1.908823613061451985e+00 3.168976845713856738e-01 -6.754516937717531810e-01 2.982791928473519372e-01 3.179660539154627319e-01 3.125694860654437690e-01 -4.621883844631955895e+00 3.435885897331824701e+00 6.148070015459016213e-01 1.306370182537410773e-01 3.487322025908075607e-01 3.177762054066566311e-01 3.441936645879085099e-01 2.543485983232608660e+00 6.103139218991586734e-01 3.211482144514555825e-01 2.106026733550146190e-01 2.305940259308202900e-01 2.957519818231501563e-01 8.787231343506159975e-01 -3.801770399486078533e-01 -1.115609579342293989e+00 -1.169654066737219278e+00 3.233821965282288602e-01 3.155151310661966080e-01 6.959846331824681709e-01 3.183772596199078708e-01 1.218833817337954484e+00 4.552074662373648550e-01 3.204619125573026639e-01 3.203953691256856695e-01 2.881956382404483041e-01 2.636147587699242956e-01 2.483689967965949652e-01 6.541319557946957408e-01 2.902449415750935624e-01 6.258271784782735159e-01 2.111756463741590872e-01 1.506050418506549304e-02 2.484889708290902721e-01 2.320630513514883309e-01 3.173136224196472788e-01 3.749669252307880063e-01 7.226719978085844875e-01 5.609370730019982432e-01 4.983481168671069494e-01 3.956079469148088279e-01 3.219844478163926271e-01 2.499892077858934525e-01 1.455977191131329285e+00 1.795159256062784037e+00 2.477725993618110911e-01 3.177336597766645676e-01 3.205664305283846272e-01 1.952515065088346602e-01 2.426873574336562978e-01 1.801797876812092636e-01 3.452698295032197162e-01 3.187424770296666265e-01 7.827455267600383904e-01 8.562820506238781881e-01 2.692142625250238397e-01 1.817611989871246392e+00 1.585344886938326037e-01 -1.199947318743493641e-01 -2.686080215678716132e-01 -3.280224721288376721e-01 3.128869405967745210e-01 2.867788706824767608e-01 7.026845041347514753e-01 3.067405858893043624e-01 4.424845069131198572e-01 3.030153472810169224e-01 3.802747280656024187e-01 4.043593145884178952e-01 7.312339929209082934e-02 1.023322444016489197e+00 3.071407662714047970e-01 5.081765662967517860e-01 3.180768368007002578e-01 3.611168291983190559e-01 3.110464880480081629e-01 3.843663028347847899e-01 -1.283220370837818147e-01 2.238952355452314691e-01 3.035587140773823855e-01 5.962636077704577819e-02 4.215404859692628015e-01 1.124765708737122782e+00 9.349826124413491701e-01 -7.419902377770304369e-01 -3.152128844846777134e-01 6.316902789083554959e-01 -3.217913069611525234e+00 1.545264936695879276e+00 2.980176557726109676e-01 6.057976422800008531e-02 3.126254209074154078e-01 8.596325116909937503e-01 3.133982210433065574e-01 3.193116829077052299e-01 -4.347021355219022887e-01 8.299345925950162295e-01 2.743462704825543885e-01 8.904926217858399884e-01 2.041627042008562487e+00 -3.801622810933520946e-01 -1.414223883379216007e+00 3.009437849682148336e-01 2.260320501748345756e-01 7.859141898632937551e-01 3.140289327456526891e-01 6.967075022227330328e-01 4.688893504463019779e-01 1.237158217876531824e-01 3.269224229466440312e-01 3.460409347588010442e-01 2.246756132092118941e-01 3.743074528125575062e-01 1.359824841644048821e+00 1.562684168040412214e+00 3.129841613693213898e-01 2.624543694122385418e-01 -1.645596463395397613e-03 -2.300873859344671479e-01 1.937211668392747888e-01 3.617119452036685057e-02 3.090062926438518209e-01 7.004628971156898753e-01 -3.836462649108483003e-01 3.202415370419550711e-01 3.292622158407574329e-01 1.641446965809772174e-01 3.286763603127771383e-01 2.955595749712212061e-01 3.094269455473257491e-01 3.160271275622721365e-01 -4.177732560228332448e-02 2.373534760023694734e-01 4.437792551462534374e-01 1.093084106333571448e+00 1.092789682134694296e+00 9.428502150839971341e-01 1.988775769440820351e-01 7.578917078133913243e-01 1.140660512078376376e-01 4.433468343740750162e-01 -2.020932623365706338e+00 3.024463670733557041e-01 6.469643852927111638e-01 2.955013828024328770e-01 9.592471972466917185e-01 1.346006313369595642e+00 2.106026845798582015e-01 3.109219358099021835e-01 3.710478554028597276e-01 1.851407862128062187e-01 5.592371503770227070e-01 7.631183218193081652e-01 -7.273945188795529759e-01 1.405482554602472123e-01 1.552298148634327635e-01 3.219286295459719560e-01 3.445116155957073656e-01 7.657924223003926834e-01 -1.241533721308255012e-01 3.817530102919405310e-01 3.140788525723621216e-01 2.494324128896967530e-01 8.838001712708973834e-01 4.186977175386995542e-01 -1.996036270464986440e-01 8.591240188923211507e-01 -4.040124135901917296e-02 5.708754403951209477e-01 2.870344276849132181e-01 1.265823321674220958e+00 5.230406936336375878e-01 7.101732945601799685e-01 4.320976957353692693e-01 4.714164378823668122e-01 -4.932733484819509240e-01 2.992739338833312890e-01 7.618866079724633256e-01 2.891543040076056670e-01 6.537830571610753205e-01 3.547593440196181169e-01 3.118862709855554360e-01 7.329317462352067380e-01 1.135649807284207224e-01 -1.999290207953967169e+00 3.325459556929387106e-01 2.851885097418166981e-01 6.909638652882157395e-01 3.677447704662952233e-01 3.783858156151439500e-01 2.351074935206568794e-01 2.377227077988438853e-01 3.544205034149364719e-01 1.176244811459532108e-02 -1.598975515394024383e+00 7.377174992672409504e-01 2.713086084240414753e-01 2.958760595396603965e-01 1.824619529843598820e-01 8.240794953857538685e-01 3.176023382614537871e-01 -1.206920713784261634e-01 3.076610996329165459e-01 1.110685930589562886e+00 3.269785195413698053e-01 4.140266819682887900e-01 1.069036535067009241e+00 2.907775074462238818e-01 2.669938097631235685e+00 2.664456667946246693e-01 3.299051274872691897e-01 6.923760465970011380e-01 3.194551627139093908e-01 2.771111996413745393e-01 -1.976005090876114201e+00 3.472015805377557385e-01 2.841545639699121772e-01 5.100327590282949242e-01 3.015484183011041819e-01 3.686818418650267271e-01 -2.698229651224388070e-01 1.999574917820393871e+00 -5.205237671713834890e-01 8.255735029646756873e-01 3.157921922304220419e-01 4.079884698462074022e-01 7.319326790736704336e-01 3.368638476974142315e-01 1.305590612862569611e+00 1.463716579598335343e-01 2.865739410742934590e-01 -8.739547871177524296e-01 -1.229181091283529370e-01 -1.909556998193757960e-01 -3.749712647411140853e+00 2.862956905287498799e+00 9.684500214264438189e-02 2.729573073257993698e-01 -1.559605077350604496e+00 3.180376280784200649e-01 1.586807665960512093e-01 3.402794635533969991e-01 1.266010845920267636e-01 6.360900863845363462e-01 5.882818009532231329e-01 9.548611670510327443e-01 -3.152128843798879254e-01 -2.062981702978004261e-01 2.093470909468050090e-01 -1.164903908757529027e+00 2.825140886440615229e-01 -6.213837121094832883e-01 3.491009231536825186e-01 4.879866992222982036e-01 3.193746610730328200e-02 4.052338012669422507e-01 2.760754069383646314e-01 -1.224446257988092979e-01 2.091221304256584423e-01 3.086577329263698322e-01 3.390891937490929098e-01 3.089836952857940577e-01 3.161903927193488451e-01 -7.419298829373691673e-01 5.927636978329463568e-01 1.519504071906558673e+00 5.031582254214583827e-02 2.436724705129272583e-01 4.109655932662035771e-01 1.216682886318669610e+00 2.764827883902045147e-01 1.769170429747323470e-01 8.983921779574004507e-01 3.425407389177008710e-01 1.812141748746445513e+00 4.087612853136969315e-01 1.138929397655508602e+00 3.227906389854247604e-01 7.367120642480330384e-01 1.336548392497531212e+00 3.153817324549463841e-01 3.920555294641829835e-01 8.942241724512123291e-01 -1.811290187935908624e-01 -4.416273395820278364e-02 1.329224968512787430e-01 2.934128132920114651e-01 3.398300384618725412e-01 1.406935578990549385e-01 2.809415628015564104e-01 -3.377147689555542454e-01 1.292335156184754696e+00 2.787830011230728045e-01 3.145832832573568494e-01 -3.046419678772742223e+00 4.577598045752307443e-01 3.982073963918213444e-01 4.767086221434562177e-01 4.363529213348556479e-01 5.105478946332513424e-01 -1.014562295482432264e+00 5.780956329996098653e-01 2.794252465774733074e-01 3.097892817583027814e-01 1.050720647787122486e+00 4.378220694119518419e-01 2.996373850702440111e-01 -1.370711914579070712e+00 4.726755945692850402e-01 8.837899714768520099e-01 2.902550098573773441e-01 3.130784593152757811e-01 2.757664272041783771e-01 6.933602407075987184e-01 -9.131606070809120124e-02 3.111983385609034536e-01 3.398465154933220655e-01 6.379003661016478810e-02 7.250021278328920848e-01 3.576617901498458929e-01 7.479573720356303967e-01 1.830411162005430581e-01 6.822106824998633856e-01 -1.958139111279738609e-01 -1.496758750329588938e+00 3.411278687028684864e-01 -1.300012644829441275e-02 2.951907335220969597e-01 2.742228624217999955e-01 5.782996213126248564e-02 5.609370743245287727e-01 3.220703399742752548e-01 9.004940326422601615e-02 4.577086029856329841e-01 3.529899402606572756e-01 2.801027668672688153e-01 2.751241478667730833e-01 -7.885270135310746831e-01 3.245164449887951719e-01 2.967671135942821503e-01 3.548255681209556145e-01 -3.505766799024752356e-02 3.104370873076080506e-01 7.817304646944442936e-01 -4.570983050405620363e-01 1.075733086448432907e+00 5.964526357468463713e-01 3.590103154423786025e-01 3.180611791507246822e-01 -2.003774577429682235e+00 2.906121371156752953e-01 1.767594692166780113e-01 2.184348306021750286e-01 5.609370704171550148e-01 3.133569250267809747e-01 2.625669847957789460e-01 1.453331056224462792e-01 3.161099994651195844e-01 4.342758846493869895e-01 4.279337916666358654e-01 4.039458490916016942e-01 3.084026775343953752e-01 3.174390422161840197e-01 3.102555210024098287e-01 2.925938828276760106e-01 -5.842292141386389373e-03 3.140039397655203235e-01 5.680224700851763675e-01 2.406894198923486827e-01 2.775491680304542630e-01 -1.121251115293813994e-01 1.118862193690700751e-01 4.457742703253765870e-01 4.272952181588554055e+00 2.467121191595130492e-01 1.595142668035731959e-01 4.964977076840632608e-01 2.346087685972950143e-01 1.518516871920807754e+00 2.869025996067850470e-01 6.674939169315123877e-01 3.147080111381244660e-01
