# 
#                 ----------------------------------------------------
#                 Data from a 3D direct N-body simulation. 
# 
#                 rows are i-particle; 
#                 coumns are :mass, tag, x ,y, z, vx, vy, vz, ax, ay, az
# 
#                 NTHU, Computational Physics 
# 
#                 ----------------------------------------------------
#                 Time = 0.0
0.000000000000000000e+00 1.000000000000000000e+00 2.000000000000000000e+00 3.000000000000000000e+00 4.000000000000000000e+00 5.000000000000000000e+00 6.000000000000000000e+00 7.000000000000000000e+00 8.000000000000000000e+00 9.000000000000000000e+00 1.000000000000000000e+01 1.100000000000000000e+01 1.200000000000000000e+01 1.300000000000000000e+01 1.400000000000000000e+01 1.500000000000000000e+01 1.600000000000000000e+01 1.700000000000000000e+01 1.800000000000000000e+01 1.900000000000000000e+01 2.000000000000000000e+01 2.100000000000000000e+01 2.200000000000000000e+01 2.300000000000000000e+01 2.400000000000000000e+01 2.500000000000000000e+01 2.600000000000000000e+01 2.700000000000000000e+01 2.800000000000000000e+01 2.900000000000000000e+01 3.000000000000000000e+01 3.100000000000000000e+01 3.200000000000000000e+01 3.300000000000000000e+01 3.400000000000000000e+01 3.500000000000000000e+01 3.600000000000000000e+01 3.700000000000000000e+01 3.800000000000000000e+01 3.900000000000000000e+01 4.000000000000000000e+01 4.100000000000000000e+01 4.200000000000000000e+01 4.300000000000000000e+01 4.400000000000000000e+01 4.500000000000000000e+01 4.600000000000000000e+01 4.700000000000000000e+01 4.800000000000000000e+01 4.900000000000000000e+01 5.000000000000000000e+01 5.100000000000000000e+01 5.200000000000000000e+01 5.300000000000000000e+01 5.400000000000000000e+01 5.500000000000000000e+01 5.600000000000000000e+01 5.700000000000000000e+01 5.800000000000000000e+01 5.900000000000000000e+01 6.000000000000000000e+01 6.100000000000000000e+01 6.200000000000000000e+01 6.300000000000000000e+01 6.400000000000000000e+01 6.500000000000000000e+01 6.600000000000000000e+01 6.700000000000000000e+01 6.800000000000000000e+01 6.900000000000000000e+01 7.000000000000000000e+01 7.100000000000000000e+01 7.200000000000000000e+01 7.300000000000000000e+01 7.400000000000000000e+01 7.500000000000000000e+01 7.600000000000000000e+01 7.700000000000000000e+01 7.800000000000000000e+01 7.900000000000000000e+01 8.000000000000000000e+01 8.100000000000000000e+01 8.200000000000000000e+01 8.300000000000000000e+01 8.400000000000000000e+01 8.500000000000000000e+01 8.600000000000000000e+01 8.700000000000000000e+01 8.800000000000000000e+01 8.900000000000000000e+01 9.000000000000000000e+01 9.100000000000000000e+01 9.200000000000000000e+01 9.300000000000000000e+01 9.400000000000000000e+01 9.500000000000000000e+01 9.600000000000000000e+01 9.700000000000000000e+01 9.800000000000000000e+01 9.900000000000000000e+01 1.000000000000000000e+02 1.010000000000000000e+02 1.020000000000000000e+02 1.030000000000000000e+02 1.040000000000000000e+02 1.050000000000000000e+02 1.060000000000000000e+02 1.070000000000000000e+02 1.080000000000000000e+02 1.090000000000000000e+02 1.100000000000000000e+02 1.110000000000000000e+02 1.120000000000000000e+02 1.130000000000000000e+02 1.140000000000000000e+02 1.150000000000000000e+02 1.160000000000000000e+02 1.170000000000000000e+02 1.180000000000000000e+02 1.190000000000000000e+02 1.200000000000000000e+02 1.210000000000000000e+02 1.220000000000000000e+02 1.230000000000000000e+02 1.240000000000000000e+02 1.250000000000000000e+02 1.260000000000000000e+02 1.270000000000000000e+02 1.280000000000000000e+02 1.290000000000000000e+02 1.300000000000000000e+02 1.310000000000000000e+02 1.320000000000000000e+02 1.330000000000000000e+02 1.340000000000000000e+02 1.350000000000000000e+02 1.360000000000000000e+02 1.370000000000000000e+02 1.380000000000000000e+02 1.390000000000000000e+02 1.400000000000000000e+02 1.410000000000000000e+02 1.420000000000000000e+02 1.430000000000000000e+02 1.440000000000000000e+02 1.450000000000000000e+02 1.460000000000000000e+02 1.470000000000000000e+02 1.480000000000000000e+02 1.490000000000000000e+02 1.500000000000000000e+02 1.510000000000000000e+02 1.520000000000000000e+02 1.530000000000000000e+02 1.540000000000000000e+02 1.550000000000000000e+02 1.560000000000000000e+02 1.570000000000000000e+02 1.580000000000000000e+02 1.590000000000000000e+02 1.600000000000000000e+02 1.610000000000000000e+02 1.620000000000000000e+02 1.630000000000000000e+02 1.640000000000000000e+02 1.650000000000000000e+02 1.660000000000000000e+02 1.670000000000000000e+02 1.680000000000000000e+02 1.690000000000000000e+02 1.700000000000000000e+02 1.710000000000000000e+02 1.720000000000000000e+02 1.730000000000000000e+02 1.740000000000000000e+02 1.750000000000000000e+02 1.760000000000000000e+02 1.770000000000000000e+02 1.780000000000000000e+02 1.790000000000000000e+02 1.800000000000000000e+02 1.810000000000000000e+02 1.820000000000000000e+02 1.830000000000000000e+02 1.840000000000000000e+02 1.850000000000000000e+02 1.860000000000000000e+02 1.870000000000000000e+02 1.880000000000000000e+02 1.890000000000000000e+02 1.900000000000000000e+02 1.910000000000000000e+02 1.920000000000000000e+02 1.930000000000000000e+02 1.940000000000000000e+02 1.950000000000000000e+02 1.960000000000000000e+02 1.970000000000000000e+02 1.980000000000000000e+02 1.990000000000000000e+02 2.000000000000000000e+02 2.010000000000000000e+02 2.020000000000000000e+02 2.030000000000000000e+02 2.040000000000000000e+02 2.050000000000000000e+02 2.060000000000000000e+02 2.070000000000000000e+02 2.080000000000000000e+02 2.090000000000000000e+02 2.100000000000000000e+02 2.110000000000000000e+02 2.120000000000000000e+02 2.130000000000000000e+02 2.140000000000000000e+02 2.150000000000000000e+02 2.160000000000000000e+02 2.170000000000000000e+02 2.180000000000000000e+02 2.190000000000000000e+02 2.200000000000000000e+02 2.210000000000000000e+02 2.220000000000000000e+02 2.230000000000000000e+02 2.240000000000000000e+02 2.250000000000000000e+02 2.260000000000000000e+02 2.270000000000000000e+02 2.280000000000000000e+02 2.290000000000000000e+02 2.300000000000000000e+02 2.310000000000000000e+02 2.320000000000000000e+02 2.330000000000000000e+02 2.340000000000000000e+02 2.350000000000000000e+02 2.360000000000000000e+02 2.370000000000000000e+02 2.380000000000000000e+02 2.390000000000000000e+02 2.400000000000000000e+02 2.410000000000000000e+02 2.420000000000000000e+02 2.430000000000000000e+02 2.440000000000000000e+02 2.450000000000000000e+02 2.460000000000000000e+02 2.470000000000000000e+02 2.480000000000000000e+02 2.490000000000000000e+02 2.500000000000000000e+02 2.510000000000000000e+02 2.520000000000000000e+02 2.530000000000000000e+02 2.540000000000000000e+02 2.550000000000000000e+02 2.560000000000000000e+02 2.570000000000000000e+02 2.580000000000000000e+02 2.590000000000000000e+02 2.600000000000000000e+02 2.610000000000000000e+02 2.620000000000000000e+02 2.630000000000000000e+02 2.640000000000000000e+02 2.650000000000000000e+02 2.660000000000000000e+02 2.670000000000000000e+02 2.680000000000000000e+02 2.690000000000000000e+02 2.700000000000000000e+02 2.710000000000000000e+02 2.720000000000000000e+02 2.730000000000000000e+02 2.740000000000000000e+02 2.750000000000000000e+02 2.760000000000000000e+02 2.770000000000000000e+02 2.780000000000000000e+02 2.790000000000000000e+02 2.800000000000000000e+02 2.810000000000000000e+02 2.820000000000000000e+02 2.830000000000000000e+02 2.840000000000000000e+02 2.850000000000000000e+02 2.860000000000000000e+02 2.870000000000000000e+02 2.880000000000000000e+02 2.890000000000000000e+02 2.900000000000000000e+02 2.910000000000000000e+02 2.920000000000000000e+02 2.930000000000000000e+02 2.940000000000000000e+02 2.950000000000000000e+02 2.960000000000000000e+02 2.970000000000000000e+02 2.980000000000000000e+02 2.990000000000000000e+02 3.000000000000000000e+02 3.010000000000000000e+02 3.020000000000000000e+02 3.030000000000000000e+02 3.040000000000000000e+02 3.050000000000000000e+02 3.060000000000000000e+02 3.070000000000000000e+02 3.080000000000000000e+02 3.090000000000000000e+02 3.100000000000000000e+02 3.110000000000000000e+02 3.120000000000000000e+02 3.130000000000000000e+02 3.140000000000000000e+02 3.150000000000000000e+02 3.160000000000000000e+02 3.170000000000000000e+02 3.180000000000000000e+02 3.190000000000000000e+02 3.200000000000000000e+02 3.210000000000000000e+02 3.220000000000000000e+02 3.230000000000000000e+02 3.240000000000000000e+02 3.250000000000000000e+02 3.260000000000000000e+02 3.270000000000000000e+02 3.280000000000000000e+02 3.290000000000000000e+02 3.300000000000000000e+02 3.310000000000000000e+02 3.320000000000000000e+02 3.330000000000000000e+02 3.340000000000000000e+02 3.350000000000000000e+02 3.360000000000000000e+02 3.370000000000000000e+02 3.380000000000000000e+02 3.390000000000000000e+02 3.400000000000000000e+02 3.410000000000000000e+02 3.420000000000000000e+02 3.430000000000000000e+02 3.440000000000000000e+02 3.450000000000000000e+02 3.460000000000000000e+02 3.470000000000000000e+02 3.480000000000000000e+02 3.490000000000000000e+02 3.500000000000000000e+02 3.510000000000000000e+02 3.520000000000000000e+02 3.530000000000000000e+02 3.540000000000000000e+02 3.550000000000000000e+02 3.560000000000000000e+02 3.570000000000000000e+02 3.580000000000000000e+02 3.590000000000000000e+02 3.600000000000000000e+02 3.610000000000000000e+02 3.620000000000000000e+02 3.630000000000000000e+02 3.640000000000000000e+02 3.650000000000000000e+02 3.660000000000000000e+02 3.670000000000000000e+02 3.680000000000000000e+02 3.690000000000000000e+02 3.700000000000000000e+02 3.710000000000000000e+02 3.720000000000000000e+02 3.730000000000000000e+02 3.740000000000000000e+02 3.750000000000000000e+02 3.760000000000000000e+02 3.770000000000000000e+02 3.780000000000000000e+02 3.790000000000000000e+02 3.800000000000000000e+02 3.810000000000000000e+02 3.820000000000000000e+02 3.830000000000000000e+02 3.840000000000000000e+02 3.850000000000000000e+02 3.860000000000000000e+02 3.870000000000000000e+02 3.880000000000000000e+02 3.890000000000000000e+02 3.900000000000000000e+02 3.910000000000000000e+02 3.920000000000000000e+02 3.930000000000000000e+02 3.940000000000000000e+02 3.950000000000000000e+02 3.960000000000000000e+02 3.970000000000000000e+02 3.980000000000000000e+02 3.990000000000000000e+02 4.000000000000000000e+02 4.010000000000000000e+02 4.020000000000000000e+02 4.030000000000000000e+02 4.040000000000000000e+02 4.050000000000000000e+02 4.060000000000000000e+02 4.070000000000000000e+02 4.080000000000000000e+02 4.090000000000000000e+02 4.100000000000000000e+02 4.110000000000000000e+02 4.120000000000000000e+02 4.130000000000000000e+02 4.140000000000000000e+02 4.150000000000000000e+02 4.160000000000000000e+02 4.170000000000000000e+02 4.180000000000000000e+02 4.190000000000000000e+02 4.200000000000000000e+02 4.210000000000000000e+02 4.220000000000000000e+02 4.230000000000000000e+02 4.240000000000000000e+02 4.250000000000000000e+02 4.260000000000000000e+02 4.270000000000000000e+02 4.280000000000000000e+02 4.290000000000000000e+02 4.300000000000000000e+02 4.310000000000000000e+02 4.320000000000000000e+02 4.330000000000000000e+02 4.340000000000000000e+02 4.350000000000000000e+02 4.360000000000000000e+02 4.370000000000000000e+02 4.380000000000000000e+02 4.390000000000000000e+02 4.400000000000000000e+02 4.410000000000000000e+02 4.420000000000000000e+02 4.430000000000000000e+02 4.440000000000000000e+02 4.450000000000000000e+02 4.460000000000000000e+02 4.470000000000000000e+02 4.480000000000000000e+02 4.490000000000000000e+02 4.500000000000000000e+02 4.510000000000000000e+02 4.520000000000000000e+02 4.530000000000000000e+02 4.540000000000000000e+02 4.550000000000000000e+02 4.560000000000000000e+02 4.570000000000000000e+02 4.580000000000000000e+02 4.590000000000000000e+02 4.600000000000000000e+02 4.610000000000000000e+02 4.620000000000000000e+02 4.630000000000000000e+02 4.640000000000000000e+02 4.650000000000000000e+02 4.660000000000000000e+02 4.670000000000000000e+02 4.680000000000000000e+02 4.690000000000000000e+02 4.700000000000000000e+02 4.710000000000000000e+02 4.720000000000000000e+02 4.730000000000000000e+02 4.740000000000000000e+02 4.750000000000000000e+02 4.760000000000000000e+02 4.770000000000000000e+02 4.780000000000000000e+02 4.790000000000000000e+02 4.800000000000000000e+02 4.810000000000000000e+02 4.820000000000000000e+02 4.830000000000000000e+02 4.840000000000000000e+02 4.850000000000000000e+02 4.860000000000000000e+02 4.870000000000000000e+02 4.880000000000000000e+02 4.890000000000000000e+02 4.900000000000000000e+02 4.910000000000000000e+02 4.920000000000000000e+02 4.930000000000000000e+02 4.940000000000000000e+02 4.950000000000000000e+02 4.960000000000000000e+02 4.970000000000000000e+02 4.980000000000000000e+02 4.990000000000000000e+02 5.000000000000000000e+02 5.010000000000000000e+02 5.020000000000000000e+02 5.030000000000000000e+02 5.040000000000000000e+02 5.050000000000000000e+02 5.060000000000000000e+02 5.070000000000000000e+02 5.080000000000000000e+02 5.090000000000000000e+02 5.100000000000000000e+02 5.110000000000000000e+02 5.120000000000000000e+02 5.130000000000000000e+02 5.140000000000000000e+02 5.150000000000000000e+02 5.160000000000000000e+02 5.170000000000000000e+02 5.180000000000000000e+02 5.190000000000000000e+02 5.200000000000000000e+02 5.210000000000000000e+02 5.220000000000000000e+02 5.230000000000000000e+02 5.240000000000000000e+02 5.250000000000000000e+02 5.260000000000000000e+02 5.270000000000000000e+02 5.280000000000000000e+02 5.290000000000000000e+02 5.300000000000000000e+02 5.310000000000000000e+02 5.320000000000000000e+02 5.330000000000000000e+02 5.340000000000000000e+02 5.350000000000000000e+02 5.360000000000000000e+02 5.370000000000000000e+02 5.380000000000000000e+02 5.390000000000000000e+02 5.400000000000000000e+02 5.410000000000000000e+02 5.420000000000000000e+02 5.430000000000000000e+02 5.440000000000000000e+02 5.450000000000000000e+02 5.460000000000000000e+02 5.470000000000000000e+02 5.480000000000000000e+02 5.490000000000000000e+02 5.500000000000000000e+02 5.510000000000000000e+02 5.520000000000000000e+02 5.530000000000000000e+02 5.540000000000000000e+02 5.550000000000000000e+02 5.560000000000000000e+02 5.570000000000000000e+02 5.580000000000000000e+02 5.590000000000000000e+02 5.600000000000000000e+02 5.610000000000000000e+02 5.620000000000000000e+02 5.630000000000000000e+02 5.640000000000000000e+02 5.650000000000000000e+02 5.660000000000000000e+02 5.670000000000000000e+02 5.680000000000000000e+02 5.690000000000000000e+02 5.700000000000000000e+02 5.710000000000000000e+02 5.720000000000000000e+02 5.730000000000000000e+02 5.740000000000000000e+02 5.750000000000000000e+02 5.760000000000000000e+02 5.770000000000000000e+02 5.780000000000000000e+02 5.790000000000000000e+02 5.800000000000000000e+02 5.810000000000000000e+02 5.820000000000000000e+02 5.830000000000000000e+02 5.840000000000000000e+02 5.850000000000000000e+02 5.860000000000000000e+02 5.870000000000000000e+02 5.880000000000000000e+02 5.890000000000000000e+02 5.900000000000000000e+02 5.910000000000000000e+02 5.920000000000000000e+02 5.930000000000000000e+02 5.940000000000000000e+02 5.950000000000000000e+02 5.960000000000000000e+02 5.970000000000000000e+02 5.980000000000000000e+02 5.990000000000000000e+02 6.000000000000000000e+02 6.010000000000000000e+02 6.020000000000000000e+02 6.030000000000000000e+02 6.040000000000000000e+02 6.050000000000000000e+02 6.060000000000000000e+02 6.070000000000000000e+02 6.080000000000000000e+02 6.090000000000000000e+02 6.100000000000000000e+02 6.110000000000000000e+02 6.120000000000000000e+02 6.130000000000000000e+02 6.140000000000000000e+02 6.150000000000000000e+02 6.160000000000000000e+02 6.170000000000000000e+02 6.180000000000000000e+02 6.190000000000000000e+02 6.200000000000000000e+02 6.210000000000000000e+02 6.220000000000000000e+02 6.230000000000000000e+02 6.240000000000000000e+02 6.250000000000000000e+02 6.260000000000000000e+02 6.270000000000000000e+02 6.280000000000000000e+02 6.290000000000000000e+02 6.300000000000000000e+02 6.310000000000000000e+02 6.320000000000000000e+02 6.330000000000000000e+02 6.340000000000000000e+02 6.350000000000000000e+02 6.360000000000000000e+02 6.370000000000000000e+02 6.380000000000000000e+02 6.390000000000000000e+02 6.400000000000000000e+02 6.410000000000000000e+02 6.420000000000000000e+02 6.430000000000000000e+02 6.440000000000000000e+02 6.450000000000000000e+02 6.460000000000000000e+02 6.470000000000000000e+02 6.480000000000000000e+02 6.490000000000000000e+02 6.500000000000000000e+02 6.510000000000000000e+02 6.520000000000000000e+02 6.530000000000000000e+02 6.540000000000000000e+02 6.550000000000000000e+02 6.560000000000000000e+02 6.570000000000000000e+02 6.580000000000000000e+02 6.590000000000000000e+02 6.600000000000000000e+02 6.610000000000000000e+02 6.620000000000000000e+02 6.630000000000000000e+02 6.640000000000000000e+02 6.650000000000000000e+02 6.660000000000000000e+02 6.670000000000000000e+02 6.680000000000000000e+02 6.690000000000000000e+02 6.700000000000000000e+02 6.710000000000000000e+02 6.720000000000000000e+02 6.730000000000000000e+02 6.740000000000000000e+02 6.750000000000000000e+02 6.760000000000000000e+02 6.770000000000000000e+02 6.780000000000000000e+02 6.790000000000000000e+02 6.800000000000000000e+02 6.810000000000000000e+02 6.820000000000000000e+02 6.830000000000000000e+02 6.840000000000000000e+02 6.850000000000000000e+02 6.860000000000000000e+02 6.870000000000000000e+02 6.880000000000000000e+02 6.890000000000000000e+02 6.900000000000000000e+02 6.910000000000000000e+02 6.920000000000000000e+02 6.930000000000000000e+02 6.940000000000000000e+02 6.950000000000000000e+02 6.960000000000000000e+02 6.970000000000000000e+02 6.980000000000000000e+02 6.990000000000000000e+02 7.000000000000000000e+02 7.010000000000000000e+02 7.020000000000000000e+02 7.030000000000000000e+02 7.040000000000000000e+02 7.050000000000000000e+02 7.060000000000000000e+02 7.070000000000000000e+02 7.080000000000000000e+02 7.090000000000000000e+02 7.100000000000000000e+02 7.110000000000000000e+02 7.120000000000000000e+02 7.130000000000000000e+02 7.140000000000000000e+02 7.150000000000000000e+02 7.160000000000000000e+02 7.170000000000000000e+02 7.180000000000000000e+02 7.190000000000000000e+02 7.200000000000000000e+02 7.210000000000000000e+02 7.220000000000000000e+02 7.230000000000000000e+02 7.240000000000000000e+02 7.250000000000000000e+02 7.260000000000000000e+02 7.270000000000000000e+02 7.280000000000000000e+02 7.290000000000000000e+02 7.300000000000000000e+02 7.310000000000000000e+02 7.320000000000000000e+02 7.330000000000000000e+02 7.340000000000000000e+02 7.350000000000000000e+02 7.360000000000000000e+02 7.370000000000000000e+02 7.380000000000000000e+02 7.390000000000000000e+02 7.400000000000000000e+02 7.410000000000000000e+02 7.420000000000000000e+02 7.430000000000000000e+02 7.440000000000000000e+02 7.450000000000000000e+02 7.460000000000000000e+02 7.470000000000000000e+02 7.480000000000000000e+02 7.490000000000000000e+02 7.500000000000000000e+02 7.510000000000000000e+02 7.520000000000000000e+02 7.530000000000000000e+02 7.540000000000000000e+02 7.550000000000000000e+02 7.560000000000000000e+02 7.570000000000000000e+02 7.580000000000000000e+02 7.590000000000000000e+02 7.600000000000000000e+02 7.610000000000000000e+02 7.620000000000000000e+02 7.630000000000000000e+02 7.640000000000000000e+02 7.650000000000000000e+02 7.660000000000000000e+02 7.670000000000000000e+02 7.680000000000000000e+02 7.690000000000000000e+02 7.700000000000000000e+02 7.710000000000000000e+02 7.720000000000000000e+02 7.730000000000000000e+02 7.740000000000000000e+02 7.750000000000000000e+02 7.760000000000000000e+02 7.770000000000000000e+02 7.780000000000000000e+02 7.790000000000000000e+02 7.800000000000000000e+02 7.810000000000000000e+02 7.820000000000000000e+02 7.830000000000000000e+02 7.840000000000000000e+02 7.850000000000000000e+02 7.860000000000000000e+02 7.870000000000000000e+02 7.880000000000000000e+02 7.890000000000000000e+02 7.900000000000000000e+02 7.910000000000000000e+02 7.920000000000000000e+02 7.930000000000000000e+02 7.940000000000000000e+02 7.950000000000000000e+02 7.960000000000000000e+02 7.970000000000000000e+02 7.980000000000000000e+02 7.990000000000000000e+02 8.000000000000000000e+02 8.010000000000000000e+02 8.020000000000000000e+02 8.030000000000000000e+02 8.040000000000000000e+02 8.050000000000000000e+02 8.060000000000000000e+02 8.070000000000000000e+02 8.080000000000000000e+02 8.090000000000000000e+02 8.100000000000000000e+02 8.110000000000000000e+02 8.120000000000000000e+02 8.130000000000000000e+02 8.140000000000000000e+02 8.150000000000000000e+02 8.160000000000000000e+02 8.170000000000000000e+02 8.180000000000000000e+02 8.190000000000000000e+02 8.200000000000000000e+02 8.210000000000000000e+02 8.220000000000000000e+02 8.230000000000000000e+02 8.240000000000000000e+02 8.250000000000000000e+02 8.260000000000000000e+02 8.270000000000000000e+02 8.280000000000000000e+02 8.290000000000000000e+02 8.300000000000000000e+02 8.310000000000000000e+02 8.320000000000000000e+02 8.330000000000000000e+02 8.340000000000000000e+02 8.350000000000000000e+02 8.360000000000000000e+02 8.370000000000000000e+02 8.380000000000000000e+02 8.390000000000000000e+02 8.400000000000000000e+02 8.410000000000000000e+02 8.420000000000000000e+02 8.430000000000000000e+02 8.440000000000000000e+02 8.450000000000000000e+02 8.460000000000000000e+02 8.470000000000000000e+02 8.480000000000000000e+02 8.490000000000000000e+02 8.500000000000000000e+02 8.510000000000000000e+02 8.520000000000000000e+02 8.530000000000000000e+02 8.540000000000000000e+02 8.550000000000000000e+02 8.560000000000000000e+02 8.570000000000000000e+02 8.580000000000000000e+02 8.590000000000000000e+02 8.600000000000000000e+02 8.610000000000000000e+02 8.620000000000000000e+02 8.630000000000000000e+02 8.640000000000000000e+02 8.650000000000000000e+02 8.660000000000000000e+02 8.670000000000000000e+02 8.680000000000000000e+02 8.690000000000000000e+02 8.700000000000000000e+02 8.710000000000000000e+02 8.720000000000000000e+02 8.730000000000000000e+02 8.740000000000000000e+02 8.750000000000000000e+02 8.760000000000000000e+02 8.770000000000000000e+02 8.780000000000000000e+02 8.790000000000000000e+02 8.800000000000000000e+02 8.810000000000000000e+02 8.820000000000000000e+02 8.830000000000000000e+02 8.840000000000000000e+02 8.850000000000000000e+02 8.860000000000000000e+02 8.870000000000000000e+02 8.880000000000000000e+02 8.890000000000000000e+02 8.900000000000000000e+02 8.910000000000000000e+02 8.920000000000000000e+02 8.930000000000000000e+02 8.940000000000000000e+02 8.950000000000000000e+02 8.960000000000000000e+02 8.970000000000000000e+02 8.980000000000000000e+02 8.990000000000000000e+02 9.000000000000000000e+02 9.010000000000000000e+02 9.020000000000000000e+02 9.030000000000000000e+02 9.040000000000000000e+02 9.050000000000000000e+02 9.060000000000000000e+02 9.070000000000000000e+02 9.080000000000000000e+02 9.090000000000000000e+02 9.100000000000000000e+02 9.110000000000000000e+02 9.120000000000000000e+02 9.130000000000000000e+02 9.140000000000000000e+02 9.150000000000000000e+02 9.160000000000000000e+02 9.170000000000000000e+02 9.180000000000000000e+02 9.190000000000000000e+02 9.200000000000000000e+02 9.210000000000000000e+02 9.220000000000000000e+02 9.230000000000000000e+02 9.240000000000000000e+02 9.250000000000000000e+02 9.260000000000000000e+02 9.270000000000000000e+02 9.280000000000000000e+02 9.290000000000000000e+02 9.300000000000000000e+02 9.310000000000000000e+02 9.320000000000000000e+02 9.330000000000000000e+02 9.340000000000000000e+02 9.350000000000000000e+02 9.360000000000000000e+02 9.370000000000000000e+02 9.380000000000000000e+02 9.390000000000000000e+02 9.400000000000000000e+02 9.410000000000000000e+02 9.420000000000000000e+02 9.430000000000000000e+02 9.440000000000000000e+02 9.450000000000000000e+02 9.460000000000000000e+02 9.470000000000000000e+02 9.480000000000000000e+02 9.490000000000000000e+02 9.500000000000000000e+02 9.510000000000000000e+02 9.520000000000000000e+02 9.530000000000000000e+02 9.540000000000000000e+02 9.550000000000000000e+02 9.560000000000000000e+02 9.570000000000000000e+02 9.580000000000000000e+02 9.590000000000000000e+02 9.600000000000000000e+02 9.610000000000000000e+02 9.620000000000000000e+02 9.630000000000000000e+02 9.640000000000000000e+02 9.650000000000000000e+02 9.660000000000000000e+02 9.670000000000000000e+02 9.680000000000000000e+02 9.690000000000000000e+02 9.700000000000000000e+02 9.710000000000000000e+02 9.720000000000000000e+02 9.730000000000000000e+02 9.740000000000000000e+02 9.750000000000000000e+02 9.760000000000000000e+02 9.770000000000000000e+02 9.780000000000000000e+02 9.790000000000000000e+02 9.800000000000000000e+02 9.810000000000000000e+02 9.820000000000000000e+02 9.830000000000000000e+02 9.840000000000000000e+02 9.850000000000000000e+02 9.860000000000000000e+02 9.870000000000000000e+02 9.880000000000000000e+02 9.890000000000000000e+02 9.900000000000000000e+02 9.910000000000000000e+02 9.920000000000000000e+02 9.930000000000000000e+02 9.940000000000000000e+02 9.950000000000000000e+02 9.960000000000000000e+02 9.970000000000000000e+02 9.980000000000000000e+02 9.990000000000000000e+02
1.000000000000000000e+00 1.000000000000000000e+00 1.000000000000000000e+00 1.000000000000000000e+00 1.000000000000000000e+00 1.000000000000000000e+00 1.000000000000000000e+00 1.000000000000000000e+00 1.000000000000000000e+00 1.000000000000000000e+00 1.000000000000000000e+00 1.000000000000000000e+00 1.000000000000000000e+00 1.000000000000000000e+00 1.000000000000000000e+00 1.000000000000000000e+00 1.000000000000000000e+00 1.000000000000000000e+00 1.000000000000000000e+00 1.000000000000000000e+00 1.000000000000000000e+00 1.000000000000000000e+00 1.000000000000000000e+00 1.000000000000000000e+00 1.000000000000000000e+00 1.000000000000000000e+00 1.000000000000000000e+00 1.000000000000000000e+00 1.000000000000000000e+00 1.000000000000000000e+00 1.000000000000000000e+00 1.000000000000000000e+00 1.000000000000000000e+00 1.000000000000000000e+00 1.000000000000000000e+00 1.000000000000000000e+00 1.000000000000000000e+00 1.000000000000000000e+00 1.000000000000000000e+00 1.000000000000000000e+00 1.000000000000000000e+00 1.000000000000000000e+00 1.000000000000000000e+00 1.000000000000000000e+00 1.000000000000000000e+00 1.000000000000000000e+00 1.000000000000000000e+00 1.000000000000000000e+00 1.000000000000000000e+00 1.000000000000000000e+00 1.000000000000000000e+00 1.000000000000000000e+00 1.000000000000000000e+00 1.000000000000000000e+00 1.000000000000000000e+00 1.000000000000000000e+00 1.000000000000000000e+00 1.000000000000000000e+00 1.000000000000000000e+00 1.000000000000000000e+00 1.000000000000000000e+00 1.000000000000000000e+00 1.000000000000000000e+00 1.000000000000000000e+00 1.000000000000000000e+00 1.000000000000000000e+00 1.000000000000000000e+00 1.000000000000000000e+00 1.000000000000000000e+00 1.000000000000000000e+00 1.000000000000000000e+00 1.000000000000000000e+00 1.000000000000000000e+00 1.000000000000000000e+00 1.000000000000000000e+00 1.000000000000000000e+00 1.000000000000000000e+00 1.000000000000000000e+00 1.000000000000000000e+00 1.000000000000000000e+00 1.000000000000000000e+00 1.000000000000000000e+00 1.000000000000000000e+00 1.000000000000000000e+00 1.000000000000000000e+00 1.000000000000000000e+00 1.000000000000000000e+00 1.000000000000000000e+00 1.000000000000000000e+00 1.000000000000000000e+00 1.000000000000000000e+00 1.000000000000000000e+00 1.000000000000000000e+00 1.000000000000000000e+00 1.000000000000000000e+00 1.000000000000000000e+00 1.000000000000000000e+00 1.000000000000000000e+00 1.000000000000000000e+00 1.000000000000000000e+00 1.000000000000000000e+00 1.000000000000000000e+00 1.000000000000000000e+00 1.000000000000000000e+00 1.000000000000000000e+00 1.000000000000000000e+00 1.000000000000000000e+00 1.000000000000000000e+00 1.000000000000000000e+00 1.000000000000000000e+00 1.000000000000000000e+00 1.000000000000000000e+00 1.000000000000000000e+00 1.000000000000000000e+00 1.000000000000000000e+00 1.000000000000000000e+00 1.000000000000000000e+00 1.000000000000000000e+00 1.000000000000000000e+00 1.000000000000000000e+00 1.000000000000000000e+00 1.000000000000000000e+00 1.000000000000000000e+00 1.000000000000000000e+00 1.000000000000000000e+00 1.000000000000000000e+00 1.000000000000000000e+00 1.000000000000000000e+00 1.000000000000000000e+00 1.000000000000000000e+00 1.000000000000000000e+00 1.000000000000000000e+00 1.000000000000000000e+00 1.000000000000000000e+00 1.000000000000000000e+00 1.000000000000000000e+00 1.000000000000000000e+00 1.000000000000000000e+00 1.000000000000000000e+00 1.000000000000000000e+00 1.000000000000000000e+00 1.000000000000000000e+00 1.000000000000000000e+00 1.000000000000000000e+00 1.000000000000000000e+00 1.000000000000000000e+00 1.000000000000000000e+00 1.000000000000000000e+00 1.000000000000000000e+00 1.000000000000000000e+00 1.000000000000000000e+00 1.000000000000000000e+00 1.000000000000000000e+00 1.000000000000000000e+00 1.000000000000000000e+00 1.000000000000000000e+00 1.000000000000000000e+00 1.000000000000000000e+00 1.000000000000000000e+00 1.000000000000000000e+00 1.000000000000000000e+00 1.000000000000000000e+00 1.000000000000000000e+00 1.000000000000000000e+00 1.000000000000000000e+00 1.000000000000000000e+00 1.000000000000000000e+00 1.000000000000000000e+00 1.000000000000000000e+00 1.000000000000000000e+00 1.000000000000000000e+00 1.000000000000000000e+00 1.000000000000000000e+00 1.000000000000000000e+00 1.000000000000000000e+00 1.000000000000000000e+00 1.000000000000000000e+00 1.000000000000000000e+00 1.000000000000000000e+00 1.000000000000000000e+00 1.000000000000000000e+00 1.000000000000000000e+00 1.000000000000000000e+00 1.000000000000000000e+00 1.000000000000000000e+00 1.000000000000000000e+00 1.000000000000000000e+00 1.000000000000000000e+00 1.000000000000000000e+00 1.000000000000000000e+00 1.000000000000000000e+00 1.000000000000000000e+00 1.000000000000000000e+00 1.000000000000000000e+00 1.000000000000000000e+00 1.000000000000000000e+00 1.000000000000000000e+00 1.000000000000000000e+00 1.000000000000000000e+00 1.000000000000000000e+00 1.000000000000000000e+00 1.000000000000000000e+00 1.000000000000000000e+00 1.000000000000000000e+00 1.000000000000000000e+00 1.000000000000000000e+00 1.000000000000000000e+00 1.000000000000000000e+00 1.000000000000000000e+00 1.000000000000000000e+00 1.000000000000000000e+00 1.000000000000000000e+00 1.000000000000000000e+00 1.000000000000000000e+00 1.000000000000000000e+00 1.000000000000000000e+00 1.000000000000000000e+00 1.000000000000000000e+00 1.000000000000000000e+00 1.000000000000000000e+00 1.000000000000000000e+00 1.000000000000000000e+00 1.000000000000000000e+00 1.000000000000000000e+00 1.000000000000000000e+00 1.000000000000000000e+00 1.000000000000000000e+00 1.000000000000000000e+00 1.000000000000000000e+00 1.000000000000000000e+00 1.000000000000000000e+00 1.000000000000000000e+00 1.000000000000000000e+00 1.000000000000000000e+00 1.000000000000000000e+00 1.000000000000000000e+00 1.000000000000000000e+00 1.000000000000000000e+00 1.000000000000000000e+00 1.000000000000000000e+00 1.000000000000000000e+00 1.000000000000000000e+00 1.000000000000000000e+00 1.000000000000000000e+00 1.000000000000000000e+00 1.000000000000000000e+00 1.000000000000000000e+00 1.000000000000000000e+00 1.000000000000000000e+00 1.000000000000000000e+00 1.000000000000000000e+00 1.000000000000000000e+00 1.000000000000000000e+00 1.000000000000000000e+00 1.000000000000000000e+00 1.000000000000000000e+00 1.000000000000000000e+00 1.000000000000000000e+00 1.000000000000000000e+00 1.000000000000000000e+00 1.000000000000000000e+00 1.000000000000000000e+00 1.000000000000000000e+00 1.000000000000000000e+00 1.000000000000000000e+00 1.000000000000000000e+00 1.000000000000000000e+00 1.000000000000000000e+00 1.000000000000000000e+00 1.000000000000000000e+00 1.000000000000000000e+00 1.000000000000000000e+00 1.000000000000000000e+00 1.000000000000000000e+00 1.000000000000000000e+00 1.000000000000000000e+00 1.000000000000000000e+00 1.000000000000000000e+00 1.000000000000000000e+00 1.000000000000000000e+00 1.000000000000000000e+00 1.000000000000000000e+00 1.000000000000000000e+00 1.000000000000000000e+00 1.000000000000000000e+00 1.000000000000000000e+00 1.000000000000000000e+00 1.000000000000000000e+00 1.000000000000000000e+00 1.000000000000000000e+00 1.000000000000000000e+00 1.000000000000000000e+00 1.000000000000000000e+00 1.000000000000000000e+00 1.000000000000000000e+00 1.000000000000000000e+00 1.000000000000000000e+00 1.000000000000000000e+00 1.000000000000000000e+00 1.000000000000000000e+00 1.000000000000000000e+00 1.000000000000000000e+00 1.000000000000000000e+00 1.000000000000000000e+00 1.000000000000000000e+00 1.000000000000000000e+00 1.000000000000000000e+00 1.000000000000000000e+00 1.000000000000000000e+00 1.000000000000000000e+00 1.000000000000000000e+00 1.000000000000000000e+00 1.000000000000000000e+00 1.000000000000000000e+00 1.000000000000000000e+00 1.000000000000000000e+00 1.000000000000000000e+00 1.000000000000000000e+00 1.000000000000000000e+00 1.000000000000000000e+00 1.000000000000000000e+00 1.000000000000000000e+00 1.000000000000000000e+00 1.000000000000000000e+00 1.000000000000000000e+00 1.000000000000000000e+00 1.000000000000000000e+00 1.000000000000000000e+00 1.000000000000000000e+00 1.000000000000000000e+00 1.000000000000000000e+00 1.000000000000000000e+00 1.000000000000000000e+00 1.000000000000000000e+00 1.000000000000000000e+00 1.000000000000000000e+00 1.000000000000000000e+00 1.000000000000000000e+00 1.000000000000000000e+00 1.000000000000000000e+00 1.000000000000000000e+00 1.000000000000000000e+00 1.000000000000000000e+00 1.000000000000000000e+00 1.000000000000000000e+00 1.000000000000000000e+00 1.000000000000000000e+00 1.000000000000000000e+00 1.000000000000000000e+00 1.000000000000000000e+00 1.000000000000000000e+00 1.000000000000000000e+00 1.000000000000000000e+00 1.000000000000000000e+00 1.000000000000000000e+00 1.000000000000000000e+00 1.000000000000000000e+00 1.000000000000000000e+00 1.000000000000000000e+00 1.000000000000000000e+00 1.000000000000000000e+00 1.000000000000000000e+00 1.000000000000000000e+00 1.000000000000000000e+00 1.000000000000000000e+00 1.000000000000000000e+00 1.000000000000000000e+00 1.000000000000000000e+00 1.000000000000000000e+00 1.000000000000000000e+00 1.000000000000000000e+00 1.000000000000000000e+00 1.000000000000000000e+00 1.000000000000000000e+00 1.000000000000000000e+00 1.000000000000000000e+00 1.000000000000000000e+00 1.000000000000000000e+00 1.000000000000000000e+00 1.000000000000000000e+00 1.000000000000000000e+00 1.000000000000000000e+00 1.000000000000000000e+00 1.000000000000000000e+00 1.000000000000000000e+00 1.000000000000000000e+00 1.000000000000000000e+00 1.000000000000000000e+00 1.000000000000000000e+00 1.000000000000000000e+00 1.000000000000000000e+00 1.000000000000000000e+00 1.000000000000000000e+00 1.000000000000000000e+00 1.000000000000000000e+00 1.000000000000000000e+00 1.000000000000000000e+00 1.000000000000000000e+00 1.000000000000000000e+00 1.000000000000000000e+00 1.000000000000000000e+00 1.000000000000000000e+00 1.000000000000000000e+00 1.000000000000000000e+00 1.000000000000000000e+00 1.000000000000000000e+00 1.000000000000000000e+00 1.000000000000000000e+00 1.000000000000000000e+00 1.000000000000000000e+00 1.000000000000000000e+00 1.000000000000000000e+00 1.000000000000000000e+00 1.000000000000000000e+00 1.000000000000000000e+00 1.000000000000000000e+00 1.000000000000000000e+00 1.000000000000000000e+00 1.000000000000000000e+00 1.000000000000000000e+00 1.000000000000000000e+00 1.000000000000000000e+00 1.000000000000000000e+00 1.000000000000000000e+00 1.000000000000000000e+00 1.000000000000000000e+00 1.000000000000000000e+00 1.000000000000000000e+00 1.000000000000000000e+00 1.000000000000000000e+00 1.000000000000000000e+00 1.000000000000000000e+00 1.000000000000000000e+00 1.000000000000000000e+00 1.000000000000000000e+00 1.000000000000000000e+00 1.000000000000000000e+00 1.000000000000000000e+00 1.000000000000000000e+00 1.000000000000000000e+00 1.000000000000000000e+00 1.000000000000000000e+00 1.000000000000000000e+00 1.000000000000000000e+00 1.000000000000000000e+00 1.000000000000000000e+00 1.000000000000000000e+00 1.000000000000000000e+00 1.000000000000000000e+00 1.000000000000000000e+00 1.000000000000000000e+00 1.000000000000000000e+00 1.000000000000000000e+00 1.000000000000000000e+00 1.000000000000000000e+00 1.000000000000000000e+00 1.000000000000000000e+00 1.000000000000000000e+00 1.000000000000000000e+00 1.000000000000000000e+00 1.000000000000000000e+00 1.000000000000000000e+00 1.000000000000000000e+00 1.000000000000000000e+00 1.000000000000000000e+00 1.000000000000000000e+00 1.000000000000000000e+00 1.000000000000000000e+00 1.000000000000000000e+00 1.000000000000000000e+00 1.000000000000000000e+00 1.000000000000000000e+00 1.000000000000000000e+00 1.000000000000000000e+00 1.000000000000000000e+00 1.000000000000000000e+00 1.000000000000000000e+00 1.000000000000000000e+00 1.000000000000000000e+00 1.000000000000000000e+00 1.000000000000000000e+00 1.000000000000000000e+00 1.000000000000000000e+00 1.000000000000000000e+00 1.000000000000000000e+00 1.000000000000000000e+00 1.000000000000000000e+00 1.000000000000000000e+00 1.000000000000000000e+00 1.000000000000000000e+00 1.000000000000000000e+00 1.000000000000000000e+00 1.000000000000000000e+00 1.000000000000000000e+00 1.000000000000000000e+00 1.000000000000000000e+00 1.000000000000000000e+00 1.000000000000000000e+00 1.000000000000000000e+00 1.000000000000000000e+00 1.000000000000000000e+00 1.000000000000000000e+00 1.000000000000000000e+00 1.000000000000000000e+00 1.000000000000000000e+00 1.000000000000000000e+00 1.000000000000000000e+00 1.000000000000000000e+00 1.000000000000000000e+00 1.000000000000000000e+00 1.000000000000000000e+00 1.000000000000000000e+00 1.000000000000000000e+00 1.000000000000000000e+00 1.000000000000000000e+00 1.000000000000000000e+00 1.000000000000000000e+00 1.000000000000000000e+00 1.000000000000000000e+00 1.000000000000000000e+00 1.000000000000000000e+00 1.000000000000000000e+00 1.000000000000000000e+00 1.000000000000000000e+00 1.000000000000000000e+00 1.000000000000000000e+00 1.000000000000000000e+00 1.000000000000000000e+00 1.000000000000000000e+00 1.000000000000000000e+00 1.000000000000000000e+00 1.000000000000000000e+00 1.000000000000000000e+00 1.000000000000000000e+00 1.000000000000000000e+00 1.000000000000000000e+00 1.000000000000000000e+00 1.000000000000000000e+00 1.000000000000000000e+00 1.000000000000000000e+00 1.000000000000000000e+00 1.000000000000000000e+00 1.000000000000000000e+00 1.000000000000000000e+00 1.000000000000000000e+00 1.000000000000000000e+00 1.000000000000000000e+00 1.000000000000000000e+00 1.000000000000000000e+00 1.000000000000000000e+00 1.000000000000000000e+00 1.000000000000000000e+00 1.000000000000000000e+00 1.000000000000000000e+00 1.000000000000000000e+00 1.000000000000000000e+00 1.000000000000000000e+00 1.000000000000000000e+00 1.000000000000000000e+00 1.000000000000000000e+00 1.000000000000000000e+00 1.000000000000000000e+00 1.000000000000000000e+00 1.000000000000000000e+00 1.000000000000000000e+00 1.000000000000000000e+00 1.000000000000000000e+00 1.000000000000000000e+00 1.000000000000000000e+00 1.000000000000000000e+00 1.000000000000000000e+00 1.000000000000000000e+00 1.000000000000000000e+00 1.000000000000000000e+00 1.000000000000000000e+00 1.000000000000000000e+00 1.000000000000000000e+00 1.000000000000000000e+00 1.000000000000000000e+00 1.000000000000000000e+00 1.000000000000000000e+00 1.000000000000000000e+00 1.000000000000000000e+00 1.000000000000000000e+00 1.000000000000000000e+00 1.000000000000000000e+00 1.000000000000000000e+00 1.000000000000000000e+00 1.000000000000000000e+00 1.000000000000000000e+00 1.000000000000000000e+00 1.000000000000000000e+00 1.000000000000000000e+00 1.000000000000000000e+00 1.000000000000000000e+00 1.000000000000000000e+00 1.000000000000000000e+00 1.000000000000000000e+00 1.000000000000000000e+00 1.000000000000000000e+00 1.000000000000000000e+00 1.000000000000000000e+00 1.000000000000000000e+00 1.000000000000000000e+00 1.000000000000000000e+00 1.000000000000000000e+00 1.000000000000000000e+00 1.000000000000000000e+00 1.000000000000000000e+00 1.000000000000000000e+00 1.000000000000000000e+00 1.000000000000000000e+00 1.000000000000000000e+00 1.000000000000000000e+00 1.000000000000000000e+00 1.000000000000000000e+00 1.000000000000000000e+00 1.000000000000000000e+00 1.000000000000000000e+00 1.000000000000000000e+00 1.000000000000000000e+00 1.000000000000000000e+00 1.000000000000000000e+00 1.000000000000000000e+00 1.000000000000000000e+00 1.000000000000000000e+00 1.000000000000000000e+00 1.000000000000000000e+00 1.000000000000000000e+00 1.000000000000000000e+00 1.000000000000000000e+00 1.000000000000000000e+00 1.000000000000000000e+00 1.000000000000000000e+00 1.000000000000000000e+00 1.000000000000000000e+00 1.000000000000000000e+00 1.000000000000000000e+00 1.000000000000000000e+00 1.000000000000000000e+00 1.000000000000000000e+00 1.000000000000000000e+00 1.000000000000000000e+00 1.000000000000000000e+00 1.000000000000000000e+00 1.000000000000000000e+00 1.000000000000000000e+00 1.000000000000000000e+00 1.000000000000000000e+00 1.000000000000000000e+00 1.000000000000000000e+00 1.000000000000000000e+00 1.000000000000000000e+00 1.000000000000000000e+00 1.000000000000000000e+00 1.000000000000000000e+00 1.000000000000000000e+00 1.000000000000000000e+00 1.000000000000000000e+00 1.000000000000000000e+00 1.000000000000000000e+00 1.000000000000000000e+00 1.000000000000000000e+00 1.000000000000000000e+00 1.000000000000000000e+00 1.000000000000000000e+00 1.000000000000000000e+00 1.000000000000000000e+00 1.000000000000000000e+00 1.000000000000000000e+00 1.000000000000000000e+00 1.000000000000000000e+00 1.000000000000000000e+00 1.000000000000000000e+00 1.000000000000000000e+00 1.000000000000000000e+00 1.000000000000000000e+00 1.000000000000000000e+00 1.000000000000000000e+00 1.000000000000000000e+00 1.000000000000000000e+00 1.000000000000000000e+00 1.000000000000000000e+00 1.000000000000000000e+00 1.000000000000000000e+00 1.000000000000000000e+00 1.000000000000000000e+00 1.000000000000000000e+00 1.000000000000000000e+00 1.000000000000000000e+00 1.000000000000000000e+00 1.000000000000000000e+00 1.000000000000000000e+00 1.000000000000000000e+00 1.000000000000000000e+00 1.000000000000000000e+00 1.000000000000000000e+00 1.000000000000000000e+00 1.000000000000000000e+00 1.000000000000000000e+00 1.000000000000000000e+00 1.000000000000000000e+00 1.000000000000000000e+00 1.000000000000000000e+00 1.000000000000000000e+00 1.000000000000000000e+00 1.000000000000000000e+00 1.000000000000000000e+00 1.000000000000000000e+00 1.000000000000000000e+00 1.000000000000000000e+00 1.000000000000000000e+00 1.000000000000000000e+00 1.000000000000000000e+00 1.000000000000000000e+00 1.000000000000000000e+00 1.000000000000000000e+00 1.000000000000000000e+00 1.000000000000000000e+00 1.000000000000000000e+00 1.000000000000000000e+00 1.000000000000000000e+00 1.000000000000000000e+00 1.000000000000000000e+00 1.000000000000000000e+00 1.000000000000000000e+00 1.000000000000000000e+00 1.000000000000000000e+00 1.000000000000000000e+00 1.000000000000000000e+00 1.000000000000000000e+00 1.000000000000000000e+00 1.000000000000000000e+00 1.000000000000000000e+00 1.000000000000000000e+00 1.000000000000000000e+00 1.000000000000000000e+00 1.000000000000000000e+00 1.000000000000000000e+00 1.000000000000000000e+00 1.000000000000000000e+00 1.000000000000000000e+00 1.000000000000000000e+00 1.000000000000000000e+00 1.000000000000000000e+00 1.000000000000000000e+00 1.000000000000000000e+00 1.000000000000000000e+00 1.000000000000000000e+00 1.000000000000000000e+00 1.000000000000000000e+00 1.000000000000000000e+00 1.000000000000000000e+00 1.000000000000000000e+00 1.000000000000000000e+00 1.000000000000000000e+00 1.000000000000000000e+00 1.000000000000000000e+00 1.000000000000000000e+00 1.000000000000000000e+00 1.000000000000000000e+00 1.000000000000000000e+00 1.000000000000000000e+00 1.000000000000000000e+00 1.000000000000000000e+00 1.000000000000000000e+00 1.000000000000000000e+00 1.000000000000000000e+00 1.000000000000000000e+00 1.000000000000000000e+00 1.000000000000000000e+00 1.000000000000000000e+00 1.000000000000000000e+00 1.000000000000000000e+00 1.000000000000000000e+00 1.000000000000000000e+00 1.000000000000000000e+00 1.000000000000000000e+00 1.000000000000000000e+00 1.000000000000000000e+00 1.000000000000000000e+00 1.000000000000000000e+00 1.000000000000000000e+00 1.000000000000000000e+00 1.000000000000000000e+00 1.000000000000000000e+00 1.000000000000000000e+00 1.000000000000000000e+00 1.000000000000000000e+00 1.000000000000000000e+00 1.000000000000000000e+00 1.000000000000000000e+00 1.000000000000000000e+00 1.000000000000000000e+00 1.000000000000000000e+00 1.000000000000000000e+00 1.000000000000000000e+00 1.000000000000000000e+00 1.000000000000000000e+00 1.000000000000000000e+00 1.000000000000000000e+00 1.000000000000000000e+00 1.000000000000000000e+00 1.000000000000000000e+00 1.000000000000000000e+00 1.000000000000000000e+00 1.000000000000000000e+00 1.000000000000000000e+00 1.000000000000000000e+00 1.000000000000000000e+00 1.000000000000000000e+00 1.000000000000000000e+00 1.000000000000000000e+00 1.000000000000000000e+00 1.000000000000000000e+00 1.000000000000000000e+00 1.000000000000000000e+00 1.000000000000000000e+00 1.000000000000000000e+00 1.000000000000000000e+00 1.000000000000000000e+00 1.000000000000000000e+00 1.000000000000000000e+00 1.000000000000000000e+00 1.000000000000000000e+00 1.000000000000000000e+00 1.000000000000000000e+00 1.000000000000000000e+00 1.000000000000000000e+00 1.000000000000000000e+00 1.000000000000000000e+00 1.000000000000000000e+00 1.000000000000000000e+00 1.000000000000000000e+00 1.000000000000000000e+00 1.000000000000000000e+00 1.000000000000000000e+00 1.000000000000000000e+00 1.000000000000000000e+00 1.000000000000000000e+00 1.000000000000000000e+00 1.000000000000000000e+00 1.000000000000000000e+00 1.000000000000000000e+00 1.000000000000000000e+00 1.000000000000000000e+00 1.000000000000000000e+00 1.000000000000000000e+00 1.000000000000000000e+00 1.000000000000000000e+00 1.000000000000000000e+00 1.000000000000000000e+00 1.000000000000000000e+00 1.000000000000000000e+00 1.000000000000000000e+00 1.000000000000000000e+00 1.000000000000000000e+00 1.000000000000000000e+00 1.000000000000000000e+00 1.000000000000000000e+00 1.000000000000000000e+00 1.000000000000000000e+00 1.000000000000000000e+00 1.000000000000000000e+00 1.000000000000000000e+00 1.000000000000000000e+00 1.000000000000000000e+00 1.000000000000000000e+00 1.000000000000000000e+00 1.000000000000000000e+00 1.000000000000000000e+00 1.000000000000000000e+00 1.000000000000000000e+00 1.000000000000000000e+00 1.000000000000000000e+00 1.000000000000000000e+00 1.000000000000000000e+00 1.000000000000000000e+00 1.000000000000000000e+00 1.000000000000000000e+00 1.000000000000000000e+00 1.000000000000000000e+00 1.000000000000000000e+00 1.000000000000000000e+00 1.000000000000000000e+00 1.000000000000000000e+00 1.000000000000000000e+00 1.000000000000000000e+00 1.000000000000000000e+00 1.000000000000000000e+00 1.000000000000000000e+00 1.000000000000000000e+00 1.000000000000000000e+00 1.000000000000000000e+00 1.000000000000000000e+00 1.000000000000000000e+00 1.000000000000000000e+00 1.000000000000000000e+00 1.000000000000000000e+00 1.000000000000000000e+00 1.000000000000000000e+00 1.000000000000000000e+00 1.000000000000000000e+00 1.000000000000000000e+00 1.000000000000000000e+00 1.000000000000000000e+00 1.000000000000000000e+00 1.000000000000000000e+00 1.000000000000000000e+00 1.000000000000000000e+00 1.000000000000000000e+00 1.000000000000000000e+00 1.000000000000000000e+00 1.000000000000000000e+00 1.000000000000000000e+00 1.000000000000000000e+00 1.000000000000000000e+00 1.000000000000000000e+00 1.000000000000000000e+00 1.000000000000000000e+00 1.000000000000000000e+00 1.000000000000000000e+00 1.000000000000000000e+00 1.000000000000000000e+00 1.000000000000000000e+00 1.000000000000000000e+00 1.000000000000000000e+00 1.000000000000000000e+00 1.000000000000000000e+00 1.000000000000000000e+00 1.000000000000000000e+00 1.000000000000000000e+00 1.000000000000000000e+00 1.000000000000000000e+00 1.000000000000000000e+00 1.000000000000000000e+00 1.000000000000000000e+00 1.000000000000000000e+00 1.000000000000000000e+00 1.000000000000000000e+00 1.000000000000000000e+00 1.000000000000000000e+00 1.000000000000000000e+00 1.000000000000000000e+00 1.000000000000000000e+00 1.000000000000000000e+00 1.000000000000000000e+00 1.000000000000000000e+00 1.000000000000000000e+00 1.000000000000000000e+00 1.000000000000000000e+00 1.000000000000000000e+00 1.000000000000000000e+00 1.000000000000000000e+00 1.000000000000000000e+00 1.000000000000000000e+00 1.000000000000000000e+00 1.000000000000000000e+00 1.000000000000000000e+00 1.000000000000000000e+00 1.000000000000000000e+00 1.000000000000000000e+00 1.000000000000000000e+00 1.000000000000000000e+00 1.000000000000000000e+00 1.000000000000000000e+00 1.000000000000000000e+00 1.000000000000000000e+00 1.000000000000000000e+00 1.000000000000000000e+00 1.000000000000000000e+00 1.000000000000000000e+00 1.000000000000000000e+00 1.000000000000000000e+00 1.000000000000000000e+00 1.000000000000000000e+00 1.000000000000000000e+00 1.000000000000000000e+00 1.000000000000000000e+00 1.000000000000000000e+00 1.000000000000000000e+00 1.000000000000000000e+00 1.000000000000000000e+00 1.000000000000000000e+00 1.000000000000000000e+00 1.000000000000000000e+00 1.000000000000000000e+00 1.000000000000000000e+00 1.000000000000000000e+00 1.000000000000000000e+00 1.000000000000000000e+00 1.000000000000000000e+00 1.000000000000000000e+00 1.000000000000000000e+00 1.000000000000000000e+00 1.000000000000000000e+00 1.000000000000000000e+00 1.000000000000000000e+00 1.000000000000000000e+00 1.000000000000000000e+00
-1.320210946949545300e-02 5.200181821143270433e-01 -1.328732964392182470e-01 6.669369395362730879e-01 5.148889751047814878e-01 6.182815021970530234e-01 6.793731297320806384e-01 2.177524080086974123e-01 5.239383152110370645e-01 5.207786774633405003e-01 1.069877229486452030e+00 -6.313126028887067198e-01 1.369053543094144176e+00 4.407662043641236149e-01 5.143656919279536721e-01 5.139999669494497159e-01 9.449735330452114779e-01 9.519746467393660483e-01 5.589221901720089480e-01 5.073328338892088007e-01 5.142921892262545258e-01 9.644202024192282119e-01 5.989661812303680444e-01 5.667621844441345091e-01 1.544320608173232190e-01 7.084921362416887192e-01 3.473968260349788451e-01 4.818895364221442157e-01 4.986460878540563413e-01 1.477738188771071437e+00 5.429369952835295665e-01 6.126030513006328615e-01 7.245200936063656005e-01 5.318392605237186599e-01 7.261796570327514466e-01 5.337460969646827813e-01 5.924158208591993047e-01 1.661621668482019309e+00 -5.191045901924995487e-02 5.266752780235062215e-01 -8.050892101458323458e-02 -5.530675715587223262e-01 7.534066053733300405e-01 2.183520019376454513e-01 2.531642246800658858e-01 5.065914562541966593e-01 6.666511176002305472e-01 5.070083339810649292e-01 4.576255093116451400e-01 2.893688750160472792e-02 3.624588135828695629e-02 8.654096212303071800e-01 6.568449121428132642e-01 5.558609142397185066e-01 4.428844832538288423e-01 3.455879518271816331e-03 5.739862242612178145e-01 5.579181133809029136e-01 1.774526714623247403e-01 5.311826043798962838e-01 8.972227394124829836e-01 5.397523586127648265e-01 5.162847410158118988e-01 5.989660667885908785e-01 6.848477669080673680e-01 4.450979902085320794e-01 5.133415120325843795e-01 2.735975295727006706e-01 5.053464884947355129e-01 -6.334247544873251867e-03 4.127015404141742283e-01 4.333429285336685699e-01 4.920520795351526755e-01 3.998221632828435901e-02 1.470155870790124775e+00 5.600667071715322853e-01 6.278618917308173009e-01 7.561147564666462761e-01 5.136492204435413322e-01 1.371692965877502557e+00 5.160431394286074669e-01 2.454206184749315733e-01 1.318604057377256389e+00 5.752011823244632671e-01 5.261576314073905802e-01 7.593640876483868096e-01 8.195123138797822948e-01 5.036095916598906097e-01 3.910268434096258461e-01 5.745605627644098101e-01 2.481544899582890928e-01 2.071159278742285004e+00 6.330791033046717642e-01 -8.471012854581490281e-02 4.993787098572964323e-01 6.300897451169868990e-01 4.928188621030510363e-01 4.643756252171385435e-01 1.902769821940806794e-01 7.088044456150394135e-01 1.528445495257956255e+00 6.797595408956618179e-01 5.015118779838381169e-01 8.551732130114858554e-01 8.463829874569877010e-01 -1.920888968769309813e+00 -1.155485530497685431e+00 5.575240386908969503e-01 4.923912485577700004e-01 9.741261304631786411e-01 4.960440283164436748e-01 5.946013093959767737e-01 1.821273356955827316e-01 4.484158206230166033e-01 5.106041344575393826e-01 5.254074850917339612e-01 5.048606833597469867e-01 4.432088149024294155e-01 7.818083828729559537e-01 5.063643196209489661e-01 1.273834229168981480e+00 5.741760268439332071e-01 4.792100704465094285e-01 -2.348992801949607856e-01 4.912718701635743757e-01 1.886732350161986371e+00 5.341855797069787748e-01 4.394307832403287484e-01 6.741721662153307149e-01 5.471889956480922024e-01 6.259134425196082319e-01 5.127815308411295403e-01 3.989831977085195325e-01 1.834160115645040168e-01 -1.035273632275779399e-01 -1.362921730646185769e-01 5.795321768086154623e-01 1.210467963650577183e-02 9.792437874092427830e-01 7.088713345310158065e-01 5.333133819481979954e-01 8.439699063649065414e-01 6.673293776041605563e-01 5.380299388351983403e-01 5.184037869732959214e-01 -2.863453483068037486e-02 7.891314114585946671e-01 2.918675322662384608e-01 5.245633803759376379e-01 -8.190120259945284920e-01 7.868105634059571196e-01 -3.011064381163681691e-01 5.065921904157272282e-01 4.957473419622429600e-01 5.722717240573363950e-01 4.899288132979694455e-01 1.769594000187695970e+00 1.056904896091924451e-02 8.007975892888410385e-01 6.957278057265376958e-01 4.925640462238907724e-01 4.769141500607305129e-01 5.302630960066052612e-01 5.162334933516680158e-01 1.103572639500257857e+00 9.524237599136695098e-02 8.338302851549614925e-01 5.517477943862320044e-01 6.344682359553712736e-01 4.667060193680623303e-01 3.749545799942975433e-01 6.663104598293611014e-01 5.066104813575247334e-01 5.221622757250627966e-01 4.085829001689410545e-01 -1.590292243067083916e-04 1.592261028384135690e-01 6.116977756485658668e-02 7.262200196205453873e-01 1.135747820293768084e+00 7.316512080581585309e-01 5.237878712036659890e-01 -1.970127138930000965e-01 5.172027377840756612e-01 6.776911637334896987e-01 5.139926739198251715e-01 5.024271395354931169e-01 5.515724684706914127e-01 2.639617274495742016e+00 4.721808259560802967e-01 4.773195508074579152e-01 -8.195817610030039502e-01 5.094404822539209121e-01 5.423094834382573559e-01 1.654645847269639036e-01 5.047076434258386257e-01 9.127505847046358811e-01 5.163453897230704248e-01 7.385831835796209388e-01 5.154448822532616825e-01 5.696177295068983737e-01 4.927638327555019515e-01 1.011620527383684909e+00 5.972761456304097605e-01 5.432831342013523246e-01 7.385831866686558556e-01 3.550547846261075668e-01 1.262106082112034233e+00 5.746223032552693066e-01 3.326479484844890866e-01 4.709936371855336645e-01 -3.788278023785406068e-02 4.687105390565964314e-01 1.735299862553384698e-01 5.007694047653368230e-01 5.148698189302046702e-01 5.152235151097653842e-01 5.085674646359366058e-01 5.244098961603244069e-01 5.171877843838227351e-01 5.062660844639946811e-01 5.592769804345278928e-01 -6.733276874805242951e-01 5.118893662718628779e-01 2.555391005286885009e-01 4.408324593289170701e-01 2.525458136206426007e-01 1.230913075967402293e+00 9.329577352309736948e-01 5.095407871716457482e-01 -1.061017918785623904e-01 1.031631040553290690e+00 5.103680146768243553e-01 5.056191502377916924e-01 3.437275122437451480e-01 4.248871549031765782e-01 5.620678678822632612e-01 2.230164040961037930e-01 -1.317758942798642474e-01 -1.487436815055102057e-01 2.527453353646056389e-01 4.936892089938781369e-01 -8.479985907569875803e-02 5.837719639168522656e-01 5.037701759802264423e-01 4.460776116740746700e-01 -1.104539264412206373e-01 7.251219541241625821e-01 -2.088472124100223315e+00 5.335622391836269962e-01 -4.630505206429787468e-01 4.980710480634347181e-01 5.194853435532575947e-01 5.989658320528249424e-01 4.891814991355494802e-01 4.900340598200252362e-01 4.843269295450128298e-01 6.854151330581165213e-01 5.113223251447033268e-01 1.665776591032159137e+00 6.588196524483913574e-01 6.971501022782747858e-01 5.533535479143162350e-01 3.996524025515041934e-01 8.972226626796842019e-01 3.437110155348938600e-01 2.544531368355242851e+00 6.002378305838553807e-01 2.574308805790756494e-01 5.960782222755851567e-01 4.775718380875201285e-01 8.951037195371311928e-01 5.096498791035951603e-01 4.898734811844865367e-01 5.113479672081375771e-01 9.947607847373131085e-01 7.316123084073733462e-01 8.729195437949084369e-01 8.234997222702060693e-01 2.364435039916285286e-01 6.670153154547685537e-01 5.608552804998601093e-01 4.137927917218711116e-01 -6.651496691307384745e-01 3.760836351104051567e-01 7.688366022081178919e-01 5.078906752207585917e-01 4.494628362383904507e-01 5.254074829458611484e-01 6.060845783934508679e-01 5.023736400545388836e-01 -6.610700582733312070e-01 6.296786479746320220e-01 5.068833521433833145e-01 5.343255123893654590e-02 5.305679311238544749e-01 1.825548025957024478e+00 4.807728652179548701e-01 5.211984957967251697e-01 5.245691919759151167e-01 -3.223153305403441582e+00 5.102349879504349817e-01 2.539866059688463018e+00 6.664125690410205305e-01 5.189375459308139815e-01 -5.871137189484998409e-01 5.056156429326814639e-01 5.106271283551246931e-01 4.496105686537197332e-01 5.210773089120755985e-01 4.204928783299993755e-01 6.252972278969880504e-01 3.158607628082316654e-01 5.121429592615781567e-01 5.011716230281261231e-01 4.274971303144418089e-01 5.080922490526963431e-01 6.665225608778329036e-01 5.145037867758054384e-01 1.169340414543336149e+00 2.492742275080624820e-02 2.172267754317725785e+00 2.539584935130691168e+00 5.513337104466856653e-01 -1.675502248220582802e-01 5.243974855251698486e-01 4.136004809098459134e-01 7.053688656610230812e-01 1.333179659640769454e+00 5.434542672131906782e-01 1.103624830174926297e+00 5.248114224906119674e-01 1.402018647422681730e-01 1.226705075840992087e+00 3.797762751669137571e-01 4.875281425792866719e-01 5.463994683910053940e-01 8.126429639806116434e-01 -3.447746182747162269e+00 1.575755788571388649e+00 5.205679941349182771e-01 6.428266594140839008e-01 5.238178576452902080e-01 1.661621678698742333e+00 3.214944973934273920e-01 5.108170208524309697e-01 4.190068908825206884e-01 4.626207974290105218e-01 1.388861950489137076e+00 6.825011636819054983e-01 7.385831815161367775e-01 5.837712081317534274e-01 5.972761487482063369e-01 7.198923057913988455e-01 5.476604257158207423e-01 8.740403452088394420e-01 5.206269351158877567e-01 4.241027157245244039e-01 3.317988844919229074e-01 5.866276670669993143e-01 5.173169183507269064e-01 5.914694512580850327e-01 5.108170053387885989e-01 6.253388104709767248e-01 5.109663570383584652e-01 9.357233117624651486e-01 1.036990851970025274e+00 1.089159939710496960e+00 5.549802286811561514e-01 2.814711605432280161e-01 8.972219873270630419e-01 -1.086852521259217830e-01 9.311657372531941812e-01 6.219438587650859551e-01 2.458399078639585469e-02 4.837720501329492717e-01 1.052157591596115660e+00 4.014747452621790225e-01 5.627703564966335392e-01 2.441499782545004660e-01 -3.200926631280585632e-01 -2.333822734625095929e+00 4.526501033157413478e-01 5.972761456985491435e-01 5.972761168405544829e-01 4.877186921065920777e-01 5.525325267701267640e-01 -1.805911797143654185e-01 4.006672202758417844e-01 5.077437347442012028e-01 5.328169703788115941e-01 5.180674986345786825e-01 1.085048976738752780e+00 7.385831870298869006e-01 5.151024957194619835e-01 4.650167620984128614e-01 2.736460187660961774e-01 6.292204193032115978e-01 4.978945159063589143e-01 5.090286456493170464e-01 5.561573507694786977e-01 2.474512580138772400e-01 3.401264239617092511e-02 5.972761489234879040e-01 6.523859667757678782e-01 5.044657302338109162e-01 5.854912309264140857e-01 8.542293251293193723e-01 4.863123678278692963e-01 5.617332873723704934e-01 1.724928113397047102e+00 5.443138299403907920e-01 -2.805496399914996442e+00 6.674459249108161130e-01 1.464401274310892509e+00 5.779192342555321549e-01 -9.786052799233159183e-01 5.768033870320635748e-01 5.328033278634890513e-01 4.999136561646345678e-01 4.820678816948626988e-01 -1.430473347756004154e-01 4.996016014974703490e-01 1.052925249505416438e+00 6.350043767919156812e-01 -2.545106495204282893e-01 5.647712906603004068e-01 5.305595939961089691e-01 7.524913939787257755e-01 5.211503728905360067e-01 5.439805630278627957e-01 -4.650881713072681500e-01 5.527144955557123929e-01 5.001691940978880702e-01 7.430273185460662955e-01 5.240994165175796304e-01 7.594560986510650036e-01 5.086737041930757819e-01 5.118065329666426910e-01 8.251867097120162420e-01 5.248607918704487618e-01 4.359288541498887448e-01 2.238992038061932977e-01 2.704274083988038591e-01 9.383693643580517385e-01 5.352658402624431710e-01 3.070289434074361612e+00 6.549871859444029720e-01 5.310590952214594429e-01 5.700540198992134489e-01 6.786458547180164169e-01 2.187507640692899075e-02 4.796438143984415592e-01 5.758599396749719546e-01 4.972123203384477552e-01 1.167713297340919443e+00 7.592229150590052988e-01 4.985954942373237442e-01 4.782478827986418324e-01 1.106384845778652926e+00 5.018493752344501679e-01 4.948913189902792165e-01 5.251953421063091376e-01 5.664847925178967403e-01 5.149052071410056275e-01 8.949573664149204077e-01 4.713740843103429445e-01 5.286683495774986419e-01 2.519733929897043090e-02 5.267565836655172529e-01 5.163851440814207217e-02 4.320733370976371779e-01 4.480001172536741127e-01 5.181147247335903261e-01 7.577332285025804026e-01 5.022796173330259517e-01 4.259928410945523769e-01 1.093659802024773281e-02 6.031119867219013608e-01 5.016584627103922722e-01 5.065263462355722446e-01 1.063388746500044599e-02 5.023968216722273228e-01 2.693583423951851907e-01 5.246822673804992787e-01 5.030395593751353367e-01 1.231101527028961362e+00 7.974375686960916143e-01 5.064485694356400947e-01 3.165914431396797957e-01 4.482213701010173690e-01 4.097291439218094800e-01 9.727261709456009875e-01 5.182435031892937971e-01 4.336078435957927413e-01 6.669791678219343378e-01 1.915371020715613160e+00 4.636584829763671922e-01 3.690449673459748614e-01 5.137537220721607456e-01 6.300045857116857162e-01 4.648105700694425413e-01 7.854329001649336117e-01 -5.433658862616144170e-01 2.977121628458410663e-01 4.758796479919301103e-01 5.130213785677968374e-01 4.293128828863355118e-01 -5.631069133994659470e-01 3.945207521711749932e-01 5.124012674826263769e-01 7.301511813553300811e-01 6.581029006385050728e-01 1.310107652732923400e+00 5.168939248486728033e-01 5.112040533601750480e-01 -6.360724288352765932e-01 5.377491130246604412e-01 1.160022069862491012e+00 6.631541043503430544e-01 2.248074862630836945e-01 3.267051664633754404e-01 -1.352417272614124588e+00 5.226616291388557212e-01 2.294029525127574964e-01 1.077203333709329414e+00 8.072940976841991301e-01 5.073345512841636040e-01 5.159542562414108913e-01 5.336535859073219257e-01 6.666727625108104238e-01 5.494920125202922279e-01 5.745887983664451637e-01 2.328852933769958583e-02 5.689022837590307358e-01 5.448606006471954366e-01 7.142646646021932888e-01 4.838923087321461702e-01 5.758978363791695809e-01 1.131693212751182065e+00 -1.192105054127916980e-01 -2.112624491172190866e-01 5.480818876414813579e-01 5.362214525847213142e-01 5.426902261312192000e-01 5.035143032853067746e-01 -7.856961012078920170e-01 3.033525174839685423e+00 5.326694290127258480e-01 4.896512595487579889e-01 4.697527445165955440e-01 5.030921470484053248e-01 5.230286254515202904e-01 6.659225360544164252e-01 3.376691803984511742e-01 5.501531666863208603e-01 5.069048643739958449e-01 6.698226640386921726e-01 4.197285106879976579e-01 6.592259381516815120e-01 4.969684790572549971e-01 4.071893070462320185e-01 4.260670981336306951e-01 5.019891866720981310e-01 6.126267865176676652e-01 9.774344112417016062e-01 2.243641830386291058e+00 6.300376016072699592e-01 4.895214824223364514e-01 5.820092137725642045e-01 5.304618903558329102e-01 3.771013119322772500e-01 5.183548633825345586e-01 5.058313293723050164e-01 5.580111528960268741e-01 5.886733790874413286e-01 5.320829315556082628e-01 6.669284097382750520e-01 3.817886306771429150e-01 6.843476323439386944e-01 6.254174325130907874e-01 6.433329855736842351e-01 1.418113206985897601e-01 8.972226872657983465e-01 5.166902994288915529e-01 2.010793906743719994e-01 1.898091824424178231e+00 2.486634357425245578e-01 5.414236245253138957e-01 5.750349742801514896e-01 5.634932665678928781e-02 5.978747645397848309e-01 1.470033909453420495e+00 6.862738949531237420e-01 8.413709503124988665e-01 5.178396297228894385e-01 5.027319353667707436e-01 5.589072107956998270e-01 4.667002605312651209e-01 4.919598610796648841e-01 5.186833061145301738e-01 -6.018614907560571048e-02 6.438483801133471074e-01 -1.188132765912587985e+00 4.626007424618439057e-01 4.752428118727263784e-01 5.185417328671455550e-01 5.245645935364297019e-01 8.972226871057431552e-01 2.519175458451953231e-01 5.281385393889622692e-01 1.260653205469852267e+00 -4.931076099437193827e-01 5.218028440538151624e-01 1.082084869669281302e+00 1.407197311671005036e+00 3.369885526461033343e-01 5.186913922688530798e-01 -2.801723498747120400e-02 -1.573096366680001301e+00 2.954789145888627733e-01 5.953600298944912161e-01 5.260787315901748196e-01 5.256447504180972174e-01 4.374363088413998901e-01 4.944786425364424143e-01 -3.582795799571651951e-01 7.945802541947292186e-01 5.254074814174111152e-01 3.763851706036486777e-01 5.030828531543266591e-01 -4.177552509034255374e-02 -1.826660685751575475e-01 1.687937863479334943e+00 4.220518784550846281e-01 3.910671789982094193e-01 5.126803932253590768e-01 3.417728949614186051e-01 5.915666784129953726e-01 8.003900579846406904e-02 -7.359871980484393728e-01 5.137556529508295888e-01 4.848192520361946367e-01 5.232860611726055655e-01 4.554535802992783489e-01 5.201251161008038082e-01 5.331739488774680513e-01 4.973583385756970565e-01 5.864268025316013988e-01 1.010124041569098186e+00 7.252035323195594740e-01 5.204234847226357763e-01 5.062846083369618722e-01 5.383738217103802848e-01 5.078158009600820533e-01 -1.000034315662088301e-02 5.108170099370688000e-01 6.452734554632069131e-01 4.894881615772763706e-01 6.911564912315203424e-01 1.041840616740238978e+00 7.854438828095657854e-01 -4.048774933606926196e-01 5.198574506124024053e-01 6.090280298139910675e-01 5.339651633767795724e-01 5.064079060990405168e-01 8.722886685709622112e-01 5.161672188972993292e-01 5.252986557271683843e-01 -1.120877575869857201e-01 -7.891576865523216577e-01 2.172279609008058721e+00 5.401632715886813818e-01 8.730458459140446603e-01 5.756786769691665251e-01 5.485296802111948589e-01 3.349219107020862118e-01 1.470739725279235910e-01 5.199645103482182229e-01 5.045918591338436343e-01 2.285002854597196348e-02 5.173128592684371752e-01 4.477640280380347226e-01 5.085668331146832033e-01 8.581229325002561747e-01 4.763587586074904401e-01 5.495730747206173383e-01 3.579006022075666427e-01 5.426868808904146135e-01 2.699039936192363931e-01 5.144338678874480486e-01 5.794808513448430620e-01 4.989693340961032231e-01 -3.237304905386598208e-01 4.981255564459919905e-01 6.425852798600548699e-01 4.784478421479277377e-01 6.667065531522448074e-01 8.972225552856720743e-01 7.413572581892757807e-01 -5.504029758764107383e-01 1.002706050297332174e+00 1.661621668512000882e+00 4.538340666851978233e-01 4.639772469007148459e-01 1.051939938462687518e+00 4.958403369373513003e-01 6.667884618080757164e-01 5.120938930198820627e-01 1.701156056409435458e+00 5.181210240655305110e-01 5.837704696908984081e-01 1.235622388355819945e+00 -3.155988565177320071e-02 5.079564236385649689e-01 -1.629456799181034921e-01 -8.905862255278524930e-01 -1.824195184593376817e-01 7.753019491363442039e-01 4.885428511189387479e-01 6.077932830850517609e-01 -3.441571673545342214e-01 5.320766044629162694e-01 -3.115834886405062856e-02 -2.919406591695452580e-01 4.219962838674881644e-01 5.152336716671361838e-01 5.508856036757275865e-01 5.270419589230188606e-01 5.530487435407205332e-01 8.871918493274024708e-01 -3.285862543818796611e-01 5.150105733584880996e-01 4.858152346975076474e-01 6.445607980603917930e-01 1.143814025247167576e+00 5.509222469124790411e-01 5.477486830475363222e-01 5.108597428218588643e-01 1.012521461086128213e-02 -1.430635813038015347e-01 4.783443372995014320e-01 4.939899906129787688e-01 6.074656068277526355e-01 5.339900793701026771e-01 3.346218914142748968e-01 5.177129087108044425e-01 5.288120788617090007e-01 2.931288330468190817e-01 5.041755077888719905e-01 8.330735741773963587e-01 2.451798333651293849e+00 -2.227936572339880295e-01 6.729729910167766560e-01 4.049160009174120889e-01 2.500800491766272393e-01 7.051240934516976866e-01 -5.011719483716506329e-02 -1.393064450040858437e+00 4.946758588256344735e-01 2.511386092193813813e+00 4.903634987031816328e-01 1.332563029123794707e-01 2.018123260301230848e-01 5.254074851673427027e-01 4.837144921825263233e-01 1.494121881773643246e+00 5.015322975774050285e-01 1.240725708441527270e-01 4.708080657469498331e-01 1.596633028338909854e+00 5.199618414228156515e-01 5.951468684090421846e-01 5.186252245990642384e-01 7.495143700100478368e-01 4.454435100776719669e-01 5.577859492411364473e-01 2.945673354167763040e-04 5.151644046942881472e-01 6.435843666685256981e-01 -5.437035484234686855e-01 3.451052725520216413e-02 1.153658249786070344e+00 2.319583351799992532e-01 5.080145828681751352e-01 6.154923002071828186e-01 5.011243166873919908e-01 1.954600495825990603e+00 7.183770391762444030e-01 2.311094621102172814e-02 2.210181081441671969e-01 4.400678115316192240e-01 1.051328357436292160e+00 4.688534127631040493e-01 -1.341049910189795469e-03 5.264884652811692156e-01 -3.563151617808340416e-02 4.886464900938262135e-01 5.123354105165235373e-01 2.782857745030472424e-02 -9.753123549487655031e-02 6.518044720403363135e-01 5.489828747407032861e-01 4.884309604062838095e-01 4.004792267615642221e-01 5.760614553316936171e-01 5.154499574841400200e-01 5.235449764605888401e-01 5.340428172087807734e-01 4.900364954996156985e-01 6.793304442836222146e-01 1.006086914348312655e+00 3.003743153959689938e+00 8.082879553642484671e-01 4.958053398631377950e-01 6.662217290490797250e-01 2.050801470807762095e-01 5.090554721620405010e-01 8.100586056340087771e-01 4.769424277078813112e-01 1.313709577000191642e+00 5.674410375163233544e-01 -5.385805317445500062e-01 4.058433785321609137e-03 4.880874035651263654e-01 6.068718238501481510e-01 5.957576763016860788e-01 5.216030878441746399e-01 -1.138106120496112407e-02 5.622100020830670397e-01 4.293338383352566234e-01 -3.315343803841725556e+00 5.710827211841252860e-01 5.134204557187991291e-01 1.098979948148463004e+00 4.989348446281665628e-01 5.942134861516560340e-01 6.939252287953666665e-01 -8.173533511100409266e-01 -5.096325156953014357e-01 7.504925278472088235e-02 5.221031649450015300e-01 4.065527205605098393e-01 2.452857554159093290e-01 5.404014473711896693e-01 -3.148756029573672732e-01 7.164189936791206526e-01 6.077907172426163518e-01 6.901817173628174151e-01 5.242081149569229881e-01 4.879830264929958528e-01 1.821514894409720642e-01 -6.843748570392361730e-01 6.222736441614648006e-01 5.768124519154049779e-01 1.762815190997308323e-01 5.176227369094820174e-01 5.724684214079998057e-01 5.215774848368005534e-01 6.544519432888747934e-01 5.553620697977479370e-01 5.254788608820709639e-01 4.923522325331045613e-01 1.661621669123154010e+00 3.898030432509262400e-01 5.474765606343965363e-01 -7.770022340328371080e-02 5.007295916405085645e-01 6.100349702625009751e-01 5.183205257112807329e-01 5.169457937641426248e-01 3.517604435943899044e-01 8.454373024548506033e-01 1.124005511181686012e+00 5.554651922737252612e-01 5.089647212487412586e-01 5.923180145779792793e-01 5.896185526983610536e-01 4.870491192541633318e-01 5.162375992505352507e-01 1.002650669283591700e+00 7.406076906749780031e-01 -4.326301071092050754e-01 4.270992062525618138e-01 9.264787579820559227e-01 4.806583402293934659e-01 2.786132209978480628e-02 5.132394905026371745e-01 9.374571896242210878e-01 -1.409596862448252441e-01 4.679882292322206094e-01 2.669453821763885792e-01 4.981022044572809837e-01 7.574375763652370086e-01 5.080974089022950446e-01 3.624208061260132396e-01 1.371154232896520053e+00 5.872246966662429957e-01 4.994993810562519676e-01 -5.332248826897446614e-01 4.819428851819723691e-01 1.047303527230939668e+00 5.505282047276386370e-01 1.618883639876034786e-01 8.969637525756176677e-01 -9.530620771712333683e-02 4.069360424127181908e-01 1.524926297469776149e+00 -8.326123987318020392e-01 4.715976039859158253e-01 5.255293503419260492e-01 -3.981227844673113081e-01 4.215230721530929814e-01 4.640806448231650783e-01 4.486113974106303304e-01 5.330149767846913411e-01 3.300392245963665316e-01 2.660335664576419790e-01 3.652485676100212242e-01 4.776799312210398551e-01 5.300796126195340685e-01 -3.399262857716188989e-03 3.537437323062920386e-02 5.147320249810759529e-01 1.049583378900823538e+00 3.228147366642064586e-01 -5.431263741017214874e-01 4.993411717582558196e-01 5.127217099591054872e-01 4.273788920807566893e-01 5.820872380318315407e-03 3.666991263758501152e-01 5.204378956033782755e-01 5.220196891130528538e-01 4.651315090404172237e-01 4.670979865587664148e-02 5.491051899251399027e-01 4.817900225277686466e-01 6.717621213987510220e-01 2.027137896628530722e+00 6.126050574668732290e-02 3.754319631366771493e-01 5.643036112665027471e-01 1.769378359639118825e+00 4.987447697905255661e-01 6.210877710146337494e-01 2.021632298390908453e-02 5.108170125412027085e-01 5.244327151527223840e-01 4.607282502340523944e-01 4.026750961101788762e-01 4.878758588749551039e-01 5.186942799209404154e-01 5.200274290800337429e-01 -4.581641363263097566e-01 5.157235500323017474e-01 5.310877519636857391e-01 5.125884243029306120e-01 7.291204494227215838e-01 5.109705979685215116e-01 -2.283917117441015554e-01 9.742285374242165563e-01 -1.138606972116946947e+00 -4.692923866029687918e-01 4.904317687515503121e-01 5.230143820963900625e-01 6.475766545112774386e-01 4.929344924617857782e-01 3.054179056456247099e-01 6.604816709920460216e-01 5.108170124335270623e-01 5.143218791674650792e-01 6.260009557409993430e-01 5.336531785785820770e-01 5.205793433236991508e-01 2.753252425495092970e-01 4.796883379676326609e-01 4.466478541997063734e-01 3.285356493795604238e-01 5.013015439254888683e-01 5.079176895781297718e-01 5.021091483409045875e-01 6.034034713244748049e-01 5.200980386461085958e-01 5.826392268600852908e-01 4.487383942097743494e-01 5.386200070673936580e-01 5.533624054946975068e-01 2.743583291243473221e-01 5.430038832262655824e-01 2.268791463150293009e+00 6.146551018824223389e-01 5.085859401965391324e-01 3.911575429924011860e-01 5.148175910180373682e-01 1.092253014547783563e+00 6.310648366055425784e-01 7.313229660631336282e-01 5.184655364178549775e-01
7.176633023084748597e-01 2.428600985225828623e-01 3.728143440883113779e-01 1.347887427887696499e-01 3.100288042292660418e-01 2.359804914797346553e-01 5.123940045366520701e-01 4.841977452818488903e-01 2.812283942025806116e-01 3.185010643176959810e-01 1.977323898460731755e+00 1.662256087171381624e+00 -1.361448607469254446e+00 5.937813391230807314e-01 3.060989911822699638e-01 2.821073836871959561e-01 1.286827399389304516e-01 4.030375447103980435e-01 4.363626858863630664e-01 3.350244517799115251e-01 4.442986698803666479e-01 2.018935715255314012e+00 3.995846688757314080e-01 2.551458624427246358e-01 6.595420790662391841e-01 -3.212217002985695569e-01 4.926185529536618035e-01 3.674211094396654387e-01 3.319445577755331112e-01 -7.609848283399504032e-01 2.370298721425491695e-01 -2.478235154172690746e-02 2.917119845809953982e-01 3.277801600939054261e-01 -4.321918006519163691e-01 2.841207698470668008e-01 3.262056679991696684e-01 -2.712542057731974210e-01 -3.068637957043800046e+00 3.229169990322582895e-01 1.035518781548655953e+00 1.337550388955408287e-01 -1.571070801289690677e-01 7.895094574069364546e-01 7.135719707833266812e-01 2.895526310462479547e-01 1.348514473413562620e-01 3.223426388315122626e-01 3.727871044148143853e-01 7.691862031796647958e-01 7.312285552103992003e-01 3.946011375744498673e-01 -3.615571874590445267e-01 2.171951528979914336e-01 5.933846951034142947e-01 7.650206395251903935e-01 2.298809522664403138e-01 3.387657457202261080e-01 3.505907272300062272e-01 2.705383958309762749e-01 4.150862211229354726e-01 2.331294876364617963e-01 3.148235258309237117e-01 3.995846782662289542e-01 -3.371279161526066770e-01 3.385466386601384547e-01 3.025334562083226153e-01 3.634291681871379964e-01 3.933784543614308182e-01 7.132726480047488771e-01 1.532459928412199524e-01 3.794844524446893130e-01 3.323971623439851419e-01 6.831527643350111534e-01 1.844405127632263275e+00 5.479956649645849609e-01 4.572547951282772694e-01 4.731448401701059403e-01 2.993204553088161246e-01 -1.279054874582196577e+00 3.031517056624540296e-01 7.096386547476281059e-01 2.129150872615310330e+00 2.239450055850834009e-01 3.333586841163768688e-01 -4.802868332244687455e-01 9.425835536476925847e-02 3.466931664420157544e-01 -5.550878081054507751e-01 -8.221084556559097312e-01 7.145953306862227183e-01 1.487371943715894318e+00 1.970364852725873805e-01 7.332448544824331504e-01 3.701626429441720600e-01 2.454793066203715124e-01 3.841309934872363385e-01 6.687896820098001571e-01 7.407804117095395657e-01 -3.172324964039222595e-01 -1.499347217924586473e-01 6.376627674175461280e-02 3.431090908592734356e-01 2.230840222657863303e-01 8.418069492380698959e-02 2.931696736211515830e+00 -2.626722975010568062e-01 -7.320228761580488408e-02 3.701070195235545701e-01 7.999796566739255654e-01 2.279750265906519968e-01 2.405794105365318125e-01 1.905719602098328580e-01 5.098746668323808073e-01 -5.085960988940814165e-01 3.218666578612335849e-01 4.681307945772518186e-01 2.522110376998657477e-01 7.816019123885351583e-01 3.096875918919200221e-01 -1.386796055691634777e+00 3.730278759918699283e-01 3.969351635547216928e-01 1.141660171746822883e+00 3.317732336685089711e-01 2.069474156502856044e+00 1.356694027388262169e-01 3.538683767673929670e-01 2.806327109777038697e-01 2.674451750252779259e-01 2.198864540811567014e-01 2.993661010278896306e-01 6.535499169631547867e-01 3.619873057775045977e-01 2.047500638494897662e-01 9.102983765944854255e-01 6.551067385350762828e-01 7.279432150831617321e-01 -3.171926477287808077e-01 1.902932255409658657e-01 3.257158937423443312e-01 3.206739575189438418e-01 1.472117170303496314e-01 3.600292707938377301e-01 2.976997190468465559e-01 7.241064929944007744e-01 -4.384129773733939917e-02 3.165397220733969230e-01 3.628094044479168723e-01 3.875678215799891468e-01 -3.463480605525378619e-01 1.686476364739051409e-02 2.895547783267889974e-01 3.548020191427047054e-01 4.249127104403311872e-01 3.270698068392762781e-01 -2.011451853749944174e+00 4.240788303789604363e-01 -5.623338655995770985e-01 -3.171574744253078948e-01 4.397963693336041646e-01 1.173086056599906973e-01 3.096928104266873927e-01 2.938961893073024356e-01 9.116446906246274129e-02 1.739301059498261567e-02 3.130240622288571473e-01 2.673283362452343881e-01 1.976754172883409544e-01 3.432129228109258023e-01 2.626301321747121498e-01 1.342396195758912836e-01 2.895430706667930232e-01 3.106829123390535408e-01 -2.392571436622815018e+00 7.081014667322825806e-01 6.774887275784141627e-01 1.011289101686491110e+00 -4.431812968682742881e-01 1.160146944817060488e+00 -4.572962101336253832e-02 2.715431102058874502e-01 1.206089430078716385e+00 2.229782750283812176e-01 2.982041804045628131e-01 2.577997312367952265e-01 3.351333499380586556e-01 3.376901166847178226e-01 -4.183204610522650024e-01 4.284911475133127978e-01 1.291992289819424433e-01 7.808506519127207390e-01 3.047114928590725080e-01 2.269205418895317850e-01 1.999514259250645409e-01 3.162611709370456992e-01 -1.533802735888549540e+00 3.219802286438542271e-01 1.037295188877617458e-01 3.098562038118016226e-01 2.613742409537296862e-01 3.223088514211683298e-01 3.580380238139834193e-01 1.098161604197569891e-01 -8.361556209013326635e-01 1.037295174695897909e-01 4.020705694724240886e-01 -4.834711349014887971e-01 2.569361511595233960e-01 1.570756542261542155e-01 2.947870027689766803e-01 -3.060236215855272057e+00 3.724531335927783182e-01 9.494799768528020545e-01 2.971788185496430090e-01 2.980176252188937447e-01 2.919934383041604131e-01 3.222478499492295034e-01 2.922528374975099652e-01 2.981924200580196582e-01 2.948685809622684784e-01 3.533777626322302523e-01 6.433444864506389083e-01 2.555754830207803696e-01 5.437172843696937985e-01 3.677308522042846972e-01 3.569949873441142785e-01 -5.673746501258188912e-01 2.145707162220959585e+00 3.445234095192138413e-01 1.204543841098362211e+00 -1.353105557682465321e+00 3.053686863568085830e-01 2.194730188969958307e-01 3.312510756342816887e-01 1.091028814986600537e+00 3.419733445362678204e-01 7.529346508014304051e-01 2.691910730933969598e-01 6.689256773033988024e-01 4.256099102619925745e-01 3.345686967138342682e-01 -1.104008410757249203e+00 2.358904566090280208e-01 3.148611735179978055e-01 3.699418402549856100e-01 9.500200124157888171e-01 -2.883470687114132458e-01 2.937283879544089871e+00 3.471112927891233935e-01 1.130577813790718977e+00 9.888652635381191269e-02 3.215385599420297891e-01 3.995847349106824153e-01 2.811470451372909407e-01 3.499834008698932686e-01 2.868009792405221137e-01 6.223259773598111000e-04 2.545891689161000615e-01 5.582097997571738857e-01 3.248613396404028131e-01 9.390434997318637678e-02 3.350092760468847963e-01 1.980030042648358302e-01 4.150862661496541040e-01 2.906537325956088380e-01 3.032682290669739267e+00 3.736647682391248670e-01 6.596068494500932911e-01 5.297227340623404945e-01 3.646348369563722214e-01 4.168795245541889738e-01 3.044317402547544460e-01 3.626848089273865816e-01 3.019249259706775490e-01 -3.994383940611719863e-01 5.033148898682391348e-01 2.856603157409571825e-01 9.917556335424104752e-02 1.882306721920566361e-01 1.472744781038157091e+00 2.482881012402567422e-01 2.435185502549129244e-01 1.945989923657997389e+00 4.732086495292635031e-01 4.408722481789617564e-01 3.166622895657857373e-01 3.021234895797336173e-01 3.218666569763763419e-01 -2.007197369630717709e+00 3.418522394602481196e-01 1.355300989149318402e+00 1.017757472865754853e-01 7.644982950609678640e-02 7.231685808141615768e-01 2.383257527627569705e-01 -6.913342027271229817e-01 4.700330922846432391e-01 2.961951339260953109e-01 3.628101693662952321e-01 -3.535994467459469548e-01 3.098470604965804509e-01 -1.905557388351861947e+00 1.343685998523045100e-01 2.939440055683654185e-01 6.145489394255377880e-01 2.986687149703432520e-01 3.112130345880568250e-01 3.460349110575758891e-01 3.011991012430879633e-01 -1.465372259421925394e-01 -7.287124558800027740e-01 1.453346494560683357e-02 6.595729228727736926e-01 3.235566737795763648e-01 4.067744563755459342e-01 3.061818398430225519e-01 1.343437019622991946e-01 2.934012611580127383e-01 2.325687994798337765e+00 7.242127596547447421e-01 2.459288319131144873e-01 -1.083415189423060809e+00 3.084272217662269999e-01 4.382971691496364564e+00 3.139497905270383082e-01 -2.609043783856738324e-02 5.640750288208525864e-01 -5.258463952291232424e+00 4.723968676353866858e-01 1.455595222298024849e+00 2.882263374987739657e-01 5.553283007863919485e-01 -4.157532929290979617e-01 2.322050880927664929e-01 2.009290214471574076e-01 3.683923365370314063e-01 2.875310738079625006e-01 2.744673495422451204e+00 -3.432670840851373972e-01 2.405013875296209691e-01 -1.848902063580591060e+00 3.223850120404091468e-01 -2.712542136554263461e-01 7.205539796894784299e-01 5.774781465126538338e-01 4.217331918053365269e-01 3.917789230720412630e-01 1.302918840694707647e+00 1.268617581632982272e-01 1.037295194267101456e-01 2.358905175128990228e-01 1.098161542138582081e-01 1.960701287294049355e-01 4.050812648837826546e-01 -5.726959566203533303e-01 3.007060951211602551e-01 4.785666452303194429e-01 3.320869849589855316e-01 2.194849257720806190e-01 2.953277453537602737e-01 3.055313475359465736e-01 5.774781875170550416e-01 2.182733483410866371e-01 3.117894581657568165e-01 2.397104536086205329e-01 5.091655753890765856e-01 3.128583472737776816e+00 2.521538586588343844e-01 2.273746020655851574e-01 4.150873292593754149e-01 8.693603651485094508e-01 4.545190486951179998e-01 -1.738150373972535967e-01 7.248310758479667992e-01 2.097033147417636523e-01 1.070478062398872304e-01 3.595917535012685406e-01 6.066627991613140480e-01 7.073944875623332518e-01 7.501285770271500786e-01 7.922249726953397575e-01 3.872228238276736456e-01 1.098161603874011905e-01 1.098162099507035971e-01 3.536979040136041808e-01 7.846454166141929309e-02 1.119661338695750574e+00 4.296283679651848875e-01 2.990185958803855404e-01 4.390287122832160494e-01 3.011433392116788510e-01 8.127764537836384973e-01 1.037295171607621330e-01 2.960483468801027862e-01 3.716085832364842689e-01 3.840822616971598102e-01 -6.183638719005261075e-01 3.178338276654035788e-01 3.244720727303767038e-01 3.047423777969549552e-01 7.113133848924568792e-01 7.505659650313595277e-01 1.098161544796305844e-01 -2.381655615924820404e-02 2.963992597241326687e-01 2.148509834305976085e-01 -5.840643712374042895e-01 3.006934136996540774e-01 -3.314447316248551267e+00 1.790871083872400682e+00 5.646841258092427651e-01 -3.984954619673036214e-01 1.353418741536154268e-01 1.969307477905175130e+00 2.746872284186988034e-01 6.119683099515665914e-01 1.921599358976163185e-01 1.961929539561966251e-01 4.968310621036935437e-01 2.985694955663079075e-01 -2.918828556108077343e-01 3.597492677636620062e-01 1.959830666058416604e+00 3.000083821069483014e-01 -3.355260213697384697e-01 2.047292026739465920e-01 2.838335848668598338e-01 -1.393789530023251011e+00 3.121978611958369787e-01 1.469987185564031740e-01 4.018747621419244687e-01 3.369453682237918968e-01 2.911369404093404611e-01 2.920700606257666809e-01 2.642922293613677032e-01 -1.586058029845601458e-01 3.089738926196800572e-01 2.556377327209401473e-01 3.585564228738691295e-01 2.514192557743694656e-01 7.287104558072299287e-02 4.967130327879883400e-01 7.102290918617910620e-01 -1.286141686326188083e+00 -3.294447748247845698e-01 -9.147757990937527284e-02 -2.703738596078543791e-02 4.193181019467453474e-01 4.138104963216104881e-01 3.602825873655457478e-01 6.777178712715391518e-01 -3.058341944322512732e-02 3.010175936482059611e-01 3.233782479221761763e-01 8.998920962724045458e-02 -1.582382908751977235e-01 2.646762349483554599e-01 3.560555147378293706e-01 4.762391580425463511e-01 3.121896637311346590e-01 3.543216119988934487e-01 3.206666856113162267e-01 2.701426732340480030e-01 3.103723561932257846e-01 5.259858401765085123e-01 3.484624239726584194e-01 3.104269325951310998e-01 7.236309160811017493e-01 2.560216288373280968e-01 6.795357800439568718e-01 2.258094016212113253e-01 3.886194379994163950e-01 2.736435843873127327e-01 -1.400550940625327812e+00 3.151112239107540236e-01 6.091875883229133093e-01 4.214577967445041762e-01 2.439761820012237570e-01 3.412249345622243579e-01 4.444511937362586318e-01 7.384749744918673864e-01 3.200060085826985645e-01 3.051507968836195128e-01 3.033674216643435506e-01 3.336135358327009248e-01 2.556493553674331065e-01 5.447490179823567535e-01 3.518758709311023414e-01 3.602613734632194031e-01 3.549266407508838150e-01 1.541328584453683162e-02 1.552214991688418477e+00 4.464570468862721908e-01 3.730344933209288616e-01 3.586603254374249872e-01 -7.802173599358004363e-01 4.612335488327123922e-01 4.251318049811874111e-01 6.036793069497847775e-01 1.014158119093440114e-01 3.559684602401734788e-01 1.327546174378101629e+00 8.771062440120246384e-01 3.033467559027022142e-01 3.311516549399576848e-01 3.891369924053390550e-01 2.923479084192537325e-01 8.836090237867655350e-01 2.882797965173732546e+00 3.047924224944810190e-01 1.146327025236127395e-01 6.018032871541837414e-01 -9.770718272338736743e-02 2.979001388131502503e-01 2.980645663331978334e-01 1.020023522237343938e+00 2.679941732229358387e-01 -2.723941362787373199e-01 3.503609666493313068e-01 9.622202497548430766e-02 6.827069945068362511e-01 1.528996569088986623e+00 3.204247907576334709e-01 2.094272547146914798e-01 1.614920275439032382e+00 4.342070722330360066e-01 3.350629364066207705e-01 3.802666015320482207e-01 4.615570679146704935e-01 1.347332813084009262e-01 2.174521762124881630e-01 2.261366166056255067e-01 6.784487409499884158e-01 4.556992371193764879e-01 4.053454231219659754e-01 2.947239676000104613e-01 3.851014881483733610e-01 2.487043589991299597e-01 2.430017370537113641e-01 9.518568457045398779e-01 4.870846878543762526e-01 2.523183926625923168e-01 2.824630912186614773e-01 3.258926275570286912e-01 2.899102568160771276e-01 5.745405027691818933e-01 7.496704239972720174e-01 2.326019818578916043e-01 2.555492837928475258e-01 2.277849184382157999e-01 2.942802677514378962e-01 7.606657692676616067e-01 2.076890841873823002e-01 3.977612403550718212e-01 -3.115682033303835974e-01 3.079763030989637884e-01 1.484723668901786475e-01 3.652392049674789143e-01 2.827944389625380861e-01 3.646371988357153815e-01 1.672352110209027742e+00 2.727306033879995928e-01 3.449022644321678710e-01 -7.679259978078056825e-02 1.517213051416360869e+00 1.113617567958874455e+00 1.694497009478966865e-01 -4.695782406429945821e-01 1.139320324190254974e-01 1.698540120577523571e-01 4.846013846457691843e-01 3.009657922777552730e-01 2.932831185059378565e-01 3.127234648394338068e-01 2.495628921093027974e-01 2.846282972832097635e-01 1.345333869648762115e-01 -9.637323820639086269e-02 3.644356403187121729e-01 4.688668619406158866e-01 1.525015482029781766e-01 8.329498750699578791e-01 4.150862485334900209e-01 2.231594921783590646e-01 7.786336847139310180e-01 4.765616845851909922e-01 7.140349623314756755e-01 2.709049453149673381e-01 6.729496735822976250e-01 1.433820970670022898e+00 2.694018907490953740e-01 1.953071709005539613e+00 2.562623235906779165e-02 1.175683316439976589e-01 3.095266527937417522e-01 3.392348341759147679e-01 2.731495472228712695e-01 3.431913446931351697e-01 2.927942223067389049e-01 3.046404258407234278e-01 3.382870918816237582e-01 2.018291247747044104e-01 -2.147009819019243260e-01 3.210695820552421642e-01 -6.075110159577926106e-02 2.358677318295216707e-01 3.628215769479742336e-01 4.150862486636905380e-01 1.797568151336157993e-01 4.043540241327370777e-01 -1.087725984611749075e+00 1.867458167200924724e+00 2.983171994524528858e-01 -6.289032320979216495e-01 2.991254058712510266e-01 3.262393564275903324e-01 2.975483092684294562e-01 -4.496050722869494365e+00 3.356264995865411382e+00 6.042885655257500543e-01 2.136260994760548482e-01 3.932592897764362050e-01 2.999216655891134842e-01 3.957312296809950003e-01 2.482361157055813727e+00 5.993616718799661403e-01 3.234544378592211777e-01 3.218666530037740392e-01 1.990830241099959819e-01 3.475800379561451159e-01 8.897966763148166258e-01 -3.819920850368685450e-01 -1.054795175177984046e+00 -1.130789958019161823e+00 3.410503191788507582e-01 3.104607869644093188e-01 6.726184181688746877e-01 2.680695573191257952e-01 1.070552002616817155e+00 4.363276750960220496e-01 2.981445076998145427e-01 3.976147152037934895e-01 3.157433968215747622e-01 3.398702666256689375e-01 2.398683046142766895e-01 6.554784736583515459e-01 3.354309242639214039e-01 5.718360150328223312e-01 1.995235458876460088e-01 8.186523621176415230e-03 2.399901804680300843e-01 3.623656899879121318e-01 3.070390648533999345e-01 4.035084237952704100e-01 7.592403840846899676e-01 5.774781718362363980e-01 5.399712623375426679e-01 3.736849717340970378e-01 3.297088755095538004e-01 2.388271657347383614e-01 1.327520609067048829e+00 1.719371005032288346e+00 2.388544166046716599e-01 2.478488916002377640e-01 2.866576417922421793e-01 3.326174607336170319e-01 2.553478622506871187e-01 1.764851747707748830e-01 2.875512857602696148e-01 3.150566874175168564e-01 7.683040685856854513e-01 8.350263682912649754e-01 3.385681589784514944e-01 1.777898317750345569e+00 1.085330977669866359e-01 -3.533885237799739426e-02 -2.574814759666655961e-01 -3.392446756759474602e-01 3.130862155652296419e-01 3.395823954571705050e-01 6.995076829137796270e-01 3.032411018532417124e-01 3.994363998336780686e-01 2.953713553940003345e-01 3.777258587822502900e-01 3.605467471248635092e-01 1.555924000436523791e-01 1.020277532416530519e+00 3.015662130377889660e-01 5.516550385123247802e-01 2.971207454135685322e-01 2.330694016513111255e-01 3.044818463719574098e-01 3.785783951280985438e-01 -1.517938080634610443e-01 2.250639400389620737e-01 3.451454881781615969e-01 1.348943210651915581e-01 4.150864641304356506e-01 1.136877915588612842e+00 9.156086691169722513e-01 -7.499404039702122216e-01 -2.712542058115195442e-01 5.977004956789659929e-01 -3.133172509238745018e+00 1.525245400735803614e+00 3.542778510615856025e-01 1.348865900435567144e-01 3.133664669751295428e-01 8.350508964767325848e-01 2.964858325825983076e-01 2.358909026894844552e-01 -4.280157581046509785e-01 8.267565570723365287e-01 3.123719745270715498e-01 8.961734653443035326e-01 2.003396217395613021e+00 -3.820525865703008894e-01 -1.387832953438010719e+00 3.579913980157813369e-01 1.733110506529884354e-01 8.042985537622265868e-01 2.929022688342263758e-01 7.003832377006218302e-01 4.683718838057123190e-01 8.740165007588553137e-02 2.825122070063956770e-01 2.703729189985621950e-01 3.043999738653279663e-01 4.074755652224865687e-01 1.319881016598568380e+00 1.506947789767687285e+00 3.033013957346076261e-01 3.310663952297927537e-01 -7.803858458190299219e-02 -2.152798202457339993e-01 1.820133103355243975e-01 1.014182129040936686e-01 3.179141201855376075e-01 6.991983717421423883e-01 -2.911984752928741260e-01 3.782043108731884540e-01 2.873416799321119042e-01 2.005011004988050127e-01 2.985631749133328960e-01 3.548244736320418369e-01 3.024572775903486832e-01 2.911621438131001272e-01 -7.081400009764368675e-02 2.186612273425457553e-01 4.489695377477198046e-01 1.070781976901215460e+00 1.082763816191442796e+00 9.478017615515561545e-01 2.285482967391403719e-01 7.245286995487358883e-01 9.083019667804406727e-02 4.112590068189775350e-01 -1.935437107204912577e+00 3.491912795382884349e-01 6.386126953670804296e-01 4.137557346781357559e-01 9.578523319995050356e-01 1.325651491493084366e+00 3.218666572709322771e-01 3.170875209602493916e-01 3.683320228623244708e-01 1.001204908120824910e-01 5.675472911628920425e-01 6.414227398524416923e-01 -6.780249370456311597e-01 1.703556779937704935e-01 2.456776465980497759e-01 3.176380981881589127e-01 3.466851784852258422e-01 7.459033521489462082e-01 -2.964002114591552522e-02 3.665823598677165340e-01 3.178006913621232443e-01 2.300574970213654369e-01 8.772654056232432884e-01 4.098513746574251604e-01 -1.916733067629540488e-01 8.573580401600149337e-01 -1.766252742811228252e-02 5.527927871333234711e-01 3.442644405748555014e-01 1.248757544004673647e+00 4.621927523354251166e-01 6.772323714109915738e-01 4.142735073528075462e-01 4.402879188838096924e-01 -4.385288990065596137e-01 3.337193587258489580e-01 7.512038715585123150e-01 3.127759866521381271e-01 6.774744171861510900e-01 3.286100534862632094e-01 3.057480805460058293e-01 7.304966556912159126e-01 8.974305955389420830e-02 -1.960370951995399125e+00 4.124496244547622981e-01 3.750839444057542660e-01 5.490958233284296552e-01 2.285782108310883964e-01 2.921233611207622594e-01 2.503560978161026851e-01 2.543984679888442457e-01 3.282623599098268286e-01 -1.974113892533738840e-02 -1.579283362504408483e+00 7.246541037867346713e-01 2.890535784969733846e-01 3.278128748527220915e-01 1.740530084064089988e-01 8.224476003701962634e-01 3.038201044502349402e-01 -9.743151875859165645e-02 2.968313108291995572e-01 1.101623134000406790e+00 2.843336042089815718e-01 4.127381354283373716e-01 1.072627102667570886e+00 2.224384219474141444e-01 2.575226253672273646e+00 2.579996242403576612e-01 2.906576679567468013e-01 7.102907289703775939e-01 3.043506575059246044e-01 2.581295917092440995e-01 -1.870459373777485501e+00 2.561482931223769133e-01 3.005497781075869290e-01 5.049465375030970371e-01 3.403733409933394904e-01 4.728534993327366265e-01 -3.282559986524005158e-01 1.955042836274949458e+00 -5.195886818942784258e-01 8.126375279643495153e-01 3.001308400086220574e-01 4.515915045210811551e-01 6.607663780722879965e-01 3.008617865904417155e-01 1.281615846036289641e+00 1.046125917545530359e-01 2.330887715029343332e-01 -8.629990036424586286e-01 -9.772296272771717474e-02 3.700482585006453773e-02 -3.581122361929168108e+00 2.787540804040225417e+00 1.843393080365323955e-01 2.450148731194850549e-01 -1.501078591992721867e+00 2.947433067544354968e-01 7.058153319800858361e-02 2.935632074305122297e-01 1.070939171495847164e-01 6.318929013858647359e-01 5.779297885460408235e-01 8.759332520835036995e-01 -2.712542060335515481e-01 -1.872560370578611466e-01 2.319971381028445301e-01 -1.144521081649530370e+00 3.287021769617801681e-01 -6.019405669478724574e-01 2.969085776081625827e-01 5.060559475349796221e-01 1.146328836564810411e-02 3.786391016002885745e-01 2.833479606291272601e-01 -1.560925747563732258e-01 2.519989745302824713e-01 3.215778562546989794e-01 2.378662993797881764e-01 3.385773115539762457e-01 3.092921986841828952e-01 -7.499508035188126032e-01 6.319466648539707743e-01 1.502726619944616315e+00 3.860296443059618721e-02 2.478866898628865056e-01 3.487348638133487833e-01 1.221989860740133160e+00 3.008450333262044918e-01 2.235298462378038364e-01 8.998185947960191111e-01 3.422145394470380575e-01 1.768652966750133393e+00 3.753973242567593127e-01 1.013539974945751876e+00 3.050120100936926093e-01 7.343091733529684140e-01 1.324533611921439924e+00 3.536703579140740850e-01 3.283439375629769730e-01 8.632770661376835131e-01 -1.605512847837500257e-01 -3.199043142125904821e-02 7.420356584325973892e-02 2.891297371417431705e-01 3.257182647698765310e-01 1.395916484456397322e-01 3.835032583817918894e-01 -3.107313765661353089e-01 1.291417110739079943e+00 3.865163248046611377e-01 3.234377880364832092e-01 -2.932268298373153392e+00 3.702872747109165474e-01 3.974226121670382805e-01 4.767151979298236419e-01 3.685577437055345684e-01 5.110002728629077229e-01 -9.537766278519260732e-01 5.261646228754882637e-01 3.797658215688414773e-01 2.908419038664106782e-01 1.072380174691379695e+00 4.185544769998011394e-01 3.216268303906585357e-01 -1.343924735751055977e+00 5.102213654344559535e-01 8.774296427861115744e-01 2.573990341500065337e-01 3.016948121411911488e-01 1.820590998046898445e-01 7.092105929731759018e-01 -1.034376581235234294e-01 3.036387303277085503e-01 2.948106930567933603e-01 5.800232711924124124e-02 7.603220246651661851e-01 2.765457937543864264e-01 7.665881428022399691e-01 2.094317749337913648e-01 6.758737953738904736e-01 -1.628221227636810764e-01 -1.486428971753632311e+00 2.575449052176654319e-01 -8.465444831309126492e-03 3.530807734998175351e-01 2.452694321296997604e-01 6.583675015180384671e-02 5.774781711481712376e-01 2.932091130062491335e-01 9.992839357105123832e-02 4.402351841857191639e-01 3.510006215246871397e-01 2.477660952518467574e-01 3.369307916566829375e-01 -7.464093149815738126e-01 2.982358427878979423e-01 2.265962468601530611e-01 2.934653531617159028e-01 1.282370346245617632e-01 3.179781220997974778e-01 7.502543986849652402e-01 -3.692283219151032414e-01 1.042485978732164309e+00 5.836504846387460255e-01 3.683700783188330607e-01 2.909542011753042945e-01 -1.967791574314221359e+00 3.301536045243156914e-01 1.784021657723351417e-01 1.978186654970783276e-01 5.774781642227767575e-01 3.115381914226432736e-01 2.674893787687694369e-01 2.523339187495720060e-01 2.967288871718469778e-01 4.242086547917198192e-01 3.969435660759977336e-01 3.881414896680258630e-01 3.229876540161222831e-01 2.882730627101335319e-01 3.097066111130998278e-01 3.455179448521794039e-01 -4.847967062339753747e-02 2.937690787777246237e-01 5.030758714357841388e-01 2.848040507542728972e-01 3.105497122497730689e-01 -8.945236126995238790e-02 7.438246889331263934e-02 2.316243694193030334e-01 4.111615905485791700e+00 2.195368869362655517e-01 2.270054829758148540e-01 4.243604138403442305e-01 2.980372420544272760e-01 1.489537541363517015e+00 2.034137768956490733e-01 6.831278426723220720e-01 3.020730731785405410e-01
