# 
#                 ----------------------------------------------------
#                 Data from a 3D direct N-body simulation. 
# 
#                 rows are i-particle; 
#                 coumns are :mass, tag, x ,y, z, vx, vy, vz, ax, ay, az
# 
#                 NTHU, Computational Physics 
# 
#                 ----------------------------------------------------
#                 Time = 0.0
0.000000000000000000e+00 1.000000000000000000e+00 2.000000000000000000e+00 3.000000000000000000e+00 4.000000000000000000e+00 5.000000000000000000e+00 6.000000000000000000e+00 7.000000000000000000e+00 8.000000000000000000e+00 9.000000000000000000e+00 1.000000000000000000e+01 1.100000000000000000e+01 1.200000000000000000e+01 1.300000000000000000e+01 1.400000000000000000e+01 1.500000000000000000e+01 1.600000000000000000e+01 1.700000000000000000e+01 1.800000000000000000e+01 1.900000000000000000e+01 2.000000000000000000e+01 2.100000000000000000e+01 2.200000000000000000e+01 2.300000000000000000e+01 2.400000000000000000e+01 2.500000000000000000e+01 2.600000000000000000e+01 2.700000000000000000e+01 2.800000000000000000e+01 2.900000000000000000e+01 3.000000000000000000e+01 3.100000000000000000e+01 3.200000000000000000e+01 3.300000000000000000e+01 3.400000000000000000e+01 3.500000000000000000e+01 3.600000000000000000e+01 3.700000000000000000e+01 3.800000000000000000e+01 3.900000000000000000e+01 4.000000000000000000e+01 4.100000000000000000e+01 4.200000000000000000e+01 4.300000000000000000e+01 4.400000000000000000e+01 4.500000000000000000e+01 4.600000000000000000e+01 4.700000000000000000e+01 4.800000000000000000e+01 4.900000000000000000e+01 5.000000000000000000e+01 5.100000000000000000e+01 5.200000000000000000e+01 5.300000000000000000e+01 5.400000000000000000e+01 5.500000000000000000e+01 5.600000000000000000e+01 5.700000000000000000e+01 5.800000000000000000e+01 5.900000000000000000e+01 6.000000000000000000e+01 6.100000000000000000e+01 6.200000000000000000e+01 6.300000000000000000e+01 6.400000000000000000e+01 6.500000000000000000e+01 6.600000000000000000e+01 6.700000000000000000e+01 6.800000000000000000e+01 6.900000000000000000e+01 7.000000000000000000e+01 7.100000000000000000e+01 7.200000000000000000e+01 7.300000000000000000e+01 7.400000000000000000e+01 7.500000000000000000e+01 7.600000000000000000e+01 7.700000000000000000e+01 7.800000000000000000e+01 7.900000000000000000e+01 8.000000000000000000e+01 8.100000000000000000e+01 8.200000000000000000e+01 8.300000000000000000e+01 8.400000000000000000e+01 8.500000000000000000e+01 8.600000000000000000e+01 8.700000000000000000e+01 8.800000000000000000e+01 8.900000000000000000e+01 9.000000000000000000e+01 9.100000000000000000e+01 9.200000000000000000e+01 9.300000000000000000e+01 9.400000000000000000e+01 9.500000000000000000e+01 9.600000000000000000e+01 9.700000000000000000e+01 9.800000000000000000e+01 9.900000000000000000e+01 1.000000000000000000e+02 1.010000000000000000e+02 1.020000000000000000e+02 1.030000000000000000e+02 1.040000000000000000e+02 1.050000000000000000e+02 1.060000000000000000e+02 1.070000000000000000e+02 1.080000000000000000e+02 1.090000000000000000e+02 1.100000000000000000e+02 1.110000000000000000e+02 1.120000000000000000e+02 1.130000000000000000e+02 1.140000000000000000e+02 1.150000000000000000e+02 1.160000000000000000e+02 1.170000000000000000e+02 1.180000000000000000e+02 1.190000000000000000e+02 1.200000000000000000e+02 1.210000000000000000e+02 1.220000000000000000e+02 1.230000000000000000e+02 1.240000000000000000e+02 1.250000000000000000e+02 1.260000000000000000e+02 1.270000000000000000e+02 1.280000000000000000e+02 1.290000000000000000e+02 1.300000000000000000e+02 1.310000000000000000e+02 1.320000000000000000e+02 1.330000000000000000e+02 1.340000000000000000e+02 1.350000000000000000e+02 1.360000000000000000e+02 1.370000000000000000e+02 1.380000000000000000e+02 1.390000000000000000e+02 1.400000000000000000e+02 1.410000000000000000e+02 1.420000000000000000e+02 1.430000000000000000e+02 1.440000000000000000e+02 1.450000000000000000e+02 1.460000000000000000e+02 1.470000000000000000e+02 1.480000000000000000e+02 1.490000000000000000e+02 1.500000000000000000e+02 1.510000000000000000e+02 1.520000000000000000e+02 1.530000000000000000e+02 1.540000000000000000e+02 1.550000000000000000e+02 1.560000000000000000e+02 1.570000000000000000e+02 1.580000000000000000e+02 1.590000000000000000e+02 1.600000000000000000e+02 1.610000000000000000e+02 1.620000000000000000e+02 1.630000000000000000e+02 1.640000000000000000e+02 1.650000000000000000e+02 1.660000000000000000e+02 1.670000000000000000e+02 1.680000000000000000e+02 1.690000000000000000e+02 1.700000000000000000e+02 1.710000000000000000e+02 1.720000000000000000e+02 1.730000000000000000e+02 1.740000000000000000e+02 1.750000000000000000e+02 1.760000000000000000e+02 1.770000000000000000e+02 1.780000000000000000e+02 1.790000000000000000e+02 1.800000000000000000e+02 1.810000000000000000e+02 1.820000000000000000e+02 1.830000000000000000e+02 1.840000000000000000e+02 1.850000000000000000e+02 1.860000000000000000e+02 1.870000000000000000e+02 1.880000000000000000e+02 1.890000000000000000e+02 1.900000000000000000e+02 1.910000000000000000e+02 1.920000000000000000e+02 1.930000000000000000e+02 1.940000000000000000e+02 1.950000000000000000e+02 1.960000000000000000e+02 1.970000000000000000e+02 1.980000000000000000e+02 1.990000000000000000e+02 2.000000000000000000e+02 2.010000000000000000e+02 2.020000000000000000e+02 2.030000000000000000e+02 2.040000000000000000e+02 2.050000000000000000e+02 2.060000000000000000e+02 2.070000000000000000e+02 2.080000000000000000e+02 2.090000000000000000e+02 2.100000000000000000e+02 2.110000000000000000e+02 2.120000000000000000e+02 2.130000000000000000e+02 2.140000000000000000e+02 2.150000000000000000e+02 2.160000000000000000e+02 2.170000000000000000e+02 2.180000000000000000e+02 2.190000000000000000e+02 2.200000000000000000e+02 2.210000000000000000e+02 2.220000000000000000e+02 2.230000000000000000e+02 2.240000000000000000e+02 2.250000000000000000e+02 2.260000000000000000e+02 2.270000000000000000e+02 2.280000000000000000e+02 2.290000000000000000e+02 2.300000000000000000e+02 2.310000000000000000e+02 2.320000000000000000e+02 2.330000000000000000e+02 2.340000000000000000e+02 2.350000000000000000e+02 2.360000000000000000e+02 2.370000000000000000e+02 2.380000000000000000e+02 2.390000000000000000e+02 2.400000000000000000e+02 2.410000000000000000e+02 2.420000000000000000e+02 2.430000000000000000e+02 2.440000000000000000e+02 2.450000000000000000e+02 2.460000000000000000e+02 2.470000000000000000e+02 2.480000000000000000e+02 2.490000000000000000e+02 2.500000000000000000e+02 2.510000000000000000e+02 2.520000000000000000e+02 2.530000000000000000e+02 2.540000000000000000e+02 2.550000000000000000e+02 2.560000000000000000e+02 2.570000000000000000e+02 2.580000000000000000e+02 2.590000000000000000e+02 2.600000000000000000e+02 2.610000000000000000e+02 2.620000000000000000e+02 2.630000000000000000e+02 2.640000000000000000e+02 2.650000000000000000e+02 2.660000000000000000e+02 2.670000000000000000e+02 2.680000000000000000e+02 2.690000000000000000e+02 2.700000000000000000e+02 2.710000000000000000e+02 2.720000000000000000e+02 2.730000000000000000e+02 2.740000000000000000e+02 2.750000000000000000e+02 2.760000000000000000e+02 2.770000000000000000e+02 2.780000000000000000e+02 2.790000000000000000e+02 2.800000000000000000e+02 2.810000000000000000e+02 2.820000000000000000e+02 2.830000000000000000e+02 2.840000000000000000e+02 2.850000000000000000e+02 2.860000000000000000e+02 2.870000000000000000e+02 2.880000000000000000e+02 2.890000000000000000e+02 2.900000000000000000e+02 2.910000000000000000e+02 2.920000000000000000e+02 2.930000000000000000e+02 2.940000000000000000e+02 2.950000000000000000e+02 2.960000000000000000e+02 2.970000000000000000e+02 2.980000000000000000e+02 2.990000000000000000e+02 3.000000000000000000e+02 3.010000000000000000e+02 3.020000000000000000e+02 3.030000000000000000e+02 3.040000000000000000e+02 3.050000000000000000e+02 3.060000000000000000e+02 3.070000000000000000e+02 3.080000000000000000e+02 3.090000000000000000e+02 3.100000000000000000e+02 3.110000000000000000e+02 3.120000000000000000e+02 3.130000000000000000e+02 3.140000000000000000e+02 3.150000000000000000e+02 3.160000000000000000e+02 3.170000000000000000e+02 3.180000000000000000e+02 3.190000000000000000e+02 3.200000000000000000e+02 3.210000000000000000e+02 3.220000000000000000e+02 3.230000000000000000e+02 3.240000000000000000e+02 3.250000000000000000e+02 3.260000000000000000e+02 3.270000000000000000e+02 3.280000000000000000e+02 3.290000000000000000e+02 3.300000000000000000e+02 3.310000000000000000e+02 3.320000000000000000e+02 3.330000000000000000e+02 3.340000000000000000e+02 3.350000000000000000e+02 3.360000000000000000e+02 3.370000000000000000e+02 3.380000000000000000e+02 3.390000000000000000e+02 3.400000000000000000e+02 3.410000000000000000e+02 3.420000000000000000e+02 3.430000000000000000e+02 3.440000000000000000e+02 3.450000000000000000e+02 3.460000000000000000e+02 3.470000000000000000e+02 3.480000000000000000e+02 3.490000000000000000e+02 3.500000000000000000e+02 3.510000000000000000e+02 3.520000000000000000e+02 3.530000000000000000e+02 3.540000000000000000e+02 3.550000000000000000e+02 3.560000000000000000e+02 3.570000000000000000e+02 3.580000000000000000e+02 3.590000000000000000e+02 3.600000000000000000e+02 3.610000000000000000e+02 3.620000000000000000e+02 3.630000000000000000e+02 3.640000000000000000e+02 3.650000000000000000e+02 3.660000000000000000e+02 3.670000000000000000e+02 3.680000000000000000e+02 3.690000000000000000e+02 3.700000000000000000e+02 3.710000000000000000e+02 3.720000000000000000e+02 3.730000000000000000e+02 3.740000000000000000e+02 3.750000000000000000e+02 3.760000000000000000e+02 3.770000000000000000e+02 3.780000000000000000e+02 3.790000000000000000e+02 3.800000000000000000e+02 3.810000000000000000e+02 3.820000000000000000e+02 3.830000000000000000e+02 3.840000000000000000e+02 3.850000000000000000e+02 3.860000000000000000e+02 3.870000000000000000e+02 3.880000000000000000e+02 3.890000000000000000e+02 3.900000000000000000e+02 3.910000000000000000e+02 3.920000000000000000e+02 3.930000000000000000e+02 3.940000000000000000e+02 3.950000000000000000e+02 3.960000000000000000e+02 3.970000000000000000e+02 3.980000000000000000e+02 3.990000000000000000e+02 4.000000000000000000e+02 4.010000000000000000e+02 4.020000000000000000e+02 4.030000000000000000e+02 4.040000000000000000e+02 4.050000000000000000e+02 4.060000000000000000e+02 4.070000000000000000e+02 4.080000000000000000e+02 4.090000000000000000e+02 4.100000000000000000e+02 4.110000000000000000e+02 4.120000000000000000e+02 4.130000000000000000e+02 4.140000000000000000e+02 4.150000000000000000e+02 4.160000000000000000e+02 4.170000000000000000e+02 4.180000000000000000e+02 4.190000000000000000e+02 4.200000000000000000e+02 4.210000000000000000e+02 4.220000000000000000e+02 4.230000000000000000e+02 4.240000000000000000e+02 4.250000000000000000e+02 4.260000000000000000e+02 4.270000000000000000e+02 4.280000000000000000e+02 4.290000000000000000e+02 4.300000000000000000e+02 4.310000000000000000e+02 4.320000000000000000e+02 4.330000000000000000e+02 4.340000000000000000e+02 4.350000000000000000e+02 4.360000000000000000e+02 4.370000000000000000e+02 4.380000000000000000e+02 4.390000000000000000e+02 4.400000000000000000e+02 4.410000000000000000e+02 4.420000000000000000e+02 4.430000000000000000e+02 4.440000000000000000e+02 4.450000000000000000e+02 4.460000000000000000e+02 4.470000000000000000e+02 4.480000000000000000e+02 4.490000000000000000e+02 4.500000000000000000e+02 4.510000000000000000e+02 4.520000000000000000e+02 4.530000000000000000e+02 4.540000000000000000e+02 4.550000000000000000e+02 4.560000000000000000e+02 4.570000000000000000e+02 4.580000000000000000e+02 4.590000000000000000e+02 4.600000000000000000e+02 4.610000000000000000e+02 4.620000000000000000e+02 4.630000000000000000e+02 4.640000000000000000e+02 4.650000000000000000e+02 4.660000000000000000e+02 4.670000000000000000e+02 4.680000000000000000e+02 4.690000000000000000e+02 4.700000000000000000e+02 4.710000000000000000e+02 4.720000000000000000e+02 4.730000000000000000e+02 4.740000000000000000e+02 4.750000000000000000e+02 4.760000000000000000e+02 4.770000000000000000e+02 4.780000000000000000e+02 4.790000000000000000e+02 4.800000000000000000e+02 4.810000000000000000e+02 4.820000000000000000e+02 4.830000000000000000e+02 4.840000000000000000e+02 4.850000000000000000e+02 4.860000000000000000e+02 4.870000000000000000e+02 4.880000000000000000e+02 4.890000000000000000e+02 4.900000000000000000e+02 4.910000000000000000e+02 4.920000000000000000e+02 4.930000000000000000e+02 4.940000000000000000e+02 4.950000000000000000e+02 4.960000000000000000e+02 4.970000000000000000e+02 4.980000000000000000e+02 4.990000000000000000e+02 5.000000000000000000e+02 5.010000000000000000e+02 5.020000000000000000e+02 5.030000000000000000e+02 5.040000000000000000e+02 5.050000000000000000e+02 5.060000000000000000e+02 5.070000000000000000e+02 5.080000000000000000e+02 5.090000000000000000e+02 5.100000000000000000e+02 5.110000000000000000e+02 5.120000000000000000e+02 5.130000000000000000e+02 5.140000000000000000e+02 5.150000000000000000e+02 5.160000000000000000e+02 5.170000000000000000e+02 5.180000000000000000e+02 5.190000000000000000e+02 5.200000000000000000e+02 5.210000000000000000e+02 5.220000000000000000e+02 5.230000000000000000e+02 5.240000000000000000e+02 5.250000000000000000e+02 5.260000000000000000e+02 5.270000000000000000e+02 5.280000000000000000e+02 5.290000000000000000e+02 5.300000000000000000e+02 5.310000000000000000e+02 5.320000000000000000e+02 5.330000000000000000e+02 5.340000000000000000e+02 5.350000000000000000e+02 5.360000000000000000e+02 5.370000000000000000e+02 5.380000000000000000e+02 5.390000000000000000e+02 5.400000000000000000e+02 5.410000000000000000e+02 5.420000000000000000e+02 5.430000000000000000e+02 5.440000000000000000e+02 5.450000000000000000e+02 5.460000000000000000e+02 5.470000000000000000e+02 5.480000000000000000e+02 5.490000000000000000e+02 5.500000000000000000e+02 5.510000000000000000e+02 5.520000000000000000e+02 5.530000000000000000e+02 5.540000000000000000e+02 5.550000000000000000e+02 5.560000000000000000e+02 5.570000000000000000e+02 5.580000000000000000e+02 5.590000000000000000e+02 5.600000000000000000e+02 5.610000000000000000e+02 5.620000000000000000e+02 5.630000000000000000e+02 5.640000000000000000e+02 5.650000000000000000e+02 5.660000000000000000e+02 5.670000000000000000e+02 5.680000000000000000e+02 5.690000000000000000e+02 5.700000000000000000e+02 5.710000000000000000e+02 5.720000000000000000e+02 5.730000000000000000e+02 5.740000000000000000e+02 5.750000000000000000e+02 5.760000000000000000e+02 5.770000000000000000e+02 5.780000000000000000e+02 5.790000000000000000e+02 5.800000000000000000e+02 5.810000000000000000e+02 5.820000000000000000e+02 5.830000000000000000e+02 5.840000000000000000e+02 5.850000000000000000e+02 5.860000000000000000e+02 5.870000000000000000e+02 5.880000000000000000e+02 5.890000000000000000e+02 5.900000000000000000e+02 5.910000000000000000e+02 5.920000000000000000e+02 5.930000000000000000e+02 5.940000000000000000e+02 5.950000000000000000e+02 5.960000000000000000e+02 5.970000000000000000e+02 5.980000000000000000e+02 5.990000000000000000e+02 6.000000000000000000e+02 6.010000000000000000e+02 6.020000000000000000e+02 6.030000000000000000e+02 6.040000000000000000e+02 6.050000000000000000e+02 6.060000000000000000e+02 6.070000000000000000e+02 6.080000000000000000e+02 6.090000000000000000e+02 6.100000000000000000e+02 6.110000000000000000e+02 6.120000000000000000e+02 6.130000000000000000e+02 6.140000000000000000e+02 6.150000000000000000e+02 6.160000000000000000e+02 6.170000000000000000e+02 6.180000000000000000e+02 6.190000000000000000e+02 6.200000000000000000e+02 6.210000000000000000e+02 6.220000000000000000e+02 6.230000000000000000e+02 6.240000000000000000e+02 6.250000000000000000e+02 6.260000000000000000e+02 6.270000000000000000e+02 6.280000000000000000e+02 6.290000000000000000e+02 6.300000000000000000e+02 6.310000000000000000e+02 6.320000000000000000e+02 6.330000000000000000e+02 6.340000000000000000e+02 6.350000000000000000e+02 6.360000000000000000e+02 6.370000000000000000e+02 6.380000000000000000e+02 6.390000000000000000e+02 6.400000000000000000e+02 6.410000000000000000e+02 6.420000000000000000e+02 6.430000000000000000e+02 6.440000000000000000e+02 6.450000000000000000e+02 6.460000000000000000e+02 6.470000000000000000e+02 6.480000000000000000e+02 6.490000000000000000e+02 6.500000000000000000e+02 6.510000000000000000e+02 6.520000000000000000e+02 6.530000000000000000e+02 6.540000000000000000e+02 6.550000000000000000e+02 6.560000000000000000e+02 6.570000000000000000e+02 6.580000000000000000e+02 6.590000000000000000e+02 6.600000000000000000e+02 6.610000000000000000e+02 6.620000000000000000e+02 6.630000000000000000e+02 6.640000000000000000e+02 6.650000000000000000e+02 6.660000000000000000e+02 6.670000000000000000e+02 6.680000000000000000e+02 6.690000000000000000e+02 6.700000000000000000e+02 6.710000000000000000e+02 6.720000000000000000e+02 6.730000000000000000e+02 6.740000000000000000e+02 6.750000000000000000e+02 6.760000000000000000e+02 6.770000000000000000e+02 6.780000000000000000e+02 6.790000000000000000e+02 6.800000000000000000e+02 6.810000000000000000e+02 6.820000000000000000e+02 6.830000000000000000e+02 6.840000000000000000e+02 6.850000000000000000e+02 6.860000000000000000e+02 6.870000000000000000e+02 6.880000000000000000e+02 6.890000000000000000e+02 6.900000000000000000e+02 6.910000000000000000e+02 6.920000000000000000e+02 6.930000000000000000e+02 6.940000000000000000e+02 6.950000000000000000e+02 6.960000000000000000e+02 6.970000000000000000e+02 6.980000000000000000e+02 6.990000000000000000e+02 7.000000000000000000e+02 7.010000000000000000e+02 7.020000000000000000e+02 7.030000000000000000e+02 7.040000000000000000e+02 7.050000000000000000e+02 7.060000000000000000e+02 7.070000000000000000e+02 7.080000000000000000e+02 7.090000000000000000e+02 7.100000000000000000e+02 7.110000000000000000e+02 7.120000000000000000e+02 7.130000000000000000e+02 7.140000000000000000e+02 7.150000000000000000e+02 7.160000000000000000e+02 7.170000000000000000e+02 7.180000000000000000e+02 7.190000000000000000e+02 7.200000000000000000e+02 7.210000000000000000e+02 7.220000000000000000e+02 7.230000000000000000e+02 7.240000000000000000e+02 7.250000000000000000e+02 7.260000000000000000e+02 7.270000000000000000e+02 7.280000000000000000e+02 7.290000000000000000e+02 7.300000000000000000e+02 7.310000000000000000e+02 7.320000000000000000e+02 7.330000000000000000e+02 7.340000000000000000e+02 7.350000000000000000e+02 7.360000000000000000e+02 7.370000000000000000e+02 7.380000000000000000e+02 7.390000000000000000e+02 7.400000000000000000e+02 7.410000000000000000e+02 7.420000000000000000e+02 7.430000000000000000e+02 7.440000000000000000e+02 7.450000000000000000e+02 7.460000000000000000e+02 7.470000000000000000e+02 7.480000000000000000e+02 7.490000000000000000e+02 7.500000000000000000e+02 7.510000000000000000e+02 7.520000000000000000e+02 7.530000000000000000e+02 7.540000000000000000e+02 7.550000000000000000e+02 7.560000000000000000e+02 7.570000000000000000e+02 7.580000000000000000e+02 7.590000000000000000e+02 7.600000000000000000e+02 7.610000000000000000e+02 7.620000000000000000e+02 7.630000000000000000e+02 7.640000000000000000e+02 7.650000000000000000e+02 7.660000000000000000e+02 7.670000000000000000e+02 7.680000000000000000e+02 7.690000000000000000e+02 7.700000000000000000e+02 7.710000000000000000e+02 7.720000000000000000e+02 7.730000000000000000e+02 7.740000000000000000e+02 7.750000000000000000e+02 7.760000000000000000e+02 7.770000000000000000e+02 7.780000000000000000e+02 7.790000000000000000e+02 7.800000000000000000e+02 7.810000000000000000e+02 7.820000000000000000e+02 7.830000000000000000e+02 7.840000000000000000e+02 7.850000000000000000e+02 7.860000000000000000e+02 7.870000000000000000e+02 7.880000000000000000e+02 7.890000000000000000e+02 7.900000000000000000e+02 7.910000000000000000e+02 7.920000000000000000e+02 7.930000000000000000e+02 7.940000000000000000e+02 7.950000000000000000e+02 7.960000000000000000e+02 7.970000000000000000e+02 7.980000000000000000e+02 7.990000000000000000e+02 8.000000000000000000e+02 8.010000000000000000e+02 8.020000000000000000e+02 8.030000000000000000e+02 8.040000000000000000e+02 8.050000000000000000e+02 8.060000000000000000e+02 8.070000000000000000e+02 8.080000000000000000e+02 8.090000000000000000e+02 8.100000000000000000e+02 8.110000000000000000e+02 8.120000000000000000e+02 8.130000000000000000e+02 8.140000000000000000e+02 8.150000000000000000e+02 8.160000000000000000e+02 8.170000000000000000e+02 8.180000000000000000e+02 8.190000000000000000e+02 8.200000000000000000e+02 8.210000000000000000e+02 8.220000000000000000e+02 8.230000000000000000e+02 8.240000000000000000e+02 8.250000000000000000e+02 8.260000000000000000e+02 8.270000000000000000e+02 8.280000000000000000e+02 8.290000000000000000e+02 8.300000000000000000e+02 8.310000000000000000e+02 8.320000000000000000e+02 8.330000000000000000e+02 8.340000000000000000e+02 8.350000000000000000e+02 8.360000000000000000e+02 8.370000000000000000e+02 8.380000000000000000e+02 8.390000000000000000e+02 8.400000000000000000e+02 8.410000000000000000e+02 8.420000000000000000e+02 8.430000000000000000e+02 8.440000000000000000e+02 8.450000000000000000e+02 8.460000000000000000e+02 8.470000000000000000e+02 8.480000000000000000e+02 8.490000000000000000e+02 8.500000000000000000e+02 8.510000000000000000e+02 8.520000000000000000e+02 8.530000000000000000e+02 8.540000000000000000e+02 8.550000000000000000e+02 8.560000000000000000e+02 8.570000000000000000e+02 8.580000000000000000e+02 8.590000000000000000e+02 8.600000000000000000e+02 8.610000000000000000e+02 8.620000000000000000e+02 8.630000000000000000e+02 8.640000000000000000e+02 8.650000000000000000e+02 8.660000000000000000e+02 8.670000000000000000e+02 8.680000000000000000e+02 8.690000000000000000e+02 8.700000000000000000e+02 8.710000000000000000e+02 8.720000000000000000e+02 8.730000000000000000e+02 8.740000000000000000e+02 8.750000000000000000e+02 8.760000000000000000e+02 8.770000000000000000e+02 8.780000000000000000e+02 8.790000000000000000e+02 8.800000000000000000e+02 8.810000000000000000e+02 8.820000000000000000e+02 8.830000000000000000e+02 8.840000000000000000e+02 8.850000000000000000e+02 8.860000000000000000e+02 8.870000000000000000e+02 8.880000000000000000e+02 8.890000000000000000e+02 8.900000000000000000e+02 8.910000000000000000e+02 8.920000000000000000e+02 8.930000000000000000e+02 8.940000000000000000e+02 8.950000000000000000e+02 8.960000000000000000e+02 8.970000000000000000e+02 8.980000000000000000e+02 8.990000000000000000e+02 9.000000000000000000e+02 9.010000000000000000e+02 9.020000000000000000e+02 9.030000000000000000e+02 9.040000000000000000e+02 9.050000000000000000e+02 9.060000000000000000e+02 9.070000000000000000e+02 9.080000000000000000e+02 9.090000000000000000e+02 9.100000000000000000e+02 9.110000000000000000e+02 9.120000000000000000e+02 9.130000000000000000e+02 9.140000000000000000e+02 9.150000000000000000e+02 9.160000000000000000e+02 9.170000000000000000e+02 9.180000000000000000e+02 9.190000000000000000e+02 9.200000000000000000e+02 9.210000000000000000e+02 9.220000000000000000e+02 9.230000000000000000e+02 9.240000000000000000e+02 9.250000000000000000e+02 9.260000000000000000e+02 9.270000000000000000e+02 9.280000000000000000e+02 9.290000000000000000e+02 9.300000000000000000e+02 9.310000000000000000e+02 9.320000000000000000e+02 9.330000000000000000e+02 9.340000000000000000e+02 9.350000000000000000e+02 9.360000000000000000e+02 9.370000000000000000e+02 9.380000000000000000e+02 9.390000000000000000e+02 9.400000000000000000e+02 9.410000000000000000e+02 9.420000000000000000e+02 9.430000000000000000e+02 9.440000000000000000e+02 9.450000000000000000e+02 9.460000000000000000e+02 9.470000000000000000e+02 9.480000000000000000e+02 9.490000000000000000e+02 9.500000000000000000e+02 9.510000000000000000e+02 9.520000000000000000e+02 9.530000000000000000e+02 9.540000000000000000e+02 9.550000000000000000e+02 9.560000000000000000e+02 9.570000000000000000e+02 9.580000000000000000e+02 9.590000000000000000e+02 9.600000000000000000e+02 9.610000000000000000e+02 9.620000000000000000e+02 9.630000000000000000e+02 9.640000000000000000e+02 9.650000000000000000e+02 9.660000000000000000e+02 9.670000000000000000e+02 9.680000000000000000e+02 9.690000000000000000e+02 9.700000000000000000e+02 9.710000000000000000e+02 9.720000000000000000e+02 9.730000000000000000e+02 9.740000000000000000e+02 9.750000000000000000e+02 9.760000000000000000e+02 9.770000000000000000e+02 9.780000000000000000e+02 9.790000000000000000e+02 9.800000000000000000e+02 9.810000000000000000e+02 9.820000000000000000e+02 9.830000000000000000e+02 9.840000000000000000e+02 9.850000000000000000e+02 9.860000000000000000e+02 9.870000000000000000e+02 9.880000000000000000e+02 9.890000000000000000e+02 9.900000000000000000e+02 9.910000000000000000e+02 9.920000000000000000e+02 9.930000000000000000e+02 9.940000000000000000e+02 9.950000000000000000e+02 9.960000000000000000e+02 9.970000000000000000e+02 9.980000000000000000e+02 9.990000000000000000e+02
1.000000000000000000e+00 1.000000000000000000e+00 1.000000000000000000e+00 1.000000000000000000e+00 1.000000000000000000e+00 1.000000000000000000e+00 1.000000000000000000e+00 1.000000000000000000e+00 1.000000000000000000e+00 1.000000000000000000e+00 1.000000000000000000e+00 1.000000000000000000e+00 1.000000000000000000e+00 1.000000000000000000e+00 1.000000000000000000e+00 1.000000000000000000e+00 1.000000000000000000e+00 1.000000000000000000e+00 1.000000000000000000e+00 1.000000000000000000e+00 1.000000000000000000e+00 1.000000000000000000e+00 1.000000000000000000e+00 1.000000000000000000e+00 1.000000000000000000e+00 1.000000000000000000e+00 1.000000000000000000e+00 1.000000000000000000e+00 1.000000000000000000e+00 1.000000000000000000e+00 1.000000000000000000e+00 1.000000000000000000e+00 1.000000000000000000e+00 1.000000000000000000e+00 1.000000000000000000e+00 1.000000000000000000e+00 1.000000000000000000e+00 1.000000000000000000e+00 1.000000000000000000e+00 1.000000000000000000e+00 1.000000000000000000e+00 1.000000000000000000e+00 1.000000000000000000e+00 1.000000000000000000e+00 1.000000000000000000e+00 1.000000000000000000e+00 1.000000000000000000e+00 1.000000000000000000e+00 1.000000000000000000e+00 1.000000000000000000e+00 1.000000000000000000e+00 1.000000000000000000e+00 1.000000000000000000e+00 1.000000000000000000e+00 1.000000000000000000e+00 1.000000000000000000e+00 1.000000000000000000e+00 1.000000000000000000e+00 1.000000000000000000e+00 1.000000000000000000e+00 1.000000000000000000e+00 1.000000000000000000e+00 1.000000000000000000e+00 1.000000000000000000e+00 1.000000000000000000e+00 1.000000000000000000e+00 1.000000000000000000e+00 1.000000000000000000e+00 1.000000000000000000e+00 1.000000000000000000e+00 1.000000000000000000e+00 1.000000000000000000e+00 1.000000000000000000e+00 1.000000000000000000e+00 1.000000000000000000e+00 1.000000000000000000e+00 1.000000000000000000e+00 1.000000000000000000e+00 1.000000000000000000e+00 1.000000000000000000e+00 1.000000000000000000e+00 1.000000000000000000e+00 1.000000000000000000e+00 1.000000000000000000e+00 1.000000000000000000e+00 1.000000000000000000e+00 1.000000000000000000e+00 1.000000000000000000e+00 1.000000000000000000e+00 1.000000000000000000e+00 1.000000000000000000e+00 1.000000000000000000e+00 1.000000000000000000e+00 1.000000000000000000e+00 1.000000000000000000e+00 1.000000000000000000e+00 1.000000000000000000e+00 1.000000000000000000e+00 1.000000000000000000e+00 1.000000000000000000e+00 1.000000000000000000e+00 1.000000000000000000e+00 1.000000000000000000e+00 1.000000000000000000e+00 1.000000000000000000e+00 1.000000000000000000e+00 1.000000000000000000e+00 1.000000000000000000e+00 1.000000000000000000e+00 1.000000000000000000e+00 1.000000000000000000e+00 1.000000000000000000e+00 1.000000000000000000e+00 1.000000000000000000e+00 1.000000000000000000e+00 1.000000000000000000e+00 1.000000000000000000e+00 1.000000000000000000e+00 1.000000000000000000e+00 1.000000000000000000e+00 1.000000000000000000e+00 1.000000000000000000e+00 1.000000000000000000e+00 1.000000000000000000e+00 1.000000000000000000e+00 1.000000000000000000e+00 1.000000000000000000e+00 1.000000000000000000e+00 1.000000000000000000e+00 1.000000000000000000e+00 1.000000000000000000e+00 1.000000000000000000e+00 1.000000000000000000e+00 1.000000000000000000e+00 1.000000000000000000e+00 1.000000000000000000e+00 1.000000000000000000e+00 1.000000000000000000e+00 1.000000000000000000e+00 1.000000000000000000e+00 1.000000000000000000e+00 1.000000000000000000e+00 1.000000000000000000e+00 1.000000000000000000e+00 1.000000000000000000e+00 1.000000000000000000e+00 1.000000000000000000e+00 1.000000000000000000e+00 1.000000000000000000e+00 1.000000000000000000e+00 1.000000000000000000e+00 1.000000000000000000e+00 1.000000000000000000e+00 1.000000000000000000e+00 1.000000000000000000e+00 1.000000000000000000e+00 1.000000000000000000e+00 1.000000000000000000e+00 1.000000000000000000e+00 1.000000000000000000e+00 1.000000000000000000e+00 1.000000000000000000e+00 1.000000000000000000e+00 1.000000000000000000e+00 1.000000000000000000e+00 1.000000000000000000e+00 1.000000000000000000e+00 1.000000000000000000e+00 1.000000000000000000e+00 1.000000000000000000e+00 1.000000000000000000e+00 1.000000000000000000e+00 1.000000000000000000e+00 1.000000000000000000e+00 1.000000000000000000e+00 1.000000000000000000e+00 1.000000000000000000e+00 1.000000000000000000e+00 1.000000000000000000e+00 1.000000000000000000e+00 1.000000000000000000e+00 1.000000000000000000e+00 1.000000000000000000e+00 1.000000000000000000e+00 1.000000000000000000e+00 1.000000000000000000e+00 1.000000000000000000e+00 1.000000000000000000e+00 1.000000000000000000e+00 1.000000000000000000e+00 1.000000000000000000e+00 1.000000000000000000e+00 1.000000000000000000e+00 1.000000000000000000e+00 1.000000000000000000e+00 1.000000000000000000e+00 1.000000000000000000e+00 1.000000000000000000e+00 1.000000000000000000e+00 1.000000000000000000e+00 1.000000000000000000e+00 1.000000000000000000e+00 1.000000000000000000e+00 1.000000000000000000e+00 1.000000000000000000e+00 1.000000000000000000e+00 1.000000000000000000e+00 1.000000000000000000e+00 1.000000000000000000e+00 1.000000000000000000e+00 1.000000000000000000e+00 1.000000000000000000e+00 1.000000000000000000e+00 1.000000000000000000e+00 1.000000000000000000e+00 1.000000000000000000e+00 1.000000000000000000e+00 1.000000000000000000e+00 1.000000000000000000e+00 1.000000000000000000e+00 1.000000000000000000e+00 1.000000000000000000e+00 1.000000000000000000e+00 1.000000000000000000e+00 1.000000000000000000e+00 1.000000000000000000e+00 1.000000000000000000e+00 1.000000000000000000e+00 1.000000000000000000e+00 1.000000000000000000e+00 1.000000000000000000e+00 1.000000000000000000e+00 1.000000000000000000e+00 1.000000000000000000e+00 1.000000000000000000e+00 1.000000000000000000e+00 1.000000000000000000e+00 1.000000000000000000e+00 1.000000000000000000e+00 1.000000000000000000e+00 1.000000000000000000e+00 1.000000000000000000e+00 1.000000000000000000e+00 1.000000000000000000e+00 1.000000000000000000e+00 1.000000000000000000e+00 1.000000000000000000e+00 1.000000000000000000e+00 1.000000000000000000e+00 1.000000000000000000e+00 1.000000000000000000e+00 1.000000000000000000e+00 1.000000000000000000e+00 1.000000000000000000e+00 1.000000000000000000e+00 1.000000000000000000e+00 1.000000000000000000e+00 1.000000000000000000e+00 1.000000000000000000e+00 1.000000000000000000e+00 1.000000000000000000e+00 1.000000000000000000e+00 1.000000000000000000e+00 1.000000000000000000e+00 1.000000000000000000e+00 1.000000000000000000e+00 1.000000000000000000e+00 1.000000000000000000e+00 1.000000000000000000e+00 1.000000000000000000e+00 1.000000000000000000e+00 1.000000000000000000e+00 1.000000000000000000e+00 1.000000000000000000e+00 1.000000000000000000e+00 1.000000000000000000e+00 1.000000000000000000e+00 1.000000000000000000e+00 1.000000000000000000e+00 1.000000000000000000e+00 1.000000000000000000e+00 1.000000000000000000e+00 1.000000000000000000e+00 1.000000000000000000e+00 1.000000000000000000e+00 1.000000000000000000e+00 1.000000000000000000e+00 1.000000000000000000e+00 1.000000000000000000e+00 1.000000000000000000e+00 1.000000000000000000e+00 1.000000000000000000e+00 1.000000000000000000e+00 1.000000000000000000e+00 1.000000000000000000e+00 1.000000000000000000e+00 1.000000000000000000e+00 1.000000000000000000e+00 1.000000000000000000e+00 1.000000000000000000e+00 1.000000000000000000e+00 1.000000000000000000e+00 1.000000000000000000e+00 1.000000000000000000e+00 1.000000000000000000e+00 1.000000000000000000e+00 1.000000000000000000e+00 1.000000000000000000e+00 1.000000000000000000e+00 1.000000000000000000e+00 1.000000000000000000e+00 1.000000000000000000e+00 1.000000000000000000e+00 1.000000000000000000e+00 1.000000000000000000e+00 1.000000000000000000e+00 1.000000000000000000e+00 1.000000000000000000e+00 1.000000000000000000e+00 1.000000000000000000e+00 1.000000000000000000e+00 1.000000000000000000e+00 1.000000000000000000e+00 1.000000000000000000e+00 1.000000000000000000e+00 1.000000000000000000e+00 1.000000000000000000e+00 1.000000000000000000e+00 1.000000000000000000e+00 1.000000000000000000e+00 1.000000000000000000e+00 1.000000000000000000e+00 1.000000000000000000e+00 1.000000000000000000e+00 1.000000000000000000e+00 1.000000000000000000e+00 1.000000000000000000e+00 1.000000000000000000e+00 1.000000000000000000e+00 1.000000000000000000e+00 1.000000000000000000e+00 1.000000000000000000e+00 1.000000000000000000e+00 1.000000000000000000e+00 1.000000000000000000e+00 1.000000000000000000e+00 1.000000000000000000e+00 1.000000000000000000e+00 1.000000000000000000e+00 1.000000000000000000e+00 1.000000000000000000e+00 1.000000000000000000e+00 1.000000000000000000e+00 1.000000000000000000e+00 1.000000000000000000e+00 1.000000000000000000e+00 1.000000000000000000e+00 1.000000000000000000e+00 1.000000000000000000e+00 1.000000000000000000e+00 1.000000000000000000e+00 1.000000000000000000e+00 1.000000000000000000e+00 1.000000000000000000e+00 1.000000000000000000e+00 1.000000000000000000e+00 1.000000000000000000e+00 1.000000000000000000e+00 1.000000000000000000e+00 1.000000000000000000e+00 1.000000000000000000e+00 1.000000000000000000e+00 1.000000000000000000e+00 1.000000000000000000e+00 1.000000000000000000e+00 1.000000000000000000e+00 1.000000000000000000e+00 1.000000000000000000e+00 1.000000000000000000e+00 1.000000000000000000e+00 1.000000000000000000e+00 1.000000000000000000e+00 1.000000000000000000e+00 1.000000000000000000e+00 1.000000000000000000e+00 1.000000000000000000e+00 1.000000000000000000e+00 1.000000000000000000e+00 1.000000000000000000e+00 1.000000000000000000e+00 1.000000000000000000e+00 1.000000000000000000e+00 1.000000000000000000e+00 1.000000000000000000e+00 1.000000000000000000e+00 1.000000000000000000e+00 1.000000000000000000e+00 1.000000000000000000e+00 1.000000000000000000e+00 1.000000000000000000e+00 1.000000000000000000e+00 1.000000000000000000e+00 1.000000000000000000e+00 1.000000000000000000e+00 1.000000000000000000e+00 1.000000000000000000e+00 1.000000000000000000e+00 1.000000000000000000e+00 1.000000000000000000e+00 1.000000000000000000e+00 1.000000000000000000e+00 1.000000000000000000e+00 1.000000000000000000e+00 1.000000000000000000e+00 1.000000000000000000e+00 1.000000000000000000e+00 1.000000000000000000e+00 1.000000000000000000e+00 1.000000000000000000e+00 1.000000000000000000e+00 1.000000000000000000e+00 1.000000000000000000e+00 1.000000000000000000e+00 1.000000000000000000e+00 1.000000000000000000e+00 1.000000000000000000e+00 1.000000000000000000e+00 1.000000000000000000e+00 1.000000000000000000e+00 1.000000000000000000e+00 1.000000000000000000e+00 1.000000000000000000e+00 1.000000000000000000e+00 1.000000000000000000e+00 1.000000000000000000e+00 1.000000000000000000e+00 1.000000000000000000e+00 1.000000000000000000e+00 1.000000000000000000e+00 1.000000000000000000e+00 1.000000000000000000e+00 1.000000000000000000e+00 1.000000000000000000e+00 1.000000000000000000e+00 1.000000000000000000e+00 1.000000000000000000e+00 1.000000000000000000e+00 1.000000000000000000e+00 1.000000000000000000e+00 1.000000000000000000e+00 1.000000000000000000e+00 1.000000000000000000e+00 1.000000000000000000e+00 1.000000000000000000e+00 1.000000000000000000e+00 1.000000000000000000e+00 1.000000000000000000e+00 1.000000000000000000e+00 1.000000000000000000e+00 1.000000000000000000e+00 1.000000000000000000e+00 1.000000000000000000e+00 1.000000000000000000e+00 1.000000000000000000e+00 1.000000000000000000e+00 1.000000000000000000e+00 1.000000000000000000e+00 1.000000000000000000e+00 1.000000000000000000e+00 1.000000000000000000e+00 1.000000000000000000e+00 1.000000000000000000e+00 1.000000000000000000e+00 1.000000000000000000e+00 1.000000000000000000e+00 1.000000000000000000e+00 1.000000000000000000e+00 1.000000000000000000e+00 1.000000000000000000e+00 1.000000000000000000e+00 1.000000000000000000e+00 1.000000000000000000e+00 1.000000000000000000e+00 1.000000000000000000e+00 1.000000000000000000e+00 1.000000000000000000e+00 1.000000000000000000e+00 1.000000000000000000e+00 1.000000000000000000e+00 1.000000000000000000e+00 1.000000000000000000e+00 1.000000000000000000e+00 1.000000000000000000e+00 1.000000000000000000e+00 1.000000000000000000e+00 1.000000000000000000e+00 1.000000000000000000e+00 1.000000000000000000e+00 1.000000000000000000e+00 1.000000000000000000e+00 1.000000000000000000e+00 1.000000000000000000e+00 1.000000000000000000e+00 1.000000000000000000e+00 1.000000000000000000e+00 1.000000000000000000e+00 1.000000000000000000e+00 1.000000000000000000e+00 1.000000000000000000e+00 1.000000000000000000e+00 1.000000000000000000e+00 1.000000000000000000e+00 1.000000000000000000e+00 1.000000000000000000e+00 1.000000000000000000e+00 1.000000000000000000e+00 1.000000000000000000e+00 1.000000000000000000e+00 1.000000000000000000e+00 1.000000000000000000e+00 1.000000000000000000e+00 1.000000000000000000e+00 1.000000000000000000e+00 1.000000000000000000e+00 1.000000000000000000e+00 1.000000000000000000e+00 1.000000000000000000e+00 1.000000000000000000e+00 1.000000000000000000e+00 1.000000000000000000e+00 1.000000000000000000e+00 1.000000000000000000e+00 1.000000000000000000e+00 1.000000000000000000e+00 1.000000000000000000e+00 1.000000000000000000e+00 1.000000000000000000e+00 1.000000000000000000e+00 1.000000000000000000e+00 1.000000000000000000e+00 1.000000000000000000e+00 1.000000000000000000e+00 1.000000000000000000e+00 1.000000000000000000e+00 1.000000000000000000e+00 1.000000000000000000e+00 1.000000000000000000e+00 1.000000000000000000e+00 1.000000000000000000e+00 1.000000000000000000e+00 1.000000000000000000e+00 1.000000000000000000e+00 1.000000000000000000e+00 1.000000000000000000e+00 1.000000000000000000e+00 1.000000000000000000e+00 1.000000000000000000e+00 1.000000000000000000e+00 1.000000000000000000e+00 1.000000000000000000e+00 1.000000000000000000e+00 1.000000000000000000e+00 1.000000000000000000e+00 1.000000000000000000e+00 1.000000000000000000e+00 1.000000000000000000e+00 1.000000000000000000e+00 1.000000000000000000e+00 1.000000000000000000e+00 1.000000000000000000e+00 1.000000000000000000e+00 1.000000000000000000e+00 1.000000000000000000e+00 1.000000000000000000e+00 1.000000000000000000e+00 1.000000000000000000e+00 1.000000000000000000e+00 1.000000000000000000e+00 1.000000000000000000e+00 1.000000000000000000e+00 1.000000000000000000e+00 1.000000000000000000e+00 1.000000000000000000e+00 1.000000000000000000e+00 1.000000000000000000e+00 1.000000000000000000e+00 1.000000000000000000e+00 1.000000000000000000e+00 1.000000000000000000e+00 1.000000000000000000e+00 1.000000000000000000e+00 1.000000000000000000e+00 1.000000000000000000e+00 1.000000000000000000e+00 1.000000000000000000e+00 1.000000000000000000e+00 1.000000000000000000e+00 1.000000000000000000e+00 1.000000000000000000e+00 1.000000000000000000e+00 1.000000000000000000e+00 1.000000000000000000e+00 1.000000000000000000e+00 1.000000000000000000e+00 1.000000000000000000e+00 1.000000000000000000e+00 1.000000000000000000e+00 1.000000000000000000e+00 1.000000000000000000e+00 1.000000000000000000e+00 1.000000000000000000e+00 1.000000000000000000e+00 1.000000000000000000e+00 1.000000000000000000e+00 1.000000000000000000e+00 1.000000000000000000e+00 1.000000000000000000e+00 1.000000000000000000e+00 1.000000000000000000e+00 1.000000000000000000e+00 1.000000000000000000e+00 1.000000000000000000e+00 1.000000000000000000e+00 1.000000000000000000e+00 1.000000000000000000e+00 1.000000000000000000e+00 1.000000000000000000e+00 1.000000000000000000e+00 1.000000000000000000e+00 1.000000000000000000e+00 1.000000000000000000e+00 1.000000000000000000e+00 1.000000000000000000e+00 1.000000000000000000e+00 1.000000000000000000e+00 1.000000000000000000e+00 1.000000000000000000e+00 1.000000000000000000e+00 1.000000000000000000e+00 1.000000000000000000e+00 1.000000000000000000e+00 1.000000000000000000e+00 1.000000000000000000e+00 1.000000000000000000e+00 1.000000000000000000e+00 1.000000000000000000e+00 1.000000000000000000e+00 1.000000000000000000e+00 1.000000000000000000e+00 1.000000000000000000e+00 1.000000000000000000e+00 1.000000000000000000e+00 1.000000000000000000e+00 1.000000000000000000e+00 1.000000000000000000e+00 1.000000000000000000e+00 1.000000000000000000e+00 1.000000000000000000e+00 1.000000000000000000e+00 1.000000000000000000e+00 1.000000000000000000e+00 1.000000000000000000e+00 1.000000000000000000e+00 1.000000000000000000e+00 1.000000000000000000e+00 1.000000000000000000e+00 1.000000000000000000e+00 1.000000000000000000e+00 1.000000000000000000e+00 1.000000000000000000e+00 1.000000000000000000e+00 1.000000000000000000e+00 1.000000000000000000e+00 1.000000000000000000e+00 1.000000000000000000e+00 1.000000000000000000e+00 1.000000000000000000e+00 1.000000000000000000e+00 1.000000000000000000e+00 1.000000000000000000e+00 1.000000000000000000e+00 1.000000000000000000e+00 1.000000000000000000e+00 1.000000000000000000e+00 1.000000000000000000e+00 1.000000000000000000e+00 1.000000000000000000e+00 1.000000000000000000e+00 1.000000000000000000e+00 1.000000000000000000e+00 1.000000000000000000e+00 1.000000000000000000e+00 1.000000000000000000e+00 1.000000000000000000e+00 1.000000000000000000e+00 1.000000000000000000e+00 1.000000000000000000e+00 1.000000000000000000e+00 1.000000000000000000e+00 1.000000000000000000e+00 1.000000000000000000e+00 1.000000000000000000e+00 1.000000000000000000e+00 1.000000000000000000e+00 1.000000000000000000e+00 1.000000000000000000e+00 1.000000000000000000e+00 1.000000000000000000e+00 1.000000000000000000e+00 1.000000000000000000e+00 1.000000000000000000e+00 1.000000000000000000e+00 1.000000000000000000e+00 1.000000000000000000e+00 1.000000000000000000e+00 1.000000000000000000e+00 1.000000000000000000e+00 1.000000000000000000e+00 1.000000000000000000e+00 1.000000000000000000e+00 1.000000000000000000e+00 1.000000000000000000e+00 1.000000000000000000e+00 1.000000000000000000e+00 1.000000000000000000e+00 1.000000000000000000e+00 1.000000000000000000e+00 1.000000000000000000e+00 1.000000000000000000e+00 1.000000000000000000e+00 1.000000000000000000e+00 1.000000000000000000e+00 1.000000000000000000e+00 1.000000000000000000e+00 1.000000000000000000e+00 1.000000000000000000e+00 1.000000000000000000e+00 1.000000000000000000e+00 1.000000000000000000e+00 1.000000000000000000e+00 1.000000000000000000e+00 1.000000000000000000e+00 1.000000000000000000e+00 1.000000000000000000e+00 1.000000000000000000e+00 1.000000000000000000e+00 1.000000000000000000e+00 1.000000000000000000e+00 1.000000000000000000e+00 1.000000000000000000e+00 1.000000000000000000e+00 1.000000000000000000e+00 1.000000000000000000e+00 1.000000000000000000e+00 1.000000000000000000e+00 1.000000000000000000e+00 1.000000000000000000e+00 1.000000000000000000e+00 1.000000000000000000e+00 1.000000000000000000e+00 1.000000000000000000e+00 1.000000000000000000e+00 1.000000000000000000e+00 1.000000000000000000e+00 1.000000000000000000e+00 1.000000000000000000e+00 1.000000000000000000e+00 1.000000000000000000e+00 1.000000000000000000e+00 1.000000000000000000e+00 1.000000000000000000e+00 1.000000000000000000e+00 1.000000000000000000e+00 1.000000000000000000e+00 1.000000000000000000e+00 1.000000000000000000e+00 1.000000000000000000e+00 1.000000000000000000e+00 1.000000000000000000e+00 1.000000000000000000e+00 1.000000000000000000e+00 1.000000000000000000e+00 1.000000000000000000e+00 1.000000000000000000e+00 1.000000000000000000e+00 1.000000000000000000e+00 1.000000000000000000e+00 1.000000000000000000e+00 1.000000000000000000e+00 1.000000000000000000e+00 1.000000000000000000e+00 1.000000000000000000e+00 1.000000000000000000e+00 1.000000000000000000e+00 1.000000000000000000e+00 1.000000000000000000e+00 1.000000000000000000e+00 1.000000000000000000e+00 1.000000000000000000e+00 1.000000000000000000e+00 1.000000000000000000e+00 1.000000000000000000e+00 1.000000000000000000e+00 1.000000000000000000e+00 1.000000000000000000e+00 1.000000000000000000e+00 1.000000000000000000e+00 1.000000000000000000e+00 1.000000000000000000e+00 1.000000000000000000e+00 1.000000000000000000e+00 1.000000000000000000e+00 1.000000000000000000e+00 1.000000000000000000e+00 1.000000000000000000e+00 1.000000000000000000e+00 1.000000000000000000e+00 1.000000000000000000e+00 1.000000000000000000e+00 1.000000000000000000e+00 1.000000000000000000e+00 1.000000000000000000e+00 1.000000000000000000e+00 1.000000000000000000e+00 1.000000000000000000e+00 1.000000000000000000e+00 1.000000000000000000e+00 1.000000000000000000e+00 1.000000000000000000e+00 1.000000000000000000e+00 1.000000000000000000e+00 1.000000000000000000e+00 1.000000000000000000e+00 1.000000000000000000e+00 1.000000000000000000e+00 1.000000000000000000e+00 1.000000000000000000e+00 1.000000000000000000e+00 1.000000000000000000e+00 1.000000000000000000e+00 1.000000000000000000e+00 1.000000000000000000e+00 1.000000000000000000e+00 1.000000000000000000e+00 1.000000000000000000e+00 1.000000000000000000e+00 1.000000000000000000e+00 1.000000000000000000e+00 1.000000000000000000e+00 1.000000000000000000e+00 1.000000000000000000e+00 1.000000000000000000e+00 1.000000000000000000e+00 1.000000000000000000e+00 1.000000000000000000e+00 1.000000000000000000e+00 1.000000000000000000e+00 1.000000000000000000e+00 1.000000000000000000e+00 1.000000000000000000e+00 1.000000000000000000e+00 1.000000000000000000e+00 1.000000000000000000e+00 1.000000000000000000e+00 1.000000000000000000e+00 1.000000000000000000e+00 1.000000000000000000e+00 1.000000000000000000e+00 1.000000000000000000e+00 1.000000000000000000e+00 1.000000000000000000e+00 1.000000000000000000e+00 1.000000000000000000e+00 1.000000000000000000e+00 1.000000000000000000e+00 1.000000000000000000e+00 1.000000000000000000e+00 1.000000000000000000e+00 1.000000000000000000e+00 1.000000000000000000e+00 1.000000000000000000e+00 1.000000000000000000e+00 1.000000000000000000e+00 1.000000000000000000e+00 1.000000000000000000e+00 1.000000000000000000e+00 1.000000000000000000e+00 1.000000000000000000e+00 1.000000000000000000e+00 1.000000000000000000e+00 1.000000000000000000e+00 1.000000000000000000e+00 1.000000000000000000e+00 1.000000000000000000e+00 1.000000000000000000e+00 1.000000000000000000e+00 1.000000000000000000e+00 1.000000000000000000e+00 1.000000000000000000e+00 1.000000000000000000e+00 1.000000000000000000e+00 1.000000000000000000e+00 1.000000000000000000e+00 1.000000000000000000e+00 1.000000000000000000e+00 1.000000000000000000e+00 1.000000000000000000e+00 1.000000000000000000e+00 1.000000000000000000e+00 1.000000000000000000e+00 1.000000000000000000e+00 1.000000000000000000e+00 1.000000000000000000e+00 1.000000000000000000e+00 1.000000000000000000e+00 1.000000000000000000e+00 1.000000000000000000e+00 1.000000000000000000e+00 1.000000000000000000e+00 1.000000000000000000e+00 1.000000000000000000e+00 1.000000000000000000e+00 1.000000000000000000e+00 1.000000000000000000e+00 1.000000000000000000e+00 1.000000000000000000e+00 1.000000000000000000e+00 1.000000000000000000e+00 1.000000000000000000e+00 1.000000000000000000e+00 1.000000000000000000e+00 1.000000000000000000e+00 1.000000000000000000e+00 1.000000000000000000e+00 1.000000000000000000e+00 1.000000000000000000e+00 1.000000000000000000e+00 1.000000000000000000e+00 1.000000000000000000e+00 1.000000000000000000e+00 1.000000000000000000e+00 1.000000000000000000e+00 1.000000000000000000e+00 1.000000000000000000e+00 1.000000000000000000e+00 1.000000000000000000e+00 1.000000000000000000e+00 1.000000000000000000e+00 1.000000000000000000e+00 1.000000000000000000e+00 1.000000000000000000e+00 1.000000000000000000e+00 1.000000000000000000e+00 1.000000000000000000e+00 1.000000000000000000e+00 1.000000000000000000e+00 1.000000000000000000e+00 1.000000000000000000e+00 1.000000000000000000e+00 1.000000000000000000e+00 1.000000000000000000e+00 1.000000000000000000e+00 1.000000000000000000e+00 1.000000000000000000e+00 1.000000000000000000e+00 1.000000000000000000e+00 1.000000000000000000e+00 1.000000000000000000e+00 1.000000000000000000e+00 1.000000000000000000e+00 1.000000000000000000e+00 1.000000000000000000e+00 1.000000000000000000e+00 1.000000000000000000e+00 1.000000000000000000e+00 1.000000000000000000e+00 1.000000000000000000e+00 1.000000000000000000e+00 1.000000000000000000e+00 1.000000000000000000e+00 1.000000000000000000e+00 1.000000000000000000e+00 1.000000000000000000e+00 1.000000000000000000e+00 1.000000000000000000e+00 1.000000000000000000e+00 1.000000000000000000e+00 1.000000000000000000e+00 1.000000000000000000e+00 1.000000000000000000e+00 1.000000000000000000e+00 1.000000000000000000e+00 1.000000000000000000e+00 1.000000000000000000e+00 1.000000000000000000e+00 1.000000000000000000e+00 1.000000000000000000e+00 1.000000000000000000e+00 1.000000000000000000e+00 1.000000000000000000e+00
2.383899828523183481e-02 5.380905883999084205e-01 -2.372541872415791231e-01 7.506246122118455100e-01 5.168004389400473464e-01 5.075769379532927283e-01 6.134193697127626743e-01 2.986089691463771345e-01 5.291545786649465288e-01 5.043762020707404092e-01 1.080554806546343283e+00 -6.956234176320391649e-01 1.404301194436819333e+00 4.538934733453539039e-01 5.177898798664156699e-01 3.958262146292120254e-01 8.842697830496129008e-01 9.769650750466341016e-01 7.092254453505457690e-01 5.161718023265197131e-01 3.925119775739890904e-01 9.836246837851737590e-01 4.147602606519850132e-01 4.906490864363155513e-01 9.251733051320568113e-02 6.725549039950274866e-01 3.768396425730548560e-01 6.625027048941005692e-01 5.543227151291729715e-01 1.577332279050185804e+00 5.137891531079983309e-01 6.107182605668980413e-01 7.194194231870691958e-01 5.071726064661719047e-01 7.049485173805498661e-01 4.513789463518263489e-01 5.126434549550280551e-01 1.789247235076271592e+00 -7.086994590809179984e-02 5.215711110483041146e-01 -1.721497567943615636e-01 -5.611258269590024828e-01 7.491533527383077429e-01 2.264931447492351535e-01 2.842354211388518070e-01 5.234622042204896131e-01 7.509787961906801979e-01 5.259495888147399656e-01 6.234589780163928285e-01 1.828794099032358608e-02 1.051507869582995504e-02 8.168981955050116373e-01 6.758991740131204962e-01 4.436263832265792129e-01 4.572724465468476773e-01 1.784578133205445838e-02 4.918512061970733429e-01 5.291666829847170295e-01 1.912555401126920795e-01 4.699558840904660140e-01 9.152817082623648792e-01 5.211124774384715552e-01 5.409442706157127079e-01 4.147603775903390133e-01 6.804941085477667073e-01 5.832829093926555908e-01 5.189613545813993589e-01 3.199921118542058962e-01 5.608985869761690113e-01 6.418807219374744397e-03 4.224044613778757951e-01 5.478094535052315806e-01 5.129571535138169880e-01 1.657829523341693839e-02 1.506876458050980139e+00 5.530535018847790862e-01 6.347735948027791730e-01 7.325415656645812845e-01 5.154173671343603713e-01 1.383315441807769108e+00 5.081966246766794759e-01 3.165020274320111127e-01 1.402632641510588529e+00 7.190736905045770344e-01 4.951252688242692157e-01 7.557239489962642720e-01 8.064813450866267219e-01 5.485220505838820371e-01 4.128446124312645238e-01 5.759559547906721866e-01 2.826233768789352396e-01 2.177508333850044497e+00 7.488694607618160415e-01 -1.755897583022023728e-02 5.269114106925033569e-01 4.772259236095360291e-01 5.607014052834565776e-01 4.770781552739665199e-01 1.895367806018618262e-01 6.664224266814371411e-01 1.605891002037270976e+00 6.891199844442759126e-01 5.507261848132838367e-01 7.054778845184768166e-01 8.599918080680706289e-01 -2.066165128020604147e+00 -1.217147680497121964e+00 5.408935055539614289e-01 5.911253934320294112e-01 9.713342802255646724e-01 5.585289076054557045e-01 4.397607211802320171e-01 1.678118095311122437e-01 4.893293689643787858e-01 5.219128573706045549e-01 4.998612818044184669e-01 4.869080801311296280e-01 5.390955754174220349e-01 9.250221238166331794e-01 5.187645689720921105e-01 1.302873636140456037e+00 5.522670544192730402e-01 5.884115791189694633e-01 -4.370292548128068000e-01 5.085652373019249328e-01 1.945974853107145019e+00 5.579833831190389448e-01 5.514857744863040923e-01 6.851363345816049444e-01 5.143883991899764752e-01 5.028042257625580103e-01 5.218472997935430513e-01 4.213580087983683775e-01 3.433109685776167264e-01 -2.880135257007478966e-01 -1.648679989946524316e-01 6.431114080445751169e-01 5.044768081172214258e-02 9.997148447737492782e-01 6.331426578217705936e-01 5.146857750304451029e-01 8.645506675836435173e-01 6.023715937031237644e-01 5.809307271728922917e-01 5.157750008294267330e-01 5.189582412414598528e-02 9.170296993792503848e-01 -1.239426384860341061e-02 4.491254883003611420e-01 -8.884260849663491166e-01 7.697758758943600288e-01 -2.944819010226156775e-01 5.234579029693074981e-01 5.592555072972859032e-01 4.522891902296040101e-01 5.140720637608869881e-01 1.944887566515172361e+00 -1.046562572894658427e-01 8.146443020310693006e-01 6.896060631839480148e-01 5.289707908157857963e-01 4.131039739458908233e-01 4.956393532507188948e-01 5.180800088422995442e-01 1.080678608453350176e+00 1.894838636509128538e-01 8.496173211003070769e-01 3.702480236542299852e-01 4.901651286214245284e-01 6.547897576809034170e-01 5.040559627867639003e-01 7.486171622438343443e-01 5.234664764067504805e-01 5.136108740944320683e-01 4.048021388247022845e-01 4.435229323719370315e-02 1.931901127410494134e-01 8.975454013130679254e-02 7.467415523642505493e-01 1.142095935740244261e+00 6.993339801295019864e-01 5.279095397889613794e-01 -1.779279523886112269e-01 4.423673543645269546e-01 6.308595237124910993e-01 5.335333958963129897e-01 5.114912237389499516e-01 5.072470090584911828e-01 2.789590314735688636e+00 5.550311696259437877e-01 5.378135457700983224e-01 -8.898250419150617319e-01 5.008998421813279922e-01 5.528602410096079556e-01 1.879349389369853462e-01 5.114578625800826339e-01 9.345917639623229078e-01 5.132879338516221912e-01 6.122010276341405266e-01 4.352241912786334321e-01 6.275415253148405315e-01 5.052876251187992107e-01 9.210927474228137735e-01 6.009166756316519642e-01 5.432292027861415074e-01 6.122009579218969932e-01 2.454229900087799010e-01 1.287969367953530897e+00 5.472510158946378711e-01 3.954254354375524860e-01 4.327085339324188706e-01 -8.256276415642585520e-02 4.820219305563548939e-01 1.586986633869759411e-01 5.166992896378538314e-01 5.185068354220039311e-01 5.153922995949585806e-01 5.131522244697079849e-01 5.158592693700894127e-01 5.122698367247879858e-01 4.377241911821494469e-01 5.949556162171990570e-01 -7.066431250762650329e-01 5.975046816316580411e-01 3.763594870371725354e-01 3.775636439031854752e-01 9.317962454765896241e-02 1.303759172241893305e+00 9.587788905970870967e-01 4.971524887666079473e-01 -1.035293513777460900e-01 1.055213110759028350e+00 5.184521345087652611e-01 4.450720595912541766e-01 5.745066103406821778e-01 4.128363485781615938e-01 3.347815786187314235e-01 1.850053151240505511e-01 -1.538925318088800731e-01 -9.926561374846988584e-02 3.803724449039990185e-01 5.209795969740588228e-01 -1.067259248158769491e-01 4.350862037151022044e-01 5.174364713388891479e-01 4.809883730505120081e-01 -1.000774278584309618e-01 7.522789410566562696e-01 -2.275709348743911065e+00 6.096448313392717200e-01 -5.984915249157762851e-01 4.971986016326596647e-01 5.203719709673919613e-01 4.147586454902100761e-01 4.740221842184361711e-01 5.631747682510561681e-01 5.403458030668267797e-01 7.586286796959236245e-01 5.532643921779130114e-01 1.690692031549184904e+00 6.782153116822623451e-01 6.920582719161597618e-01 4.802342474339586498e-01 3.538682428154706905e-01 9.152817217724856791e-01 4.094943940561151519e-01 2.674627357143603223e+00 5.097199601492067300e-01 2.331837132283925973e-01 7.243620298547970293e-01 5.074763086510527543e-01 9.148002602245252080e-01 5.146971478841856351e-01 5.566301549491040612e-01 5.160323180619159622e-01 1.097769038818583232e+00 7.692067476476517340e-01 8.628807305634660363e-01 8.081055926096288866e-01 4.473805660861051026e-01 6.788568038354731993e-01 5.252448655224214447e-01 3.859963745261702495e-01 -7.196793130961094409e-01 3.855060788127349092e-01 6.119354655521960229e-01 5.617289901132186403e-01 5.000832696721831949e-01 4.998612252752600571e-01 6.077192315003053791e-01 5.475539670673769121e-01 -8.336399575970735443e-01 7.207710892783441015e-01 5.446382421670156182e-01 2.210406492480860088e-02 5.563750899718250542e-01 1.849269959109079764e+00 5.022931925381555196e-01 5.168286924469194243e-01 4.491134364618851182e-01 -3.408330465079056015e+00 5.215615368488464298e-01 2.804959929482908620e+00 7.492172766752608348e-01 5.399393356794474075e-01 -5.774323007909040184e-01 5.182794445867835442e-01 5.163683149748782286e-01 4.381928712997166242e-01 4.530150714195429473e-01 3.630209185884738510e-01 6.420313610094450230e-01 3.143994797436185928e-01 5.201594602384762567e-01 5.189826489006009735e-01 3.536691622768707854e-01 5.301873049523392334e-01 7.497006156068412031e-01 5.174537181244669437e-01 1.198453484630552124e+00 7.395575924961652128e-03 2.217561799331329908e+00 2.635073498508324619e+00 5.163165978006708512e-01 -2.123213325851925348e-01 4.166784542026046867e-01 4.019896100806368833e-01 7.305776371337382447e-01 1.375409434054211566e+00 5.356936632859360392e-01 1.125308462946165156e+00 5.172610785500760811e-01 1.241185676515238062e-01 1.252344482257422342e+00 4.469173786420582162e-01 5.359781610613759684e-01 5.020238343442301465e-01 8.936943059033074510e-01 -3.708193883684999026e+00 1.630974859169271651e+00 5.315616928606227143e-01 6.378564310748927602e-01 5.157479558795642349e-01 1.789247233333955966e+00 3.044071480862627355e-01 5.494373845799046530e-01 5.375818831284198129e-01 4.577254542080017585e-01 1.378177675495201093e+00 5.830836350362776921e-01 6.122010517243968719e-01 4.350910211335686228e-01 6.009166792028289850e-01 5.659967172928001000e-01 5.665283105809009179e-01 8.959648524836613115e-01 5.177671883102283878e-01 3.869064299594851541e-01 1.896753599858276296e-01 6.593452329657135680e-01 5.157964975314166534e-01 3.785085633770818858e-01 5.494373858905339247e-01 6.582135459991763637e-01 5.159752086044973041e-01 1.017684680606169678e+00 9.776739889593079047e-01 1.135432305381234075e+00 5.134471620838025885e-01 2.288844403869399746e-01 9.152822031081878640e-01 -1.091589688955464377e-01 9.334462563807143232e-01 6.289485171774684691e-01 6.400980426296475241e-03 5.809298516297749515e-01 9.603324099195791330e-01 3.884123548186458330e-01 5.108401989679183242e-01 2.845102683366643181e-01 -3.341282392791629086e-01 -2.460231269333977178e+00 4.847390435552721977e-01 6.009166799324817676e-01 6.009166958232333711e-01 4.995000956233514033e-01 4.124154615561903547e-01 -2.186463486991210570e-01 3.120861140548801815e-01 5.229675706730786411e-01 6.869949637131328446e-01 5.146782723138517701e-01 1.047280195167589856e+00 6.122011597609775535e-01 5.159121837429694324e-01 4.844995289380739090e-01 2.713866396800339031e-01 6.545591962668820818e-01 5.281219142743551753e-01 5.167475423423342207e-01 5.398745652294116848e-01 2.863460544887225789e-01 1.865950569901543218e-02 6.009166795590157317e-01 6.597381160868291960e-01 5.178745825596582364e-01 4.125092081644307629e-01 8.586173950922038056e-01 7.137954323980637561e-01 5.636423768124882994e-01 1.852663518348881100e+00 5.104066246721847833e-01 -3.061502644818292040e+00 7.507047681242781101e-01 1.519523045080138246e+00 5.473076053052150503e-01 -1.067423358700965830e+00 7.661043190824320392e-01 4.516513261916938471e-01 5.228073565363396957e-01 5.278377205356760138e-01 -3.371153511987157181e-01 5.138537598567426423e-01 1.069429892022901729e+00 5.602572014569112691e-01 -3.546601031157792794e-01 5.193643627660687878e-01 5.153176958969397647e-01 7.796964186198193092e-01 5.369937149186432279e-01 5.515036250028184650e-01 -5.214065146815219931e-01 5.613471096078712641e-01 5.218885283471427217e-01 6.597113796022764376e-01 5.395907904882401018e-01 7.668452392518193550e-01 5.131761281834308353e-01 5.974298330992821038e-01 6.344015329856415031e-01 5.311867850622961074e-01 2.943041019839698347e-01 2.911292730596636291e-01 3.307796892884512507e-01 9.612656174204697868e-01 5.504074873165677451e-01 3.193933357868254053e+00 6.594938472288266462e-01 6.321980852218027636e-01 5.542161393507326617e-01 6.018500736093096437e-01 2.702453607783415063e-02 4.866795071017303576e-01 5.267582980830519679e-01 5.145200129946697620e-01 1.162758206811630668e+00 7.666601282296765518e-01 5.107477452442701349e-01 4.446754698940984518e-01 1.117032171584777522e+00 5.172809508371625231e-01 5.611141685016819425e-01 5.424760839293045755e-01 7.780565187825960738e-01 5.133315970478459223e-01 9.299811907943914546e-01 5.086991381616742247e-01 5.167078197577271714e-01 8.541811508686988214e-03 5.136216988072116463e-01 9.752530574058304938e-03 3.319069332345794821e-01 4.090790613822643529e-01 5.721761195968341207e-01 7.784529403990964047e-01 5.186688051922657694e-01 3.917377452306157193e-01 7.243540634483128238e-02 5.233270565644558836e-01 5.502607701859568712e-01 4.668217926651674343e-01 4.210708396261356179e-02 5.157405676244067871e-01 2.466173293647366260e-01 5.152908786932104412e-01 4.173994199436812380e-01 1.256776768283500711e+00 7.803051680135726365e-01 5.495829856063197960e-01 2.621362358821166527e-01 7.057529923053129650e-01 4.276635652346317817e-01 9.927778414480841196e-01 6.027129039163559021e-01 5.835750545338164175e-01 6.931695366409077463e-01 1.990344982757644043e+00 4.608390151445995730e-01 4.596537111747634463e-01 5.131660544526555068e-01 7.210766568583899527e-01 4.874175686378651728e-01 8.411807928514565269e-01 -5.713657183903868564e-01 3.438039506683173152e-01 5.132689633378387795e-01 4.272726796159273532e-01 3.737413407604255888e-01 -6.146101429271150218e-01 3.883345466733157947e-01 5.166619598931087021e-01 7.364882711204416843e-01 6.665345960330651964e-01 1.472927885862457043e+00 5.162386148629534155e-01 5.140548375714802942e-01 -7.011763337469727464e-01 5.150167996625341083e-01 1.216247178086010905e+00 7.069734011285939701e-01 2.671476367443158528e-01 2.620852127563554346e-01 -1.675160268213713000e+00 5.065531379807833856e-01 1.856411246332950460e-01 1.098903828439101282e+00 8.169079655852600208e-01 5.137209454840975242e-01 5.184630007718590283e-01 6.269924359166058059e-01 7.503982797177056741e-01 4.460384662594261140e-01 5.603824894563033121e-01 2.982169077804022045e-02 5.086861350149701755e-01 6.142560546746157479e-01 5.779386337079325253e-01 5.057965726573560028e-01 5.213968150154707493e-01 1.207460840649199785e+00 -1.045683048688457045e-01 -2.343007537403402896e-01 4.242149815275194080e-01 5.468659547414826960e-01 5.461719826990797388e-01 4.993301509465009058e-01 -8.526571967793333817e-01 3.158975725515399624e+00 5.534097603135541554e-01 4.485527313815502182e-01 4.213271797013668496e-01 5.198989003013267940e-01 5.123316154588573035e-01 5.862043139996672148e-01 3.257241038740861794e-01 5.917507384630009692e-01 5.165915654107579025e-01 6.020398133882065572e-01 3.512602990507699419e-01 4.284934128127005915e-01 5.462663219951512383e-01 4.058182873535944313e-01 4.999507984726543341e-01 5.484090744729211986e-01 6.585714208041143491e-01 1.009746526746195583e+00 2.312783886411894585e+00 5.428816396735572924e-01 4.965068784231163046e-01 4.466402521128228775e-01 5.033833389668520564e-01 3.665059796438084883e-01 5.191198056857723175e-01 5.238229209636352524e-01 5.211185456571534313e-01 5.188880228358431212e-01 4.764291308227944777e-01 7.501400149174233256e-01 3.662288426902115535e-01 4.799341766247572361e-01 4.655764759377467588e-01 5.428296526969644820e-01 1.178987276616265539e-01 9.152817116370339789e-01 5.619022542318228286e-01 1.218504485264577664e-01 1.910576288960206037e+00 2.824843482088715274e-01 4.296457306574951174e-01 5.895443136122632266e-01 6.261109182956309249e-02 5.184444955026051849e-01 1.511186494081841802e+00 7.752511830815932425e-01 7.533476932927586356e-01 5.156583172662112524e-01 5.477810861176196644e-01 4.707696509975937138e-01 6.547934057281222797e-01 5.150948747043575526e-01 5.141244960209840897e-01 -2.051894482905467776e-01 5.442661454646329222e-01 -1.463448322905534837e+00 4.926556399858447732e-01 5.029211006034165488e-01 5.316890826206746024e-01 4.490987374125005038e-01 9.152817116126020780e-01 2.209448861927577890e-01 5.463047288803315471e-01 1.335250310400590612e+00 -5.525843828942417213e-01 5.112407131396433657e-01 1.133025152417765913e+00 1.510238145049566327e+00 4.544818796773975600e-01 5.133644454473769159e-01 -5.316255018345602407e-02 -1.672190861056880307e+00 2.774160320960606940e-01 7.843275019185086405e-01 5.153871654801124302e-01 5.180009110703696074e-01 5.733391959259948045e-01 4.851137953550270776e-01 -4.040660536912518142e-01 8.179540926149931890e-01 4.998621123897158403e-01 3.332242432045499081e-01 5.500319980560829380e-01 -1.330012437892157638e-02 -1.719593052425893720e-01 1.784871865382692491e+00 4.144335818714248165e-01 4.941481445846022669e-01 5.142299127786599255e-01 3.274730613798178536e-01 5.918572767080199082e-01 -6.643700666496521468e-02 -1.130817409301671628e+00 5.189806022334800817e-01 5.264010312506813838e-01 5.351973411605618347e-01 6.167401277909321244e-01 5.311151702737636482e-01 5.446583883147767535e-01 5.625299478633115635e-01 5.742095970163469953e-01 1.030699044363097228e+00 7.244469938972669665e-01 5.314482916772877985e-01 5.855685933163459200e-01 4.555560267912792116e-01 4.321114744221650206e-01 2.852720246642555246e-02 5.494373860481439609e-01 4.938682131044208057e-01 4.773488327679625831e-01 7.563000188404169766e-01 9.231799793498779438e-01 8.411926863180977376e-01 -4.981183324210556318e-01 5.308352773501741062e-01 4.604337717585458289e-01 5.191721721444834126e-01 5.863787744303960991e-01 9.055556513741168656e-01 5.631861340737555066e-01 5.260520141728688426e-01 -2.459724789761169594e-01 -8.635476302414316629e-01 2.287816344107984623e+00 5.108575126500465302e-01 8.945075228098120501e-01 4.402821742281148865e-01 5.726744714556653015e-01 3.761518212705050601e-01 1.501295344733728221e-01 5.152934972590693663e-01 5.487237858706172089e-01 -3.644040283789846523e-03 5.241726028946540605e-01 4.287361425309840213e-01 5.196333169275062502e-01 6.633630055909429668e-01 5.174123950632254498e-01 6.071371309876322231e-01 4.034225173156618105e-01 4.922472436056289924e-01 4.087659670391067812e-01 5.224855496167998270e-01 4.200888114898880255e-01 5.206343062490921270e-01 -2.761375785405261185e-01 5.108012640680102967e-01 6.426960118561462210e-01 4.781551874683606096e-01 7.509067925491219597e-01 9.152814306093723928e-01 7.315258913837338062e-01 -5.945160618578936296e-01 9.879263609876863805e-01 1.789247235072455089e+00 4.892389956548227059e-01 4.638269216893713409e-01 1.076303494072233136e+00 5.611319642872758529e-01 7.510905636417545272e-01 5.149881147779427071e-01 1.822764837033009400e+00 5.140121699368099817e-01 4.350866932449596325e-01 1.234147771961426221e+00 -5.963047946253687004e-02 5.596965223810166368e-01 -1.633168253347292986e-01 -9.557403405781236261e-01 -1.717509424505269666e-01 7.752270369070497491e-01 5.641608997970161132e-01 5.231240908132074319e-01 -3.290993649124860920e-01 5.004497286547026080e-01 4.677696730283189414e-02 -3.743735529033659359e-01 4.912868400121815360e-01 5.111021180994321789e-01 5.172586760919296589e-01 5.567309221344364234e-01 5.487448731213794284e-01 9.083029137315422608e-01 -4.054831145154877969e-01 5.172962089163630761e-01 5.594931945802582574e-01 6.150705892489378712e-01 1.165225307972820756e+00 5.017224227581140727e-01 6.421903946471561042e-01 5.172914355525747299e-01 3.977175808981066318e-02 -3.370093176297645488e-01 5.295722792776607069e-01 5.080256361479522642e-01 6.770075311698164899e-01 5.017590613652778142e-01 3.444666512959403959e-01 5.141202596751651699e-01 5.154410848487640529e-01 3.627051184628228286e-01 5.189533408652547974e-01 8.388414601367812917e-01 2.548849262824540496e+00 -2.416859676752258768e-01 6.642315656732022955e-01 3.303650623188867375e-01 2.119121160051776198e-01 6.734392116667756722e-01 -5.738666060467651625e-02 -1.525883772322669252e+00 5.201174712941549760e-01 2.610239079513843929e+00 5.168530555420745021e-01 1.545067330818093443e-01 1.707020719108284790e-01 4.998612819544746566e-01 5.763900119007793199e-01 1.555745257654284952e+00 4.935127153052080162e-01 1.260198405410186684e-01 4.326958111755296321e-01 1.694315240659784116e+00 5.930918409453356244e-01 7.493040148737701855e-01 5.210934307449683889e-01 7.398417925027289677e-01 4.577234168859490304e-01 5.673385065279961115e-01 1.629465020945091575e-02 5.139629749043157503e-01 4.868890009917960504e-01 -5.716605876212724757e-01 -6.038875862662546057e-02 1.174194742680981784e+00 2.367590071421795950e-01 4.863798306587199805e-01 6.950261519011846634e-01 5.495845430273256227e-01 2.000719187288376943e+00 6.929002862320501333e-01 2.702097140472442885e-02 2.942771688878922931e-01 3.974947495170291223e-01 1.114264049492853292e+00 5.104389833587417158e-01 -2.648659255683693051e-02 5.092462351539808196e-01 -1.747168045897263405e-02 5.160296052676037748e-01 5.192091566208211217e-01 2.599389093617655421e-03 -5.453784617670516532e-02 6.675059264825164984e-01 5.991590122024635923e-01 5.620508522005013274e-01 2.600127324951777008e-01 4.624937214403746499e-01 4.960593386967186436e-01 5.476044455964111934e-01 5.561187837512530097e-01 4.796692094851584542e-01 6.180630213021773844e-01 1.016224719641993790e+00 3.120240321219238222e+00 9.250452171873501106e-01 5.177112939247066059e-01 6.357128060213619314e-01 2.136989046129120773e-01 5.175075534210769046e-01 8.454126140450434201e-01 4.946407073388122688e-01 1.316541852711885507e+00 4.502089823551381764e-01 -5.749922150196149495e-01 -1.639255224920239951e-02 4.077780772784900809e-01 6.127708850160348275e-01 5.005765485411609594e-01 5.191862576673113017e-01 3.360120317008136875e-02 5.374906477782976921e-01 4.054624352819065636e-01 -3.659570817209983229e+00 4.828232750365975545e-01 5.210984026189627860e-01 1.126128813474593482e+00 5.152608767819607527e-01 5.343609566019286161e-01 6.822031440270202030e-01 -8.807081975447912381e-01 -5.043155846580054114e-01 4.388523667957280883e-02 5.181087121587442113e-01 4.345988421036960925e-01 2.187373875573802584e-01 5.016820833070311236e-01 -3.366795143436996929e-01 6.169775121760517900e-01 4.979196848917289420e-01 6.947100248444930681e-01 5.421873266400674130e-01 4.728351232890882216e-01 1.577406573781543198e-01 -7.507470635360056210e-01 6.544301515676151926e-01 5.051605586385337077e-01 1.619420040869319066e-01 5.185596838214777682e-01 5.742725859171073921e-01 5.332499993868745625e-01 6.713989042922687833e-01 5.718246942759767082e-01 5.419829706446470663e-01 5.003166074588724088e-01 1.789247240138710948e+00 3.634193803829013358e-01 5.478893273421839849e-01 -1.176189978560454458e-01 5.524460053274232729e-01 6.263772260893183397e-01 5.262712840216420274e-01 4.951335738768744554e-01 3.519211290965518213e-01 9.306711583329584370e-01 1.198534279213360199e+00 5.568529343855772584e-01 5.752604263802125750e-01 5.961411120645879747e-01 4.676280257390874606e-01 4.857484399140959974e-01 5.160184899737907394e-01 9.878730980813105189e-01 7.191227918211705594e-01 -4.546825494929964129e-01 4.515215335604060853e-01 9.145890079604382938e-01 5.054060380885906367e-01 -1.511637180586023095e-02 5.152214780261634708e-01 1.307984521573276160e+00 -1.387655799929807254e-01 5.856607536485951560e-01 2.458980537360633822e-01 5.359030504158274200e-01 8.324295340237753971e-01 5.103457424114309360e-01 3.690636919620553513e-01 1.398036910249368825e+00 4.785449392742117669e-01 5.292585850739515152e-01 -6.500069524034088886e-01 4.526968032138705134e-01 1.042363531893092832e+00 6.001286973988071427e-01 8.652544519590897598e-02 9.645452191924818175e-01 -4.686735993179524246e-02 6.317116674847060853e-01 1.612537269226682612e+00 -8.564498610149499092e-01 5.623564223290026254e-01 5.162140338104180826e-01 -4.521623694782578862e-01 3.161328511317408330e-01 5.976436142889773873e-01 4.790457653601944421e-01 5.151179023356471376e-01 3.693176235829416232e-01 2.634732413292124042e-01 3.446264993175887081e-01 5.638361588970516314e-01 5.179294040310519209e-01 6.329616790874934701e-03 -9.770433775091760809e-02 5.318059740949753200e-01 1.062368710789215021e+00 4.475085568114224310e-01 -5.717421394729889084e-01 5.605909225505617544e-01 5.124469109693415847e-01 5.234982659024934870e-01 3.958586792582333841e-02 3.334396731199221753e-01 5.145746716857925174e-01 5.278967028845341636e-01 4.523936837468089389e-01 2.232211911671924329e-02 4.871075424241053664e-01 5.152952300711131084e-01 6.361803526871593339e-01 2.081286117907575228e+00 1.010481791360472864e-02 3.843597422164919397e-01 5.092306484618781548e-01 1.827069261083745788e+00 5.825442297600054165e-01 4.871155648968213958e-01 1.618287246779102212e-02 5.494373870180608854e-01 5.259734333959911190e-01 4.746462543996148864e-01 3.815039996020682667e-01 5.043488271282299262e-01 4.931095761661384858e-01 5.637947848911932791e-01 -5.267655071729309135e-01 5.148729383518820812e-01 5.431080764546759587e-01 5.364391780561319489e-01 1.074979819981411344e+00 5.084884356642365155e-01 -2.433244875754608239e-01 1.075653911856298217e+00 -1.256803915360929613e+00 -5.185634533624927656e-01 5.213286081308948772e-01 5.144326850178354560e-01 6.514853315784381316e-01 5.142312876420499501e-01 4.029705172325748208e-01 5.967497322889739886e-01 5.494373860695650480e-01 5.155172581462247328e-01 5.305999423546846616e-01 5.851085556028351453e-01 5.174396832998892082e-01 2.939811478084123908e-01 5.002517942279216534e-01 4.990467154451853071e-01 3.789917251251929131e-01 5.048641511608416010e-01 5.234621597354198741e-01 5.491506524462932415e-01 6.457320227202861807e-01 5.163913044770623850e-01 6.822893261664881859e-01 4.889493989647011318e-01 5.140869595976885753e-01 5.431770383871915575e-01 3.638041608410980676e-01 4.131718119444157122e-01 2.405292869409885625e+00 4.955130355800802522e-01 5.890569311712546829e-01 3.072622264080777654e-01 5.832195261035478806e-01 1.110790018451799144e+00 4.723377848547044566e-01 7.056433307656811982e-01 5.173730825329866390e-01
6.969859951064040215e-01 2.981945982031167230e-01 4.244190756187680713e-01 1.207808314546398969e-02 3.158565511557859806e-01 2.970689329760545228e-01 5.320686054913044138e-01 4.346012974367093884e-01 2.632572047479553867e-01 2.925679510177839338e-01 2.046330023091637251e+00 1.711231463136854591e+00 -1.436831879777179743e+00 6.199614043449336309e-01 3.101092051918821757e-01 4.237915037152524267e-01 1.300487316175676367e-01 4.319891765592349664e-01 4.392332971314130141e-01 3.078294904912964869e-01 4.619471419169438042e-01 2.107671968330053325e+00 3.892754642697519585e-01 3.706433490975656331e-01 7.251822681532879011e-01 -2.246630278841693917e-01 4.489071579461468842e-01 2.246904071993521823e-01 2.789750341874061013e-01 -8.716121095474261837e-01 3.257235736959198658e-01 -1.270389494375512018e-01 2.890095410692999911e-01 2.837383928279958445e-01 -4.239055452817342973e-01 4.679653364071262867e-01 3.053382265243033133e-01 -3.515803895747500185e-01 -3.221400074775478295e+00 3.300959650759833219e-01 1.143672390454488097e+00 1.415398659416658156e-01 -1.656996652024294303e-01 7.917733007612585139e-01 6.207070727739690819e-01 3.055960736724855908e-01 1.161620124468898570e-02 3.377559274617146223e-01 2.183807000782941876e-01 6.717578651643877352e-01 6.782231752507308364e-01 4.754665991057984153e-01 -2.328523373640981053e-01 2.101324378307957708e-01 6.034599032209084779e-01 6.562518128531540373e-01 3.603424352582114687e-01 2.538968883607231608e-01 3.468177320925417417e-01 3.577849838725598586e-01 4.256128274334257666e-01 4.033597123441193255e-01 3.015116201615504199e-01 3.892754530681105107e-01 -3.464155767726538881e-01 1.686348829945579775e-01 2.897327917693276467e-01 3.279206052127757176e-01 2.094261537436278020e-01 7.265076657349884837e-01 1.211697173307596659e-01 2.729738638648424587e-01 3.245537034148071043e-01 7.248839706332979027e-01 1.912031350980392341e+00 4.859602584679345583e-01 4.710228160529185137e-01 4.805528621176343163e-01 3.128461447013913821e-01 -1.332422893701777467e+00 3.172134828687032115e-01 6.063783944350118471e-01 2.308110053024930330e+00 9.988572702698465811e-02 2.712708753853568799e-01 -4.018600720608394572e-01 1.267510168679852056e-01 2.690848863113406431e-01 -5.752502875155858231e-01 -8.821021542200966348e-01 6.213271520076867338e-01 1.570455015756099471e+00 7.919557993550276065e-02 6.930302794971066049e-01 2.854878863151716351e-01 3.142900817039431249e-01 2.723601304128739908e-01 7.484277200130297070e-01 7.380559836834994503e-01 -2.301625840639386911e-01 -1.719529492567609397e-01 5.496807389467939231e-02 2.631656579963037590e-01 2.149883185316395495e-01 -1.433003554307614794e-02 3.089701030563060780e+00 -2.841659162093018165e-01 1.539483838533250715e-01 1.404129045275117615e-01 8.091016689747644319e-01 2.410657041267646183e-01 4.629218373910600759e-01 1.653985221488582513e-01 4.483544695709861250e-01 -4.862740065161915148e-01 2.086673044666749743e-01 2.103616387406591348e-01 4.281270389501902751e-01 1.046342574451804008e+00 3.089900752365757342e-01 -1.446012819456977239e+00 2.140490178847332392e-01 1.537461298657972764e-01 1.363834667967072756e+00 3.239852614891763904e-01 2.159447685818362217e+00 2.339602139237843548e-01 3.088174291049099462e-01 2.997443654316579442e-01 3.039881387304261273e-01 3.196760255078769930e-01 3.174731207034369174e-01 6.754656155741664003e-01 4.151450001718804406e-01 1.750080462327111008e-01 8.697946868850130464e-01 7.090524868262589875e-01 7.215082912899848377e-01 -3.328053142005590326e-01 2.020265878266312709e-01 3.607056809157029309e-01 3.216263788063141726e-01 2.881215115942072358e-01 2.786319628229549372e-01 3.122221561657901878e-01 6.938531320310089567e-01 -1.414124823935279385e-01 3.188331383834887012e-01 4.477478583405551937e-01 3.980731677848312056e-01 -2.547716030154358879e-01 2.278158763519622446e-02 3.056010605097437272e-01 2.649554838330568374e-01 3.341691568565789972e-01 3.154314797208445098e-01 -2.331323787551996318e+00 4.535569432305446291e-01 -5.930599996900429716e-01 -2.330680821001089587e-01 2.483064991593587900e-01 2.563769618899113256e-01 3.301874951372207323e-01 3.142683812569866952e-01 1.160749978447674913e-01 7.893544707736990795e-02 3.155581106178736994e-01 4.394642628104257209e-01 3.383131457963048927e-01 3.404403003374769088e-01 1.793756753566818352e-01 9.564364981329939730e-03 3.055487650633175734e-01 3.116149346959227184e-01 -2.489372047441257063e+00 6.984369368774582254e-01 6.143293228936661521e-01 9.659432079149710138e-01 -4.555129387636380756e-01 1.170876342110753532e+00 -2.208154546338916314e-03 3.063224876365915894e-01 1.233923624823869414e+00 2.910447131761323414e-01 3.069916403406618977e-01 2.583660421130553053e-01 3.585889365631898529e-01 3.172756184975142890e-01 -4.725974921944974816e-01 3.114111235146199141e-01 2.472432450847918406e-01 8.102972557036592915e-01 3.221704606240015645e-01 2.799918261735090952e-01 2.315813775556680165e-01 3.202614865122543342e-01 -1.641252579409140600e+00 3.063183268257028136e-01 2.393236585580513220e-01 3.525670594663943280e-01 8.228887384178047715e-02 2.810448027344379929e-01 3.823554145255378955e-01 1.358112862722723468e-01 -7.877746037491374365e-01 2.393236925051944464e-01 4.650873659573456220e-01 -5.104375724121227309e-01 3.620623180403373387e-01 1.662289257922606733e-01 2.529656885668062349e-01 -3.228722321676089635e+00 4.493979787296878414e-01 9.302341365361611603e-01 3.048675941003992640e-01 3.171972282610163174e-01 3.141808321778040147e-01 3.407726249165987653e-01 3.204350489367436272e-01 3.156398372520544116e-01 3.403077744851945585e-01 1.379356091710728927e-01 6.626688986623374689e-01 1.168483132209911651e-01 5.084463196964286169e-01 4.747483929172097716e-01 3.908821726200082392e-01 -6.594664490581882976e-01 2.269919324614359635e+00 3.900578207065651393e-01 1.236139540139273185e+00 -1.385864277863881000e+00 3.123692001420599329e-01 2.173722982935824555e-01 3.522275037672075726e-01 1.162320531275506053e+00 5.004006044253853647e-01 8.061729754447850560e-01 2.817266270313799614e-01 6.698379984550681954e-01 2.955018603568158597e-01 2.911275983187887606e-01 -1.160852229838593042e+00 3.904688260857364646e-01 3.174036871832839890e-01 4.852488903450462021e-01 9.027466018266201431e-01 -3.540574796611937192e-01 3.125771374158901939e+00 4.866001392724544905e-01 1.246373202001608727e+00 -1.675889274834679588e-01 3.197957995974208822e-01 3.892716345871498618e-01 3.199860598826669289e-01 2.440524975740955005e-01 3.712009020462161968e-01 -1.153025928054997040e-01 1.319316200705367426e-01 5.614543299392085185e-01 2.706343373802220786e-01 9.321388926325459290e-02 2.540468052002552435e-01 3.886370041892598381e-01 4.256128029790110512e-01 2.631507387094127459e-01 3.208380974076271652e+00 3.739743275184156390e-01 6.542754577105682756e-01 5.399713504538349307e-01 2.383074730846962697e-01 4.260325545417688042e-01 3.194132150741102461e-01 2.815319329178112562e-01 3.126751471853942976e-01 -5.448370456594668898e-01 4.574303630314378588e-01 2.854090465611273664e-01 1.271193554720462804e-01 2.713357429865454473e-01 1.526421573109226104e+00 2.884035511602840440e-01 2.932334287685379182e-01 1.989400824832516568e+00 4.977071290432122375e-01 2.992837637465156631e-01 2.655988311888278774e-01 3.126231626855295320e-01 2.086667497787322856e-01 -2.053882619391991238e+00 2.646131523852912615e-01 1.512368587241965878e+00 -2.571720002407438047e-02 3.241434774576854028e-01 7.005663395551389172e-01 2.811112011012769085e-01 -7.184912767007551881e-01 4.197978908567638889e-01 3.203024477762037581e-01 4.477140160505666544e-01 -3.862541604370143267e-01 3.030430534981702895e-01 -2.197985840481400999e+00 1.019689877274152293e-02 2.887195256309922353e-01 6.036901904514804240e-01 3.161002793325360938e-01 3.131822198729020124e-01 4.715332121772276563e-01 2.008051574424271346e-01 -1.124853900226431835e-01 -7.597859761176483095e-01 2.563946956336929893e-03 6.852745503698056684e-01 3.296499028937278086e-01 4.965168721830789944e-01 3.021556550575292266e-01 1.093754438592997938e-02 3.101947823827138628e-01 2.425740513619348615e+00 6.944703853402622862e-01 2.467584655999630616e-01 -1.148435749795786220e+00 2.212862803209101337e-01 4.644335845923744266e+00 3.498826302464626004e-01 -1.376279258799039396e-01 5.696583105173862460e-01 -5.539462904478448024e+00 5.111648302580381609e-01 1.535988796961220038e+00 3.140547517524108767e-01 5.365981570849374105e-01 -4.398843435334795493e-01 4.079620723178907227e-01 3.277022362372665198e-01 2.801260903602287300e-01 2.402608433261331777e-01 2.905205850289046765e+00 -3.688665430767234521e-01 3.062928551283295442e-01 -1.906431812988588881e+00 3.311664675653626100e-01 -3.515803863349139524e-01 7.460754755393090853e-01 5.380639754232707794e-01 2.896109821119080552e-01 3.058799069614918653e-01 1.279520722564845503e+00 1.407368997367312857e-01 2.393236197816481503e-01 3.904625604406087303e-01 1.358112878746975671e-01 2.863305705033105664e-01 3.946574275775366347e-01 -6.065373241272271621e-01 3.114882303000852670e-01 5.467446541425818873e-01 3.812156563911403007e-01 1.665578143013081991e-01 3.132417334317849078e-01 4.741075563133487769e-01 5.380639983352959455e-01 4.145154452072134510e-01 3.125147483157559303e-01 1.920405171966128310e-01 4.306394297878107791e-01 3.378705912952062462e+00 3.054901483141956864e-01 1.464523331382004412e-01 4.256119232484034676e-01 8.489800638095490459e-01 4.658738369255837619e-01 -1.931546860851538483e-01 6.846538790171891042e-01 2.892364853195571461e-01 1.159803548065304613e-01 4.000872424128795735e-01 6.637846065064398893e-01 6.234771329416570751e-01 7.801652710472951613e-01 8.117624626695763013e-01 3.740161858708814790e-01 1.358112863613023524e-01 1.358112586284071222e-01 2.501611646866306882e-01 1.405216748671470062e-01 1.120029535675867161e+00 4.065100313870679827e-01 3.241554319043546961e-01 3.447140614343934262e-01 3.155382862758377427e-01 7.736900244023503515e-01 2.393234281694646137e-01 3.132505368992191674e-01 4.426593525100225857e-01 2.697919713577000000e-01 -6.331382039140101003e-01 3.099814122342086087e-01 3.156294072415050667e-01 3.753144630290781159e-01 6.957433651770617011e-01 7.255665608854682258e-01 1.358112874904556788e-01 7.001137222425318773e-02 3.064738489193987725e-01 4.676611933576350633e-01 -5.908958122487982800e-01 1.965167033079159853e-01 -3.485490026653606854e+00 1.942102857668482230e+00 6.327034249098617558e-01 -4.528850992149262011e-01 1.220471694227977764e-02 2.041928858492608967e+00 3.099034771038111091e-01 6.372057362048381135e-01 1.136237104333331221e-02 3.253068920542781517e-01 4.406991410439567991e-01 2.957902635843080441e-01 -4.584251430145686590e-01 2.647689096805265763e-01 2.045115597736561153e+00 3.491731270741709192e-01 -4.165612157453438269e-01 3.332694243803568934e-01 3.189903173111011681e-01 -1.450608694374546870e+00 3.250070996006870772e-01 3.566897119918857606e-01 4.029855489787046441e-01 1.758012733664731098e-01 3.086236096236016913e-01 2.180284735630421411e-01 3.256973751324991340e-01 -1.608003377226066011e-01 3.145995240441475382e-01 1.169059132762131498e-01 3.265994156642668123e-01 3.027917480923137394e-01 1.795176362939032710e-02 4.230513715160384991e-01 5.902633072943775927e-01 -1.373551247920414831e+00 -5.462822759434978748e-01 -1.091618759641432429e-01 7.868343443135572546e-02 2.615521995811000977e-01 4.281471773516642432e-01 3.624528095618029799e-01 7.301601063940488245e-01 -1.172770298966407249e-01 3.116044154079876671e-01 3.239528170387567796e-01 9.285993250287542800e-02 -1.604701551203504550e-01 3.104168460206704339e-01 4.504209656305543374e-01 4.792405207630059949e-01 3.210738470950392220e-01 2.615973748845836222e-01 3.167357935457777995e-01 2.557712454459852847e-01 3.170709846799484311e-01 5.075402204778908244e-01 4.186471400498769091e-01 3.142111734055002548e-01 6.834105207807944504e-01 3.288475651530368693e-01 7.333346489297527526e-01 6.241617090493981057e-02 5.155010067840084531e-01 2.350380674820395643e-01 -1.442889510449831603e+00 3.018910247117143064e-01 6.449950077639262647e-01 3.770948938328441691e-01 2.850989837117784420e-01 2.675323756030791311e-01 2.262324163503103003e-01 6.890107818926743954e-01 3.136762470382140067e-01 3.853935431822490543e-01 3.120042539715024987e-01 2.849732073361281315e-01 2.071719915694030245e-01 5.136297380037254667e-01 2.877561250231932544e-01 2.384518170292971306e-01 1.411934011873940964e-01 5.571943862170430917e-02 1.626323033414323493e+00 2.608638918520037042e-01 3.689140604929124212e-01 3.786874104380394956e-01 -8.352813035120849605e-01 4.032399089611218290e-01 3.019274794734779777e-01 4.732554301168965805e-01 -2.598669603202770698e-02 3.197532160640137455e-01 1.560935754494447103e+00 8.891171780053824802e-01 4.201446941201635310e-01 2.992269023595137689e-01 3.665604519800246819e-01 3.334731951409352635e-01 9.163418582363961340e-01 3.016176074871663282e+00 3.108706350915872996e-01 4.235339554682628765e-02 5.926185764735097949e-01 -1.885824593815086936e-01 3.143964413647452605e-01 3.042625637338783329e-01 1.063911114190372320e+00 3.096793027535224563e-01 -3.187291689226088853e-01 3.761525228222795669e-01 1.216694422226681366e-01 6.501070268342173941e-01 1.738047144388529031e+00 3.159274389591171794e-01 2.499209138998170765e-01 1.652954016783132474e+00 4.065902873244399696e-01 3.327879877591847224e-01 2.175911637867332105e-01 2.944371478428689515e-01 1.179019639774060366e-02 4.786187872384231046e-01 2.380232796397386275e-01 7.299213761984182369e-01 2.677426398227285564e-01 2.862986956735520949e-01 3.033638678150999968e-01 4.503601084205606786e-01 3.016467327171468149e-01 2.559310549971030024e-01 9.102375100365325267e-01 5.064448377580554883e-01 4.390617540741581504e-01 2.731001887182519239e-01 2.873990622949584295e-01 2.994372041059409906e-01 5.861696507391712663e-01 7.697127503488911948e-01 3.484143050961162613e-01 2.908150557044804074e-01 4.782042755286953772e-01 3.160413790777533150e-01 7.322158654320360949e-01 2.279068997714699119e-01 4.519853829078147034e-01 -3.157156903738190801e-01 3.117167010112286696e-01 2.845330043143765031e-01 4.214507892756413909e-01 3.028526936265236724e-01 2.535626495997794771e-01 1.769509381744275744e+00 8.894800028444968532e-02 2.670099680066446712e-01 -1.707373279565060908e-01 1.625470658739661678e+00 1.145340232489000520e+00 5.356283522363901317e-02 -4.581452683177967833e-01 3.987300642357063385e-01 3.629911402495253347e-01 5.143710897037255814e-01 3.138585935858356213e-01 3.101979766013560069e-01 1.962254881776036575e-01 3.432207284400806135e-01 3.740290829364645853e-01 1.237777747843397426e-02 -1.940793742831350421e-01 3.744211139510228437e-01 3.151668519605156371e-01 2.103100880375074477e-01 8.642792169412836234e-01 4.256128161681301814e-01 2.360845393041491602e-01 8.359561559835946287e-01 4.760330463585610294e-01 6.209606233093541983e-01 4.552817560516896900e-01 6.896286928083492640e-01 1.465991718293276902e+00 3.220458379576273122e-01 2.063909153875623126e+00 -2.139120008945424173e-02 1.399569195232557017e-01 3.146191123753130370e-01 2.618942791362044442e-01 3.382582789630913522e-01 3.404100615809789732e-01 3.079202068699704586e-01 3.154725463619608150e-01 3.584290878064614883e-01 1.875353602040224221e-01 -3.032544742660965298e-01 2.496030520522345142e-01 -7.608818053139232429e-02 3.088305482111420863e-01 4.476537514939751827e-01 4.256128161933510623e-01 2.073480596494750861e-01 2.028952266933141402e-01 -1.220930988858059285e+00 1.943187462825489487e+00 3.129877369088086558e-01 -7.124480483838516731e-01 2.976222776535922265e-01 3.092878558407927136e-01 3.105756440556862730e-01 -4.726622654217642605e+00 3.502017320338273176e+00 6.235258098302287610e-01 7.824551342851916724e-02 3.077481597484013065e-01 3.082689642962509469e-01 2.966165881749025512e-01 2.594398398100467684e+00 6.194163311632391311e-01 3.198562397097384769e-01 2.086670933713453691e-01 2.619500644746819429e-01 2.582934150330133405e-01 8.690304095116917482e-01 -3.775877200787843835e-01 -1.165740226412770308e+00 -1.200664442360878326e+00 3.108557662749067974e-01 3.097478147648006219e-01 7.152549833782859690e-01 3.572473427111796940e-01 1.339918622747484633e+00 4.708475842144107526e-01 3.157583791907556670e-01 3.038334194267658384e-01 3.317861768652627941e-01 2.930643891908867316e-01 3.070565005541260883e-01 6.495012701346114525e-01 2.751174891892682051e-01 6.512859057572421007e-01 2.210497603099927932e-01 3.063548919572797041e-02 3.068751699061921800e-01 1.930652808651092678e-01 3.540549480112160086e-01 3.008923756601203925e-01 6.707340612418466463e-01 5.380639600981171888e-01 4.317255698713171608e-01 3.643052033969748082e-01 3.145628627209677841e-01 2.604580009300453414e-01 1.560913148088914015e+00 1.858140652667349846e+00 3.082575850926590477e-01 3.670199956230748572e-01 3.201393042320386240e-01 1.643292010415538795e-01 2.331785500059349869e-01 2.517436954694425855e-01 2.890946952909778100e-01 3.225984851063643521e-01 7.946994779169072043e-01 8.737514672329965704e-01 2.349349033287749799e-01 1.850653685208263788e+00 2.329658094070602981e-01 -1.893592409465656434e-01 -2.726963511628601178e-01 -3.179413742819857114e-01 3.151922916596953117e-01 2.644161587952204018e-01 7.075746450855288083e-01 3.040801547233481505e-01 4.584724535077072116e-01 3.022184208771286351e-01 3.727414628268061469e-01 3.946665529596760646e-01 1.077761714132065458e-02 1.020534822548921028e+00 3.234000970161681199e-01 4.551577212512139536e-01 3.072917599135953082e-01 3.615283359764767113e-01 3.187398818586587579e-01 3.895802893731948879e-01 -1.079061861215461077e-01 2.230710829752000912e-01 3.273391523621048682e-01 1.143380266618507571e-02 4.256131436165329629e-01 1.113147134018976248e+00 9.510731538207393143e-01 -7.335030333058271124e-01 -3.515803896379757765e-01 6.496737629641669010e-01 -3.288396971662845392e+00 1.561947986814234524e+00 2.630848770861954899e-01 1.241677870911040739e-02 3.109336292209790020e-01 8.798660981010224535e-01 3.092975605504789116e-01 3.904684287550163058e-01 -4.362190027028994832e-01 8.267114346163749738e-01 2.726849444343914519e-01 8.828699220399331971e-01 2.073321978211563277e+00 -3.776622984672670102e-01 -1.444059661347832035e+00 2.495701931387352690e-01 3.050962871249491282e-01 7.702176691751451143e-01 3.408579292144639505e-01 7.033489935158272477e-01 4.690887750651074328e-01 1.838532715480018787e-01 3.136550835980063123e-01 3.057873682588689301e-01 2.241112705984314446e-01 3.313609284899865504e-01 1.392991299389636728e+00 1.608686493575393506e+00 3.225150295801464950e-01 2.607068799421779492e-01 8.165829572662328117e-02 -2.395329808609898969e-01 2.064346860343696521e-01 -8.659529092703271286e-03 3.121692497644152353e-01 7.073693222445871509e-01 -4.579976059539817568e-01 2.825409365611672996e-01 3.141358502802212849e-01 1.541510454087409165e-01 3.256442353099737730e-01 2.459194718674360958e-01 3.164299550659862015e-01 3.113434242536974872e-01 -7.659777570534762221e-03 2.624424133482541888e-01 4.392301119306021295e-01 1.111560507949718613e+00 1.100866337005030005e+00 9.331764140830232090e-01 1.948734234418249556e-01 7.764470503959434167e-01 1.336948127639755457e-01 4.695995928271748943e-01 -2.091924964223821348e+00 2.958559567987498751e-01 6.539189284591359064e-01 2.739099680088070699e-01 9.560525385834440781e-01 1.362022645610263760e+00 2.086673054531462956e-01 2.768432559147408489e-01 3.732324496327106278e-01 2.847876181986896960e-01 5.535504840629736911e-01 8.524361261081022656e-01 -7.676504403212750516e-01 1.648757453146093566e-01 9.505893156406909628e-02 3.065000507342482416e-01 3.427366826153706025e-01 7.709096359293644563e-01 -1.910623623256527681e-01 3.944170697256749181e-01 3.140625877689594558e-01 3.207930665988370511e-01 8.887776658174051381e-01 4.254766602354087546e-01 -2.088082087177995094e-01 8.593746723513374652e-01 -4.604613131838702911e-02 5.726750053983791222e-01 2.643431497455491219e-01 1.279884282702810072e+00 5.640552554910898131e-01 7.299423385598281522e-01 4.385298206964192702e-01 4.848009887048025379e-01 -5.365235131582027917e-01 2.637394852516545263e-01 7.634074535410567686e-01 3.256202738664409346e-01 6.340049036244213010e-01 2.628027177317723839e-01 3.114170442750355261e-01 7.299219320229671792e-01 1.349366002586928348e-01 -2.032928929732011003e+00 2.432381543857494166e-01 2.761046943866560244e-01 7.985443855422587056e-01 3.965106944448999471e-01 4.045644348153930592e-01 3.150140080647355623e-01 2.755646471632369199e-01 3.765621362123242610e-01 4.796509627827129363e-02 -1.614819396988278255e+00 7.494048483385283843e-01 2.576351083169757250e-01 3.335291449415667686e-01 1.965976846434172032e-01 8.232936135601739425e-01 3.160864752442383296e-01 -1.377202806633302801e-01 3.240830120360405076e-01 1.117773600463434658e+00 2.744177439711499300e-01 4.151124341756665670e-01 1.058782982435837905e+00 3.556011501213370285e-01 2.748688693122976368e+00 3.308843250470336339e-01 3.063887524230331505e-01 6.912339144458450324e-01 2.907650091168965112e-01 3.062666770171907915e-01 -2.063866693501907879e+00 4.078843735647060820e-01 3.265237779653405448e-01 5.142157521055751301e-01 3.229063175076518633e-01 2.497753364877922377e-01 -2.237021463477069649e-01 2.036611364499278043e+00 -5.201319838686520036e-01 8.287391916212623055e-01 3.123043157871197018e-01 3.445196763262738382e-01 7.872128745107304093e-01 3.641072762867935131e-01 1.324484481884101061e+00 1.793903010604123160e-01 3.108262639982192765e-01 -8.810556674619942630e-01 -1.323599420788062198e-01 -3.708078164203768012e-01 -3.890020936275413455e+00 2.925517492977045997e+00 5.165650633843513889e-02 3.331557433961079839e-01 -1.607419048714274323e+00 3.176872896087030718e-01 2.797666550231290850e-01 2.841072201186899959e-01 1.498530334759734517e-01 6.392956271351476483e-01 5.958457126781898650e-01 1.018516063226702961e+00 -3.515803920044832109e-01 -2.207606949295664034e-01 2.136198032368277488e-01 -1.180479324698926913e+00 2.745595493692494782e-01 -6.384198856683265255e-01 2.814699172733594601e-01 4.697986042141505947e-01 6.040950908171136696e-02 4.372539972297032063e-01 2.699813325726564961e-01 -8.252547664679875383e-02 2.076417550682514157e-01 2.974647993236773091e-01 3.574875445232023607e-01 3.037119781184988154e-01 3.148884802737229593e-01 -7.334881895222726822e-01 5.471861296663980134e-01 1.532660749371360209e+00 6.128050771414429720e-02 2.400658117632663846e-01 3.894372181904141028e-01 1.211380692490901634e+00 3.199345213366489582e-01 1.387781704409319083e-01 8.944167596258049135e-01 2.987835794755804297e-01 1.847152809827644404e+00 3.260963257544746696e-01 1.239865236639585921e+00 3.288007371031125281e-01 7.367013690518056102e-01 1.346329684247901781e+00 3.223110450767351365e-01 3.998540085380022924e-01 9.193563734679726096e-01 -1.878597954767731171e-01 -5.439803336168810843e-02 1.836472941894305710e-01 2.986562007351084014e-01 3.508598679750032368e-01 1.423959239040767932e-01 1.947076507656856637e-01 -3.597252634036774976e-01 1.292572062053042981e+00 2.735126675566796894e-01 3.171697168987203663e-01 -3.141227103654650854e+00 5.125074673055410868e-01 3.358739243589758394e-01 4.366678414201622949e-01 4.233385351175583677e-01 4.891520962926836358e-01 -1.063754266237713741e+00 6.089674823148587546e-01 2.757962834766221616e-01 3.075688405559576788e-01 1.036651103303901644e+00 4.521921544953919070e-01 3.033263288620910436e-01 -1.392665068453459831e+00 4.273404691329959482e-01 8.887422387676892077e-01 2.943320312705462460e-01 3.172847002878262379e-01 3.601354486296218793e-01 7.069984773581093895e-01 -7.474881938513752710e-02 3.164351979021647332e-01 2.919369365559576490e-01 7.616836119550877970e-02 6.845317716549735865e-01 3.449749893161105363e-01 7.257528128434282966e-01 1.713430462671120535e-01 6.874120736941741194e-01 -2.205710368748304007e-01 -1.504314346331393049e+00 3.297385714076114804e-01 -1.668068170810005704e-02 3.317305776497033731e-01 3.702783740113668731e-01 5.482075843160814921e-02 5.380639887817669775e-01 3.067976376715351172e-01 8.498871937999677439e-02 4.547155025002271866e-01 2.486002745801620395e-01 3.327703498732868526e-01 2.717155712211700713e-01 -8.227352524775179976e-01 3.256151281620394133e-01 3.518070716705808398e-01 2.972525740944859107e-01 -1.676910496672974205e-01 3.168032917233956081e-01 8.073169217200034664e-01 -5.288045539506622816e-01 1.103375575785500828e+00 6.071134939497451199e-01 2.491819579218683967e-01 3.144480605362776071e-01 -2.031805847250433672e+00 3.267968065774168318e-01 1.887462695806142177e-01 2.472502865036202979e-01 5.380639523522928735e-01 3.123011887912714446e-01 2.712974627910811898e-01 9.468260833324489145e-02 3.135524642921974081e-01 4.361430332694987144e-01 4.010321088167689840e-01 3.460604529646335026e-01 2.966171479216893059e-01 3.160872362976069883e-01 3.047928951370423856e-01 2.678338343109357145e-01 4.466892291890806749e-02 3.058559284758376462e-01 6.037689509894444972e-01 2.041317254176381046e-01 3.280589006718645506e-01 -1.295221508607677097e-01 1.472207683567430536e-01 5.463455793983469366e-01 4.407292685805099808e+00 3.170915791665676609e-01 1.106705991875430312e-01 5.395497950612139215e-01 2.019196736096386113e-01 1.542321167763366363e+00 3.559856127587133212e-01 6.529339670102572990e-01 3.177506585349292312e-01
