# 
#                 ----------------------------------------------------
#                 Data from a 3D direct N-body simulation. 
# 
#                 rows are i-particle; 
#                 coumns are :mass, tag, x ,y, z, vx, vy, vz, ax, ay, az
# 
#                 NTHU, Computational Physics 
# 
#                 ----------------------------------------------------
#                 Time = 0.0
0.000000000000000000e+00 1.000000000000000000e+00 2.000000000000000000e+00 3.000000000000000000e+00 4.000000000000000000e+00 5.000000000000000000e+00 6.000000000000000000e+00 7.000000000000000000e+00 8.000000000000000000e+00 9.000000000000000000e+00 1.000000000000000000e+01 1.100000000000000000e+01 1.200000000000000000e+01 1.300000000000000000e+01 1.400000000000000000e+01 1.500000000000000000e+01 1.600000000000000000e+01 1.700000000000000000e+01 1.800000000000000000e+01 1.900000000000000000e+01 2.000000000000000000e+01 2.100000000000000000e+01 2.200000000000000000e+01 2.300000000000000000e+01 2.400000000000000000e+01 2.500000000000000000e+01 2.600000000000000000e+01 2.700000000000000000e+01 2.800000000000000000e+01 2.900000000000000000e+01 3.000000000000000000e+01 3.100000000000000000e+01 3.200000000000000000e+01 3.300000000000000000e+01 3.400000000000000000e+01 3.500000000000000000e+01 3.600000000000000000e+01 3.700000000000000000e+01 3.800000000000000000e+01 3.900000000000000000e+01 4.000000000000000000e+01 4.100000000000000000e+01 4.200000000000000000e+01 4.300000000000000000e+01 4.400000000000000000e+01 4.500000000000000000e+01 4.600000000000000000e+01 4.700000000000000000e+01 4.800000000000000000e+01 4.900000000000000000e+01 5.000000000000000000e+01 5.100000000000000000e+01 5.200000000000000000e+01 5.300000000000000000e+01 5.400000000000000000e+01 5.500000000000000000e+01 5.600000000000000000e+01 5.700000000000000000e+01 5.800000000000000000e+01 5.900000000000000000e+01 6.000000000000000000e+01 6.100000000000000000e+01 6.200000000000000000e+01 6.300000000000000000e+01 6.400000000000000000e+01 6.500000000000000000e+01 6.600000000000000000e+01 6.700000000000000000e+01 6.800000000000000000e+01 6.900000000000000000e+01 7.000000000000000000e+01 7.100000000000000000e+01 7.200000000000000000e+01 7.300000000000000000e+01 7.400000000000000000e+01 7.500000000000000000e+01 7.600000000000000000e+01 7.700000000000000000e+01 7.800000000000000000e+01 7.900000000000000000e+01 8.000000000000000000e+01 8.100000000000000000e+01 8.200000000000000000e+01 8.300000000000000000e+01 8.400000000000000000e+01 8.500000000000000000e+01 8.600000000000000000e+01 8.700000000000000000e+01 8.800000000000000000e+01 8.900000000000000000e+01 9.000000000000000000e+01 9.100000000000000000e+01 9.200000000000000000e+01 9.300000000000000000e+01 9.400000000000000000e+01 9.500000000000000000e+01 9.600000000000000000e+01 9.700000000000000000e+01 9.800000000000000000e+01 9.900000000000000000e+01 1.000000000000000000e+02 1.010000000000000000e+02 1.020000000000000000e+02 1.030000000000000000e+02 1.040000000000000000e+02 1.050000000000000000e+02 1.060000000000000000e+02 1.070000000000000000e+02 1.080000000000000000e+02 1.090000000000000000e+02 1.100000000000000000e+02 1.110000000000000000e+02 1.120000000000000000e+02 1.130000000000000000e+02 1.140000000000000000e+02 1.150000000000000000e+02 1.160000000000000000e+02 1.170000000000000000e+02 1.180000000000000000e+02 1.190000000000000000e+02 1.200000000000000000e+02 1.210000000000000000e+02 1.220000000000000000e+02 1.230000000000000000e+02 1.240000000000000000e+02 1.250000000000000000e+02 1.260000000000000000e+02 1.270000000000000000e+02 1.280000000000000000e+02 1.290000000000000000e+02 1.300000000000000000e+02 1.310000000000000000e+02 1.320000000000000000e+02 1.330000000000000000e+02 1.340000000000000000e+02 1.350000000000000000e+02 1.360000000000000000e+02 1.370000000000000000e+02 1.380000000000000000e+02 1.390000000000000000e+02 1.400000000000000000e+02 1.410000000000000000e+02 1.420000000000000000e+02 1.430000000000000000e+02 1.440000000000000000e+02 1.450000000000000000e+02 1.460000000000000000e+02 1.470000000000000000e+02 1.480000000000000000e+02 1.490000000000000000e+02 1.500000000000000000e+02 1.510000000000000000e+02 1.520000000000000000e+02 1.530000000000000000e+02 1.540000000000000000e+02 1.550000000000000000e+02 1.560000000000000000e+02 1.570000000000000000e+02 1.580000000000000000e+02 1.590000000000000000e+02 1.600000000000000000e+02 1.610000000000000000e+02 1.620000000000000000e+02 1.630000000000000000e+02 1.640000000000000000e+02 1.650000000000000000e+02 1.660000000000000000e+02 1.670000000000000000e+02 1.680000000000000000e+02 1.690000000000000000e+02 1.700000000000000000e+02 1.710000000000000000e+02 1.720000000000000000e+02 1.730000000000000000e+02 1.740000000000000000e+02 1.750000000000000000e+02 1.760000000000000000e+02 1.770000000000000000e+02 1.780000000000000000e+02 1.790000000000000000e+02 1.800000000000000000e+02 1.810000000000000000e+02 1.820000000000000000e+02 1.830000000000000000e+02 1.840000000000000000e+02 1.850000000000000000e+02 1.860000000000000000e+02 1.870000000000000000e+02 1.880000000000000000e+02 1.890000000000000000e+02 1.900000000000000000e+02 1.910000000000000000e+02 1.920000000000000000e+02 1.930000000000000000e+02 1.940000000000000000e+02 1.950000000000000000e+02 1.960000000000000000e+02 1.970000000000000000e+02 1.980000000000000000e+02 1.990000000000000000e+02 2.000000000000000000e+02 2.010000000000000000e+02 2.020000000000000000e+02 2.030000000000000000e+02 2.040000000000000000e+02 2.050000000000000000e+02 2.060000000000000000e+02 2.070000000000000000e+02 2.080000000000000000e+02 2.090000000000000000e+02 2.100000000000000000e+02 2.110000000000000000e+02 2.120000000000000000e+02 2.130000000000000000e+02 2.140000000000000000e+02 2.150000000000000000e+02 2.160000000000000000e+02 2.170000000000000000e+02 2.180000000000000000e+02 2.190000000000000000e+02 2.200000000000000000e+02 2.210000000000000000e+02 2.220000000000000000e+02 2.230000000000000000e+02 2.240000000000000000e+02 2.250000000000000000e+02 2.260000000000000000e+02 2.270000000000000000e+02 2.280000000000000000e+02 2.290000000000000000e+02 2.300000000000000000e+02 2.310000000000000000e+02 2.320000000000000000e+02 2.330000000000000000e+02 2.340000000000000000e+02 2.350000000000000000e+02 2.360000000000000000e+02 2.370000000000000000e+02 2.380000000000000000e+02 2.390000000000000000e+02 2.400000000000000000e+02 2.410000000000000000e+02 2.420000000000000000e+02 2.430000000000000000e+02 2.440000000000000000e+02 2.450000000000000000e+02 2.460000000000000000e+02 2.470000000000000000e+02 2.480000000000000000e+02 2.490000000000000000e+02 2.500000000000000000e+02 2.510000000000000000e+02 2.520000000000000000e+02 2.530000000000000000e+02 2.540000000000000000e+02 2.550000000000000000e+02 2.560000000000000000e+02 2.570000000000000000e+02 2.580000000000000000e+02 2.590000000000000000e+02 2.600000000000000000e+02 2.610000000000000000e+02 2.620000000000000000e+02 2.630000000000000000e+02 2.640000000000000000e+02 2.650000000000000000e+02 2.660000000000000000e+02 2.670000000000000000e+02 2.680000000000000000e+02 2.690000000000000000e+02 2.700000000000000000e+02 2.710000000000000000e+02 2.720000000000000000e+02 2.730000000000000000e+02 2.740000000000000000e+02 2.750000000000000000e+02 2.760000000000000000e+02 2.770000000000000000e+02 2.780000000000000000e+02 2.790000000000000000e+02 2.800000000000000000e+02 2.810000000000000000e+02 2.820000000000000000e+02 2.830000000000000000e+02 2.840000000000000000e+02 2.850000000000000000e+02 2.860000000000000000e+02 2.870000000000000000e+02 2.880000000000000000e+02 2.890000000000000000e+02 2.900000000000000000e+02 2.910000000000000000e+02 2.920000000000000000e+02 2.930000000000000000e+02 2.940000000000000000e+02 2.950000000000000000e+02 2.960000000000000000e+02 2.970000000000000000e+02 2.980000000000000000e+02 2.990000000000000000e+02 3.000000000000000000e+02 3.010000000000000000e+02 3.020000000000000000e+02 3.030000000000000000e+02 3.040000000000000000e+02 3.050000000000000000e+02 3.060000000000000000e+02 3.070000000000000000e+02 3.080000000000000000e+02 3.090000000000000000e+02 3.100000000000000000e+02 3.110000000000000000e+02 3.120000000000000000e+02 3.130000000000000000e+02 3.140000000000000000e+02 3.150000000000000000e+02 3.160000000000000000e+02 3.170000000000000000e+02 3.180000000000000000e+02 3.190000000000000000e+02 3.200000000000000000e+02 3.210000000000000000e+02 3.220000000000000000e+02 3.230000000000000000e+02 3.240000000000000000e+02 3.250000000000000000e+02 3.260000000000000000e+02 3.270000000000000000e+02 3.280000000000000000e+02 3.290000000000000000e+02 3.300000000000000000e+02 3.310000000000000000e+02 3.320000000000000000e+02 3.330000000000000000e+02 3.340000000000000000e+02 3.350000000000000000e+02 3.360000000000000000e+02 3.370000000000000000e+02 3.380000000000000000e+02 3.390000000000000000e+02 3.400000000000000000e+02 3.410000000000000000e+02 3.420000000000000000e+02 3.430000000000000000e+02 3.440000000000000000e+02 3.450000000000000000e+02 3.460000000000000000e+02 3.470000000000000000e+02 3.480000000000000000e+02 3.490000000000000000e+02 3.500000000000000000e+02 3.510000000000000000e+02 3.520000000000000000e+02 3.530000000000000000e+02 3.540000000000000000e+02 3.550000000000000000e+02 3.560000000000000000e+02 3.570000000000000000e+02 3.580000000000000000e+02 3.590000000000000000e+02 3.600000000000000000e+02 3.610000000000000000e+02 3.620000000000000000e+02 3.630000000000000000e+02 3.640000000000000000e+02 3.650000000000000000e+02 3.660000000000000000e+02 3.670000000000000000e+02 3.680000000000000000e+02 3.690000000000000000e+02 3.700000000000000000e+02 3.710000000000000000e+02 3.720000000000000000e+02 3.730000000000000000e+02 3.740000000000000000e+02 3.750000000000000000e+02 3.760000000000000000e+02 3.770000000000000000e+02 3.780000000000000000e+02 3.790000000000000000e+02 3.800000000000000000e+02 3.810000000000000000e+02 3.820000000000000000e+02 3.830000000000000000e+02 3.840000000000000000e+02 3.850000000000000000e+02 3.860000000000000000e+02 3.870000000000000000e+02 3.880000000000000000e+02 3.890000000000000000e+02 3.900000000000000000e+02 3.910000000000000000e+02 3.920000000000000000e+02 3.930000000000000000e+02 3.940000000000000000e+02 3.950000000000000000e+02 3.960000000000000000e+02 3.970000000000000000e+02 3.980000000000000000e+02 3.990000000000000000e+02 4.000000000000000000e+02 4.010000000000000000e+02 4.020000000000000000e+02 4.030000000000000000e+02 4.040000000000000000e+02 4.050000000000000000e+02 4.060000000000000000e+02 4.070000000000000000e+02 4.080000000000000000e+02 4.090000000000000000e+02 4.100000000000000000e+02 4.110000000000000000e+02 4.120000000000000000e+02 4.130000000000000000e+02 4.140000000000000000e+02 4.150000000000000000e+02 4.160000000000000000e+02 4.170000000000000000e+02 4.180000000000000000e+02 4.190000000000000000e+02 4.200000000000000000e+02 4.210000000000000000e+02 4.220000000000000000e+02 4.230000000000000000e+02 4.240000000000000000e+02 4.250000000000000000e+02 4.260000000000000000e+02 4.270000000000000000e+02 4.280000000000000000e+02 4.290000000000000000e+02 4.300000000000000000e+02 4.310000000000000000e+02 4.320000000000000000e+02 4.330000000000000000e+02 4.340000000000000000e+02 4.350000000000000000e+02 4.360000000000000000e+02 4.370000000000000000e+02 4.380000000000000000e+02 4.390000000000000000e+02 4.400000000000000000e+02 4.410000000000000000e+02 4.420000000000000000e+02 4.430000000000000000e+02 4.440000000000000000e+02 4.450000000000000000e+02 4.460000000000000000e+02 4.470000000000000000e+02 4.480000000000000000e+02 4.490000000000000000e+02 4.500000000000000000e+02 4.510000000000000000e+02 4.520000000000000000e+02 4.530000000000000000e+02 4.540000000000000000e+02 4.550000000000000000e+02 4.560000000000000000e+02 4.570000000000000000e+02 4.580000000000000000e+02 4.590000000000000000e+02 4.600000000000000000e+02 4.610000000000000000e+02 4.620000000000000000e+02 4.630000000000000000e+02 4.640000000000000000e+02 4.650000000000000000e+02 4.660000000000000000e+02 4.670000000000000000e+02 4.680000000000000000e+02 4.690000000000000000e+02 4.700000000000000000e+02 4.710000000000000000e+02 4.720000000000000000e+02 4.730000000000000000e+02 4.740000000000000000e+02 4.750000000000000000e+02 4.760000000000000000e+02 4.770000000000000000e+02 4.780000000000000000e+02 4.790000000000000000e+02 4.800000000000000000e+02 4.810000000000000000e+02 4.820000000000000000e+02 4.830000000000000000e+02 4.840000000000000000e+02 4.850000000000000000e+02 4.860000000000000000e+02 4.870000000000000000e+02 4.880000000000000000e+02 4.890000000000000000e+02 4.900000000000000000e+02 4.910000000000000000e+02 4.920000000000000000e+02 4.930000000000000000e+02 4.940000000000000000e+02 4.950000000000000000e+02 4.960000000000000000e+02 4.970000000000000000e+02 4.980000000000000000e+02 4.990000000000000000e+02 5.000000000000000000e+02 5.010000000000000000e+02 5.020000000000000000e+02 5.030000000000000000e+02 5.040000000000000000e+02 5.050000000000000000e+02 5.060000000000000000e+02 5.070000000000000000e+02 5.080000000000000000e+02 5.090000000000000000e+02 5.100000000000000000e+02 5.110000000000000000e+02 5.120000000000000000e+02 5.130000000000000000e+02 5.140000000000000000e+02 5.150000000000000000e+02 5.160000000000000000e+02 5.170000000000000000e+02 5.180000000000000000e+02 5.190000000000000000e+02 5.200000000000000000e+02 5.210000000000000000e+02 5.220000000000000000e+02 5.230000000000000000e+02 5.240000000000000000e+02 5.250000000000000000e+02 5.260000000000000000e+02 5.270000000000000000e+02 5.280000000000000000e+02 5.290000000000000000e+02 5.300000000000000000e+02 5.310000000000000000e+02 5.320000000000000000e+02 5.330000000000000000e+02 5.340000000000000000e+02 5.350000000000000000e+02 5.360000000000000000e+02 5.370000000000000000e+02 5.380000000000000000e+02 5.390000000000000000e+02 5.400000000000000000e+02 5.410000000000000000e+02 5.420000000000000000e+02 5.430000000000000000e+02 5.440000000000000000e+02 5.450000000000000000e+02 5.460000000000000000e+02 5.470000000000000000e+02 5.480000000000000000e+02 5.490000000000000000e+02 5.500000000000000000e+02 5.510000000000000000e+02 5.520000000000000000e+02 5.530000000000000000e+02 5.540000000000000000e+02 5.550000000000000000e+02 5.560000000000000000e+02 5.570000000000000000e+02 5.580000000000000000e+02 5.590000000000000000e+02 5.600000000000000000e+02 5.610000000000000000e+02 5.620000000000000000e+02 5.630000000000000000e+02 5.640000000000000000e+02 5.650000000000000000e+02 5.660000000000000000e+02 5.670000000000000000e+02 5.680000000000000000e+02 5.690000000000000000e+02 5.700000000000000000e+02 5.710000000000000000e+02 5.720000000000000000e+02 5.730000000000000000e+02 5.740000000000000000e+02 5.750000000000000000e+02 5.760000000000000000e+02 5.770000000000000000e+02 5.780000000000000000e+02 5.790000000000000000e+02 5.800000000000000000e+02 5.810000000000000000e+02 5.820000000000000000e+02 5.830000000000000000e+02 5.840000000000000000e+02 5.850000000000000000e+02 5.860000000000000000e+02 5.870000000000000000e+02 5.880000000000000000e+02 5.890000000000000000e+02 5.900000000000000000e+02 5.910000000000000000e+02 5.920000000000000000e+02 5.930000000000000000e+02 5.940000000000000000e+02 5.950000000000000000e+02 5.960000000000000000e+02 5.970000000000000000e+02 5.980000000000000000e+02 5.990000000000000000e+02 6.000000000000000000e+02 6.010000000000000000e+02 6.020000000000000000e+02 6.030000000000000000e+02 6.040000000000000000e+02 6.050000000000000000e+02 6.060000000000000000e+02 6.070000000000000000e+02 6.080000000000000000e+02 6.090000000000000000e+02 6.100000000000000000e+02 6.110000000000000000e+02 6.120000000000000000e+02 6.130000000000000000e+02 6.140000000000000000e+02 6.150000000000000000e+02 6.160000000000000000e+02 6.170000000000000000e+02 6.180000000000000000e+02 6.190000000000000000e+02 6.200000000000000000e+02 6.210000000000000000e+02 6.220000000000000000e+02 6.230000000000000000e+02 6.240000000000000000e+02 6.250000000000000000e+02 6.260000000000000000e+02 6.270000000000000000e+02 6.280000000000000000e+02 6.290000000000000000e+02 6.300000000000000000e+02 6.310000000000000000e+02 6.320000000000000000e+02 6.330000000000000000e+02 6.340000000000000000e+02 6.350000000000000000e+02 6.360000000000000000e+02 6.370000000000000000e+02 6.380000000000000000e+02 6.390000000000000000e+02 6.400000000000000000e+02 6.410000000000000000e+02 6.420000000000000000e+02 6.430000000000000000e+02 6.440000000000000000e+02 6.450000000000000000e+02 6.460000000000000000e+02 6.470000000000000000e+02 6.480000000000000000e+02 6.490000000000000000e+02 6.500000000000000000e+02 6.510000000000000000e+02 6.520000000000000000e+02 6.530000000000000000e+02 6.540000000000000000e+02 6.550000000000000000e+02 6.560000000000000000e+02 6.570000000000000000e+02 6.580000000000000000e+02 6.590000000000000000e+02 6.600000000000000000e+02 6.610000000000000000e+02 6.620000000000000000e+02 6.630000000000000000e+02 6.640000000000000000e+02 6.650000000000000000e+02 6.660000000000000000e+02 6.670000000000000000e+02 6.680000000000000000e+02 6.690000000000000000e+02 6.700000000000000000e+02 6.710000000000000000e+02 6.720000000000000000e+02 6.730000000000000000e+02 6.740000000000000000e+02 6.750000000000000000e+02 6.760000000000000000e+02 6.770000000000000000e+02 6.780000000000000000e+02 6.790000000000000000e+02 6.800000000000000000e+02 6.810000000000000000e+02 6.820000000000000000e+02 6.830000000000000000e+02 6.840000000000000000e+02 6.850000000000000000e+02 6.860000000000000000e+02 6.870000000000000000e+02 6.880000000000000000e+02 6.890000000000000000e+02 6.900000000000000000e+02 6.910000000000000000e+02 6.920000000000000000e+02 6.930000000000000000e+02 6.940000000000000000e+02 6.950000000000000000e+02 6.960000000000000000e+02 6.970000000000000000e+02 6.980000000000000000e+02 6.990000000000000000e+02 7.000000000000000000e+02 7.010000000000000000e+02 7.020000000000000000e+02 7.030000000000000000e+02 7.040000000000000000e+02 7.050000000000000000e+02 7.060000000000000000e+02 7.070000000000000000e+02 7.080000000000000000e+02 7.090000000000000000e+02 7.100000000000000000e+02 7.110000000000000000e+02 7.120000000000000000e+02 7.130000000000000000e+02 7.140000000000000000e+02 7.150000000000000000e+02 7.160000000000000000e+02 7.170000000000000000e+02 7.180000000000000000e+02 7.190000000000000000e+02 7.200000000000000000e+02 7.210000000000000000e+02 7.220000000000000000e+02 7.230000000000000000e+02 7.240000000000000000e+02 7.250000000000000000e+02 7.260000000000000000e+02 7.270000000000000000e+02 7.280000000000000000e+02 7.290000000000000000e+02 7.300000000000000000e+02 7.310000000000000000e+02 7.320000000000000000e+02 7.330000000000000000e+02 7.340000000000000000e+02 7.350000000000000000e+02 7.360000000000000000e+02 7.370000000000000000e+02 7.380000000000000000e+02 7.390000000000000000e+02 7.400000000000000000e+02 7.410000000000000000e+02 7.420000000000000000e+02 7.430000000000000000e+02 7.440000000000000000e+02 7.450000000000000000e+02 7.460000000000000000e+02 7.470000000000000000e+02 7.480000000000000000e+02 7.490000000000000000e+02 7.500000000000000000e+02 7.510000000000000000e+02 7.520000000000000000e+02 7.530000000000000000e+02 7.540000000000000000e+02 7.550000000000000000e+02 7.560000000000000000e+02 7.570000000000000000e+02 7.580000000000000000e+02 7.590000000000000000e+02 7.600000000000000000e+02 7.610000000000000000e+02 7.620000000000000000e+02 7.630000000000000000e+02 7.640000000000000000e+02 7.650000000000000000e+02 7.660000000000000000e+02 7.670000000000000000e+02 7.680000000000000000e+02 7.690000000000000000e+02 7.700000000000000000e+02 7.710000000000000000e+02 7.720000000000000000e+02 7.730000000000000000e+02 7.740000000000000000e+02 7.750000000000000000e+02 7.760000000000000000e+02 7.770000000000000000e+02 7.780000000000000000e+02 7.790000000000000000e+02 7.800000000000000000e+02 7.810000000000000000e+02 7.820000000000000000e+02 7.830000000000000000e+02 7.840000000000000000e+02 7.850000000000000000e+02 7.860000000000000000e+02 7.870000000000000000e+02 7.880000000000000000e+02 7.890000000000000000e+02 7.900000000000000000e+02 7.910000000000000000e+02 7.920000000000000000e+02 7.930000000000000000e+02 7.940000000000000000e+02 7.950000000000000000e+02 7.960000000000000000e+02 7.970000000000000000e+02 7.980000000000000000e+02 7.990000000000000000e+02 8.000000000000000000e+02 8.010000000000000000e+02 8.020000000000000000e+02 8.030000000000000000e+02 8.040000000000000000e+02 8.050000000000000000e+02 8.060000000000000000e+02 8.070000000000000000e+02 8.080000000000000000e+02 8.090000000000000000e+02 8.100000000000000000e+02 8.110000000000000000e+02 8.120000000000000000e+02 8.130000000000000000e+02 8.140000000000000000e+02 8.150000000000000000e+02 8.160000000000000000e+02 8.170000000000000000e+02 8.180000000000000000e+02 8.190000000000000000e+02 8.200000000000000000e+02 8.210000000000000000e+02 8.220000000000000000e+02 8.230000000000000000e+02 8.240000000000000000e+02 8.250000000000000000e+02 8.260000000000000000e+02 8.270000000000000000e+02 8.280000000000000000e+02 8.290000000000000000e+02 8.300000000000000000e+02 8.310000000000000000e+02 8.320000000000000000e+02 8.330000000000000000e+02 8.340000000000000000e+02 8.350000000000000000e+02 8.360000000000000000e+02 8.370000000000000000e+02 8.380000000000000000e+02 8.390000000000000000e+02 8.400000000000000000e+02 8.410000000000000000e+02 8.420000000000000000e+02 8.430000000000000000e+02 8.440000000000000000e+02 8.450000000000000000e+02 8.460000000000000000e+02 8.470000000000000000e+02 8.480000000000000000e+02 8.490000000000000000e+02 8.500000000000000000e+02 8.510000000000000000e+02 8.520000000000000000e+02 8.530000000000000000e+02 8.540000000000000000e+02 8.550000000000000000e+02 8.560000000000000000e+02 8.570000000000000000e+02 8.580000000000000000e+02 8.590000000000000000e+02 8.600000000000000000e+02 8.610000000000000000e+02 8.620000000000000000e+02 8.630000000000000000e+02 8.640000000000000000e+02 8.650000000000000000e+02 8.660000000000000000e+02 8.670000000000000000e+02 8.680000000000000000e+02 8.690000000000000000e+02 8.700000000000000000e+02 8.710000000000000000e+02 8.720000000000000000e+02 8.730000000000000000e+02 8.740000000000000000e+02 8.750000000000000000e+02 8.760000000000000000e+02 8.770000000000000000e+02 8.780000000000000000e+02 8.790000000000000000e+02 8.800000000000000000e+02 8.810000000000000000e+02 8.820000000000000000e+02 8.830000000000000000e+02 8.840000000000000000e+02 8.850000000000000000e+02 8.860000000000000000e+02 8.870000000000000000e+02 8.880000000000000000e+02 8.890000000000000000e+02 8.900000000000000000e+02 8.910000000000000000e+02 8.920000000000000000e+02 8.930000000000000000e+02 8.940000000000000000e+02 8.950000000000000000e+02 8.960000000000000000e+02 8.970000000000000000e+02 8.980000000000000000e+02 8.990000000000000000e+02 9.000000000000000000e+02 9.010000000000000000e+02 9.020000000000000000e+02 9.030000000000000000e+02 9.040000000000000000e+02 9.050000000000000000e+02 9.060000000000000000e+02 9.070000000000000000e+02 9.080000000000000000e+02 9.090000000000000000e+02 9.100000000000000000e+02 9.110000000000000000e+02 9.120000000000000000e+02 9.130000000000000000e+02 9.140000000000000000e+02 9.150000000000000000e+02 9.160000000000000000e+02 9.170000000000000000e+02 9.180000000000000000e+02 9.190000000000000000e+02 9.200000000000000000e+02 9.210000000000000000e+02 9.220000000000000000e+02 9.230000000000000000e+02 9.240000000000000000e+02 9.250000000000000000e+02 9.260000000000000000e+02 9.270000000000000000e+02 9.280000000000000000e+02 9.290000000000000000e+02 9.300000000000000000e+02 9.310000000000000000e+02 9.320000000000000000e+02 9.330000000000000000e+02 9.340000000000000000e+02 9.350000000000000000e+02 9.360000000000000000e+02 9.370000000000000000e+02 9.380000000000000000e+02 9.390000000000000000e+02 9.400000000000000000e+02 9.410000000000000000e+02 9.420000000000000000e+02 9.430000000000000000e+02 9.440000000000000000e+02 9.450000000000000000e+02 9.460000000000000000e+02 9.470000000000000000e+02 9.480000000000000000e+02 9.490000000000000000e+02 9.500000000000000000e+02 9.510000000000000000e+02 9.520000000000000000e+02 9.530000000000000000e+02 9.540000000000000000e+02 9.550000000000000000e+02 9.560000000000000000e+02 9.570000000000000000e+02 9.580000000000000000e+02 9.590000000000000000e+02 9.600000000000000000e+02 9.610000000000000000e+02 9.620000000000000000e+02 9.630000000000000000e+02 9.640000000000000000e+02 9.650000000000000000e+02 9.660000000000000000e+02 9.670000000000000000e+02 9.680000000000000000e+02 9.690000000000000000e+02 9.700000000000000000e+02 9.710000000000000000e+02 9.720000000000000000e+02 9.730000000000000000e+02 9.740000000000000000e+02 9.750000000000000000e+02 9.760000000000000000e+02 9.770000000000000000e+02 9.780000000000000000e+02 9.790000000000000000e+02 9.800000000000000000e+02 9.810000000000000000e+02 9.820000000000000000e+02 9.830000000000000000e+02 9.840000000000000000e+02 9.850000000000000000e+02 9.860000000000000000e+02 9.870000000000000000e+02 9.880000000000000000e+02 9.890000000000000000e+02 9.900000000000000000e+02 9.910000000000000000e+02 9.920000000000000000e+02 9.930000000000000000e+02 9.940000000000000000e+02 9.950000000000000000e+02 9.960000000000000000e+02 9.970000000000000000e+02 9.980000000000000000e+02 9.990000000000000000e+02
1.000000000000000000e+00 1.000000000000000000e+00 1.000000000000000000e+00 1.000000000000000000e+00 1.000000000000000000e+00 1.000000000000000000e+00 1.000000000000000000e+00 1.000000000000000000e+00 1.000000000000000000e+00 1.000000000000000000e+00 1.000000000000000000e+00 1.000000000000000000e+00 1.000000000000000000e+00 1.000000000000000000e+00 1.000000000000000000e+00 1.000000000000000000e+00 1.000000000000000000e+00 1.000000000000000000e+00 1.000000000000000000e+00 1.000000000000000000e+00 1.000000000000000000e+00 1.000000000000000000e+00 1.000000000000000000e+00 1.000000000000000000e+00 1.000000000000000000e+00 1.000000000000000000e+00 1.000000000000000000e+00 1.000000000000000000e+00 1.000000000000000000e+00 1.000000000000000000e+00 1.000000000000000000e+00 1.000000000000000000e+00 1.000000000000000000e+00 1.000000000000000000e+00 1.000000000000000000e+00 1.000000000000000000e+00 1.000000000000000000e+00 1.000000000000000000e+00 1.000000000000000000e+00 1.000000000000000000e+00 1.000000000000000000e+00 1.000000000000000000e+00 1.000000000000000000e+00 1.000000000000000000e+00 1.000000000000000000e+00 1.000000000000000000e+00 1.000000000000000000e+00 1.000000000000000000e+00 1.000000000000000000e+00 1.000000000000000000e+00 1.000000000000000000e+00 1.000000000000000000e+00 1.000000000000000000e+00 1.000000000000000000e+00 1.000000000000000000e+00 1.000000000000000000e+00 1.000000000000000000e+00 1.000000000000000000e+00 1.000000000000000000e+00 1.000000000000000000e+00 1.000000000000000000e+00 1.000000000000000000e+00 1.000000000000000000e+00 1.000000000000000000e+00 1.000000000000000000e+00 1.000000000000000000e+00 1.000000000000000000e+00 1.000000000000000000e+00 1.000000000000000000e+00 1.000000000000000000e+00 1.000000000000000000e+00 1.000000000000000000e+00 1.000000000000000000e+00 1.000000000000000000e+00 1.000000000000000000e+00 1.000000000000000000e+00 1.000000000000000000e+00 1.000000000000000000e+00 1.000000000000000000e+00 1.000000000000000000e+00 1.000000000000000000e+00 1.000000000000000000e+00 1.000000000000000000e+00 1.000000000000000000e+00 1.000000000000000000e+00 1.000000000000000000e+00 1.000000000000000000e+00 1.000000000000000000e+00 1.000000000000000000e+00 1.000000000000000000e+00 1.000000000000000000e+00 1.000000000000000000e+00 1.000000000000000000e+00 1.000000000000000000e+00 1.000000000000000000e+00 1.000000000000000000e+00 1.000000000000000000e+00 1.000000000000000000e+00 1.000000000000000000e+00 1.000000000000000000e+00 1.000000000000000000e+00 1.000000000000000000e+00 1.000000000000000000e+00 1.000000000000000000e+00 1.000000000000000000e+00 1.000000000000000000e+00 1.000000000000000000e+00 1.000000000000000000e+00 1.000000000000000000e+00 1.000000000000000000e+00 1.000000000000000000e+00 1.000000000000000000e+00 1.000000000000000000e+00 1.000000000000000000e+00 1.000000000000000000e+00 1.000000000000000000e+00 1.000000000000000000e+00 1.000000000000000000e+00 1.000000000000000000e+00 1.000000000000000000e+00 1.000000000000000000e+00 1.000000000000000000e+00 1.000000000000000000e+00 1.000000000000000000e+00 1.000000000000000000e+00 1.000000000000000000e+00 1.000000000000000000e+00 1.000000000000000000e+00 1.000000000000000000e+00 1.000000000000000000e+00 1.000000000000000000e+00 1.000000000000000000e+00 1.000000000000000000e+00 1.000000000000000000e+00 1.000000000000000000e+00 1.000000000000000000e+00 1.000000000000000000e+00 1.000000000000000000e+00 1.000000000000000000e+00 1.000000000000000000e+00 1.000000000000000000e+00 1.000000000000000000e+00 1.000000000000000000e+00 1.000000000000000000e+00 1.000000000000000000e+00 1.000000000000000000e+00 1.000000000000000000e+00 1.000000000000000000e+00 1.000000000000000000e+00 1.000000000000000000e+00 1.000000000000000000e+00 1.000000000000000000e+00 1.000000000000000000e+00 1.000000000000000000e+00 1.000000000000000000e+00 1.000000000000000000e+00 1.000000000000000000e+00 1.000000000000000000e+00 1.000000000000000000e+00 1.000000000000000000e+00 1.000000000000000000e+00 1.000000000000000000e+00 1.000000000000000000e+00 1.000000000000000000e+00 1.000000000000000000e+00 1.000000000000000000e+00 1.000000000000000000e+00 1.000000000000000000e+00 1.000000000000000000e+00 1.000000000000000000e+00 1.000000000000000000e+00 1.000000000000000000e+00 1.000000000000000000e+00 1.000000000000000000e+00 1.000000000000000000e+00 1.000000000000000000e+00 1.000000000000000000e+00 1.000000000000000000e+00 1.000000000000000000e+00 1.000000000000000000e+00 1.000000000000000000e+00 1.000000000000000000e+00 1.000000000000000000e+00 1.000000000000000000e+00 1.000000000000000000e+00 1.000000000000000000e+00 1.000000000000000000e+00 1.000000000000000000e+00 1.000000000000000000e+00 1.000000000000000000e+00 1.000000000000000000e+00 1.000000000000000000e+00 1.000000000000000000e+00 1.000000000000000000e+00 1.000000000000000000e+00 1.000000000000000000e+00 1.000000000000000000e+00 1.000000000000000000e+00 1.000000000000000000e+00 1.000000000000000000e+00 1.000000000000000000e+00 1.000000000000000000e+00 1.000000000000000000e+00 1.000000000000000000e+00 1.000000000000000000e+00 1.000000000000000000e+00 1.000000000000000000e+00 1.000000000000000000e+00 1.000000000000000000e+00 1.000000000000000000e+00 1.000000000000000000e+00 1.000000000000000000e+00 1.000000000000000000e+00 1.000000000000000000e+00 1.000000000000000000e+00 1.000000000000000000e+00 1.000000000000000000e+00 1.000000000000000000e+00 1.000000000000000000e+00 1.000000000000000000e+00 1.000000000000000000e+00 1.000000000000000000e+00 1.000000000000000000e+00 1.000000000000000000e+00 1.000000000000000000e+00 1.000000000000000000e+00 1.000000000000000000e+00 1.000000000000000000e+00 1.000000000000000000e+00 1.000000000000000000e+00 1.000000000000000000e+00 1.000000000000000000e+00 1.000000000000000000e+00 1.000000000000000000e+00 1.000000000000000000e+00 1.000000000000000000e+00 1.000000000000000000e+00 1.000000000000000000e+00 1.000000000000000000e+00 1.000000000000000000e+00 1.000000000000000000e+00 1.000000000000000000e+00 1.000000000000000000e+00 1.000000000000000000e+00 1.000000000000000000e+00 1.000000000000000000e+00 1.000000000000000000e+00 1.000000000000000000e+00 1.000000000000000000e+00 1.000000000000000000e+00 1.000000000000000000e+00 1.000000000000000000e+00 1.000000000000000000e+00 1.000000000000000000e+00 1.000000000000000000e+00 1.000000000000000000e+00 1.000000000000000000e+00 1.000000000000000000e+00 1.000000000000000000e+00 1.000000000000000000e+00 1.000000000000000000e+00 1.000000000000000000e+00 1.000000000000000000e+00 1.000000000000000000e+00 1.000000000000000000e+00 1.000000000000000000e+00 1.000000000000000000e+00 1.000000000000000000e+00 1.000000000000000000e+00 1.000000000000000000e+00 1.000000000000000000e+00 1.000000000000000000e+00 1.000000000000000000e+00 1.000000000000000000e+00 1.000000000000000000e+00 1.000000000000000000e+00 1.000000000000000000e+00 1.000000000000000000e+00 1.000000000000000000e+00 1.000000000000000000e+00 1.000000000000000000e+00 1.000000000000000000e+00 1.000000000000000000e+00 1.000000000000000000e+00 1.000000000000000000e+00 1.000000000000000000e+00 1.000000000000000000e+00 1.000000000000000000e+00 1.000000000000000000e+00 1.000000000000000000e+00 1.000000000000000000e+00 1.000000000000000000e+00 1.000000000000000000e+00 1.000000000000000000e+00 1.000000000000000000e+00 1.000000000000000000e+00 1.000000000000000000e+00 1.000000000000000000e+00 1.000000000000000000e+00 1.000000000000000000e+00 1.000000000000000000e+00 1.000000000000000000e+00 1.000000000000000000e+00 1.000000000000000000e+00 1.000000000000000000e+00 1.000000000000000000e+00 1.000000000000000000e+00 1.000000000000000000e+00 1.000000000000000000e+00 1.000000000000000000e+00 1.000000000000000000e+00 1.000000000000000000e+00 1.000000000000000000e+00 1.000000000000000000e+00 1.000000000000000000e+00 1.000000000000000000e+00 1.000000000000000000e+00 1.000000000000000000e+00 1.000000000000000000e+00 1.000000000000000000e+00 1.000000000000000000e+00 1.000000000000000000e+00 1.000000000000000000e+00 1.000000000000000000e+00 1.000000000000000000e+00 1.000000000000000000e+00 1.000000000000000000e+00 1.000000000000000000e+00 1.000000000000000000e+00 1.000000000000000000e+00 1.000000000000000000e+00 1.000000000000000000e+00 1.000000000000000000e+00 1.000000000000000000e+00 1.000000000000000000e+00 1.000000000000000000e+00 1.000000000000000000e+00 1.000000000000000000e+00 1.000000000000000000e+00 1.000000000000000000e+00 1.000000000000000000e+00 1.000000000000000000e+00 1.000000000000000000e+00 1.000000000000000000e+00 1.000000000000000000e+00 1.000000000000000000e+00 1.000000000000000000e+00 1.000000000000000000e+00 1.000000000000000000e+00 1.000000000000000000e+00 1.000000000000000000e+00 1.000000000000000000e+00 1.000000000000000000e+00 1.000000000000000000e+00 1.000000000000000000e+00 1.000000000000000000e+00 1.000000000000000000e+00 1.000000000000000000e+00 1.000000000000000000e+00 1.000000000000000000e+00 1.000000000000000000e+00 1.000000000000000000e+00 1.000000000000000000e+00 1.000000000000000000e+00 1.000000000000000000e+00 1.000000000000000000e+00 1.000000000000000000e+00 1.000000000000000000e+00 1.000000000000000000e+00 1.000000000000000000e+00 1.000000000000000000e+00 1.000000000000000000e+00 1.000000000000000000e+00 1.000000000000000000e+00 1.000000000000000000e+00 1.000000000000000000e+00 1.000000000000000000e+00 1.000000000000000000e+00 1.000000000000000000e+00 1.000000000000000000e+00 1.000000000000000000e+00 1.000000000000000000e+00 1.000000000000000000e+00 1.000000000000000000e+00 1.000000000000000000e+00 1.000000000000000000e+00 1.000000000000000000e+00 1.000000000000000000e+00 1.000000000000000000e+00 1.000000000000000000e+00 1.000000000000000000e+00 1.000000000000000000e+00 1.000000000000000000e+00 1.000000000000000000e+00 1.000000000000000000e+00 1.000000000000000000e+00 1.000000000000000000e+00 1.000000000000000000e+00 1.000000000000000000e+00 1.000000000000000000e+00 1.000000000000000000e+00 1.000000000000000000e+00 1.000000000000000000e+00 1.000000000000000000e+00 1.000000000000000000e+00 1.000000000000000000e+00 1.000000000000000000e+00 1.000000000000000000e+00 1.000000000000000000e+00 1.000000000000000000e+00 1.000000000000000000e+00 1.000000000000000000e+00 1.000000000000000000e+00 1.000000000000000000e+00 1.000000000000000000e+00 1.000000000000000000e+00 1.000000000000000000e+00 1.000000000000000000e+00 1.000000000000000000e+00 1.000000000000000000e+00 1.000000000000000000e+00 1.000000000000000000e+00 1.000000000000000000e+00 1.000000000000000000e+00 1.000000000000000000e+00 1.000000000000000000e+00 1.000000000000000000e+00 1.000000000000000000e+00 1.000000000000000000e+00 1.000000000000000000e+00 1.000000000000000000e+00 1.000000000000000000e+00 1.000000000000000000e+00 1.000000000000000000e+00 1.000000000000000000e+00 1.000000000000000000e+00 1.000000000000000000e+00 1.000000000000000000e+00 1.000000000000000000e+00 1.000000000000000000e+00 1.000000000000000000e+00 1.000000000000000000e+00 1.000000000000000000e+00 1.000000000000000000e+00 1.000000000000000000e+00 1.000000000000000000e+00 1.000000000000000000e+00 1.000000000000000000e+00 1.000000000000000000e+00 1.000000000000000000e+00 1.000000000000000000e+00 1.000000000000000000e+00 1.000000000000000000e+00 1.000000000000000000e+00 1.000000000000000000e+00 1.000000000000000000e+00 1.000000000000000000e+00 1.000000000000000000e+00 1.000000000000000000e+00 1.000000000000000000e+00 1.000000000000000000e+00 1.000000000000000000e+00 1.000000000000000000e+00 1.000000000000000000e+00 1.000000000000000000e+00 1.000000000000000000e+00 1.000000000000000000e+00 1.000000000000000000e+00 1.000000000000000000e+00 1.000000000000000000e+00 1.000000000000000000e+00 1.000000000000000000e+00 1.000000000000000000e+00 1.000000000000000000e+00 1.000000000000000000e+00 1.000000000000000000e+00 1.000000000000000000e+00 1.000000000000000000e+00 1.000000000000000000e+00 1.000000000000000000e+00 1.000000000000000000e+00 1.000000000000000000e+00 1.000000000000000000e+00 1.000000000000000000e+00 1.000000000000000000e+00 1.000000000000000000e+00 1.000000000000000000e+00 1.000000000000000000e+00 1.000000000000000000e+00 1.000000000000000000e+00 1.000000000000000000e+00 1.000000000000000000e+00 1.000000000000000000e+00 1.000000000000000000e+00 1.000000000000000000e+00 1.000000000000000000e+00 1.000000000000000000e+00 1.000000000000000000e+00 1.000000000000000000e+00 1.000000000000000000e+00 1.000000000000000000e+00 1.000000000000000000e+00 1.000000000000000000e+00 1.000000000000000000e+00 1.000000000000000000e+00 1.000000000000000000e+00 1.000000000000000000e+00 1.000000000000000000e+00 1.000000000000000000e+00 1.000000000000000000e+00 1.000000000000000000e+00 1.000000000000000000e+00 1.000000000000000000e+00 1.000000000000000000e+00 1.000000000000000000e+00 1.000000000000000000e+00 1.000000000000000000e+00 1.000000000000000000e+00 1.000000000000000000e+00 1.000000000000000000e+00 1.000000000000000000e+00 1.000000000000000000e+00 1.000000000000000000e+00 1.000000000000000000e+00 1.000000000000000000e+00 1.000000000000000000e+00 1.000000000000000000e+00 1.000000000000000000e+00 1.000000000000000000e+00 1.000000000000000000e+00 1.000000000000000000e+00 1.000000000000000000e+00 1.000000000000000000e+00 1.000000000000000000e+00 1.000000000000000000e+00 1.000000000000000000e+00 1.000000000000000000e+00 1.000000000000000000e+00 1.000000000000000000e+00 1.000000000000000000e+00 1.000000000000000000e+00 1.000000000000000000e+00 1.000000000000000000e+00 1.000000000000000000e+00 1.000000000000000000e+00 1.000000000000000000e+00 1.000000000000000000e+00 1.000000000000000000e+00 1.000000000000000000e+00 1.000000000000000000e+00 1.000000000000000000e+00 1.000000000000000000e+00 1.000000000000000000e+00 1.000000000000000000e+00 1.000000000000000000e+00 1.000000000000000000e+00 1.000000000000000000e+00 1.000000000000000000e+00 1.000000000000000000e+00 1.000000000000000000e+00 1.000000000000000000e+00 1.000000000000000000e+00 1.000000000000000000e+00 1.000000000000000000e+00 1.000000000000000000e+00 1.000000000000000000e+00 1.000000000000000000e+00 1.000000000000000000e+00 1.000000000000000000e+00 1.000000000000000000e+00 1.000000000000000000e+00 1.000000000000000000e+00 1.000000000000000000e+00 1.000000000000000000e+00 1.000000000000000000e+00 1.000000000000000000e+00 1.000000000000000000e+00 1.000000000000000000e+00 1.000000000000000000e+00 1.000000000000000000e+00 1.000000000000000000e+00 1.000000000000000000e+00 1.000000000000000000e+00 1.000000000000000000e+00 1.000000000000000000e+00 1.000000000000000000e+00 1.000000000000000000e+00 1.000000000000000000e+00 1.000000000000000000e+00 1.000000000000000000e+00 1.000000000000000000e+00 1.000000000000000000e+00 1.000000000000000000e+00 1.000000000000000000e+00 1.000000000000000000e+00 1.000000000000000000e+00 1.000000000000000000e+00 1.000000000000000000e+00 1.000000000000000000e+00 1.000000000000000000e+00 1.000000000000000000e+00 1.000000000000000000e+00 1.000000000000000000e+00 1.000000000000000000e+00 1.000000000000000000e+00 1.000000000000000000e+00 1.000000000000000000e+00 1.000000000000000000e+00 1.000000000000000000e+00 1.000000000000000000e+00 1.000000000000000000e+00 1.000000000000000000e+00 1.000000000000000000e+00 1.000000000000000000e+00 1.000000000000000000e+00 1.000000000000000000e+00 1.000000000000000000e+00 1.000000000000000000e+00 1.000000000000000000e+00 1.000000000000000000e+00 1.000000000000000000e+00 1.000000000000000000e+00 1.000000000000000000e+00 1.000000000000000000e+00 1.000000000000000000e+00 1.000000000000000000e+00 1.000000000000000000e+00 1.000000000000000000e+00 1.000000000000000000e+00 1.000000000000000000e+00 1.000000000000000000e+00 1.000000000000000000e+00 1.000000000000000000e+00 1.000000000000000000e+00 1.000000000000000000e+00 1.000000000000000000e+00 1.000000000000000000e+00 1.000000000000000000e+00 1.000000000000000000e+00 1.000000000000000000e+00 1.000000000000000000e+00 1.000000000000000000e+00 1.000000000000000000e+00 1.000000000000000000e+00 1.000000000000000000e+00 1.000000000000000000e+00 1.000000000000000000e+00 1.000000000000000000e+00 1.000000000000000000e+00 1.000000000000000000e+00 1.000000000000000000e+00 1.000000000000000000e+00 1.000000000000000000e+00 1.000000000000000000e+00 1.000000000000000000e+00 1.000000000000000000e+00 1.000000000000000000e+00 1.000000000000000000e+00 1.000000000000000000e+00 1.000000000000000000e+00 1.000000000000000000e+00 1.000000000000000000e+00 1.000000000000000000e+00 1.000000000000000000e+00 1.000000000000000000e+00 1.000000000000000000e+00 1.000000000000000000e+00 1.000000000000000000e+00 1.000000000000000000e+00 1.000000000000000000e+00 1.000000000000000000e+00 1.000000000000000000e+00 1.000000000000000000e+00 1.000000000000000000e+00 1.000000000000000000e+00 1.000000000000000000e+00 1.000000000000000000e+00 1.000000000000000000e+00 1.000000000000000000e+00 1.000000000000000000e+00 1.000000000000000000e+00 1.000000000000000000e+00 1.000000000000000000e+00 1.000000000000000000e+00 1.000000000000000000e+00 1.000000000000000000e+00 1.000000000000000000e+00 1.000000000000000000e+00 1.000000000000000000e+00 1.000000000000000000e+00 1.000000000000000000e+00 1.000000000000000000e+00 1.000000000000000000e+00 1.000000000000000000e+00 1.000000000000000000e+00 1.000000000000000000e+00 1.000000000000000000e+00 1.000000000000000000e+00 1.000000000000000000e+00 1.000000000000000000e+00 1.000000000000000000e+00 1.000000000000000000e+00 1.000000000000000000e+00 1.000000000000000000e+00 1.000000000000000000e+00 1.000000000000000000e+00 1.000000000000000000e+00 1.000000000000000000e+00 1.000000000000000000e+00 1.000000000000000000e+00 1.000000000000000000e+00 1.000000000000000000e+00 1.000000000000000000e+00 1.000000000000000000e+00 1.000000000000000000e+00 1.000000000000000000e+00 1.000000000000000000e+00 1.000000000000000000e+00 1.000000000000000000e+00 1.000000000000000000e+00 1.000000000000000000e+00 1.000000000000000000e+00 1.000000000000000000e+00 1.000000000000000000e+00 1.000000000000000000e+00 1.000000000000000000e+00 1.000000000000000000e+00 1.000000000000000000e+00 1.000000000000000000e+00 1.000000000000000000e+00 1.000000000000000000e+00 1.000000000000000000e+00 1.000000000000000000e+00 1.000000000000000000e+00 1.000000000000000000e+00 1.000000000000000000e+00 1.000000000000000000e+00 1.000000000000000000e+00 1.000000000000000000e+00 1.000000000000000000e+00 1.000000000000000000e+00 1.000000000000000000e+00 1.000000000000000000e+00 1.000000000000000000e+00 1.000000000000000000e+00 1.000000000000000000e+00 1.000000000000000000e+00 1.000000000000000000e+00 1.000000000000000000e+00 1.000000000000000000e+00 1.000000000000000000e+00 1.000000000000000000e+00 1.000000000000000000e+00 1.000000000000000000e+00 1.000000000000000000e+00 1.000000000000000000e+00 1.000000000000000000e+00 1.000000000000000000e+00 1.000000000000000000e+00 1.000000000000000000e+00 1.000000000000000000e+00 1.000000000000000000e+00 1.000000000000000000e+00 1.000000000000000000e+00 1.000000000000000000e+00 1.000000000000000000e+00 1.000000000000000000e+00 1.000000000000000000e+00 1.000000000000000000e+00 1.000000000000000000e+00 1.000000000000000000e+00 1.000000000000000000e+00 1.000000000000000000e+00 1.000000000000000000e+00 1.000000000000000000e+00 1.000000000000000000e+00 1.000000000000000000e+00 1.000000000000000000e+00 1.000000000000000000e+00 1.000000000000000000e+00 1.000000000000000000e+00 1.000000000000000000e+00 1.000000000000000000e+00 1.000000000000000000e+00 1.000000000000000000e+00 1.000000000000000000e+00 1.000000000000000000e+00 1.000000000000000000e+00 1.000000000000000000e+00 1.000000000000000000e+00 1.000000000000000000e+00 1.000000000000000000e+00 1.000000000000000000e+00 1.000000000000000000e+00 1.000000000000000000e+00 1.000000000000000000e+00 1.000000000000000000e+00 1.000000000000000000e+00 1.000000000000000000e+00 1.000000000000000000e+00 1.000000000000000000e+00 1.000000000000000000e+00 1.000000000000000000e+00 1.000000000000000000e+00 1.000000000000000000e+00 1.000000000000000000e+00 1.000000000000000000e+00 1.000000000000000000e+00 1.000000000000000000e+00 1.000000000000000000e+00 1.000000000000000000e+00 1.000000000000000000e+00 1.000000000000000000e+00 1.000000000000000000e+00 1.000000000000000000e+00 1.000000000000000000e+00 1.000000000000000000e+00 1.000000000000000000e+00 1.000000000000000000e+00 1.000000000000000000e+00 1.000000000000000000e+00 1.000000000000000000e+00 1.000000000000000000e+00 1.000000000000000000e+00 1.000000000000000000e+00 1.000000000000000000e+00 1.000000000000000000e+00 1.000000000000000000e+00 1.000000000000000000e+00 1.000000000000000000e+00 1.000000000000000000e+00 1.000000000000000000e+00 1.000000000000000000e+00 1.000000000000000000e+00 1.000000000000000000e+00 1.000000000000000000e+00 1.000000000000000000e+00 1.000000000000000000e+00 1.000000000000000000e+00 1.000000000000000000e+00 1.000000000000000000e+00 1.000000000000000000e+00 1.000000000000000000e+00 1.000000000000000000e+00 1.000000000000000000e+00 1.000000000000000000e+00 1.000000000000000000e+00 1.000000000000000000e+00 1.000000000000000000e+00 1.000000000000000000e+00 1.000000000000000000e+00 1.000000000000000000e+00 1.000000000000000000e+00 1.000000000000000000e+00 1.000000000000000000e+00 1.000000000000000000e+00 1.000000000000000000e+00 1.000000000000000000e+00 1.000000000000000000e+00 1.000000000000000000e+00 1.000000000000000000e+00 1.000000000000000000e+00 1.000000000000000000e+00 1.000000000000000000e+00 1.000000000000000000e+00 1.000000000000000000e+00 1.000000000000000000e+00 1.000000000000000000e+00 1.000000000000000000e+00 1.000000000000000000e+00 1.000000000000000000e+00 1.000000000000000000e+00 1.000000000000000000e+00 1.000000000000000000e+00 1.000000000000000000e+00 1.000000000000000000e+00 1.000000000000000000e+00 1.000000000000000000e+00 1.000000000000000000e+00 1.000000000000000000e+00 1.000000000000000000e+00 1.000000000000000000e+00 1.000000000000000000e+00 1.000000000000000000e+00 1.000000000000000000e+00 1.000000000000000000e+00 1.000000000000000000e+00 1.000000000000000000e+00 1.000000000000000000e+00 1.000000000000000000e+00 1.000000000000000000e+00 1.000000000000000000e+00 1.000000000000000000e+00 1.000000000000000000e+00 1.000000000000000000e+00 1.000000000000000000e+00 1.000000000000000000e+00 1.000000000000000000e+00 1.000000000000000000e+00 1.000000000000000000e+00 1.000000000000000000e+00 1.000000000000000000e+00 1.000000000000000000e+00 1.000000000000000000e+00 1.000000000000000000e+00 1.000000000000000000e+00 1.000000000000000000e+00 1.000000000000000000e+00 1.000000000000000000e+00 1.000000000000000000e+00 1.000000000000000000e+00 1.000000000000000000e+00 1.000000000000000000e+00 1.000000000000000000e+00 1.000000000000000000e+00 1.000000000000000000e+00 1.000000000000000000e+00 1.000000000000000000e+00 1.000000000000000000e+00 1.000000000000000000e+00 1.000000000000000000e+00 1.000000000000000000e+00 1.000000000000000000e+00 1.000000000000000000e+00 1.000000000000000000e+00 1.000000000000000000e+00 1.000000000000000000e+00 1.000000000000000000e+00 1.000000000000000000e+00 1.000000000000000000e+00 1.000000000000000000e+00 1.000000000000000000e+00 1.000000000000000000e+00 1.000000000000000000e+00 1.000000000000000000e+00 1.000000000000000000e+00 1.000000000000000000e+00 1.000000000000000000e+00 1.000000000000000000e+00 1.000000000000000000e+00 1.000000000000000000e+00 1.000000000000000000e+00 1.000000000000000000e+00 1.000000000000000000e+00 1.000000000000000000e+00 1.000000000000000000e+00 1.000000000000000000e+00 1.000000000000000000e+00 1.000000000000000000e+00 1.000000000000000000e+00 1.000000000000000000e+00 1.000000000000000000e+00 1.000000000000000000e+00 1.000000000000000000e+00 1.000000000000000000e+00 1.000000000000000000e+00 1.000000000000000000e+00 1.000000000000000000e+00 1.000000000000000000e+00 1.000000000000000000e+00 1.000000000000000000e+00 1.000000000000000000e+00 1.000000000000000000e+00 1.000000000000000000e+00 1.000000000000000000e+00 1.000000000000000000e+00 1.000000000000000000e+00 1.000000000000000000e+00 1.000000000000000000e+00 1.000000000000000000e+00 1.000000000000000000e+00 1.000000000000000000e+00 1.000000000000000000e+00 1.000000000000000000e+00 1.000000000000000000e+00 1.000000000000000000e+00 1.000000000000000000e+00 1.000000000000000000e+00 1.000000000000000000e+00 1.000000000000000000e+00 1.000000000000000000e+00 1.000000000000000000e+00 1.000000000000000000e+00 1.000000000000000000e+00 1.000000000000000000e+00 1.000000000000000000e+00 1.000000000000000000e+00 1.000000000000000000e+00 1.000000000000000000e+00 1.000000000000000000e+00 1.000000000000000000e+00 1.000000000000000000e+00 1.000000000000000000e+00 1.000000000000000000e+00 1.000000000000000000e+00 1.000000000000000000e+00 1.000000000000000000e+00 1.000000000000000000e+00 1.000000000000000000e+00 1.000000000000000000e+00
6.118004840146282208e-02 5.516621490528885730e-01 -3.134302101558067433e-01 7.887767531383303998e-01 5.246744804871885659e-01 5.814106078480444362e-01 5.475473230836015448e-01 4.784007495309250402e-01 5.631567741771505986e-01 5.237282561025716765e-01 1.090156485327934410e+00 -7.537045454841359016e-01 1.434853071598944263e+00 4.744711818479359078e-01 5.232919583241031347e-01 4.418444649780829403e-01 8.064386605581879142e-01 9.786514520980610365e-01 7.533092813237757257e-01 4.978886185986273749e-01 3.834372343403438244e-01 1.001072942197642091e+00 3.524091080469365922e-01 5.845711819798041775e-01 5.622832873912912005e-02 6.538457724918067537e-01 4.556310542278090847e-01 7.249815736077587225e-01 5.243452908052242956e-01 1.666734101204654594e+00 4.845073997476244676e-01 5.970602894054207743e-01 7.185628640222994079e-01 5.139269366820522489e-01 6.810619320669826227e-01 4.698910929683828841e-01 5.995190317605099128e-01 1.903140940005044079e+00 -1.078424356922868949e-01 5.323496132667001612e-01 -2.534075162696156069e-01 -5.618337915720241771e-01 7.440462827350942110e-01 2.339394001321514760e-01 3.570770893716064265e-01 5.044320378559830065e-01 7.891284739915905844e-01 5.551930762612176107e-01 7.026786227383420291e-01 1.221755084488880538e-02 5.069038927442127973e-02 7.173427853503593354e-01 6.861209497779030553e-01 4.132941496062460529e-01 4.729127575558256247e-01 2.930972421467485309e-02 5.778854606487250356e-01 5.263326863868025285e-01 2.061743551829084142e-01 4.985555327544962112e-01 9.364629343318577881e-01 4.308902878772822853e-01 5.314772411442483246e-01 3.524092435455713490e-01 6.715512307503580525e-01 6.880933325020880398e-01 5.312907852893318239e-01 5.322388458703135594e-01 5.114057079746507917e-01 5.945307700629973158e-02 5.056461922208368431e-01 5.715229522441961363e-01 5.430889598689468967e-01 2.439419444383585447e-02 1.539893714123129254e+00 5.096718558279957900e-01 6.410837153152981749e-01 7.056843981786771192e-01 5.203144859300146141e-01 1.392083640656646581e+00 5.237138743146345643e-01 3.896526462142124170e-01 1.478270009057982559e+00 7.834286118213230621e-01 5.341328717779447732e-01 7.473848011254828894e-01 7.942483733275488289e-01 4.994188565876908070e-01 4.333820832379509103e-01 5.771302075371600449e-01 3.572009421701258236e-01 2.273357274600039890e+00 8.003563451748606505e-01 8.727207219166840946e-02 5.065764965489873983e-01 5.515280378496046909e-01 5.215372635575771243e-01 4.889571412484539636e-01 1.910174820681456165e-01 6.596724869251063827e-01 1.668678598372751898e+00 6.847617463224421330e-01 5.135567326791627973e-01 4.858088522384963470e-01 8.474332118395486724e-01 -2.197880719817586481e+00 -1.272672552841169979e+00 4.883569760258935633e-01 6.375854685750266260e-01 9.650381924641743270e-01 5.574887650497429847e-01 4.146278458149632029e-01 2.008011729430657644e-01 5.271971929843066729e-01 5.322834776116173172e-01 5.314511359287318326e-01 4.444481777915456067e-01 4.793485549316979788e-01 1.047652275306166114e+00 5.225417630551398851e-01 1.328657835652939712e+00 5.284815485123666168e-01 6.671820860105930340e-01 -6.176618585555054830e-01 5.169530681888157009e-01 1.999675761009873209e+00 4.495825513290183650e-01 4.929075742629983048e-01 6.597907582699881202e-01 5.284099299238609326e-01 5.952461459871113414e-01 5.182596840050868181e-01 4.505420736361354650e-01 5.947490415095531002e-01 -4.413312560677447038e-01 -1.707931168252798115e-01 6.935270844136331991e-01 3.703348551963103752e-02 1.018453873997575254e+00 4.858228220915004614e-01 5.399769753631785685e-01 8.817419836687042656e-01 4.253533426531100892e-01 4.735547565229505373e-01 5.211154174393294314e-01 1.894234865688385408e-02 1.010340272060372468e+00 -2.595005594296396212e-01 4.125764173331906148e-01 -9.513991076174829198e-01 7.378565758963977483e-01 -2.750548499634096200e-01 5.044238151955189320e-01 4.813082217385303285e-01 6.204154536927656283e-01 5.282480907186831720e-01 2.103444332565002295e+00 -2.079258982345329743e-01 8.367120251340963710e-01 6.423473800540536738e-01 5.750756237563405815e-01 5.104302674589914490e-01 5.021121815643256880e-01 5.217551154717467998e-01 1.056052887028950060e+00 2.975000571126540372e-01 8.511787140108566518e-01 2.749215052880967791e-01 3.566127181447247274e-01 5.719157488084879448e-01 6.667419798666039954e-01 7.870731357352263036e-01 5.044761584415707878e-01 5.219809662643958292e-01 4.014851559008816295e-01 3.989600589526573482e-02 2.453699553130958833e-01 1.255627046332775110e-01 7.642976020486954569e-01 1.144959456115776542e+00 6.376834040049865759e-01 5.219528208090904453e-01 -1.583860944191893272e-01 4.679669326296853615e-01 3.797306770783490659e-01 4.740117679926357241e-01 5.336318732856413227e-01 5.475325685993397418e-01 2.923824412477894263e+00 4.774794656603051357e-01 5.826932452459777645e-01 -9.481185852140150416e-01 5.231696529733874668e-01 4.919649837601421938e-01 2.110448656058760974e-01 5.155333526373601094e-01 9.537862848024187823e-01 5.324645955329715408e-01 3.521199010808956920e-01 5.657104675737403277e-01 6.328575074079499929e-01 5.497714403223343815e-01 7.894338489422034755e-01 6.027570739496609376e-01 5.432016054567545549e-01 3.521199259992431330e-01 1.638989393280430584e-01 1.310614779189029022e+00 5.138542612603583803e-01 5.598657657239670682e-01 4.176987902432888200e-01 -1.032629739902245075e-01 5.097582620150452604e-01 1.536226650978498032e-01 5.347792726183430156e-01 5.277495266235182614e-01 5.241455881245130621e-01 5.226936334421391495e-01 5.254165055973667453e-01 5.210771041797254144e-01 4.520091868885358632e-01 5.333437032542951428e-01 -7.315413083023357688e-01 6.349092717040292211e-01 5.381385934358675627e-01 3.370228471825654215e-01 -4.621057342087655367e-02 1.364865201113973248e+00 9.820423915170909401e-01 4.859263515165354042e-01 -1.009023135067045468e-01 1.076062971536676960e+00 5.227391276630956041e-01 5.175320433366644712e-01 6.793864534031972546e-01 4.027115814780760084e-01 2.080096759272993534e-01 1.506820577334755940e-01 -1.736695302923060014e-01 -3.838331333206120022e-02 6.084661966453041027e-01 5.324394891840215083e-01 -1.294646801486641075e-01 4.697981156876209208e-01 5.246710828389254955e-01 5.530629834282497770e-01 -8.772113082309923593e-02 7.692453884932234365e-01 -2.445231000266667731e+00 6.093788787501662751e-01 -7.178245301163630465e-01 5.032689834394268313e-01 5.177608544332494844e-01 3.524082518153927590e-01 5.180416258791310513e-01 4.834964708933991440e-01 4.912690569261936036e-01 8.036409078084836288e-01 5.822220647049878295e-01 1.709273822488828420e+00 6.853080413538268356e-01 6.639258470156579328e-01 4.507453620237890091e-01 4.533861062498580896e-01 9.364628913928964016e-01 5.435644754253370348e-01 2.792354405981866794e+00 4.417502409753579773e-01 2.113364141390892126e-01 7.903111936043090147e-01 5.220374768841700153e-01 9.370640103136672616e-01 5.205678119693033512e-01 5.595158292268577194e-01 5.214895748133363540e-01 1.188912111027080609e+00 7.578258886132386296e-01 8.516838360953475906e-01 7.893317250063489610e-01 5.901147806825383091e-01 6.895911091066857512e-01 5.118932622052546622e-01 3.650576425489573396e-01 -7.682275084110716801e-01 3.949964311970040609e-01 3.733990251808047001e-01 4.777061002544688018e-01 5.414818092770803393e-01 5.314511846964986574e-01 6.160386223750269341e-01 5.074543675773662832e-01 -9.876540523281831518e-01 7.888378256454838811e-01 4.693153678813724583e-01 -1.838201053258326292e-02 4.551394501219262478e-01 1.866930870248143748e+00 5.109192564059297226e-01 5.190889273189529529e-01 4.125635652942890030e-01 -3.575736129160165699e+00 5.253167067596227202e-01 3.045175478545989911e+00 7.874107727805076395e-01 5.398698419941949656e-01 -5.642218481517001782e-01 5.230421699026058802e-01 5.252107010093498562e-01 4.665099158702075699e-01 4.506174659957858375e-01 3.229385276515887027e-01 6.577318978558885920e-01 3.135083204471518781e-01 5.280930883277270560e-01 5.191567708068769438e-01 3.739306801373480926e-01 5.225343914344737772e-01 7.878537134607421777e-01 5.210834208559155245e-01 1.224767450666187640e+00 6.151644066561485352e-02 2.256867199598227014e+00 2.720113892259874433e+00 4.720267181593092443e-01 -2.529072208544783096e-01 3.840318472078673162e-01 3.999183076600073550e-01 7.493287129540956437e-01 1.413771970880715045e+00 5.280966267699045424e-01 1.143362086985962645e+00 5.229754279491061197e-01 1.169788029721898076e-01 1.266579477253100494e+00 6.202608434297931517e-01 5.770026518220572331e-01 5.420138389551533153e-01 9.094936439472396383e-01 -3.944406034001208372e+00 1.681024008825967808e+00 5.316857351172128432e-01 6.333477701667548088e-01 5.239286754751029118e-01 1.903140932392174633e+00 2.898961444352056716e-01 5.711008047458571157e-01 4.480351971718369852e-01 6.748390767977326954e-01 1.363993615220863376e+00 4.895797625278749399e-01 3.521196472190881166e-01 4.698037250935820919e-01 6.027570710181562319e-01 3.492040463644575654e-01 5.686026267138292178e-01 9.076056132450838199e-01 5.230712448534566850e-01 3.820506628522686299e-01 1.218809463753961070e-01 6.402167638721090182e-01 5.251011246933880994e-01 2.383744801179401851e-01 5.711008098829376545e-01 5.891065383575847525e-01 5.190451558396584897e-01 1.062125198654116698e+00 8.999063397408255671e-01 1.177188170940377088e+00 5.314125482896832064e-01 2.091106253238441404e-01 9.364622441347205672e-01 -1.103215131161980472e-01 9.346298222810250911e-01 6.308247602757569572e-01 5.694796251026402328e-02 3.811171500871260998e-01 8.392779585686067634e-01 3.821052293420421075e-01 4.623883613439556672e-01 3.537491028256220527e-01 -3.456012201963018504e-01 -2.574382524379124071e+00 5.734057949251709640e-01 6.027570502982378953e-01 6.027570316831194486e-01 5.135656451784342824e-01 3.353298158986818822e-01 -2.524438443796144793e-01 2.667389730792313896e-01 5.266981080421310191e-01 7.005326294086455796e-01 5.216989804812428577e-01 1.004173578597715055e+00 3.521196274677936833e-01 5.199724915975711959e-01 5.099892673142565336e-01 3.146788022730303558e-01 6.649181460641254704e-01 5.287757478556150970e-01 5.233316430610439607e-01 4.895305378318870471e-01 3.422901495898436619e-01 2.945011336893719328e-02 6.027570727790489968e-01 6.624950813725272170e-01 5.223308264703286907e-01 3.880805507001327537e-01 8.602042974517606355e-01 7.788242481600246014e-01 5.653102525841041670e-01 1.968185352372496588e+00 4.750600141801712417e-01 -3.293395586269879605e+00 7.888652380589930013e-01 1.565198800851884231e+00 5.618986702822189594e-01 -1.147015393227801772e+00 8.898313915070937830e-01 4.324535668077594819e-01 5.385386623545947993e-01 5.081074769285743864e-01 -5.086826869553140451e-01 5.198679968348296487e-01 1.084379276228434774e+00 4.486463902731490094e-01 -4.430842235673647100e-01 5.132833967581427181e-01 5.152614326407138901e-01 7.972729468111234841e-01 5.371735050623051011e-01 6.285563809211017761e-01 -5.646514496413292949e-01 5.595861592733156753e-01 5.219910743807439912e-01 4.485227000401092456e-01 5.100054841831801467e-01 7.733212261981791125e-01 5.223994136389787935e-01 6.348267341728000002e-01 3.382111267809024824e-01 5.427070313510650168e-01 2.042939020637261349e-01 3.634852912185825846e-01 3.957277431367706155e-01 9.819847868521527356e-01 5.640392299230243545e-01 3.305984275169371767e+00 6.527748762238018143e-01 6.754036889414208877e-01 5.379021989481225230e-01 4.952245546021772360e-01 1.001980399895737762e-02 5.010353375348365335e-01 5.541098403565244412e-01 5.444350779268242180e-01 1.150539068240333140e+00 7.733335549478673743e-01 5.109550273933136655e-01 4.338807489788406579e-01 1.120680690100886112e+00 5.314547510823999232e-01 5.190586841544025942e-01 5.058664347316458310e-01 8.925529648500046820e-01 5.156298023270746711e-01 9.568402705375892436e-01 4.641552995649901314e-01 5.207291332627304037e-01 5.905588763320129136e-02 5.192290452219614494e-01 2.772766239602164964e-02 2.617872184291190618e-01 3.945359262198371297e-01 5.467877411198994730e-01 7.964071286262529581e-01 5.218016342675221297e-01 3.816504618856605413e-01 1.638031305954538719e-01 5.087996327915141892e-01 4.958107204796711742e-01 4.432034359046830851e-01 -8.978436512548199425e-03 5.176553194359830856e-01 2.941639792962748579e-01 5.195417425841494241e-01 4.075957884171920731e-01 1.266277531473950502e+00 7.278474641569562253e-01 5.209997697094235214e-01 2.405847104081373089e-01 8.688657888726363243e-01 4.711733703381591476e-01 1.010594890246999000e+00 5.393809703794297805e-01 6.002177573935811861e-01 7.186930353884678491e-01 2.058421941442340142e+00 5.455211969346047685e-01 6.130884241466825202e-01 5.577697775786684131e-01 7.891497474302610060e-01 5.952635938766546175e-01 8.899109872939762189e-01 -5.951372459087892475e-01 4.684956416699701531e-01 5.235663943094550632e-01 4.544554181171026608e-01 5.405215828669542866e-01 -6.559754657108669562e-01 3.827315692097929545e-01 5.235346044899467088e-01 7.094662751509180909e-01 6.717914945364239498e-01 1.611908383727057581e+00 5.183488386915712232e-01 5.288345331716181041e-01 -7.552612036662452732e-01 5.318442470269062472e-01 1.266851006902625532e+00 7.370307610328046266e-01 3.089050283471166947e-01 2.151309819629676767e-01 -1.966840191701794360e+00 5.424257503510679923e-01 2.103912242757352835e-01 1.117867061345975355e+00 8.378173617213622304e-01 5.515355599128058950e-01 5.829224426857667618e-01 4.814381934013692299e-01 7.885546626681275706e-01 4.074835517332517920e-01 5.479529087495293993e-01 1.266713425109447337e-02 6.396990245835665334e-01 4.456989925522857332e-01 3.374094387880390844e-01 5.264690271909181485e-01 4.176294951451467452e-01 1.254371971161986510e+00 -9.074522917529317945e-02 -2.548853719314775335e-01 4.114298591222642631e-01 4.826308160709126827e-01 5.227397243706380925e-01 5.627498701061970365e-01 -9.134596527068821192e-01 3.268692525846873753e+00 4.198939424101192364e-01 4.344906465916325566e-01 4.787176229778116743e-01 5.259752607712192551e-01 4.990164890729002489e-01 4.360908438248523589e-01 3.332233708025724717e-01 6.288244135271019442e-01 5.211066275547742155e-01 4.460435000898050339e-01 2.928313264269764571e-01 4.199883986921528756e-01 5.292968728124097799e-01 4.046505232261282115e-01 5.859237900429671297e-01 4.997603599194285762e-01 6.979168302913294486e-01 1.037054652866339799e+00 2.373689610192819543e+00 4.651302769613478438e-01 5.043532608570016063e-01 2.865485257488633031e-01 4.818927876174866065e-01 4.139911324990427355e-01 5.230197668559768420e-01 5.277410356951295345e-01 4.753244904906644419e-01 5.901953487091761152e-01 5.915538453037529898e-01 7.882983986355011075e-01 3.653797404119004666e-01 3.822714779285947273e-01 3.801035446479061886e-01 4.543664951473742608e-01 9.641825990882448016e-02 9.364629105409283394e-01 4.223519970229723808e-01 6.481104623866516812e-02 1.916183082749306044e+00 3.568664260083492801e-01 4.025374279588400661e-01 6.027442821514585880e-01 6.865919869455398838e-02 5.510013878672639365e-01 1.552914593492871864e+00 8.193664873478916366e-01 6.418926109296699822e-01 5.216109959634526172e-01 5.080268256858005982e-01 4.029198381334688217e-01 5.719096614118114319e-01 5.437129582801384364e-01 5.193263180316191052e-01 -3.179642894670872133e-01 4.314677449095050132e-01 -1.712864804283116049e+00 5.606330220023841848e-01 5.385053689963830159e-01 5.332558278964163456e-01 4.125525607205010048e-01 9.364629105976461920e-01 2.381186714894843459e-01 4.924751178356265302e-01 1.400868603882298391e+00 -6.064180606625085845e-01 5.217082660603800104e-01 1.175795172927052379e+00 1.601703295530495286e+00 6.034501394010491904e-01 5.253455304214480481e-01 -7.596592853530835521e-02 -1.761753631440709622e+00 2.611362208877466839e-01 8.770451946163008161e-01 5.460611002622820509e-01 5.235589193339474923e-01 6.069456035555229612e-01 4.766006325775322128e-01 -4.452951822950250715e-01 8.522179720768472411e-01 5.314506270236026841e-01 3.229541611337441998e-01 5.237355601181007403e-01 1.308796850172531251e-02 -1.583856081372139457e-01 1.871190332920446675e+00 4.080090503386567535e-01 4.510032317084240461e-01 5.184083394531301403e-01 3.146799063431702792e-01 4.414984147773678980e-01 -1.955436811876062331e-01 -1.484948750884780067e+00 5.264012046483460550e-01 5.011620805686887170e-01 5.740492491658414353e-01 4.675658861308574221e-01 5.328263213751124328e-01 5.473489743049105849e-01 5.347813944481896176e-01 5.448576067560974012e-01 1.047348708809279438e+00 6.977837338412775647e-01 5.323384296106140612e-01 6.591882678164381337e-01 5.566413598649523342e-01 5.939931585732804997e-01 6.974116752110710860e-02 5.711008481703752082e-01 4.372183508751160685e-01 5.796863722773657468e-01 7.284996359820462564e-01 7.647797326345632252e-01 8.899312817173223866e-01 -5.824428050463793527e-01 5.345049707842428610e-01 5.366844802680118542e-01 5.177793590418320324e-01 6.002192889708991563e-01 9.193419202364470078e-01 4.275472266985738123e-01 5.230610644192477121e-01 -3.487623754264483900e-01 -9.310800185491706626e-01 2.390248084721215527e+00 5.354840748485748536e-01 9.139724658377673672e-01 4.431154934492689823e-01 5.875869852805546412e-01 4.195682841886426706e-01 1.546701418445989851e-01 5.187488804920078467e-01 5.100542509767428401e-01 1.634514756390948939e-02 5.193865556290233609e-01 4.840205972138978963e-01 5.174520079204771861e-01 3.870020900577978984e-01 5.313306568961958520e-01 6.596048102079280495e-01 4.468457357729600510e-01 4.761539020420555990e-01 5.553881274939428403e-01 5.241519307555524421e-01 4.255932567934482269e-01 5.063321920549623822e-01 -2.275551575271581584e-01 5.224363691163781409e-01 6.403487447250967302e-01 5.025464318074100989e-01 7.890482976452183328e-01 9.364631357868945516e-01 7.203456846304202577e-01 -6.343002845239841259e-01 9.709801829377530114e-01 1.903140940043948737e+00 5.232533688321824306e-01 4.636963607262814535e-01 1.098240848446366824e+00 5.223403185820960637e-01 7.892117138146493849e-01 5.164771019024694265e-01 1.931387633763806511e+00 5.239150893391072428e-01 4.697989619844537001e-01 1.239749487765007707e+00 -7.150003317065596609e-02 5.309459333065886799e-01 -1.466348747853696288e-01 -1.014487964209816351e+00 -1.583264979465084654e-01 7.832403361316261359e-01 5.086684042072843193e-01 5.417828163609799130e-01 -3.093013619867602815e-01 4.999322278585001111e-01 3.578075055111491071e-02 -4.422244445119372092e-01 5.537123864276173313e-01 5.059433557758989952e-01 5.219856195816563460e-01 5.157792504613574192e-01 4.687522156611341195e-01 9.272779692985142486e-01 -4.743629586752207139e-01 5.219761542003873434e-01 5.138274212870078683e-01 4.935045173296276344e-01 1.185281651293034200e+00 4.703044190490648924e-01 7.234824523360471327e-01 5.189738842423490262e-01 4.369296418991929637e-02 -5.081262136913160532e-01 4.786157768392343415e-01 4.726026446007642878e-01 6.846099717765594672e-01 5.144897552676280794e-01 4.095570669779327044e-01 5.267599822658491915e-01 5.223478086042849799e-01 4.544238839690143972e-01 5.284211345516595104e-01 8.427796481773037751e-01 2.636043288421243691e+00 -2.579526295794155044e-01 6.496801834759096117e-01 3.843912714426480082e-01 1.937940965770082735e-01 6.364536784748212606e-01 -5.095220686046879333e-02 -1.645840532096529252e+00 5.294150345082561104e-01 2.699825146514590379e+00 5.635110385267203537e-01 1.828762186571992188e-01 1.432418378249868396e-01 5.314511877518416361e-01 5.973685389892797737e-01 1.609669442753175250e+00 5.379385705560388864e-01 1.254325165657554086e-01 4.013961014571368335e-01 1.779383901269100621e+00 5.451567267960298890e-01 8.187700174661577401e-01 5.235016451160732220e-01 7.374954372083715182e-01 4.718591887878199054e-01 5.888441262144822330e-01 3.450958135832046803e-02 5.194834900933533728e-01 6.201785548138198934e-01 -5.952676932165750223e-01 -1.345833640515933793e-01 1.189611274239047223e+00 2.433084123278624056e-01 4.758264009407939255e-01 7.350523828552226746e-01 5.095861773882109924e-01 2.041589841840209640e+00 6.316347314891991305e-01 9.813675457678429012e-03 4.412155763306283562e-01 4.090617801347771754e-01 1.165362592136724995e+00 5.070274035287093417e-01 -1.350159046946134214e-02 5.172291482889025405e-01 1.185901453171959215e-03 5.027421516034122906e-01 5.226435926460574199e-01 3.409059103938105739e-02 1.436106725472360282e-03 6.556651597842045875e-01 4.413158090813480428e-01 5.771862537694861794e-01 1.413424339387591433e-01 3.953347582924628956e-01 5.105201347790586652e-01 4.239435941683198927e-01 5.065816024950537955e-01 4.814896978246477888e-01 5.548253353168878244e-01 1.025014015380039112e+00 3.229851560309048963e+00 9.850831793904568645e-01 5.111108709994471866e-01 4.924336213378807670e-01 2.224114080859859455e-01 5.208948821776121507e-01 8.690700422373999201e-01 5.206075394101947751e-01 1.317341348804560663e+00 5.469704091018787739e-01 -6.075293395056053924e-01 -2.164448419566847998e-02 4.588863631429414558e-01 6.181272098040794249e-01 5.828185987948923952e-01 5.243199103371911640e-01 5.183224535049987119e-02 5.248375275552678021e-01 6.281401940612032497e-01 -3.971930644156238532e+00 4.783258625588786006e-01 5.395048600226396429e-01 1.150401607471464915e+00 5.156538492926986406e-01 3.665571864231573773e-01 6.516654972765680842e-01 -9.380843724685222762e-01 -4.939671669671153453e-01 1.116913912844347094e-02 5.236946314190161766e-01 6.674473711579151924e-01 2.061964487744858687e-01 5.099876123660435079e-01 -3.535291035688485350e-01 5.055038045765227750e-01 5.840982871792065323e-01 6.980396730261815286e-01 5.634403305704974718e-01 4.633985925382131943e-01 1.356110855483131095e-01 -8.106046487328602002e-01 6.517253983511243076e-01 5.329788924839415909e-01 1.498280986662230418e-01 5.178696139111571561e-01 4.782821867328438392e-01 5.342686879967061264e-01 6.552755071089361172e-01 5.874669318560875597e-01 5.558863590453392289e-01 5.070435047268286866e-01 1.903140939963954503e+00 3.410516527944396636e-01 5.164774573536562441e-01 -1.503598306150887853e-01 4.942898252338244758e-01 6.545864358225588209e-01 5.000945450263368786e-01 4.749074869073278138e-01 3.972785343021197346e-01 9.734904999331198683e-01 1.243759205746298502e+00 5.512343043529017717e-01 5.453439761994125501e-01 5.973326228675818195e-01 5.182758582326643104e-01 5.227224574372940635e-01 5.223125532738098764e-01 9.709251772005917935e-01 6.439590718358306765e-01 -4.726890357208307081e-01 4.752627810698872302e-01 8.912911915723044087e-01 5.134763048451751466e-01 -5.336667920838558676e-02 5.182219725869056104e-01 1.634690885594169085e+00 -1.364826357777451094e-01 6.951038520386036978e-01 2.272843819927411468e-01 5.235853614699647052e-01 8.962501002832924391e-01 5.201777362687638462e-01 3.778919260785762457e-01 1.421642683022695808e+00 4.735419533020580052e-01 5.077961816227023473e-01 -7.514467968643797624e-01 4.349571638308796784e-01 1.037140719119131527e+00 6.393858539823777942e-01 5.916647382984686204e-02 1.010142325135512387e+00 2.952678029807359085e-03 7.880950594980417057e-01 1.689296806114798821e+00 -8.752661600128485153e-01 5.256221509303566908e-01 5.209115492745928222e-01 -5.009340384689029424e-01 3.020933255740245182e-01 5.089061927942565289e-01 5.398477741726094292e-01 4.518968119701042285e-01 4.918267681853697448e-01 2.623773172744531812e-01 3.571503136511564591e-01 5.310078891656467848e-01 5.242099987489640123e-01 1.066093689223620265e-02 -1.948617795357704685e-01 5.355638393860999713e-01 1.073435707516778859e+00 6.009430103803472534e-01 -5.956235287911137988e-01 4.122573153967146742e-01 5.230229404304495011e-01 5.732129339450598993e-01 4.877791363328395219e-02 3.221766291851243524e-01 5.259573598237751169e-01 5.284569745480924841e-01 4.573292120950483430e-01 -1.513968302755850683e-02 5.294413966445058461e-01 5.436795752398788650e-01 5.232457974694604275e-01 2.129384084270270705e+00 -2.710967636635626399e-02 3.928118549574487472e-01 5.184233626211492973e-01 1.878178634058678131e+00 5.044645419809752340e-01 5.841384549231111167e-01 3.919015382513877516e-02 5.711008610208608838e-01 5.244529779395207258e-01 4.782159527078498895e-01 4.309222992303711752e-01 5.340852516303815634e-01 4.849866704586749400e-01 5.292893055239038524e-01 -5.861599885836102919e-01 5.262203137652946561e-01 5.300362194958485595e-01 5.199831302354618323e-01 1.380265236949052232e+00 5.149077033354285682e-01 -2.527364841777581250e-01 1.164509452689841185e+00 -1.363626103575605431e+00 -5.631834438161614775e-01 4.847727325339678539e-01 5.216446917357820956e-01 6.738700102335947184e-01 5.448885084634872422e-01 5.646263706455658671e-01 5.101250433686798091e-01 5.711008038547645826e-01 5.199366852559557106e-01 5.768796269806945043e-01 6.141612606098437732e-01 5.244631529783823076e-01 3.396657578395081978e-01 5.291904412145393977e-01 5.309698270541963749e-01 4.283655351064160621e-01 5.172208790838294101e-01 5.180337984670576601e-01 5.007867874417734066e-01 6.457052376294716289e-01 5.233213384884469743e-01 7.406297243249331252e-01 5.340288315810909348e-01 5.224262647272381876e-01 5.333655247964981250e-01 4.591321348439222905e-01 3.253083281128266724e-01 2.529202833750551438e+00 5.657443834457841492e-01 6.502106553089113117e-01 2.994935381684445952e-01 5.716127274136635350e-01 1.129152513629452681e+00 4.324054904759568330e-01 6.791812750213442884e-01 5.227799122507017504e-01
7.133034832697208172e-01 2.892838002330541114e-01 4.670936504954130708e-01 -5.557519654107922341e-02 3.046054828584398577e-01 4.313602314793421599e-01 5.420752536874295924e-01 3.482970007720899708e-01 4.109241639542325908e-01 2.881360474041811948e-01 2.108508676011293215e+00 1.755298795369015563e+00 -1.502557925797016525e+00 5.512657878019395774e-01 3.107623678153463298e-01 4.706131955710066150e-01 1.423671200298615436e-01 4.594618529231168647e-01 3.771885696855135639e-01 3.210843359234825112e-01 3.649385179211993013e-01 2.188090208662179403e+00 3.254013669217625249e-01 3.219134101597488917e-01 7.691931090132322346e-01 -1.309487993183180432e-01 3.659285853830885893e-01 1.691577358365108363e-01 3.792282948150860755e-01 -9.710513135192661016e-01 4.709205413730657153e-01 -1.769024180307555705e-01 2.901325500925230894e-01 2.732307928186561985e-01 -3.978219408642957866e-01 5.107595920313944271e-01 3.287794222311157810e-01 -4.236666266793292501e-01 -3.373231263795609003e+00 2.950567538147338964e-01 1.239377822294387643e+00 1.500255942532712494e-01 -1.713922844080054964e-01 7.908806112893709273e-01 4.959742577485250492e-01 2.991645227247660688e-01 -5.602922098291268638e-02 3.302631707093277580e-01 8.353279776791051880e-02 6.626079088029839248e-01 7.008722606163398927e-01 5.203822452297224288e-01 -8.491621422833908750e-02 2.708583226296470414e-01 5.684044371776871829e-01 6.836045545405328161e-01 2.639488854137871932e-01 3.400594402243488079e-01 3.438953171287119637e-01 2.804144771122174529e-01 4.401386173815071134e-01 4.189504922504396212e-01 2.975527910720190405e-01 3.254013527728341626e-01 -3.346746885738852151e-01 1.034567085787894414e-01 2.889515482991485973e-01 2.995063052004804938e-01 3.322759726060141583e-01 6.785774728112280441e-01 2.266392841940884639e-01 2.743413914750815752e-01 3.101446911654567318e-01 6.978808104000875367e-01 1.973068386997813173e+00 3.334168429434887782e-01 4.835091167830543601e-01 4.837470162689585518e-01 3.034588803733543338e-01 -1.377748294299822041e+00 3.222612852643351178e-01 4.764828313494689493e-01 2.469177644487345891e+00 5.454530172231265156e-02 2.331211158339106526e-01 -3.143539040540113128e-01 1.575364423311993445e-01 3.858715599243078276e-01 -5.908708523829557802e-01 -9.338299743189606428e-01 4.961517993274562333e-01 1.645287586162639260e+00 4.132152054719579609e-02 6.856226139515709805e-01 3.631241914163053641e-01 3.645165734003195102e-01 3.116215503700688338e-01 8.090617891022817698e-01 7.353241906069730716e-01 -1.208998088074040994e-01 -1.890469330043070828e-01 5.938651388434830480e-02 3.473490976893062743e-01 2.465377074081108733e-01 -8.799119804210628337e-02 3.232969699222686621e+00 -3.035033063258113506e-01 4.332557638527210764e-01 5.522311352206350082e-02 8.136147728270957113e-01 3.118198501487905450e-01 5.573096681017003506e-01 1.630522478909928463e-01 2.802706508418257858e-01 -4.630397520666155731e-01 3.505438407548269186e-01 3.446865348942176194e-02 3.317528875487251727e-01 1.274859939100160044e+00 2.986370998251618447e-01 -1.498813873394586382e+00 6.924626454570567691e-02 3.438070427104882726e-02 1.562241076061749334e+00 2.953871602272078456e-01 2.241096611127300076e+00 4.217299516888593502e-01 2.138577447311999780e-01 3.231593588932165639e-01 2.973038151135261042e-01 3.444635356963381967e-01 3.012414783537004093e-01 6.605452292635438649e-01 3.686742347877789983e-01 1.505765890301866694e-01 8.461367808669337798e-01 7.389452570317840419e-01 6.913370425721312440e-01 -3.461503347113978890e-01 2.732247622538495624e-01 3.491493750885111824e-01 3.224631724916716680e-01 3.727981399799281670e-01 3.368869492497510443e-01 3.003050038050014137e-01 6.999900168155677171e-01 -2.066449731562894354e-01 3.197459032879883534e-01 3.933347366323107219e-01 4.076514794102084061e-01 -1.536183325097583707e-01 3.353849132635983166e-02 2.991686150357140694e-01 3.425323864223769887e-01 2.547932309661518624e-01 2.978649061783505969e-01 -2.620695896127700486e+00 4.805283974854352991e-01 -6.201920927176333143e-01 -1.174562837671467436e-01 1.118155710102192724e-01 4.485641412014085838e-01 3.121328851678831229e-01 3.040804419095003985e-01 1.402300365119721337e-01 1.508605267844542741e-01 3.237965932530955104e-01 5.149977936317179372e-01 5.116121957921091479e-01 2.463365005022812582e-01 2.814862639605240635e-01 -5.770698608864868739e-02 2.991869772996793020e-01 3.044562765164328111e-01 -2.575435771917763628e+00 6.621104485128103123e-01 5.413414889238916672e-01 9.090695084707850482e-01 -4.640832761611290436e-01 1.176988562892921975e+00 9.266293997725938425e-02 2.976380431896419321e-01 1.255359566810567706e+00 4.062339869202198361e-01 3.225329312993236441e-01 3.872847495495936321e-01 2.703607726634981168e-01 2.893442636633918874e-01 -5.212829463620081150e-01 3.828435426226955429e-01 3.954610511505918247e-01 8.353191413102708518e-01 3.437884611677926583e-01 3.538723261490103744e-01 2.625777104840236187e-01 3.033487424936758270e-01 -1.735684182293517397e+00 2.904397087960954860e-01 4.008563646020221749e-01 2.219392217243246479e-01 1.386840093871102506e-02 3.647975903810719567e-01 3.922604132767557039e-01 1.637907890903351482e-01 -7.347527009234842144e-01 4.008563795331178126e-01 5.106278466897978818e-01 -5.344699926821612213e-01 2.946021047322354702e-01 3.073750480504575111e-01 2.154146019383315624e-01 -3.368354445468964009e+00 3.753160192535647810e-01 8.976068288405995022e-01 3.162965897855751218e-01 3.078188556247785646e-01 3.008445686219013981e-01 3.088404775387853518e-01 2.981537965158297387e-01 3.010780981499646680e-01 3.951889837705208630e-01 7.586796501999633346e-02 6.790411382715439981e-01 1.211164035772787084e-01 3.701284051557979793e-01 5.577822401322957147e-01 4.239515993524003989e-01 -7.376031257494911619e-01 2.382023289371378638e+00 4.212872023505240260e-01 1.264385140260742668e+00 -1.413981810909977099e+00 3.067837842385957026e-01 3.220312896934766633e-01 3.307527342953455740e-01 1.214441139798248193e+00 5.388450078394749765e-01 8.542972129647956603e-01 2.933858545649175031e-01 6.626809890935887459e-01 1.991731633009010127e-01 3.336213260061757224e-01 -1.215563363163262078e+00 4.081946892367759316e-01 3.031789255062015132e-01 5.094732004272700676e-01 8.569235569464390689e-01 -4.001095433852331906e-01 3.296430221110691061e+00 4.895203727211618339e-01 1.348337736532113862e+00 -3.743463148143845176e-01 3.034409790364675508e-01 3.253989154294013031e-01 3.543039486432575380e-01 3.357700655966543435e-01 2.046412574054017608e-01 -1.789596896249203983e-01 6.846327020886427972e-02 5.634663511585323858e-01 2.153523798771995734e-01 1.156770811708781321e-01 2.499637043531340863e-01 5.289995525988355762e-01 4.401386520267200342e-01 2.811776891695572655e-01 3.367407173449820323e+00 3.170921727891656827e-01 6.485766636128416085e-01 5.039455213430932279e-01 3.656578656220349499e-01 4.396907089641501343e-01 3.039297244005472187e-01 2.976397111818547270e-01 3.031407809565548339e-01 -6.733010897017953633e-01 3.857655682105954331e-01 2.849197511186774556e-01 1.536643475768923739e-01 3.611966050267018669e-01 1.574740376210536308e+00 3.197173305788849618e-01 3.384418360286164384e-01 2.027437244665473592e+00 5.199041581655691191e-01 3.477680299260694219e-01 3.366644592486977006e-01 3.044738809993032813e-01 3.505422992111642544e-01 -2.090285027866394252e+00 3.431473333396228287e-01 1.652582479390168668e+00 -1.212141642211818499e-01 3.494256143790214209e-01 6.464919892791985978e-01 3.417989789614770402e-01 -7.404750933952146674e-01 3.220205068508454338e-01 3.076578644173268429e-01 3.932983461037994899e-01 -4.157687066728119052e-01 2.915828784470627100e-01 -2.463013329016631392e+00 -5.739563110328706197e-02 2.870568351227036352e-01 5.931431132925042427e-01 3.036663952906189512e-01 3.094075077023124010e-01 4.981948806830040488e-01 1.522863775600862279e-01 -5.430884354357440325e-02 -7.869339814880657036e-01 -7.815303340776184188e-03 6.867070791667262419e-01 3.112342020888124172e-01 4.850887095757361323e-01 3.098767232165988705e-01 -5.670988824535778267e-02 3.074880297760032022e-01 2.516299717018998461e+00 6.917597997690074774e-01 2.474741885117151263e-01 -1.206417392536741628e+00 2.567521146063956872e-01 4.881200481800667568e+00 4.354328759585039954e-01 -2.192411189268810290e-01 5.730920318938069746e-01 -5.794726508821129940e+00 5.454690742368231149e-01 1.609279310184621892e+00 3.015494978555912642e-01 5.162894459942947156e-01 -4.634654988274560239e-01 4.032275696983126378e-01 2.174707301280894012e-01 3.586967271859659578e-01 2.006503336276820315e-01 3.050811136483534636e+00 -3.920251495438059064e-01 3.172874208336465829e-01 -1.958444071976932932e+00 2.995487842320806449e-01 -4.236666241008277267e-01 7.666282480438686431e-01 4.675019318288263781e-01 2.620742882536525320e-01 2.911982108359418842e-01 1.253605926988160091e+00 1.697716304055185144e-01 4.008564286331813831e-01 4.081883846682915484e-01 1.637907907210363889e-01 4.190345846328344948e-01 3.786360603392915358e-01 -6.346025152857145413e-01 3.047503583358469048e-01 5.650405333270989150e-01 4.158446543363015779e-01 1.938790778532379355e-01 3.003894058161367675e-01 5.204939676069740839e-01 4.675018309441821285e-01 5.346341692977782944e-01 3.064541388678458378e-01 1.515591346730546241e-01 3.507498949219142181e-01 3.604689193687323101e+00 2.692629112844020511e-01 8.652355281486620586e-02 4.401395986817159267e-01 8.300253328297668709e-01 4.710999833242872081e-01 -1.905361642803103384e-01 6.974599585880103536e-01 3.373980916084373671e-01 1.351116633273204692e-01 4.351893094710698739e-01 6.850500940825062779e-01 4.879942437527687860e-01 8.069520065760162897e-01 8.294130156931335263e-01 1.817999078684028602e-01 1.637907511176172060e-01 1.637908513351551965e-01 3.413547409984438175e-01 2.658469017962012404e-01 1.119280170214011827e+00 3.768959402473917586e-01 2.897736573729131071e-01 2.348005235717919581e-01 3.013806409987266344e-01 7.305098548986267426e-01 4.008570064282018230e-01 3.037687106048481134e-01 3.833042768668670219e-01 1.695923714424470430e-01 -6.479572024611943704e-01 3.058824319845608319e-01 3.034520430113893941e-01 3.282435912027635849e-01 6.482156460716715918e-01 6.377870525802712409e-01 1.637907841473814630e-01 1.740288710447716047e-01 3.029804748772323975e-01 5.191657916714383925e-01 -5.993136541049081112e-01 1.662575712337541756e-01 -3.640650513881988015e+00 2.078928095368701712e+00 6.166442424597191607e-01 -5.021402950202714655e-01 -5.544075893387026555e-02 2.115849605365329289e+00 3.280441495372044547e-01 6.600198443537291793e-01 -9.126922171626339342e-02 4.286753599187784758e-01 3.733517440506761154e-01 3.176193256190573133e-01 -6.049912197670221925e-01 2.990105130333965966e-01 2.122506025901170101e+00 1.863523903643357349e-01 -4.879642266639013237e-01 2.855653992119397411e-01 3.000295195746068844e-01 -1.481660694596065975e+00 3.431905924522201667e-01 3.743252639062173981e-01 4.038422577187099072e-01 1.012285961215824148e-01 3.100889865541764934e-01 2.406474466552382674e-01 2.719620860337167434e-01 -1.619480646184499883e-01 2.897331046149462797e-01 1.211477914846831733e-01 3.012398098567617977e-01 3.098808911430392388e-01 1.385753069553257409e-02 3.497550614087180931e-01 4.468847659264680305e-01 -1.452654419341153469e+00 -7.337190798915531609e-01 -1.251501748565695682e-01 1.786063181160802149e-01 1.097330645507815228e-01 4.394306240360792426e-01 3.490919209526723854e-01 6.988754737960737318e-01 -1.473108526503621174e-01 3.234335184293268273e-01 3.093786111445187004e-01 9.793170955197641470e-02 -1.617238477301238819e-01 3.380114490946248273e-01 4.546630438277521336e-01 4.802110330239959257e-01 3.240004277685905043e-01 3.105791557193579577e-01 3.003552884622622821e-01 2.389999442522587336e-01 3.049393067768147447e-01 4.685935162218032302e-01 2.083311155075079080e-01 3.037112178178716371e-01 6.969503237930138040e-01 2.868331150478775626e-01 6.907801410466392067e-01 -5.947836747263058471e-02 6.031312767303915745e-01 3.242031620543848192e-01 -1.490118352360813248e+00 2.974930118100960752e-01 6.175759711722275114e-01 3.341203262614808045e-01 3.386274652208455804e-01 3.774234027669302050e-01 1.559029857484967863e-01 6.893481605198666928e-01 3.026175671028135117e-01 4.447911482906468095e-01 3.019989658483318018e-01 2.705835494649253548e-01 1.638823806541261918e-01 4.523749844317425106e-01 2.987556762810345545e-01 1.315123050105905245e-01 -1.632389744729191572e-02 1.463213725801422449e-01 1.692685016177595481e+00 1.486697333250100450e-01 3.086839979211589702e-01 3.972773344212651159e-01 -8.852719396441536270e-01 2.779192338182836508e-01 2.197268795884270987e-01 2.174483617931489976e-01 -1.211268956754896070e-01 2.590974655673281557e-01 1.766307610821114205e+00 8.989788902219819633e-01 4.779280543010386850e-01 2.657683036618820882e-01 2.965102312768136961e-01 3.438842185832896581e-01 9.435087553691747786e-01 3.137302704721785407e+00 3.075003798815649780e-01 4.316391879354874658e-03 5.797891252482474389e-01 -2.670719278739051572e-01 2.993213861722103797e-01 2.972699860814662642e-01 1.100639441325564682e+00 2.894093418599910095e-01 -3.603496489054189844e-01 3.984270758563588366e-01 1.483750928502944044e-01 5.984510532905488178e-01 1.926991829764249209e+00 2.906101393611281725e-01 3.002848136922144362e-01 1.685296363239080275e+00 3.821592281271296021e-01 2.843908215034148257e-01 1.446020628137408837e-01 1.525914916360871232e-01 -5.587992927886508560e-02 5.266850850804086770e-01 2.492757099068035609e-01 6.981982575832769156e-01 2.903969688699505891e-01 1.909782511865537602e-01 3.420752352210895131e-01 2.715328022282547105e-01 4.644813874306562007e-01 2.680161822509227743e-01 8.620061751575376352e-01 5.238355442028621578e-01 5.279503448678315447e-01 3.821664554314518902e-01 2.735145732909135541e-01 3.126120489022992666e-01 5.969850616250691466e-01 7.856506401717914256e-01 3.764222845404497919e-01 3.487167764825634397e-01 6.467100007551832563e-01 3.033266028165345629e-01 6.712048003020532061e-01 3.843784471121093893e-01 4.947029253652753811e-01 -2.958081783761909445e-01 3.020122692512988150e-01 3.215141853221817891e-01 4.687371424204967996e-01 1.810854078179875426e-01 3.648031544377394741e-01 1.857219190556664179e+00 -3.162932319759193672e-02 3.874050294263194361e-01 -2.446413008442650250e-01 1.719046334784217755e+00 1.173282611011250420e+00 4.387681151895270193e-02 -4.284864667595932319e-01 4.602039400914987310e-01 2.417478388914106602e-01 4.550802339219635062e-01 3.043836470510548065e-01 3.014633447069290373e-01 2.571147851475929502e-01 3.250947298666225782e-01 2.444896414088348069e-01 -5.529268700349208171e-02 -2.507866937041728916e-01 2.805141478648184306e-01 2.013927012002726114e-01 2.753998457482766393e-01 8.923907227355465377e-01 4.401386356288481405e-01 3.235107673562090391e-01 8.689431917722758580e-01 4.746914047238617873e-01 4.958646178874834831e-01 4.313016674999300415e-01 7.047971123068239585e-01 1.493908492137538069e+00 4.090678146116338842e-01 2.156588376923745276e+00 -1.583179165321952145e-02 1.685065886312019645e-01 3.035645451377608217e-01 3.461755686751235017e-01 4.017055717049047292e-01 2.463091807195003091e-01 2.925134032679094220e-01 3.013599135890990266e-01 3.763291643380143325e-01 2.509851826466050762e-01 -3.834719567092125247e-01 3.389464961558050771e-01 -3.861073958721539939e-02 3.161319186590529906e-01 3.932288970506638281e-01 4.401386356891136553e-01 2.477361970081951303e-01 2.649358043925967854e-01 -1.338106485201068452e+00 2.011637794031526205e+00 2.998789580298006907e-01 -7.819931636578145717e-01 2.965382101729174269e-01 3.433339568132988684e-01 3.059306583833289461e-01 -4.935785556125066087e+00 3.633715720251333714e+00 6.408288646251203424e-01 -2.030174129286996948e-03 3.231271651493753394e-01 3.051344000376566279e-01 2.413847527609240540e-01 2.696159328175572689e+00 6.375575780797541059e-01 3.196521385077615851e-01 3.505437843361480788e-01 3.317718775579711621e-01 3.146144180289088266e-01 8.483736533804092650e-01 -3.696990291642091031e-01 -1.264639777465093706e+00 -1.259160911561357343e+00 2.933886409477303725e-01 3.029774378047934147e-01 7.532678403810120216e-01 3.436677016485290559e-01 1.577079199414989530e+00 5.019363031142168863e-01 3.009221186249899649e-01 3.344517444850604870e-01 3.038902785150275898e-01 3.241483753065624862e-01 3.169269131889014823e-01 6.305647398890977806e-01 3.766534669822417802e-01 6.567630269322938252e-01 2.411943499192316653e-01 8.227169723348470853e-02 3.171167388245562657e-01 1.740484402279255660e-01 2.294978678489519031e-01 3.415483581606736374e-01 6.231811783112993774e-01 4.675018985320473219e-01 2.010385297108716052e-01 2.410820955417876665e-01 2.989435882965657543e-01 2.842330793810956546e-01 1.766294729045648326e+00 1.983677423689107489e+00 3.165874505101270442e-01 2.793314834061378926e-01 3.063175007786700377e-01 1.785282922959383067e-01 2.168441032234228460e-01 4.654254716931905400e-01 3.009973603841008538e-01 3.316512999315264221e-01 8.183998881319294316e-01 9.080754389613535649e-01 3.791551097584228147e-01 1.916601395176045886e+00 4.084333375219615925e-01 -3.110322438789197563e-01 -2.670666920222765639e-01 -2.957736743064634521e-01 3.000976518901153911e-01 3.510091976488016741e-01 7.053556806461270812e-01 3.029190070038536575e-01 4.125453845005584430e-01 3.243933667519080521e-01 2.753736444537683292e-01 2.609904711478579498e-01 -1.016852048115785695e-01 9.994149597457286927e-01 2.934110756436479339e-01 2.402110238171051015e-01 2.961973470100043859e-01 3.446825877830999585e-01 2.789849398290329408e-01 4.010875243314675487e-01 -6.475123894340290009e-02 2.218436650599287518e-01 3.105887195556565894e-01 -5.620949847080940198e-02 4.401384475319738421e-01 1.085552358729121813e+00 9.831139428847902595e-01 -7.115568952082190757e-01 -4.236666267243859862e-01 6.619557715200414805e-01 -3.429022586262493455e+00 1.595405527913980270e+00 3.124487198520551345e-01 -5.524956422689874386e-02 3.044872343580197205e-01 9.197164045027330648e-01 3.073711906286314410e-01 4.081945559507271781e-01 -4.402381118103357860e-01 8.072723763819178444e-01 3.022222362015559716e-01 8.444865457026626832e-01 2.136287701438152720e+00 -3.698659116326403762e-01 -1.503354618485927663e+00 3.172911763749752811e-01 2.981474056272935824e-01 7.377952916191321542e-01 3.261922924304086480e-01 6.889263690809367402e-01 4.690353697634655483e-01 3.956620330910396999e-01 2.913191602091312893e-01 2.968228842144288171e-01 3.501252519684707742e-01 3.186199327362781997e-01 1.459031476600245458e+00 1.699598684531458792e+00 3.127467131884537066e-01 3.293414782610105118e-01 3.493967251995548362e-01 -2.552845167222571598e-01 2.422607073957712132e-01 -7.757688905510033706e-02 3.027354272360825438e-01 7.041635477704040191e-01 -6.054322132062901485e-01 3.481532687715764296e-01 3.319884236121021237e-01 1.596686128136707017e-01 2.709146378391551480e-01 1.620180908066338465e-01 3.027805925230651618e-01 3.023330675889810415e-01 9.640475655670312227e-02 3.096344565482334055e-01 4.295695117200600266e-01 1.148237517379318007e+00 1.116314472984817785e+00 8.978212465346764315e-01 2.359426245357899299e-01 8.000743142948446573e-01 1.710660704179341185e-01 5.202650503928529790e-01 -2.233271017619440357e+00 3.056113630829404015e-01 6.678145451423335155e-01 3.065708653051049115e-01 9.374610985749158854e-01 1.391486527179173871e+00 3.505438091090801733e-01 2.295247727195696696e-01 3.772865789501441136e-01 4.502846055335255615e-01 5.459411933664441996e-01 1.009641242068878730e+00 -8.459561284653890345e-01 3.325725939559143196e-01 -6.738033082680351324e-03 3.141235503450685584e-01 3.393970912448233124e-01 7.503478711604729678e-01 -3.126928049475964921e-01 4.196962447328811407e-01 3.104845098391784686e-01 3.546316377101652040e-01 8.985682890936909084e-01 4.381855607865621782e-01 -2.296931504375670785e-01 8.566868180709265035e-01 -2.329344495752013258e-02 5.487183675682039130e-01 3.439937623578412373e-01 1.307588043831473756e+00 6.088917786130120247e-01 6.983977177147385751e-01 4.233172271397528386e-01 4.725332233954832595e-01 -6.173085734538629188e-01 2.184467718748637488e-01 7.353278834200180913e-01 3.062619488594147676e-01 5.943347317270466501e-01 2.894308959654707247e-01 3.017760248105045284e-01 6.959621969509093287e-01 1.816572649067729750e-01 -2.090754360723348526e+00 2.411594534170742044e-01 2.528236994388777248e-01 9.977522948583319451e-01 3.042267147376075398e-01 2.821802015551458376e-01 3.682104256342501603e-01 3.073811678254496083e-01 4.145923845105131678e-01 1.443088067658367391e-01 -1.645018307894433374e+00 7.740473868163286753e-01 2.333389411110809164e-01 2.791184085517402491e-01 3.596060153796095116e-01 8.154705954917931265e-01 3.023383468929047302e-01 -1.660138041190685199e-01 3.578508209316956790e-01 1.130699576199450496e+00 3.505649261642913017e-01 4.173170299391841809e-01 1.027976265007784606e+00 4.404538771199262293e-01 2.905750682563911891e+00 3.092745412947462413e-01 2.847265838687466633e-01 7.159645661919535886e-01 3.162119360595564976e-01 3.160683400942106425e-01 -2.239360749266291695e+00 4.736640914885181242e-01 3.099371810559652940e-01 5.224342285370000560e-01 2.910174082809946494e-01 1.939454489892573907e-01 -1.322147242033623604e-01 2.110494506359869238e+00 -5.161600177135754475e-01 8.199601133299986300e-01 3.028243966032158618e-01 3.351196848832181385e-01 8.816606807545835922e-01 2.777140891569651604e-01 1.359475933532741765e+00 2.654302271796307178e-01 4.270531453511090536e-01 -8.897942953443802594e-01 -1.229868034446516684e-01 -7.169543706874744737e-01 -4.170182751719418768e+00 3.049911994947092531e+00 1.195100911513670601e-02 2.924471067977533201e-01 -1.700593681398422818e+00 2.990979554175149380e-01 5.080103354141520811e-01 2.975960954602460684e-01 2.044432069553446807e-01 6.449296448865279308e-01 6.082943712717536755e-01 1.141395092548984858e+00 -4.236666276509424289e-01 -2.463936540045748858e-01 3.099277889286179422e-01 -1.208374069724373223e+00 4.063014833343651100e-01 -6.691379995760863286e-01 3.194345373236068819e-01 4.266557903879675817e-01 1.574749549823261374e-01 4.684115550562688024e-01 2.579118893285863301e-01 3.256799419389975331e-02 3.144898353773145638e-01 2.747206237519925209e-01 3.677349280007985444e-01 2.702718873287581203e-01 3.008973149261304769e-01 -7.114032918895087931e-01 4.107651413629435644e-01 1.556725973699682131e+00 8.663877023325752824e-02 2.325828238330297781e-01 2.582324639767336061e-01 1.198500792644707769e+00 3.076312658509612330e-01 6.354914511900951191e-02 8.759917967350135948e-01 1.943242570279441195e-01 1.914019612463586206e+00 3.287901820126180596e-01 1.434457771093071266e+00 3.000040354262030196e-01 7.314443654890404600e-01 1.365280557652398974e+00 4.348743574718431093e-01 2.042175738814550889e-01 9.680032253692758548e-01 -1.757780733268433648e-01 -7.510076856821865099e-02 2.845559429462169998e-01 3.106939414479487072e-01 3.714790431172435015e-01 1.481686859418171465e-01 7.199965981084924249e-02 -4.025783283905928212e-01 1.291634452654043530e+00 3.022555929433429767e-01 2.993173598251789858e-01 -3.330036239348042493e+00 5.810776090657149284e-01 2.014996343841833903e-01 2.872544785691299452e-01 3.330186367456370311e-01 3.625718229914713930e-01 -1.158506841743456750e+00 6.419990308621789099e-01 3.052862504872572713e-01 3.155889445741821286e-01 1.009466141625479985e+00 4.772961784577832711e-01 2.865059535192063800e-01 -1.435610070453179343e+00 3.096411241233186229e-01 8.984536467731194520e-01 4.012216173331630831e-01 2.997542847432930757e-01 2.383291801945868205e-01 7.060047893945585740e-01 -2.582540888599885176e-02 3.040798807950975124e-01 2.873188875334146131e-01 1.167701848736371756e-01 6.656744587126243173e-01 2.483907506778364749e-01 6.616824761704934721e-01 2.204526354986954539e-01 6.976024431967098316e-01 -2.635058854404694340e-01 -1.516603839871018877e+00 2.984878485327488451e-01 -2.378034446047851136e-02 2.527246873339799582e-01 3.154101148558048351e-01 5.880960224176343815e-02 4.675021810050077331e-01 3.083733047723293264e-01 8.792835753722058612e-02 3.924004557877685540e-01 2.938559187701341169e-01 2.765869729542523303e-01 3.513048109698622690e-01 -8.888462694763255012e-01 3.009156237017244218e-01 3.462798616171414157e-01 3.101314642599912741e-01 -4.289370975577798673e-01 3.106915033625676781e-01 8.567437083142043219e-01 -6.688163864156441152e-01 1.158501160791633566e+00 6.284150723502929248e-01 3.157906753746340667e-01 3.028380329533222337e-01 -2.094433279540650172e+00 3.101970099458016272e-01 3.694860501263705910e-01 3.341926797022875539e-01 4.675019536877301207e-01 3.043598565775448850e-01 3.397776141710518449e-01 4.259847734801319036e-02 3.019141041467894304e-01 4.295882562075725164e-01 3.085941434235187630e-01 2.624742236046629928e-01 2.747928576389930266e-01 2.978410683522762503e-01 2.999351220468268742e-01 3.816444120644202354e-01 2.001085836106702709e-01 3.074687640141325340e-01 6.348669835182632060e-01 1.328545836531441759e-01 3.029288384120388256e-01 -1.607626126172804204e-01 2.282292821616298539e-01 6.944030747786086311e-01 4.675708815705043264e+00 2.958390650786181797e-01 4.998658154238435486e-02 5.781525615030175258e-01 1.721330645259402936e-01 1.589934045344985725e+00 3.005381374984578136e-01 6.192700241449493603e-01 3.028511935920044640e-01
