# 
#                 ----------------------------------------------------
#                 Data from a 3D direct N-body simulation. 
# 
#                 rows are i-particle; 
#                 coumns are :mass, tag, x ,y, z, vx, vy, vz, ax, ay, az
# 
#                 NTHU, Computational Physics 
# 
#                 ----------------------------------------------------
#                 Time = 0.0
0.000000000000000000e+00 1.000000000000000000e+00 2.000000000000000000e+00 3.000000000000000000e+00 4.000000000000000000e+00 5.000000000000000000e+00 6.000000000000000000e+00 7.000000000000000000e+00 8.000000000000000000e+00 9.000000000000000000e+00 1.000000000000000000e+01 1.100000000000000000e+01 1.200000000000000000e+01 1.300000000000000000e+01 1.400000000000000000e+01 1.500000000000000000e+01 1.600000000000000000e+01 1.700000000000000000e+01 1.800000000000000000e+01 1.900000000000000000e+01 2.000000000000000000e+01 2.100000000000000000e+01 2.200000000000000000e+01 2.300000000000000000e+01 2.400000000000000000e+01 2.500000000000000000e+01 2.600000000000000000e+01 2.700000000000000000e+01 2.800000000000000000e+01 2.900000000000000000e+01 3.000000000000000000e+01 3.100000000000000000e+01 3.200000000000000000e+01 3.300000000000000000e+01 3.400000000000000000e+01 3.500000000000000000e+01 3.600000000000000000e+01 3.700000000000000000e+01 3.800000000000000000e+01 3.900000000000000000e+01 4.000000000000000000e+01 4.100000000000000000e+01 4.200000000000000000e+01 4.300000000000000000e+01 4.400000000000000000e+01 4.500000000000000000e+01 4.600000000000000000e+01 4.700000000000000000e+01 4.800000000000000000e+01 4.900000000000000000e+01 5.000000000000000000e+01 5.100000000000000000e+01 5.200000000000000000e+01 5.300000000000000000e+01 5.400000000000000000e+01 5.500000000000000000e+01 5.600000000000000000e+01 5.700000000000000000e+01 5.800000000000000000e+01 5.900000000000000000e+01 6.000000000000000000e+01 6.100000000000000000e+01 6.200000000000000000e+01 6.300000000000000000e+01 6.400000000000000000e+01 6.500000000000000000e+01 6.600000000000000000e+01 6.700000000000000000e+01 6.800000000000000000e+01 6.900000000000000000e+01 7.000000000000000000e+01 7.100000000000000000e+01 7.200000000000000000e+01 7.300000000000000000e+01 7.400000000000000000e+01 7.500000000000000000e+01 7.600000000000000000e+01 7.700000000000000000e+01 7.800000000000000000e+01 7.900000000000000000e+01 8.000000000000000000e+01 8.100000000000000000e+01 8.200000000000000000e+01 8.300000000000000000e+01 8.400000000000000000e+01 8.500000000000000000e+01 8.600000000000000000e+01 8.700000000000000000e+01 8.800000000000000000e+01 8.900000000000000000e+01 9.000000000000000000e+01 9.100000000000000000e+01 9.200000000000000000e+01 9.300000000000000000e+01 9.400000000000000000e+01 9.500000000000000000e+01 9.600000000000000000e+01 9.700000000000000000e+01 9.800000000000000000e+01 9.900000000000000000e+01 1.000000000000000000e+02 1.010000000000000000e+02 1.020000000000000000e+02 1.030000000000000000e+02 1.040000000000000000e+02 1.050000000000000000e+02 1.060000000000000000e+02 1.070000000000000000e+02 1.080000000000000000e+02 1.090000000000000000e+02 1.100000000000000000e+02 1.110000000000000000e+02 1.120000000000000000e+02 1.130000000000000000e+02 1.140000000000000000e+02 1.150000000000000000e+02 1.160000000000000000e+02 1.170000000000000000e+02 1.180000000000000000e+02 1.190000000000000000e+02 1.200000000000000000e+02 1.210000000000000000e+02 1.220000000000000000e+02 1.230000000000000000e+02 1.240000000000000000e+02 1.250000000000000000e+02 1.260000000000000000e+02 1.270000000000000000e+02 1.280000000000000000e+02 1.290000000000000000e+02 1.300000000000000000e+02 1.310000000000000000e+02 1.320000000000000000e+02 1.330000000000000000e+02 1.340000000000000000e+02 1.350000000000000000e+02 1.360000000000000000e+02 1.370000000000000000e+02 1.380000000000000000e+02 1.390000000000000000e+02 1.400000000000000000e+02 1.410000000000000000e+02 1.420000000000000000e+02 1.430000000000000000e+02 1.440000000000000000e+02 1.450000000000000000e+02 1.460000000000000000e+02 1.470000000000000000e+02 1.480000000000000000e+02 1.490000000000000000e+02 1.500000000000000000e+02 1.510000000000000000e+02 1.520000000000000000e+02 1.530000000000000000e+02 1.540000000000000000e+02 1.550000000000000000e+02 1.560000000000000000e+02 1.570000000000000000e+02 1.580000000000000000e+02 1.590000000000000000e+02 1.600000000000000000e+02 1.610000000000000000e+02 1.620000000000000000e+02 1.630000000000000000e+02 1.640000000000000000e+02 1.650000000000000000e+02 1.660000000000000000e+02 1.670000000000000000e+02 1.680000000000000000e+02 1.690000000000000000e+02 1.700000000000000000e+02 1.710000000000000000e+02 1.720000000000000000e+02 1.730000000000000000e+02 1.740000000000000000e+02 1.750000000000000000e+02 1.760000000000000000e+02 1.770000000000000000e+02 1.780000000000000000e+02 1.790000000000000000e+02 1.800000000000000000e+02 1.810000000000000000e+02 1.820000000000000000e+02 1.830000000000000000e+02 1.840000000000000000e+02 1.850000000000000000e+02 1.860000000000000000e+02 1.870000000000000000e+02 1.880000000000000000e+02 1.890000000000000000e+02 1.900000000000000000e+02 1.910000000000000000e+02 1.920000000000000000e+02 1.930000000000000000e+02 1.940000000000000000e+02 1.950000000000000000e+02 1.960000000000000000e+02 1.970000000000000000e+02 1.980000000000000000e+02 1.990000000000000000e+02 2.000000000000000000e+02 2.010000000000000000e+02 2.020000000000000000e+02 2.030000000000000000e+02 2.040000000000000000e+02 2.050000000000000000e+02 2.060000000000000000e+02 2.070000000000000000e+02 2.080000000000000000e+02 2.090000000000000000e+02 2.100000000000000000e+02 2.110000000000000000e+02 2.120000000000000000e+02 2.130000000000000000e+02 2.140000000000000000e+02 2.150000000000000000e+02 2.160000000000000000e+02 2.170000000000000000e+02 2.180000000000000000e+02 2.190000000000000000e+02 2.200000000000000000e+02 2.210000000000000000e+02 2.220000000000000000e+02 2.230000000000000000e+02 2.240000000000000000e+02 2.250000000000000000e+02 2.260000000000000000e+02 2.270000000000000000e+02 2.280000000000000000e+02 2.290000000000000000e+02 2.300000000000000000e+02 2.310000000000000000e+02 2.320000000000000000e+02 2.330000000000000000e+02 2.340000000000000000e+02 2.350000000000000000e+02 2.360000000000000000e+02 2.370000000000000000e+02 2.380000000000000000e+02 2.390000000000000000e+02 2.400000000000000000e+02 2.410000000000000000e+02 2.420000000000000000e+02 2.430000000000000000e+02 2.440000000000000000e+02 2.450000000000000000e+02 2.460000000000000000e+02 2.470000000000000000e+02 2.480000000000000000e+02 2.490000000000000000e+02 2.500000000000000000e+02 2.510000000000000000e+02 2.520000000000000000e+02 2.530000000000000000e+02 2.540000000000000000e+02 2.550000000000000000e+02 2.560000000000000000e+02 2.570000000000000000e+02 2.580000000000000000e+02 2.590000000000000000e+02 2.600000000000000000e+02 2.610000000000000000e+02 2.620000000000000000e+02 2.630000000000000000e+02 2.640000000000000000e+02 2.650000000000000000e+02 2.660000000000000000e+02 2.670000000000000000e+02 2.680000000000000000e+02 2.690000000000000000e+02 2.700000000000000000e+02 2.710000000000000000e+02 2.720000000000000000e+02 2.730000000000000000e+02 2.740000000000000000e+02 2.750000000000000000e+02 2.760000000000000000e+02 2.770000000000000000e+02 2.780000000000000000e+02 2.790000000000000000e+02 2.800000000000000000e+02 2.810000000000000000e+02 2.820000000000000000e+02 2.830000000000000000e+02 2.840000000000000000e+02 2.850000000000000000e+02 2.860000000000000000e+02 2.870000000000000000e+02 2.880000000000000000e+02 2.890000000000000000e+02 2.900000000000000000e+02 2.910000000000000000e+02 2.920000000000000000e+02 2.930000000000000000e+02 2.940000000000000000e+02 2.950000000000000000e+02 2.960000000000000000e+02 2.970000000000000000e+02 2.980000000000000000e+02 2.990000000000000000e+02 3.000000000000000000e+02 3.010000000000000000e+02 3.020000000000000000e+02 3.030000000000000000e+02 3.040000000000000000e+02 3.050000000000000000e+02 3.060000000000000000e+02 3.070000000000000000e+02 3.080000000000000000e+02 3.090000000000000000e+02 3.100000000000000000e+02 3.110000000000000000e+02 3.120000000000000000e+02 3.130000000000000000e+02 3.140000000000000000e+02 3.150000000000000000e+02 3.160000000000000000e+02 3.170000000000000000e+02 3.180000000000000000e+02 3.190000000000000000e+02 3.200000000000000000e+02 3.210000000000000000e+02 3.220000000000000000e+02 3.230000000000000000e+02 3.240000000000000000e+02 3.250000000000000000e+02 3.260000000000000000e+02 3.270000000000000000e+02 3.280000000000000000e+02 3.290000000000000000e+02 3.300000000000000000e+02 3.310000000000000000e+02 3.320000000000000000e+02 3.330000000000000000e+02 3.340000000000000000e+02 3.350000000000000000e+02 3.360000000000000000e+02 3.370000000000000000e+02 3.380000000000000000e+02 3.390000000000000000e+02 3.400000000000000000e+02 3.410000000000000000e+02 3.420000000000000000e+02 3.430000000000000000e+02 3.440000000000000000e+02 3.450000000000000000e+02 3.460000000000000000e+02 3.470000000000000000e+02 3.480000000000000000e+02 3.490000000000000000e+02 3.500000000000000000e+02 3.510000000000000000e+02 3.520000000000000000e+02 3.530000000000000000e+02 3.540000000000000000e+02 3.550000000000000000e+02 3.560000000000000000e+02 3.570000000000000000e+02 3.580000000000000000e+02 3.590000000000000000e+02 3.600000000000000000e+02 3.610000000000000000e+02 3.620000000000000000e+02 3.630000000000000000e+02 3.640000000000000000e+02 3.650000000000000000e+02 3.660000000000000000e+02 3.670000000000000000e+02 3.680000000000000000e+02 3.690000000000000000e+02 3.700000000000000000e+02 3.710000000000000000e+02 3.720000000000000000e+02 3.730000000000000000e+02 3.740000000000000000e+02 3.750000000000000000e+02 3.760000000000000000e+02 3.770000000000000000e+02 3.780000000000000000e+02 3.790000000000000000e+02 3.800000000000000000e+02 3.810000000000000000e+02 3.820000000000000000e+02 3.830000000000000000e+02 3.840000000000000000e+02 3.850000000000000000e+02 3.860000000000000000e+02 3.870000000000000000e+02 3.880000000000000000e+02 3.890000000000000000e+02 3.900000000000000000e+02 3.910000000000000000e+02 3.920000000000000000e+02 3.930000000000000000e+02 3.940000000000000000e+02 3.950000000000000000e+02 3.960000000000000000e+02 3.970000000000000000e+02 3.980000000000000000e+02 3.990000000000000000e+02 4.000000000000000000e+02 4.010000000000000000e+02 4.020000000000000000e+02 4.030000000000000000e+02 4.040000000000000000e+02 4.050000000000000000e+02 4.060000000000000000e+02 4.070000000000000000e+02 4.080000000000000000e+02 4.090000000000000000e+02 4.100000000000000000e+02 4.110000000000000000e+02 4.120000000000000000e+02 4.130000000000000000e+02 4.140000000000000000e+02 4.150000000000000000e+02 4.160000000000000000e+02 4.170000000000000000e+02 4.180000000000000000e+02 4.190000000000000000e+02 4.200000000000000000e+02 4.210000000000000000e+02 4.220000000000000000e+02 4.230000000000000000e+02 4.240000000000000000e+02 4.250000000000000000e+02 4.260000000000000000e+02 4.270000000000000000e+02 4.280000000000000000e+02 4.290000000000000000e+02 4.300000000000000000e+02 4.310000000000000000e+02 4.320000000000000000e+02 4.330000000000000000e+02 4.340000000000000000e+02 4.350000000000000000e+02 4.360000000000000000e+02 4.370000000000000000e+02 4.380000000000000000e+02 4.390000000000000000e+02 4.400000000000000000e+02 4.410000000000000000e+02 4.420000000000000000e+02 4.430000000000000000e+02 4.440000000000000000e+02 4.450000000000000000e+02 4.460000000000000000e+02 4.470000000000000000e+02 4.480000000000000000e+02 4.490000000000000000e+02 4.500000000000000000e+02 4.510000000000000000e+02 4.520000000000000000e+02 4.530000000000000000e+02 4.540000000000000000e+02 4.550000000000000000e+02 4.560000000000000000e+02 4.570000000000000000e+02 4.580000000000000000e+02 4.590000000000000000e+02 4.600000000000000000e+02 4.610000000000000000e+02 4.620000000000000000e+02 4.630000000000000000e+02 4.640000000000000000e+02 4.650000000000000000e+02 4.660000000000000000e+02 4.670000000000000000e+02 4.680000000000000000e+02 4.690000000000000000e+02 4.700000000000000000e+02 4.710000000000000000e+02 4.720000000000000000e+02 4.730000000000000000e+02 4.740000000000000000e+02 4.750000000000000000e+02 4.760000000000000000e+02 4.770000000000000000e+02 4.780000000000000000e+02 4.790000000000000000e+02 4.800000000000000000e+02 4.810000000000000000e+02 4.820000000000000000e+02 4.830000000000000000e+02 4.840000000000000000e+02 4.850000000000000000e+02 4.860000000000000000e+02 4.870000000000000000e+02 4.880000000000000000e+02 4.890000000000000000e+02 4.900000000000000000e+02 4.910000000000000000e+02 4.920000000000000000e+02 4.930000000000000000e+02 4.940000000000000000e+02 4.950000000000000000e+02 4.960000000000000000e+02 4.970000000000000000e+02 4.980000000000000000e+02 4.990000000000000000e+02 5.000000000000000000e+02 5.010000000000000000e+02 5.020000000000000000e+02 5.030000000000000000e+02 5.040000000000000000e+02 5.050000000000000000e+02 5.060000000000000000e+02 5.070000000000000000e+02 5.080000000000000000e+02 5.090000000000000000e+02 5.100000000000000000e+02 5.110000000000000000e+02 5.120000000000000000e+02 5.130000000000000000e+02 5.140000000000000000e+02 5.150000000000000000e+02 5.160000000000000000e+02 5.170000000000000000e+02 5.180000000000000000e+02 5.190000000000000000e+02 5.200000000000000000e+02 5.210000000000000000e+02 5.220000000000000000e+02 5.230000000000000000e+02 5.240000000000000000e+02 5.250000000000000000e+02 5.260000000000000000e+02 5.270000000000000000e+02 5.280000000000000000e+02 5.290000000000000000e+02 5.300000000000000000e+02 5.310000000000000000e+02 5.320000000000000000e+02 5.330000000000000000e+02 5.340000000000000000e+02 5.350000000000000000e+02 5.360000000000000000e+02 5.370000000000000000e+02 5.380000000000000000e+02 5.390000000000000000e+02 5.400000000000000000e+02 5.410000000000000000e+02 5.420000000000000000e+02 5.430000000000000000e+02 5.440000000000000000e+02 5.450000000000000000e+02 5.460000000000000000e+02 5.470000000000000000e+02 5.480000000000000000e+02 5.490000000000000000e+02 5.500000000000000000e+02 5.510000000000000000e+02 5.520000000000000000e+02 5.530000000000000000e+02 5.540000000000000000e+02 5.550000000000000000e+02 5.560000000000000000e+02 5.570000000000000000e+02 5.580000000000000000e+02 5.590000000000000000e+02 5.600000000000000000e+02 5.610000000000000000e+02 5.620000000000000000e+02 5.630000000000000000e+02 5.640000000000000000e+02 5.650000000000000000e+02 5.660000000000000000e+02 5.670000000000000000e+02 5.680000000000000000e+02 5.690000000000000000e+02 5.700000000000000000e+02 5.710000000000000000e+02 5.720000000000000000e+02 5.730000000000000000e+02 5.740000000000000000e+02 5.750000000000000000e+02 5.760000000000000000e+02 5.770000000000000000e+02 5.780000000000000000e+02 5.790000000000000000e+02 5.800000000000000000e+02 5.810000000000000000e+02 5.820000000000000000e+02 5.830000000000000000e+02 5.840000000000000000e+02 5.850000000000000000e+02 5.860000000000000000e+02 5.870000000000000000e+02 5.880000000000000000e+02 5.890000000000000000e+02 5.900000000000000000e+02 5.910000000000000000e+02 5.920000000000000000e+02 5.930000000000000000e+02 5.940000000000000000e+02 5.950000000000000000e+02 5.960000000000000000e+02 5.970000000000000000e+02 5.980000000000000000e+02 5.990000000000000000e+02 6.000000000000000000e+02 6.010000000000000000e+02 6.020000000000000000e+02 6.030000000000000000e+02 6.040000000000000000e+02 6.050000000000000000e+02 6.060000000000000000e+02 6.070000000000000000e+02 6.080000000000000000e+02 6.090000000000000000e+02 6.100000000000000000e+02 6.110000000000000000e+02 6.120000000000000000e+02 6.130000000000000000e+02 6.140000000000000000e+02 6.150000000000000000e+02 6.160000000000000000e+02 6.170000000000000000e+02 6.180000000000000000e+02 6.190000000000000000e+02 6.200000000000000000e+02 6.210000000000000000e+02 6.220000000000000000e+02 6.230000000000000000e+02 6.240000000000000000e+02 6.250000000000000000e+02 6.260000000000000000e+02 6.270000000000000000e+02 6.280000000000000000e+02 6.290000000000000000e+02 6.300000000000000000e+02 6.310000000000000000e+02 6.320000000000000000e+02 6.330000000000000000e+02 6.340000000000000000e+02 6.350000000000000000e+02 6.360000000000000000e+02 6.370000000000000000e+02 6.380000000000000000e+02 6.390000000000000000e+02 6.400000000000000000e+02 6.410000000000000000e+02 6.420000000000000000e+02 6.430000000000000000e+02 6.440000000000000000e+02 6.450000000000000000e+02 6.460000000000000000e+02 6.470000000000000000e+02 6.480000000000000000e+02 6.490000000000000000e+02 6.500000000000000000e+02 6.510000000000000000e+02 6.520000000000000000e+02 6.530000000000000000e+02 6.540000000000000000e+02 6.550000000000000000e+02 6.560000000000000000e+02 6.570000000000000000e+02 6.580000000000000000e+02 6.590000000000000000e+02 6.600000000000000000e+02 6.610000000000000000e+02 6.620000000000000000e+02 6.630000000000000000e+02 6.640000000000000000e+02 6.650000000000000000e+02 6.660000000000000000e+02 6.670000000000000000e+02 6.680000000000000000e+02 6.690000000000000000e+02 6.700000000000000000e+02 6.710000000000000000e+02 6.720000000000000000e+02 6.730000000000000000e+02 6.740000000000000000e+02 6.750000000000000000e+02 6.760000000000000000e+02 6.770000000000000000e+02 6.780000000000000000e+02 6.790000000000000000e+02 6.800000000000000000e+02 6.810000000000000000e+02 6.820000000000000000e+02 6.830000000000000000e+02 6.840000000000000000e+02 6.850000000000000000e+02 6.860000000000000000e+02 6.870000000000000000e+02 6.880000000000000000e+02 6.890000000000000000e+02 6.900000000000000000e+02 6.910000000000000000e+02 6.920000000000000000e+02 6.930000000000000000e+02 6.940000000000000000e+02 6.950000000000000000e+02 6.960000000000000000e+02 6.970000000000000000e+02 6.980000000000000000e+02 6.990000000000000000e+02 7.000000000000000000e+02 7.010000000000000000e+02 7.020000000000000000e+02 7.030000000000000000e+02 7.040000000000000000e+02 7.050000000000000000e+02 7.060000000000000000e+02 7.070000000000000000e+02 7.080000000000000000e+02 7.090000000000000000e+02 7.100000000000000000e+02 7.110000000000000000e+02 7.120000000000000000e+02 7.130000000000000000e+02 7.140000000000000000e+02 7.150000000000000000e+02 7.160000000000000000e+02 7.170000000000000000e+02 7.180000000000000000e+02 7.190000000000000000e+02 7.200000000000000000e+02 7.210000000000000000e+02 7.220000000000000000e+02 7.230000000000000000e+02 7.240000000000000000e+02 7.250000000000000000e+02 7.260000000000000000e+02 7.270000000000000000e+02 7.280000000000000000e+02 7.290000000000000000e+02 7.300000000000000000e+02 7.310000000000000000e+02 7.320000000000000000e+02 7.330000000000000000e+02 7.340000000000000000e+02 7.350000000000000000e+02 7.360000000000000000e+02 7.370000000000000000e+02 7.380000000000000000e+02 7.390000000000000000e+02 7.400000000000000000e+02 7.410000000000000000e+02 7.420000000000000000e+02 7.430000000000000000e+02 7.440000000000000000e+02 7.450000000000000000e+02 7.460000000000000000e+02 7.470000000000000000e+02 7.480000000000000000e+02 7.490000000000000000e+02 7.500000000000000000e+02 7.510000000000000000e+02 7.520000000000000000e+02 7.530000000000000000e+02 7.540000000000000000e+02 7.550000000000000000e+02 7.560000000000000000e+02 7.570000000000000000e+02 7.580000000000000000e+02 7.590000000000000000e+02 7.600000000000000000e+02 7.610000000000000000e+02 7.620000000000000000e+02 7.630000000000000000e+02 7.640000000000000000e+02 7.650000000000000000e+02 7.660000000000000000e+02 7.670000000000000000e+02 7.680000000000000000e+02 7.690000000000000000e+02 7.700000000000000000e+02 7.710000000000000000e+02 7.720000000000000000e+02 7.730000000000000000e+02 7.740000000000000000e+02 7.750000000000000000e+02 7.760000000000000000e+02 7.770000000000000000e+02 7.780000000000000000e+02 7.790000000000000000e+02 7.800000000000000000e+02 7.810000000000000000e+02 7.820000000000000000e+02 7.830000000000000000e+02 7.840000000000000000e+02 7.850000000000000000e+02 7.860000000000000000e+02 7.870000000000000000e+02 7.880000000000000000e+02 7.890000000000000000e+02 7.900000000000000000e+02 7.910000000000000000e+02 7.920000000000000000e+02 7.930000000000000000e+02 7.940000000000000000e+02 7.950000000000000000e+02 7.960000000000000000e+02 7.970000000000000000e+02 7.980000000000000000e+02 7.990000000000000000e+02 8.000000000000000000e+02 8.010000000000000000e+02 8.020000000000000000e+02 8.030000000000000000e+02 8.040000000000000000e+02 8.050000000000000000e+02 8.060000000000000000e+02 8.070000000000000000e+02 8.080000000000000000e+02 8.090000000000000000e+02 8.100000000000000000e+02 8.110000000000000000e+02 8.120000000000000000e+02 8.130000000000000000e+02 8.140000000000000000e+02 8.150000000000000000e+02 8.160000000000000000e+02 8.170000000000000000e+02 8.180000000000000000e+02 8.190000000000000000e+02 8.200000000000000000e+02 8.210000000000000000e+02 8.220000000000000000e+02 8.230000000000000000e+02 8.240000000000000000e+02 8.250000000000000000e+02 8.260000000000000000e+02 8.270000000000000000e+02 8.280000000000000000e+02 8.290000000000000000e+02 8.300000000000000000e+02 8.310000000000000000e+02 8.320000000000000000e+02 8.330000000000000000e+02 8.340000000000000000e+02 8.350000000000000000e+02 8.360000000000000000e+02 8.370000000000000000e+02 8.380000000000000000e+02 8.390000000000000000e+02 8.400000000000000000e+02 8.410000000000000000e+02 8.420000000000000000e+02 8.430000000000000000e+02 8.440000000000000000e+02 8.450000000000000000e+02 8.460000000000000000e+02 8.470000000000000000e+02 8.480000000000000000e+02 8.490000000000000000e+02 8.500000000000000000e+02 8.510000000000000000e+02 8.520000000000000000e+02 8.530000000000000000e+02 8.540000000000000000e+02 8.550000000000000000e+02 8.560000000000000000e+02 8.570000000000000000e+02 8.580000000000000000e+02 8.590000000000000000e+02 8.600000000000000000e+02 8.610000000000000000e+02 8.620000000000000000e+02 8.630000000000000000e+02 8.640000000000000000e+02 8.650000000000000000e+02 8.660000000000000000e+02 8.670000000000000000e+02 8.680000000000000000e+02 8.690000000000000000e+02 8.700000000000000000e+02 8.710000000000000000e+02 8.720000000000000000e+02 8.730000000000000000e+02 8.740000000000000000e+02 8.750000000000000000e+02 8.760000000000000000e+02 8.770000000000000000e+02 8.780000000000000000e+02 8.790000000000000000e+02 8.800000000000000000e+02 8.810000000000000000e+02 8.820000000000000000e+02 8.830000000000000000e+02 8.840000000000000000e+02 8.850000000000000000e+02 8.860000000000000000e+02 8.870000000000000000e+02 8.880000000000000000e+02 8.890000000000000000e+02 8.900000000000000000e+02 8.910000000000000000e+02 8.920000000000000000e+02 8.930000000000000000e+02 8.940000000000000000e+02 8.950000000000000000e+02 8.960000000000000000e+02 8.970000000000000000e+02 8.980000000000000000e+02 8.990000000000000000e+02 9.000000000000000000e+02 9.010000000000000000e+02 9.020000000000000000e+02 9.030000000000000000e+02 9.040000000000000000e+02 9.050000000000000000e+02 9.060000000000000000e+02 9.070000000000000000e+02 9.080000000000000000e+02 9.090000000000000000e+02 9.100000000000000000e+02 9.110000000000000000e+02 9.120000000000000000e+02 9.130000000000000000e+02 9.140000000000000000e+02 9.150000000000000000e+02 9.160000000000000000e+02 9.170000000000000000e+02 9.180000000000000000e+02 9.190000000000000000e+02 9.200000000000000000e+02 9.210000000000000000e+02 9.220000000000000000e+02 9.230000000000000000e+02 9.240000000000000000e+02 9.250000000000000000e+02 9.260000000000000000e+02 9.270000000000000000e+02 9.280000000000000000e+02 9.290000000000000000e+02 9.300000000000000000e+02 9.310000000000000000e+02 9.320000000000000000e+02 9.330000000000000000e+02 9.340000000000000000e+02 9.350000000000000000e+02 9.360000000000000000e+02 9.370000000000000000e+02 9.380000000000000000e+02 9.390000000000000000e+02 9.400000000000000000e+02 9.410000000000000000e+02 9.420000000000000000e+02 9.430000000000000000e+02 9.440000000000000000e+02 9.450000000000000000e+02 9.460000000000000000e+02 9.470000000000000000e+02 9.480000000000000000e+02 9.490000000000000000e+02 9.500000000000000000e+02 9.510000000000000000e+02 9.520000000000000000e+02 9.530000000000000000e+02 9.540000000000000000e+02 9.550000000000000000e+02 9.560000000000000000e+02 9.570000000000000000e+02 9.580000000000000000e+02 9.590000000000000000e+02 9.600000000000000000e+02 9.610000000000000000e+02 9.620000000000000000e+02 9.630000000000000000e+02 9.640000000000000000e+02 9.650000000000000000e+02 9.660000000000000000e+02 9.670000000000000000e+02 9.680000000000000000e+02 9.690000000000000000e+02 9.700000000000000000e+02 9.710000000000000000e+02 9.720000000000000000e+02 9.730000000000000000e+02 9.740000000000000000e+02 9.750000000000000000e+02 9.760000000000000000e+02 9.770000000000000000e+02 9.780000000000000000e+02 9.790000000000000000e+02 9.800000000000000000e+02 9.810000000000000000e+02 9.820000000000000000e+02 9.830000000000000000e+02 9.840000000000000000e+02 9.850000000000000000e+02 9.860000000000000000e+02 9.870000000000000000e+02 9.880000000000000000e+02 9.890000000000000000e+02 9.900000000000000000e+02 9.910000000000000000e+02 9.920000000000000000e+02 9.930000000000000000e+02 9.940000000000000000e+02 9.950000000000000000e+02 9.960000000000000000e+02 9.970000000000000000e+02 9.980000000000000000e+02 9.990000000000000000e+02
1.000000000000000000e+00 1.000000000000000000e+00 1.000000000000000000e+00 1.000000000000000000e+00 1.000000000000000000e+00 1.000000000000000000e+00 1.000000000000000000e+00 1.000000000000000000e+00 1.000000000000000000e+00 1.000000000000000000e+00 1.000000000000000000e+00 1.000000000000000000e+00 1.000000000000000000e+00 1.000000000000000000e+00 1.000000000000000000e+00 1.000000000000000000e+00 1.000000000000000000e+00 1.000000000000000000e+00 1.000000000000000000e+00 1.000000000000000000e+00 1.000000000000000000e+00 1.000000000000000000e+00 1.000000000000000000e+00 1.000000000000000000e+00 1.000000000000000000e+00 1.000000000000000000e+00 1.000000000000000000e+00 1.000000000000000000e+00 1.000000000000000000e+00 1.000000000000000000e+00 1.000000000000000000e+00 1.000000000000000000e+00 1.000000000000000000e+00 1.000000000000000000e+00 1.000000000000000000e+00 1.000000000000000000e+00 1.000000000000000000e+00 1.000000000000000000e+00 1.000000000000000000e+00 1.000000000000000000e+00 1.000000000000000000e+00 1.000000000000000000e+00 1.000000000000000000e+00 1.000000000000000000e+00 1.000000000000000000e+00 1.000000000000000000e+00 1.000000000000000000e+00 1.000000000000000000e+00 1.000000000000000000e+00 1.000000000000000000e+00 1.000000000000000000e+00 1.000000000000000000e+00 1.000000000000000000e+00 1.000000000000000000e+00 1.000000000000000000e+00 1.000000000000000000e+00 1.000000000000000000e+00 1.000000000000000000e+00 1.000000000000000000e+00 1.000000000000000000e+00 1.000000000000000000e+00 1.000000000000000000e+00 1.000000000000000000e+00 1.000000000000000000e+00 1.000000000000000000e+00 1.000000000000000000e+00 1.000000000000000000e+00 1.000000000000000000e+00 1.000000000000000000e+00 1.000000000000000000e+00 1.000000000000000000e+00 1.000000000000000000e+00 1.000000000000000000e+00 1.000000000000000000e+00 1.000000000000000000e+00 1.000000000000000000e+00 1.000000000000000000e+00 1.000000000000000000e+00 1.000000000000000000e+00 1.000000000000000000e+00 1.000000000000000000e+00 1.000000000000000000e+00 1.000000000000000000e+00 1.000000000000000000e+00 1.000000000000000000e+00 1.000000000000000000e+00 1.000000000000000000e+00 1.000000000000000000e+00 1.000000000000000000e+00 1.000000000000000000e+00 1.000000000000000000e+00 1.000000000000000000e+00 1.000000000000000000e+00 1.000000000000000000e+00 1.000000000000000000e+00 1.000000000000000000e+00 1.000000000000000000e+00 1.000000000000000000e+00 1.000000000000000000e+00 1.000000000000000000e+00 1.000000000000000000e+00 1.000000000000000000e+00 1.000000000000000000e+00 1.000000000000000000e+00 1.000000000000000000e+00 1.000000000000000000e+00 1.000000000000000000e+00 1.000000000000000000e+00 1.000000000000000000e+00 1.000000000000000000e+00 1.000000000000000000e+00 1.000000000000000000e+00 1.000000000000000000e+00 1.000000000000000000e+00 1.000000000000000000e+00 1.000000000000000000e+00 1.000000000000000000e+00 1.000000000000000000e+00 1.000000000000000000e+00 1.000000000000000000e+00 1.000000000000000000e+00 1.000000000000000000e+00 1.000000000000000000e+00 1.000000000000000000e+00 1.000000000000000000e+00 1.000000000000000000e+00 1.000000000000000000e+00 1.000000000000000000e+00 1.000000000000000000e+00 1.000000000000000000e+00 1.000000000000000000e+00 1.000000000000000000e+00 1.000000000000000000e+00 1.000000000000000000e+00 1.000000000000000000e+00 1.000000000000000000e+00 1.000000000000000000e+00 1.000000000000000000e+00 1.000000000000000000e+00 1.000000000000000000e+00 1.000000000000000000e+00 1.000000000000000000e+00 1.000000000000000000e+00 1.000000000000000000e+00 1.000000000000000000e+00 1.000000000000000000e+00 1.000000000000000000e+00 1.000000000000000000e+00 1.000000000000000000e+00 1.000000000000000000e+00 1.000000000000000000e+00 1.000000000000000000e+00 1.000000000000000000e+00 1.000000000000000000e+00 1.000000000000000000e+00 1.000000000000000000e+00 1.000000000000000000e+00 1.000000000000000000e+00 1.000000000000000000e+00 1.000000000000000000e+00 1.000000000000000000e+00 1.000000000000000000e+00 1.000000000000000000e+00 1.000000000000000000e+00 1.000000000000000000e+00 1.000000000000000000e+00 1.000000000000000000e+00 1.000000000000000000e+00 1.000000000000000000e+00 1.000000000000000000e+00 1.000000000000000000e+00 1.000000000000000000e+00 1.000000000000000000e+00 1.000000000000000000e+00 1.000000000000000000e+00 1.000000000000000000e+00 1.000000000000000000e+00 1.000000000000000000e+00 1.000000000000000000e+00 1.000000000000000000e+00 1.000000000000000000e+00 1.000000000000000000e+00 1.000000000000000000e+00 1.000000000000000000e+00 1.000000000000000000e+00 1.000000000000000000e+00 1.000000000000000000e+00 1.000000000000000000e+00 1.000000000000000000e+00 1.000000000000000000e+00 1.000000000000000000e+00 1.000000000000000000e+00 1.000000000000000000e+00 1.000000000000000000e+00 1.000000000000000000e+00 1.000000000000000000e+00 1.000000000000000000e+00 1.000000000000000000e+00 1.000000000000000000e+00 1.000000000000000000e+00 1.000000000000000000e+00 1.000000000000000000e+00 1.000000000000000000e+00 1.000000000000000000e+00 1.000000000000000000e+00 1.000000000000000000e+00 1.000000000000000000e+00 1.000000000000000000e+00 1.000000000000000000e+00 1.000000000000000000e+00 1.000000000000000000e+00 1.000000000000000000e+00 1.000000000000000000e+00 1.000000000000000000e+00 1.000000000000000000e+00 1.000000000000000000e+00 1.000000000000000000e+00 1.000000000000000000e+00 1.000000000000000000e+00 1.000000000000000000e+00 1.000000000000000000e+00 1.000000000000000000e+00 1.000000000000000000e+00 1.000000000000000000e+00 1.000000000000000000e+00 1.000000000000000000e+00 1.000000000000000000e+00 1.000000000000000000e+00 1.000000000000000000e+00 1.000000000000000000e+00 1.000000000000000000e+00 1.000000000000000000e+00 1.000000000000000000e+00 1.000000000000000000e+00 1.000000000000000000e+00 1.000000000000000000e+00 1.000000000000000000e+00 1.000000000000000000e+00 1.000000000000000000e+00 1.000000000000000000e+00 1.000000000000000000e+00 1.000000000000000000e+00 1.000000000000000000e+00 1.000000000000000000e+00 1.000000000000000000e+00 1.000000000000000000e+00 1.000000000000000000e+00 1.000000000000000000e+00 1.000000000000000000e+00 1.000000000000000000e+00 1.000000000000000000e+00 1.000000000000000000e+00 1.000000000000000000e+00 1.000000000000000000e+00 1.000000000000000000e+00 1.000000000000000000e+00 1.000000000000000000e+00 1.000000000000000000e+00 1.000000000000000000e+00 1.000000000000000000e+00 1.000000000000000000e+00 1.000000000000000000e+00 1.000000000000000000e+00 1.000000000000000000e+00 1.000000000000000000e+00 1.000000000000000000e+00 1.000000000000000000e+00 1.000000000000000000e+00 1.000000000000000000e+00 1.000000000000000000e+00 1.000000000000000000e+00 1.000000000000000000e+00 1.000000000000000000e+00 1.000000000000000000e+00 1.000000000000000000e+00 1.000000000000000000e+00 1.000000000000000000e+00 1.000000000000000000e+00 1.000000000000000000e+00 1.000000000000000000e+00 1.000000000000000000e+00 1.000000000000000000e+00 1.000000000000000000e+00 1.000000000000000000e+00 1.000000000000000000e+00 1.000000000000000000e+00 1.000000000000000000e+00 1.000000000000000000e+00 1.000000000000000000e+00 1.000000000000000000e+00 1.000000000000000000e+00 1.000000000000000000e+00 1.000000000000000000e+00 1.000000000000000000e+00 1.000000000000000000e+00 1.000000000000000000e+00 1.000000000000000000e+00 1.000000000000000000e+00 1.000000000000000000e+00 1.000000000000000000e+00 1.000000000000000000e+00 1.000000000000000000e+00 1.000000000000000000e+00 1.000000000000000000e+00 1.000000000000000000e+00 1.000000000000000000e+00 1.000000000000000000e+00 1.000000000000000000e+00 1.000000000000000000e+00 1.000000000000000000e+00 1.000000000000000000e+00 1.000000000000000000e+00 1.000000000000000000e+00 1.000000000000000000e+00 1.000000000000000000e+00 1.000000000000000000e+00 1.000000000000000000e+00 1.000000000000000000e+00 1.000000000000000000e+00 1.000000000000000000e+00 1.000000000000000000e+00 1.000000000000000000e+00 1.000000000000000000e+00 1.000000000000000000e+00 1.000000000000000000e+00 1.000000000000000000e+00 1.000000000000000000e+00 1.000000000000000000e+00 1.000000000000000000e+00 1.000000000000000000e+00 1.000000000000000000e+00 1.000000000000000000e+00 1.000000000000000000e+00 1.000000000000000000e+00 1.000000000000000000e+00 1.000000000000000000e+00 1.000000000000000000e+00 1.000000000000000000e+00 1.000000000000000000e+00 1.000000000000000000e+00 1.000000000000000000e+00 1.000000000000000000e+00 1.000000000000000000e+00 1.000000000000000000e+00 1.000000000000000000e+00 1.000000000000000000e+00 1.000000000000000000e+00 1.000000000000000000e+00 1.000000000000000000e+00 1.000000000000000000e+00 1.000000000000000000e+00 1.000000000000000000e+00 1.000000000000000000e+00 1.000000000000000000e+00 1.000000000000000000e+00 1.000000000000000000e+00 1.000000000000000000e+00 1.000000000000000000e+00 1.000000000000000000e+00 1.000000000000000000e+00 1.000000000000000000e+00 1.000000000000000000e+00 1.000000000000000000e+00 1.000000000000000000e+00 1.000000000000000000e+00 1.000000000000000000e+00 1.000000000000000000e+00 1.000000000000000000e+00 1.000000000000000000e+00 1.000000000000000000e+00 1.000000000000000000e+00 1.000000000000000000e+00 1.000000000000000000e+00 1.000000000000000000e+00 1.000000000000000000e+00 1.000000000000000000e+00 1.000000000000000000e+00 1.000000000000000000e+00 1.000000000000000000e+00 1.000000000000000000e+00 1.000000000000000000e+00 1.000000000000000000e+00 1.000000000000000000e+00 1.000000000000000000e+00 1.000000000000000000e+00 1.000000000000000000e+00 1.000000000000000000e+00 1.000000000000000000e+00 1.000000000000000000e+00 1.000000000000000000e+00 1.000000000000000000e+00 1.000000000000000000e+00 1.000000000000000000e+00 1.000000000000000000e+00 1.000000000000000000e+00 1.000000000000000000e+00 1.000000000000000000e+00 1.000000000000000000e+00 1.000000000000000000e+00 1.000000000000000000e+00 1.000000000000000000e+00 1.000000000000000000e+00 1.000000000000000000e+00 1.000000000000000000e+00 1.000000000000000000e+00 1.000000000000000000e+00 1.000000000000000000e+00 1.000000000000000000e+00 1.000000000000000000e+00 1.000000000000000000e+00 1.000000000000000000e+00 1.000000000000000000e+00 1.000000000000000000e+00 1.000000000000000000e+00 1.000000000000000000e+00 1.000000000000000000e+00 1.000000000000000000e+00 1.000000000000000000e+00 1.000000000000000000e+00 1.000000000000000000e+00 1.000000000000000000e+00 1.000000000000000000e+00 1.000000000000000000e+00 1.000000000000000000e+00 1.000000000000000000e+00 1.000000000000000000e+00 1.000000000000000000e+00 1.000000000000000000e+00 1.000000000000000000e+00 1.000000000000000000e+00 1.000000000000000000e+00 1.000000000000000000e+00 1.000000000000000000e+00 1.000000000000000000e+00 1.000000000000000000e+00 1.000000000000000000e+00 1.000000000000000000e+00 1.000000000000000000e+00 1.000000000000000000e+00 1.000000000000000000e+00 1.000000000000000000e+00 1.000000000000000000e+00 1.000000000000000000e+00 1.000000000000000000e+00 1.000000000000000000e+00 1.000000000000000000e+00 1.000000000000000000e+00 1.000000000000000000e+00 1.000000000000000000e+00 1.000000000000000000e+00 1.000000000000000000e+00 1.000000000000000000e+00 1.000000000000000000e+00 1.000000000000000000e+00 1.000000000000000000e+00 1.000000000000000000e+00 1.000000000000000000e+00 1.000000000000000000e+00 1.000000000000000000e+00 1.000000000000000000e+00 1.000000000000000000e+00 1.000000000000000000e+00 1.000000000000000000e+00 1.000000000000000000e+00 1.000000000000000000e+00 1.000000000000000000e+00 1.000000000000000000e+00 1.000000000000000000e+00 1.000000000000000000e+00 1.000000000000000000e+00 1.000000000000000000e+00 1.000000000000000000e+00 1.000000000000000000e+00 1.000000000000000000e+00 1.000000000000000000e+00 1.000000000000000000e+00 1.000000000000000000e+00 1.000000000000000000e+00 1.000000000000000000e+00 1.000000000000000000e+00 1.000000000000000000e+00 1.000000000000000000e+00 1.000000000000000000e+00 1.000000000000000000e+00 1.000000000000000000e+00 1.000000000000000000e+00 1.000000000000000000e+00 1.000000000000000000e+00 1.000000000000000000e+00 1.000000000000000000e+00 1.000000000000000000e+00 1.000000000000000000e+00 1.000000000000000000e+00 1.000000000000000000e+00 1.000000000000000000e+00 1.000000000000000000e+00 1.000000000000000000e+00 1.000000000000000000e+00 1.000000000000000000e+00 1.000000000000000000e+00 1.000000000000000000e+00 1.000000000000000000e+00 1.000000000000000000e+00 1.000000000000000000e+00 1.000000000000000000e+00 1.000000000000000000e+00 1.000000000000000000e+00 1.000000000000000000e+00 1.000000000000000000e+00 1.000000000000000000e+00 1.000000000000000000e+00 1.000000000000000000e+00 1.000000000000000000e+00 1.000000000000000000e+00 1.000000000000000000e+00 1.000000000000000000e+00 1.000000000000000000e+00 1.000000000000000000e+00 1.000000000000000000e+00 1.000000000000000000e+00 1.000000000000000000e+00 1.000000000000000000e+00 1.000000000000000000e+00 1.000000000000000000e+00 1.000000000000000000e+00 1.000000000000000000e+00 1.000000000000000000e+00 1.000000000000000000e+00 1.000000000000000000e+00 1.000000000000000000e+00 1.000000000000000000e+00 1.000000000000000000e+00 1.000000000000000000e+00 1.000000000000000000e+00 1.000000000000000000e+00 1.000000000000000000e+00 1.000000000000000000e+00 1.000000000000000000e+00 1.000000000000000000e+00 1.000000000000000000e+00 1.000000000000000000e+00 1.000000000000000000e+00 1.000000000000000000e+00 1.000000000000000000e+00 1.000000000000000000e+00 1.000000000000000000e+00 1.000000000000000000e+00 1.000000000000000000e+00 1.000000000000000000e+00 1.000000000000000000e+00 1.000000000000000000e+00 1.000000000000000000e+00 1.000000000000000000e+00 1.000000000000000000e+00 1.000000000000000000e+00 1.000000000000000000e+00 1.000000000000000000e+00 1.000000000000000000e+00 1.000000000000000000e+00 1.000000000000000000e+00 1.000000000000000000e+00 1.000000000000000000e+00 1.000000000000000000e+00 1.000000000000000000e+00 1.000000000000000000e+00 1.000000000000000000e+00 1.000000000000000000e+00 1.000000000000000000e+00 1.000000000000000000e+00 1.000000000000000000e+00 1.000000000000000000e+00 1.000000000000000000e+00 1.000000000000000000e+00 1.000000000000000000e+00 1.000000000000000000e+00 1.000000000000000000e+00 1.000000000000000000e+00 1.000000000000000000e+00 1.000000000000000000e+00 1.000000000000000000e+00 1.000000000000000000e+00 1.000000000000000000e+00 1.000000000000000000e+00 1.000000000000000000e+00 1.000000000000000000e+00 1.000000000000000000e+00 1.000000000000000000e+00 1.000000000000000000e+00 1.000000000000000000e+00 1.000000000000000000e+00 1.000000000000000000e+00 1.000000000000000000e+00 1.000000000000000000e+00 1.000000000000000000e+00 1.000000000000000000e+00 1.000000000000000000e+00 1.000000000000000000e+00 1.000000000000000000e+00 1.000000000000000000e+00 1.000000000000000000e+00 1.000000000000000000e+00 1.000000000000000000e+00 1.000000000000000000e+00 1.000000000000000000e+00 1.000000000000000000e+00 1.000000000000000000e+00 1.000000000000000000e+00 1.000000000000000000e+00 1.000000000000000000e+00 1.000000000000000000e+00 1.000000000000000000e+00 1.000000000000000000e+00 1.000000000000000000e+00 1.000000000000000000e+00 1.000000000000000000e+00 1.000000000000000000e+00 1.000000000000000000e+00 1.000000000000000000e+00 1.000000000000000000e+00 1.000000000000000000e+00 1.000000000000000000e+00 1.000000000000000000e+00 1.000000000000000000e+00 1.000000000000000000e+00 1.000000000000000000e+00 1.000000000000000000e+00 1.000000000000000000e+00 1.000000000000000000e+00 1.000000000000000000e+00 1.000000000000000000e+00 1.000000000000000000e+00 1.000000000000000000e+00 1.000000000000000000e+00 1.000000000000000000e+00 1.000000000000000000e+00 1.000000000000000000e+00 1.000000000000000000e+00 1.000000000000000000e+00 1.000000000000000000e+00 1.000000000000000000e+00 1.000000000000000000e+00 1.000000000000000000e+00 1.000000000000000000e+00 1.000000000000000000e+00 1.000000000000000000e+00 1.000000000000000000e+00 1.000000000000000000e+00 1.000000000000000000e+00 1.000000000000000000e+00 1.000000000000000000e+00 1.000000000000000000e+00 1.000000000000000000e+00 1.000000000000000000e+00 1.000000000000000000e+00 1.000000000000000000e+00 1.000000000000000000e+00 1.000000000000000000e+00 1.000000000000000000e+00 1.000000000000000000e+00 1.000000000000000000e+00 1.000000000000000000e+00 1.000000000000000000e+00 1.000000000000000000e+00 1.000000000000000000e+00 1.000000000000000000e+00 1.000000000000000000e+00 1.000000000000000000e+00 1.000000000000000000e+00 1.000000000000000000e+00 1.000000000000000000e+00 1.000000000000000000e+00 1.000000000000000000e+00 1.000000000000000000e+00 1.000000000000000000e+00 1.000000000000000000e+00 1.000000000000000000e+00 1.000000000000000000e+00 1.000000000000000000e+00 1.000000000000000000e+00 1.000000000000000000e+00 1.000000000000000000e+00 1.000000000000000000e+00 1.000000000000000000e+00 1.000000000000000000e+00 1.000000000000000000e+00 1.000000000000000000e+00 1.000000000000000000e+00 1.000000000000000000e+00 1.000000000000000000e+00 1.000000000000000000e+00 1.000000000000000000e+00 1.000000000000000000e+00 1.000000000000000000e+00 1.000000000000000000e+00 1.000000000000000000e+00 1.000000000000000000e+00 1.000000000000000000e+00 1.000000000000000000e+00 1.000000000000000000e+00 1.000000000000000000e+00 1.000000000000000000e+00 1.000000000000000000e+00 1.000000000000000000e+00 1.000000000000000000e+00 1.000000000000000000e+00 1.000000000000000000e+00 1.000000000000000000e+00 1.000000000000000000e+00 1.000000000000000000e+00 1.000000000000000000e+00 1.000000000000000000e+00 1.000000000000000000e+00 1.000000000000000000e+00 1.000000000000000000e+00 1.000000000000000000e+00 1.000000000000000000e+00 1.000000000000000000e+00 1.000000000000000000e+00 1.000000000000000000e+00 1.000000000000000000e+00 1.000000000000000000e+00 1.000000000000000000e+00 1.000000000000000000e+00 1.000000000000000000e+00 1.000000000000000000e+00 1.000000000000000000e+00 1.000000000000000000e+00 1.000000000000000000e+00 1.000000000000000000e+00 1.000000000000000000e+00 1.000000000000000000e+00 1.000000000000000000e+00 1.000000000000000000e+00 1.000000000000000000e+00 1.000000000000000000e+00 1.000000000000000000e+00 1.000000000000000000e+00 1.000000000000000000e+00 1.000000000000000000e+00 1.000000000000000000e+00 1.000000000000000000e+00 1.000000000000000000e+00 1.000000000000000000e+00 1.000000000000000000e+00 1.000000000000000000e+00 1.000000000000000000e+00 1.000000000000000000e+00 1.000000000000000000e+00 1.000000000000000000e+00 1.000000000000000000e+00 1.000000000000000000e+00 1.000000000000000000e+00 1.000000000000000000e+00 1.000000000000000000e+00 1.000000000000000000e+00 1.000000000000000000e+00 1.000000000000000000e+00 1.000000000000000000e+00 1.000000000000000000e+00 1.000000000000000000e+00 1.000000000000000000e+00 1.000000000000000000e+00 1.000000000000000000e+00 1.000000000000000000e+00 1.000000000000000000e+00 1.000000000000000000e+00 1.000000000000000000e+00 1.000000000000000000e+00 1.000000000000000000e+00 1.000000000000000000e+00 1.000000000000000000e+00 1.000000000000000000e+00 1.000000000000000000e+00 1.000000000000000000e+00 1.000000000000000000e+00 1.000000000000000000e+00 1.000000000000000000e+00 1.000000000000000000e+00 1.000000000000000000e+00 1.000000000000000000e+00 1.000000000000000000e+00 1.000000000000000000e+00 1.000000000000000000e+00 1.000000000000000000e+00 1.000000000000000000e+00 1.000000000000000000e+00 1.000000000000000000e+00 1.000000000000000000e+00 1.000000000000000000e+00 1.000000000000000000e+00 1.000000000000000000e+00 1.000000000000000000e+00 1.000000000000000000e+00 1.000000000000000000e+00 1.000000000000000000e+00 1.000000000000000000e+00 1.000000000000000000e+00 1.000000000000000000e+00 1.000000000000000000e+00 1.000000000000000000e+00 1.000000000000000000e+00 1.000000000000000000e+00 1.000000000000000000e+00 1.000000000000000000e+00 1.000000000000000000e+00 1.000000000000000000e+00 1.000000000000000000e+00 1.000000000000000000e+00 1.000000000000000000e+00 1.000000000000000000e+00 1.000000000000000000e+00 1.000000000000000000e+00 1.000000000000000000e+00 1.000000000000000000e+00 1.000000000000000000e+00 1.000000000000000000e+00 1.000000000000000000e+00 1.000000000000000000e+00 1.000000000000000000e+00 1.000000000000000000e+00 1.000000000000000000e+00 1.000000000000000000e+00 1.000000000000000000e+00 1.000000000000000000e+00 1.000000000000000000e+00 1.000000000000000000e+00 1.000000000000000000e+00 1.000000000000000000e+00 1.000000000000000000e+00 1.000000000000000000e+00 1.000000000000000000e+00 1.000000000000000000e+00 1.000000000000000000e+00 1.000000000000000000e+00 1.000000000000000000e+00 1.000000000000000000e+00 1.000000000000000000e+00 1.000000000000000000e+00 1.000000000000000000e+00 1.000000000000000000e+00 1.000000000000000000e+00 1.000000000000000000e+00 1.000000000000000000e+00 1.000000000000000000e+00 1.000000000000000000e+00 1.000000000000000000e+00 1.000000000000000000e+00 1.000000000000000000e+00 1.000000000000000000e+00 1.000000000000000000e+00 1.000000000000000000e+00 1.000000000000000000e+00 1.000000000000000000e+00 1.000000000000000000e+00 1.000000000000000000e+00 1.000000000000000000e+00 1.000000000000000000e+00 1.000000000000000000e+00 1.000000000000000000e+00 1.000000000000000000e+00 1.000000000000000000e+00 1.000000000000000000e+00 1.000000000000000000e+00 1.000000000000000000e+00 1.000000000000000000e+00 1.000000000000000000e+00 1.000000000000000000e+00 1.000000000000000000e+00 1.000000000000000000e+00 1.000000000000000000e+00 1.000000000000000000e+00 1.000000000000000000e+00 1.000000000000000000e+00 1.000000000000000000e+00 1.000000000000000000e+00 1.000000000000000000e+00 1.000000000000000000e+00 1.000000000000000000e+00 1.000000000000000000e+00 1.000000000000000000e+00 1.000000000000000000e+00 1.000000000000000000e+00 1.000000000000000000e+00 1.000000000000000000e+00 1.000000000000000000e+00 1.000000000000000000e+00 1.000000000000000000e+00 1.000000000000000000e+00 1.000000000000000000e+00 1.000000000000000000e+00 1.000000000000000000e+00 1.000000000000000000e+00 1.000000000000000000e+00 1.000000000000000000e+00 1.000000000000000000e+00 1.000000000000000000e+00 1.000000000000000000e+00 1.000000000000000000e+00 1.000000000000000000e+00 1.000000000000000000e+00 1.000000000000000000e+00 1.000000000000000000e+00 1.000000000000000000e+00 1.000000000000000000e+00 1.000000000000000000e+00 1.000000000000000000e+00 1.000000000000000000e+00 1.000000000000000000e+00 1.000000000000000000e+00 1.000000000000000000e+00 1.000000000000000000e+00 1.000000000000000000e+00 1.000000000000000000e+00 1.000000000000000000e+00 1.000000000000000000e+00 1.000000000000000000e+00 1.000000000000000000e+00 1.000000000000000000e+00 1.000000000000000000e+00 1.000000000000000000e+00 1.000000000000000000e+00 1.000000000000000000e+00 1.000000000000000000e+00 1.000000000000000000e+00 1.000000000000000000e+00 1.000000000000000000e+00 1.000000000000000000e+00 1.000000000000000000e+00 1.000000000000000000e+00 1.000000000000000000e+00 1.000000000000000000e+00 1.000000000000000000e+00 1.000000000000000000e+00 1.000000000000000000e+00 1.000000000000000000e+00 1.000000000000000000e+00 1.000000000000000000e+00 1.000000000000000000e+00 1.000000000000000000e+00 1.000000000000000000e+00 1.000000000000000000e+00 1.000000000000000000e+00 1.000000000000000000e+00 1.000000000000000000e+00 1.000000000000000000e+00 1.000000000000000000e+00 1.000000000000000000e+00 1.000000000000000000e+00 1.000000000000000000e+00 1.000000000000000000e+00 1.000000000000000000e+00 1.000000000000000000e+00 1.000000000000000000e+00 1.000000000000000000e+00 1.000000000000000000e+00 1.000000000000000000e+00 1.000000000000000000e+00 1.000000000000000000e+00 1.000000000000000000e+00 1.000000000000000000e+00 1.000000000000000000e+00 1.000000000000000000e+00 1.000000000000000000e+00 1.000000000000000000e+00 1.000000000000000000e+00 1.000000000000000000e+00 1.000000000000000000e+00 1.000000000000000000e+00 1.000000000000000000e+00 1.000000000000000000e+00 1.000000000000000000e+00 1.000000000000000000e+00 1.000000000000000000e+00 1.000000000000000000e+00 1.000000000000000000e+00 1.000000000000000000e+00 1.000000000000000000e+00 1.000000000000000000e+00 1.000000000000000000e+00 1.000000000000000000e+00 1.000000000000000000e+00 1.000000000000000000e+00 1.000000000000000000e+00 1.000000000000000000e+00 1.000000000000000000e+00 1.000000000000000000e+00 1.000000000000000000e+00 1.000000000000000000e+00 1.000000000000000000e+00 1.000000000000000000e+00 1.000000000000000000e+00 1.000000000000000000e+00 1.000000000000000000e+00 1.000000000000000000e+00 1.000000000000000000e+00 1.000000000000000000e+00 1.000000000000000000e+00 1.000000000000000000e+00 1.000000000000000000e+00 1.000000000000000000e+00
6.015941108945137977e-02 5.545104279194181807e-01 -3.168443667850823209e-01 7.900524197172500429e-01 5.232564105051022985e-01 5.856118830319525514e-01 5.441562012366211176e-01 4.936746678913427333e-01 5.614076622550436824e-01 5.272120185575108753e-01 1.090634117884341947e+00 -7.565994653060718056e-01 1.436345328499629481e+00 4.752838067146727408e-01 5.252212662424244893e-01 4.452792351177062846e-01 8.018480784295394237e-01 9.783080229656866411e-01 7.531489446348098582e-01 5.011444986229950382e-01 3.872759470298537399e-01 1.001945105526273583e+00 3.541090311089790110e-01 5.873124483027251097e-01 5.485964484354310944e-02 6.523516187183515669e-01 4.628345432034093321e-01 7.257961349227076697e-01 5.240752213392046999e-01 1.671178478176011728e+00 4.835988026535724127e-01 5.961936134703783585e-01 7.186104027780577663e-01 5.167858558966006433e-01 6.797600965188681510e-01 4.711014320665364852e-01 6.031046312146847166e-01 1.908788630772845663e+00 -1.098015443518153833e-01 5.324981146180570724e-01 -2.574286432974889349e-01 -5.617062303257391864e-01 7.437618091968829503e-01 2.343178246815152965e-01 3.625642707447959689e-01 5.071617009332534121e-01 7.902533151061548189e-01 5.528838881172499775e-01 7.061679075832502095e-01 1.315087129041160249e-02 5.329726671562176610e-02 7.111203838073969496e-01 6.864955990161679678e-01 4.133011373479054673e-01 4.740007119209450059e-01 3.087231144357695939e-02 5.766174057796138452e-01 5.311306107144780908e-01 2.069771581813920069e-01 4.902936258104699796e-01 9.376447322784482452e-01 4.285378967231340819e-01 5.401345826451365850e-01 3.541091651703733301e-01 6.709833640086948492e-01 6.917749287589218810e-01 5.311436807757327072e-01 5.487635401699417770e-01 5.045262651927917563e-01 6.050209574557727232e-02 5.119745129486256152e-01 5.654189999283472101e-01 5.440481433912228715e-01 2.516483790448532237e-02 1.541536006417145721e+00 5.068009175067107464e-01 6.413999228723442636e-01 7.042060242986517560e-01 5.228422342865621797e-01 1.392479257442851948e+00 5.201561487588021171e-01 3.947231069159019001e-01 1.482035202483776626e+00 7.854835907246485727e-01 5.361027969343989952e-01 7.468018628465780129e-01 7.937537569725652276e-01 4.977621357254344847e-01 4.344231477755126081e-01 5.771870364399356301e-01 3.617631091236315211e-01 2.278130621283524171e+00 8.018567306104766867e-01 9.042502280058524466e-02 5.129907513036284783e-01 5.562934101214431770e-01 5.081072467852331132e-01 4.895416634259688315e-01 1.911407120322872466e-01 6.594162274254375955e-01 1.671641021809478822e+00 6.842495015318287299e-01 5.164002497642690148e-01 4.743157848936054299e-01 8.463261615838070240e-01 -2.204458291729416874e+00 -1.275436372326586021e+00 4.850705472790596828e-01 6.389509223014285810e-01 9.646311564830888363e-01 5.429274956800672625e-01 4.141498746413217469e-01 2.033881565793476953e-01 5.274359228149463341e-01 5.328047422094351893e-01 5.347576224632796249e-01 4.433537649524346702e-01 4.830688539892487587e-01 1.053662530147851051e+00 5.269302690071396844e-01 1.329932475187688645e+00 5.273964945104375746e-01 6.700589884973084942e-01 -6.266211059935344885e-01 5.088466412189261989e-01 2.002357153675911050e+00 4.446639926777339880e-01 4.904287617669525479e-01 6.579262279626471033e-01 5.248034502580615213e-01 5.965739720397437162e-01 5.239763853956850292e-01 4.521453533429364291e-01 6.060252390749998330e-01 -4.487114789339622378e-01 -1.701934012710457078e-01 6.958744548778847960e-01 3.532452022225261723e-02 1.019396577743246324e+00 4.815843891252262754e-01 5.379644322152233871e-01 8.825708823124537306e-01 4.196726637404723514e-01 4.772564915752511294e-01 5.258345559838216721e-01 1.812933957998749679e-02 1.014544443876804980e+00 -2.714662570727697788e-01 4.119589263253083389e-01 -9.545446924221129281e-01 7.358405655839975745e-01 -2.737422608528486956e-01 5.071591445849066293e-01 4.780298926294637152e-01 6.303120228196693597e-01 5.275541058150066132e-01 2.111355053634552448e+00 -2.130606378503401566e-01 8.381069488587721272e-01 6.411658630014033244e-01 5.766297550776128267e-01 5.176976378923034972e-01 5.008491380731210363e-01 5.206781517103713508e-01 1.054710906065406517e+00 3.035435076000473908e-01 8.509879316637867230e-01 2.715362584456424422e-01 3.530513264205535906e-01 5.595113312423898311e-01 6.729349561463980889e-01 7.879930567694385379e-01 5.071920415255100067e-01 5.211599238431311454e-01 4.013222130607018712e-01 3.897268266430403694e-02 2.487795261621717491e-01 1.276106489667469535e-01 7.651492668805345287e-01 1.145031843535008420e+00 6.335171007374726937e-01 5.231544399351878427e-01 -1.573581433537376839e-01 4.722822236530952456e-01 3.735801732099512940e-01 4.674618245348852175e-01 5.317360307331089331e-01 5.454816215951372449e-01 2.930487574641969406e+00 4.786166926102449204e-01 5.838507398945947946e-01 -9.509021104952077863e-01 5.245446226070227258e-01 4.943624402107809068e-01 2.122613619278720665e-01 5.156189162399242853e-01 9.547306577161084329e-01 5.210610863076379218e-01 3.441710079114670418e-01 5.633702992098096329e-01 6.325696049283485722e-01 5.495140782433908244e-01 7.810969155910750805e-01 6.027514800483001478e-01 5.432014359437010720e-01 3.441710438752175194e-01 1.601353505168375269e-01 1.311726492249243758e+00 5.101638532464853881e-01 5.677955865878349107e-01 4.174261444071816207e-01 -1.041832178630510281e-01 5.111369371033149811e-01 1.536491081533711001e-01 5.374610648503046484e-01 5.301358562289648635e-01 5.237529028217298155e-01 5.206848273145071593e-01 5.211263543079325267e-01 5.225085944825270667e-01 4.538611057786315350e-01 5.302235611547807537e-01 -7.326613930439928035e-01 6.354258823150571445e-01 5.455687941128949392e-01 3.352915771440858617e-01 -5.306879951800713702e-02 1.367806224579018792e+00 9.832007724737922283e-01 4.853888354352243195e-01 -1.007642615615663706e-01 1.077091011767959960e+00 5.225615896028452667e-01 5.250719240261083609e-01 6.796204291808142228e-01 4.022241454547867412e-01 2.032443091886710906e-01 1.489712759573155743e-01 -1.746506763912810400e-01 -3.491018965250538425e-02 6.196375089683292536e-01 5.285280734392512336e-01 -1.308387574699998723e-01 4.750202135727150110e-01 5.243452373891622775e-01 5.568881892313117810e-01 -8.703511822231928263e-02 7.699767784555309191e-01 -2.453691130762273076e+00 6.075979025169443437e-01 -7.237101939919051707e-01 5.037178827412719384e-01 5.272186286916615838e-01 3.541087800501329097e-01 5.220581318389380110e-01 4.752951795703588278e-01 4.901693214553520805e-01 8.054671723431442443e-01 5.834765854204386759e-01 1.710104742687140078e+00 6.853418259177571636e-01 6.619013179435809802e-01 4.520624016379228283e-01 4.598448628057136278e-01 9.376446930478675723e-01 5.483844574652383397e-01 2.798228219177267828e+00 4.450344388565459219e-01 2.102509838432408407e-01 7.923854881987900667e-01 5.204671997405729833e-01 9.380550234492285311e-01 5.241280321054068159e-01 5.525137334203380490e-01 5.231511715963863551e-01 1.193418825056226096e+00 7.564079091220503592e-01 8.510735829448766721e-01 7.881405051967393938e-01 5.895310458880750337e-01 6.901270961705192608e-01 5.141849078339515433e-01 3.641635374844880979e-01 -7.706299579534465760e-01 3.954940149752859679e-01 3.671741041400128913e-01 4.704973271110688970e-01 5.450735024713587729e-01 5.347577493188194753e-01 6.166651179339948108e-01 5.092679404311982738e-01 -9.952935256886726867e-01 7.919580862081675443e-01 4.645244189768341081e-01 -1.841516230902370474e-02 4.578615205537438504e-01 1.867719026108621172e+00 5.119757079420699242e-01 5.205269560615257696e-01 4.119486223377190615e-01 -3.584084356378927527e+00 5.304813186085131083e-01 3.057169435842218785e+00 7.887442522076543172e-01 5.291482702242312763e-01 -5.634437651868793306e-01 5.293482152128307083e-01 5.259206956881417039e-01 4.681298495608625099e-01 4.509248827111129176e-01 3.212912168452992656e-01 6.585288686330718066e-01 3.134741415428470845e-01 5.284454979440385003e-01 5.192319965377248936e-01 3.773838005125561001e-01 5.224293932878208979e-01 7.893416248343871899e-01 5.249966672440418147e-01 1.226079508855253630e+00 6.303623562043284001e-02 2.258787361120599524e+00 2.724324206706578266e+00 4.706958779210994037e-01 -2.549338415453696882e-01 3.841395475938706450e-01 4.000259517899224515e-01 7.501339765221385347e-01 1.415689438140251610e+00 5.277048226321235935e-01 1.144186551652180084e+00 5.253668077288603522e-01 1.168194984334345182e-01 1.267086748452710410e+00 6.260136621179251959e-01 5.778547569082493895e-01 5.415283778636758028e-01 9.089773522132572614e-01 -3.956203735798395460e+00 1.683522940749221597e+00 5.284289452757285899e-01 6.331241488886706348e-01 5.170202780291545119e-01 1.908788624881892604e+00 2.891945764600531432e-01 5.716355812921015689e-01 4.442689052821458540e-01 6.819014368009141958e-01 1.363168657462569877e+00 4.849917829948918180e-01 3.441708775237678486e-01 4.750252624593918060e-01 6.027514764500325750e-01 3.404804046605078294e-01 5.681252385888815315e-01 9.080142445898653492e-01 5.241910785830132813e-01 3.824081325541097698e-01 1.195632102189719964e-01 6.373927096581707419e-01 5.249117271525032269e-01 2.329923815084609107e-01 5.716355669154362662e-01 5.841295969771579388e-01 5.241759197950582871e-01 1.063653655949124532e+00 8.952888429375317481e-01 1.179268997070896496e+00 5.321174989482539974e-01 2.089304155635747506e-01 9.376442513615137475e-01 -1.103840379443268710e-01 9.348211668325780987e-01 6.308055265176474302e-01 5.794614722678832763e-02 3.742616593104685641e-01 8.320456922046116643e-01 3.819112993851847548e-01 4.601723944649894760e-01 3.598613403096616037e-01 -3.461433117969973661e-01 -2.580071935205792144e+00 5.762248596169318171e-01 6.027514529065959303e-01 6.027514615856778279e-01 5.100252766489193901e-01 3.331559042438432261e-01 -2.541143026085290191e-01 2.651007434454071277e-01 5.324203956494640844e-01 6.975391496400156210e-01 5.209375661406835389e-01 1.001768522841249176e+00 3.441705733029775116e-01 5.233766142103207786e-01 5.117405421127325660e-01 3.180229775157650263e-01 6.652040715956432093e-01 5.256692512228879899e-01 5.226809997078987191e-01 4.955434023686470235e-01 3.457478219128158892e-01 3.065297049303677274e-02 6.027514822078127166e-01 6.619066370874910898e-01 5.257868119006892105e-01 3.884877922465322375e-01 8.601366794208874511e-01 7.800068764990663039e-01 5.653920627746900074e-01 1.973948083330878678e+00 4.732822508497819269e-01 -3.304971041242982910e+00 7.899026372977319133e-01 1.567404923643919368e+00 5.526054211572188901e-01 -1.150968605776474307e+00 8.949488434311864138e-01 4.325423646962179292e-01 5.390777802969001220e-01 5.041227102846964625e-01 -5.170736654027715540e-01 5.273979589790777078e-01 1.085125477235050040e+00 4.504169018709902050e-01 -4.474493776539821832e-01 5.140125116440227293e-01 5.158817083318478769e-01 7.973462782299263196e-01 5.354286561602226158e-01 6.306179177673282288e-01 -5.666237062222510001e-01 5.592274137132634548e-01 5.259572323345971245e-01 4.383451893766716623e-01 5.144963996603901801e-01 7.736910913575013593e-01 5.236967867347925853e-01 6.353439744619557850e-01 3.289037459961844378e-01 5.454113838359355704e-01 2.006300901040314888e-01 3.673924874467350832e-01 4.003838261212178673e-01 9.830185358952379104e-01 5.647173304181629661e-01 3.311578501665307428e+00 6.525651821160831645e-01 6.762154531814150715e-01 5.370337516184490179e-01 4.897743012124033402e-01 1.086731212001955729e-02 5.019079705036947336e-01 5.509246381615588994e-01 5.451835061592223974e-01 1.149749507890568845e+00 7.736117935013296920e-01 5.079066921781323352e-01 4.337579996311579644e-01 1.120722684884318587e+00 5.273012555283130842e-01 5.128439995890801129e-01 5.099870595691194941e-01 8.969454109982584189e-01 5.238971708275859118e-01 9.576890643641311485e-01 4.606370479949068453e-01 5.222910102300861723e-01 6.024417098754766831e-02 5.224328138545771827e-01 2.854881111342045738e-02 2.586042515993736690e-01 3.940706430423261408e-01 5.389231795797387869e-01 7.971520613322959914e-01 5.231354859918894151e-01 3.816473005984594713e-01 1.695072201455558036e-01 5.103485015086527410e-01 4.963684814084773356e-01 4.439614988366361037e-01 -9.584891384655918126e-03 5.226516516257598832e-01 2.988693574626352101e-01 5.216891863713498667e-01 4.076095780418430570e-01 1.266428525514740944e+00 7.242490937970490483e-01 5.166387390145762426e-01 2.401744526820397130e-01 8.762503737410342053e-01 4.743505554480758613e-01 1.011476084527047403e+00 5.344439857677458772e-01 5.922458622685858876e-01 7.200104455270603943e-01 2.061823885009781421e+00 5.450320565895958591e-01 6.176489743335878968e-01 5.622979437016489834e-01 7.922822349469483827e-01 5.883677701383328573e-01 8.923114165777791262e-01 -5.963223587618692312e-01 4.761781021964985872e-01 5.235635451224892600e-01 4.570229056987110683e-01 5.529461329468784436e-01 -6.579141187312349537e-01 3.824519100690217388e-01 5.209292146481935282e-01 7.074516784549055304e-01 6.719814145169776820e-01 1.618671919922744173e+00 5.232606154174418434e-01 5.344563757953773031e-01 -7.578463763974120360e-01 5.303093696497256371e-01 1.269369664230015404e+00 7.383134619683346944e-01 3.110723719102077567e-01 2.131643367474024553e-01 -1.981388376843864263e+00 5.356268913468716919e-01 2.132549628872575098e-01 1.118796616399998056e+00 8.390802239641557136e-01 5.441899055027856758e-01 5.853439258901169673e-01 4.728778400443400254e-01 7.895958538683898187e-01 4.063198511420429981e-01 5.473303286668611545e-01 1.384372178569118900e-02 6.438679360115284744e-01 4.379440469748669962e-01 3.324929112712605161e-01 5.285347177198336244e-01 4.160723947818833479e-01 1.256233019817460272e+00 -9.003052958413026996e-02 -2.559060332690831774e-01 4.119051433048593891e-01 4.792951492513770617e-01 5.223996718693586505e-01 5.617367577419114522e-01 -9.164982340998383270e-01 3.274086393055144040e+00 4.136434969327165700e-01 4.342573857910980717e-01 4.816844172693620640e-01 5.244206475408338397e-01 4.981357444744188845e-01 4.324158543579427749e-01 3.339795035207002716e-01 6.305514901239596126e-01 5.208733001700110998e-01 4.471342456912904550e-01 2.899275234942259027e-01 4.233757315254388365e-01 5.212031979116686919e-01 4.045939772213953955e-01 5.903190588732278865e-01 4.978834246993110169e-01 6.998275869018009132e-01 1.038373090208158045e+00 2.376688774008456573e+00 4.617019296771041614e-01 5.047852281552258624e-01 2.806127144666171747e-01 4.836389751339779108e-01 4.183559267951558747e-01 5.229531626445423909e-01 5.198960777055026128e-01 4.733537623219762902e-01 5.886509835429541981e-01 5.922817909058760710e-01 7.896177437295562873e-01 3.656049107130443510e-01 3.838434081971693335e-01 3.797153168050600991e-01 4.517367188905267450e-01 9.535001840743470569e-02 9.376447082782639608e-01 4.126486340887544069e-01 6.231318827880911321e-02 1.916321747867009595e+00 3.612518540299989867e-01 4.040354209739854263e-01 6.034044919592690404e-01 6.896979878899608951e-02 5.501219129222627569e-01 1.555075879575613440e+00 8.207350994510849151e-01 6.356132227144224434e-01 5.195345273405742592e-01 5.095606123522815611e-01 4.007192352767685040e-01 5.595096129961820708e-01 5.443117561213082212e-01 5.175736248842918164e-01 -3.232146824984082900e-01 4.265088942402368577e-01 -1.725317254299538083e+00 5.632437562256944474e-01 5.404218182331607112e-01 5.309723094014345834e-01 4.119425644932609987e-01 9.376447082992586113e-01 2.404955994990638501e-01 4.910987445739263824e-01 1.404099879181526678e+00 -6.091041250510127458e-01 5.193744473060677436e-01 1.177854729998957906e+00 1.606228022755556761e+00 6.028741335014730085e-01 5.224686929017509085e-01 -7.710476718790088002e-02 -1.766219450408220482e+00 2.603259279682577088e-01 8.803771980910927164e-01 5.467766076989750701e-01 5.245126674214962703e-01 6.041130632449209781e-01 4.761749871995893391e-01 -4.473472591329012982e-01 8.542300550327541764e-01 5.347568295646994985e-01 3.229606615223180599e-01 5.262169517288944887e-01 1.442035628518045093e-02 -1.576526584411735432e-01 1.875465387770942183e+00 4.076998484502883380e-01 4.446223078636296622e-01 5.239661938665123309e-01 3.140458857388878089e-01 4.376498047376289890e-01 -2.019241049549814482e-01 -1.502564409299210091e+00 5.283530503576281401e-01 5.115108008671517270e-01 5.819265017402980300e-01 4.638199379061683780e-01 5.296602146234309361e-01 5.473001248074056413e-01 5.357593977436536647e-01 5.430862154863864699e-01 1.048130523190165864e+00 6.956976791958979778e-01 5.292774033391089983e-01 6.620723565271707800e-01 5.556760780145467704e-01 5.929124242525378730e-01 7.093964887022440047e-02 5.716356211800973641e-01 4.408796976042450577e-01 5.770467329260582368e-01 7.243087385603068640e-01 7.548108452341938390e-01 8.923287377133068965e-01 -5.866491777129110297e-01 5.315212197334582278e-01 5.449318770791456989e-01 5.203737347127076474e-01 6.006133030063363076e-01 9.196526970763986286e-01 4.204119552322344022e-01 5.215023715375624036e-01 -3.535044514796745196e-01 -9.344542730336691250e-01 2.395309809951954083e+00 5.378657095323021720e-01 9.149446340515774434e-01 4.489706545725297149e-01 5.890056724192309634e-01 4.218616090002395569e-01 1.549409678966571224e-01 5.208227980974590166e-01 5.126269065056354712e-01 1.944628258686866007e-02 5.259825685905962223e-01 4.881946319327251649e-01 5.163219488758707953e-01 3.766771762879113639e-01 5.319103046191234752e-01 6.621819078067858744e-01 4.490227819469399528e-01 4.673763406972128998e-01 5.532539129763474062e-01 5.193999015119781237e-01 4.277426758917352578e-01 5.055274073572033622e-01 -2.249943972992980157e-01 5.230186631654794027e-01 6.401856789646169776e-01 5.001511110220520084e-01 7.902989073821350408e-01 9.376448011093646562e-01 7.197276733023725281e-01 -6.362819963385312194e-01 9.700439860572741546e-01 1.908788631157556592e+00 5.249154037952071805e-01 4.636899720644345746e-01 1.099332921075886205e+00 5.141495830765433483e-01 7.905600144702634724e-01 5.182264190471302934e-01 1.936776180492734811e+00 5.220844125657920776e-01 4.750211010427352609e-01 1.240183373142485390e+00 -7.177633667425813158e-02 5.358902785504868760e-01 -1.458547192849815322e-01 -1.017413888934514121e+00 -1.575198985911827887e-01 7.846005061532034253e-01 4.969223942294797580e-01 5.436401556044825334e-01 -3.081603329150663373e-01 4.973745251644675069e-01 3.430275538327938467e-02 -4.454641503392032242e-01 5.521405107506086596e-01 5.081141237590454107e-01 5.255521425179962014e-01 5.225725685657711672e-01 4.688623425391140187e-01 9.282218583174506321e-01 -4.777836060699470755e-01 5.229533469003367907e-01 5.173686218401065684e-01 4.781279777866226932e-01 1.186258728977754640e+00 4.692842619866464116e-01 7.272073841215042078e-01 5.177088776300381445e-01 4.210207020345590329e-02 -5.166785798317576894e-01 4.743765786377645566e-01 4.740884242881435728e-01 6.836798169692767102e-01 5.120215947616331142e-01 4.146379136199000448e-01 5.232593818582209622e-01 5.261570668750770174e-01 4.598168513377539068e-01 5.145600179075220382e-01 8.429448429198505011e-01 2.640378935376810787e+00 -2.587442566190130133e-01 6.487748077447531569e-01 3.909666004741310097e-01 1.932244836996340476e-01 6.345660608474895659e-01 -5.030683085412442079e-02 -1.651820229491071990e+00 5.254409674155460230e-01 2.704297827886086747e+00 5.503550844787278296e-01 1.845153661022668479e-01 1.418916158976126773e-01 5.347576689827329144e-01 5.977113852918882753e-01 1.612318293006141712e+00 5.396965876498458492e-01 1.253369575060923891e-01 3.999141597094698075e-01 1.783552246505906380e+00 5.314085765894228652e-01 8.212814491855090493e-01 5.266309316211178482e-01 7.375069335981718766e-01 4.726220105520491099e-01 5.894230405783101867e-01 3.551164779678901706e-02 5.247220343050801317e-01 6.237705530270138965e-01 -5.963380418416215356e-01 -1.380331575035416147e-01 1.190343175018086397e+00 2.436876800845859115e-01 4.756058629934408755e-01 7.362163042940298441e-01 5.120918552298336923e-01 2.043608560989318423e+00 6.277283218947518062e-01 9.977876341780770458e-03 4.504400277665648877e-01 4.111134150781930452e-01 1.167783515728414656e+00 5.078393825143866502e-01 -1.157736441534439401e-02 5.132318430659826847e-01 2.171422242306605011e-03 5.067370428271310567e-01 5.206494406046933143e-01 3.745042567986201637e-02 4.684096276243109556e-03 6.554796804703093560e-01 4.363063358609139963e-01 5.737857317035406357e-01 1.355886678120307998e-01 3.951272137820306951e-01 5.045709224095298318e-01 4.232612436077689000e-01 5.114588931960312168e-01 4.817818802405691159e-01 5.516533655763350419e-01 1.025443427925589068e+00 3.235409378408694803e+00 9.870635628248671800e-01 5.120784022632429711e-01 4.888358992072688314e-01 2.228843512885559375e-01 5.267595230195031286e-01 8.700594300199627762e-01 5.218337702766417951e-01 1.317337512253548892e+00 5.466561881261328137e-01 -6.091428790969801721e-01 -2.164438303648237930e-02 4.637824641065473319e-01 6.183949241601511826e-01 5.818377617761411047e-01 5.255513179523795264e-01 5.060959993840050825e-02 5.305764567189282799e-01 6.370341645756490978e-01 -3.987535701807320532e+00 4.784776649330324538e-01 5.373511011751397337e-01 1.151605562557418638e+00 5.187901014781821640e-01 3.616335208331248330e-01 6.490496900073005060e-01 -9.409480243368839592e-01 -4.933125936927298394e-01 9.530198413257140455e-03 5.232094834634316571e-01 6.736363610743935082e-01 2.057448066661223540e-01 5.110455903137424150e-01 -3.543017338397616012e-01 5.001843360586679665e-01 5.863927383871458954e-01 6.981852805868682399e-01 5.645087413243338181e-01 4.629718728824720464e-01 1.345059947740240847e-01 -8.135863307963669966e-01 6.511620662231399903e-01 5.192123433130445553e-01 1.492430866395420552e-01 5.220323489007183682e-01 4.729858066618749524e-01 5.374975936876047466e-01 6.534050521809642298e-01 5.882648797795058115e-01 5.565499873188396451e-01 5.073683783807622083e-01 1.908788628381406838e+00 3.399701843928293887e-01 5.157345403469223433e-01 -1.517417471026969999e-01 4.922683473045832425e-01 6.562446575163335405e-01 5.014808880791167267e-01 4.739004687097276847e-01 4.013909339762997686e-01 9.751960548661929851e-01 1.245517657483523166e+00 5.508451742016573505e-01 5.294072924893212795e-01 5.973365938248119678e-01 5.211047568066816682e-01 5.268142208405555138e-01 5.230420302009805011e-01 9.699869327148918918e-01 6.376404579960172070e-01 -4.735534118771826395e-01 4.764870532921408053e-01 8.897964130081369438e-01 5.147220110974831675e-01 -5.525428878104297892e-02 5.197194959450954777e-01 1.650881973205525100e+00 -1.361438512977310444e-01 6.998649436531989565e-01 2.263662165009356075e-01 5.340406273578274243e-01 8.993597652818512422e-01 5.239256367042227636e-01 3.783961834925360646e-01 1.422803114944844793e+00 4.742978293723714711e-01 5.067920800640077772e-01 -7.564118653588079999e-01 4.342965715495812895e-01 1.036864072905410605e+00 6.410092965579743396e-01 5.876767293574675782e-02 1.012091357448603235e+00 5.583927426018681084e-03 7.943579008708219202e-01 1.693068484464815171e+00 -8.761356536895772429e-01 5.140072831384496777e-01 5.210778383563782201e-01 -5.033644641049214163e-01 3.026166808920942031e-01 5.005095845713578573e-01 5.407452812193590530e-01 4.487111146782965521e-01 5.016686544997528419e-01 2.623494092212487194e-01 3.584644034233757659e-01 5.165547662353390246e-01 5.275100600590977296e-01 1.085846372363001924e-02 -1.992416541874686697e-01 5.344615554242035937e-01 1.073976019747905131e+00 6.075187590084080158e-01 -5.967932461494480645e-01 4.102393738052361183e-01 5.214810507609810575e-01 5.738271244867680920e-01 4.854057900033041661e-02 3.221417323131904320e-01 5.220431061493620017e-01 5.311242145302250695e-01 4.579670968110562956e-01 -1.455912062269322342e-02 5.247758788560280552e-01 5.449530168256376816e-01 5.159698866627883129e-01 2.131761846111318803e+00 -2.876653549927074560e-02 3.932431936013370821e-01 5.048137346865441133e-01 1.880701603090958685e+00 5.102884412617630927e-01 5.863791417106049009e-01 4.101982097836424923e-02 5.716356785782483740e-01 5.275682401670593880e-01 4.782311833193522710e-01 4.365520747105654520e-01 5.325732712108506295e-01 4.957093148894399226e-01 5.261088771687248977e-01 -5.890604955974800827e-01 5.258252144135588946e-01 5.328782607872475374e-01 5.090450376854837033e-01 1.395419750471306841e+00 5.171566524862746261e-01 -2.531125695112971807e-01 1.168886469827438379e+00 -1.368952803594538636e+00 -5.654103965581116498e-01 4.802813517310652314e-01 5.238811222620187724e-01 6.743599111857612183e-01 5.470283975122542941e-01 5.662850403996803061e-01 5.133807164134405188e-01 5.716355861193137544e-01 5.238636498340428771e-01 5.833273014472415419e-01 6.154382810265616177e-01 5.245694237276821159e-01 3.423103282064343111e-01 5.289675296999669651e-01 5.287407651851065982e-01 4.309096310260843721e-01 5.173745764797136326e-01 5.149454008183619313e-01 4.997473474860741893e-01 6.431521796415271552e-01 5.243941158889036114e-01 7.427130156447980802e-01 5.365364476166608609e-01 5.215804383202455874e-01 5.328642957037162953e-01 4.641094012790943912e-01 3.212646064516256894e-01 2.535394180703228972e+00 5.697255144889901146e-01 6.528115573164905427e-01 3.004028078033702531e-01 5.703755000112934459e-01 1.130145393810389143e+00 4.367410347620073185e-01 6.777998969341202384e-01 5.219158947973064899e-01
7.115283160188000666e-01 2.896796847105809203e-01 4.691363823311958114e-01 -5.811981114097066609e-02 3.046761790748064858e-01 4.352691075052727565e-01 5.423738902767508696e-01 3.405435600086554881e-01 4.128665115235474192e-01 2.969361462423893427e-01 2.111604488261914714e+00 1.757491429715067000e+00 -1.505777361870381581e+00 5.465081423685768103e-01 3.070295527400017099e-01 4.703970078452960890e-01 1.433424865630935907e-01 4.608877348467650403e-01 3.730297854001686231e-01 3.183312334013942424e-01 3.579225994942631939e-01 2.192105188238911762e+00 3.220035497475077779e-01 3.190527470365770446e-01 7.710230106050425247e-01 -1.256910752205527004e-01 3.591675248532782416e-01 1.673339694896560093e-01 3.826919340515454460e-01 -9.759980475246248233e-01 4.713399736966975007e-01 -1.784921453233272448e-01 2.902709431243179483e-01 2.714158058262913231e-01 -3.960297417791298069e-01 5.109429111493203335e-01 3.276734519639284415e-01 -4.272498922635031282e-01 -3.380801347846117189e+00 3.053966205283069613e-01 1.244107929843764948e+00 1.504846678454504483e-01 -1.716281341559618423e-01 7.907746069143807288e-01 4.870786447396525110e-01 2.965944074860489832e-01 -5.846366877268521084e-02 3.294081279714591304e-01 7.718910698996400699e-02 6.644217948089216064e-01 7.013492808903717401e-01 5.217030153134705195e-01 -7.645566295117313393e-02 2.744543435345050408e-01 5.641869384785701547e-01 6.875884219667809383e-01 2.619567086059548244e-01 3.514668447783247385e-01 3.437634093350743214e-01 2.817939230626468339e-01 4.409953300916584773e-01 4.143088631073841843e-01 2.850262553463368542e-01 3.220035336233970091e-01 -3.335639428717140365e-01 1.020879474287518657e-01 2.939515255216337830e-01 2.989943079389321134e-01 3.429298832281657550e-01 6.757231674433834545e-01 2.376493767495033160e-01 2.799412488964125867e-01 3.098494758334531252e-01 6.935246108047885549e-01 1.976109739653162833e+00 3.220152290210938073e-01 4.841326801809662794e-01 4.838291066115570915e-01 3.033458858287186310e-01 -1.379937486090400345e+00 3.196056980836069483e-01 4.677834376388153581e-01 2.477194964122007459e+00 5.321667576823056051e-02 2.312358585862690219e-01 -3.095775953017302351e-01 1.594001735600752701e-01 3.868707844863030210e-01 -5.915883160798953710e-01 -9.363505246316083941e-01 4.873473307155686829e-01 1.649013118542346445e+00 4.018553732643519172e-02 6.863378690409437377e-01 3.562712326133164464e-01 3.658998953871201998e-01 3.116189490485981040e-01 8.118090824773666059e-01 7.351709809401398843e-01 -1.159102322351761166e-01 -1.898354280512366266e-01 5.995537402926718468e-02 3.424283039989413080e-01 2.542236732865209015e-01 -9.133847387568033716e-02 3.240124509683641296e+00 -3.044654292663014905e-01 4.399716147743593098e-01 5.346485267623432569e-02 8.137470635232522120e-01 3.151181121332787272e-01 5.603524646296479395e-01 1.634076371657965931e-01 2.799037825850382299e-01 -4.618060697397599057e-01 3.506757757908575135e-01 2.839545897380736650e-02 3.176578013283022917e-01 1.286087155564479945e+00 2.867451627432808237e-01 -1.501429183788738353e+00 6.247916789659745812e-02 3.021115464113374033e-02 1.572098455324026256e+00 2.917765728600220654e-01 2.245175642878694866e+00 4.231865421015741924e-01 2.194310841015909008e-01 3.244081831448337172e-01 2.966266200979177370e-01 3.444645634146604185e-01 3.031464457718157091e-01 6.585925715708701444e-01 3.600107477892092733e-01 1.494140535345665488e-01 8.449914853879557652e-01 7.400457714177375301e-01 6.898466830543024120e-01 -3.467957027167469231e-01 2.843470282544108829e-01 3.525427522099686684e-01 3.225034769750904085e-01 3.728019383262277109e-01 3.478952798277464842e-01 3.023220497285593056e-01 6.994324631517585544e-01 -2.094655813058794447e-01 3.197938382667582791e-01 3.893081295669820197e-01 4.081310297835566425e-01 -1.480096115972697191e-01 3.421223758291450090e-02 2.965927147925212504e-01 3.465431664692827374e-01 2.524257769466834445e-01 3.002406938011062398e-01 -2.635133928862911201e+00 4.818773147915105248e-01 -6.214188921218569694e-01 -1.114255776246725199e-01 1.096780181789683145e-01 4.545595191053105055e-01 3.107855369638854448e-01 3.031673802192844103e-01 1.414740020289977640e-01 1.549257394211712435e-01 3.242442904376349744e-01 5.177406173256871025e-01 5.169481437549524605e-01 2.455042540686406538e-01 2.881366474431666935e-01 -6.062082237964940695e-02 2.966507368033317604e-01 3.013357587038585361e-01 -2.579692626974879222e+00 6.619504482402635004e-01 5.371736259697590388e-01 9.057861712321310099e-01 -4.644499297878507127e-01 1.177205274266728274e+00 9.934830458173833645e-02 2.997803429010756360e-01 1.256337232605513998e+00 4.101937150858540604e-01 3.238720310878398512e-01 3.926850625024188024e-01 2.763106247326487241e-01 2.927198386843920530e-01 -5.237020425049255801e-01 3.868691249348047978e-01 4.028733836206498387e-01 8.365288130236164799e-01 3.351884938827913163e-01 3.462993960600633803e-01 2.641877796553674940e-01 3.044174636959913194e-01 -1.740329919245939827e+00 2.961722891686529024e-01 4.050170553678655305e-01 2.203961091353489610e-01 1.182620680805651289e-02 3.558127649656965263e-01 3.922110879932755867e-01 1.653333396898643004e-01 -7.318664287540016522e-01 4.050170558957955635e-01 5.127231307945798733e-01 -5.356602136303563189e-01 2.911375611486256010e-01 3.195993816427473155e-01 2.136177827539787466e-01 -3.375343847860647006e+00 3.675925773213880032e-01 8.955371438536164908e-01 3.145337932632038536e-01 3.072579611226400331e-01 3.045598479810837089e-01 2.930271176511100029e-01 3.021345382259957302e-01 3.072707357165947450e-01 3.973502619856848495e-01 7.517560375342205448e-02 6.798312177346447216e-01 1.239521642354304981e-01 3.570423114121846209e-01 5.615372587859615017e-01 4.257038959464924388e-01 -7.413858104567534468e-01 2.387609768877254179e+00 4.227267028974612262e-01 1.265785970145508310e+00 -1.415347888641016905e+00 3.050773898220497382e-01 3.280329851781718098e-01 3.281773857340278266e-01 1.216761299362104864e+00 5.397822736114138431e-01 8.566973054376936236e-01 2.939750078396414779e-01 6.621066691238606250e-01 1.969615616349836840e-01 3.340466123216428440e-01 -1.218277482614010809e+00 4.045240526972981865e-01 3.038930065929598134e-01 5.097348761317087584e-01 8.545746459460965561e-01 -4.021075887274988547e-01 3.304947221382785738e+00 4.867120035332099803e-01 1.353363442371087189e+00 -3.841483957897909307e-01 2.987467086471768396e-01 3.220022416223057848e-01 3.479031790645326083e-01 3.421928765653904914e-01 1.948781577293197398e-01 -1.813132209180639554e-01 6.585969557395422724e-02 5.635438679699998898e-01 2.123989606011075226e-01 1.176143375978755262e-01 2.528396768427674801e-01 5.336135638890751043e-01 4.409953542929522241e-01 2.925622762459378357e-01 3.375342292463636262e+00 3.139029344799208476e-01 6.482716867144736606e-01 5.013311198510485012e-01 3.741204543532677396e-01 4.407285488759571934e-01 3.073470301310540775e-01 2.978112439346897178e-01 3.037427943092538829e-01 -6.796481125308216908e-01 3.817345192065753068e-01 2.848894290052690348e-01 1.547238023597359846e-01 3.623923632311640275e-01 1.577144973011393114e+00 3.073676610873888326e-01 3.406745423760744185e-01 2.029304707506201844e+00 5.210118162284732568e-01 3.546886711363536060e-01 3.421971926288004395e-01 2.952531350608058047e-01 3.506738754672859004e-01 -2.092005422542221549e+00 3.384300590433793610e-01 1.659538435883032292e+00 -1.255845974404177223e-01 3.483261544916390062e-01 6.448542929833265269e-01 3.412678315536160634e-01 -7.415085068362042842e-01 3.160485157573094672e-01 3.067442951262028816e-01 3.892762158809666695e-01 -4.172403878339757122e-01 2.840037038541562975e-01 -2.476247020628860707e+00 -5.982008775235594933e-02 2.931937644531804055e-01 5.925943234801493986e-01 3.034787869771400359e-01 3.079250131347363584e-01 4.980646077104915470e-01 1.502675637255219965e-01 -5.052048987522921031e-02 -7.882648677713528507e-01 -8.322293880503412941e-03 6.863108048736222822e-01 3.142263728623871377e-01 4.822849798505795538e-01 3.027374200943533933e-01 -5.900030971144117065e-02 3.122742895319801093e-01 2.520818278058037709e+00 6.944680424734935853e-01 2.475087021547076049e-01 -1.209289859676270895e+00 2.590975920055236248e-01 4.893026608997486981e+00 4.388567442976852861e-01 -2.228490990823129569e-01 5.732081661584857990e-01 -5.807485234671277752e+00 5.471628075303870409e-01 1.612874868903766856e+00 3.069771871619496051e-01 5.151966159035763493e-01 -4.645015612635687297e-01 3.973957079714150464e-01 2.131098027842144860e-01 3.593072160705345630e-01 1.988538227133587188e-01 3.058083699649111864e+00 -3.931804219819717838e-01 3.181530096270845376e-01 -1.961036015861284731e+00 3.160495464233963880e-01 -4.272498913110389096e-01 7.675929265465440965e-01 4.630717184399572028e-01 2.628457165106179438e-01 2.925595588530820468e-01 1.252192603177106456e+00 1.715945072486327327e-01 4.050170088059609763e-01 4.045188421250240918e-01 1.653333427529353472e-01 4.251443091178104816e-01 3.772075918182915544e-01 -6.359150257429059261e-01 3.016326771752865232e-01 5.651117840849809726e-01 4.173244406439238219e-01 1.965298976179809809e-01 3.055210761447884615e-01 5.217961737191105787e-01 4.630716267726605051e-01 5.380994382938860676e-01 3.079412467689541799e-01 1.496369471122201422e-01 3.465547006020734400e-01 3.615956693144924294e+00 2.671904526635821564e-01 8.399358158936240382e-02 4.409959013076198420e-01 8.290224377403493383e-01 4.711926752479809188e-01 -1.899087984515465399e-01 6.989887606163810441e-01 3.351713154471445688e-01 1.363919351815832126e-01 4.368861819288262782e-01 6.852673144135592587e-01 4.819096974938243960e-01 8.082768834958684590e-01 8.302929253742686866e-01 1.744778899422909646e-01 1.653332884005675463e-01 1.653333632284056387e-01 3.466710454565233857e-01 2.728698230365522726e-01 1.119216715581412780e+00 3.753227540031169318e-01 2.910585632313425486e-01 2.297686130745244248e-01 3.021467028719335701e-01 7.281350361549308037e-01 4.050175715776855867e-01 3.028335481518620864e-01 3.749780370305786925e-01 1.650780890956860814e-01 -6.489376828291395505e-01 2.991049247819845824e-01 3.023758286736252243e-01 3.180781483762992190e-01 6.447746260160078791e-01 6.344767652146262593e-01 1.653333306837274086e-01 1.797740883514441779e-01 3.106996033152135128e-01 5.188429315928841934e-01 -5.999255665312364094e-01 1.654585357593130746e-01 -3.648400726399362526e+00 2.085754891236109909e+00 6.139000996033563418e-01 -5.045987203471173910e-01 -5.800397546510235175e-02 2.119780766357524993e+00 3.272941151678224747e-01 6.611573499755852845e-01 -9.557071976410325131e-02 4.328589913809977596e-01 3.697345235173310485e-01 3.050451551353539070e-01 -6.124307635741164102e-01 2.871290617420234614e-01 2.126372220825276216e+00 1.831130202080363534e-01 -4.914862086518815842e-01 2.850682515734234701e-01 2.975773556493609417e-01 -1.484165713386321528e+00 3.455214150292229558e-01 3.746125353676971192e-01 4.038828321230829022e-01 1.005868625218566959e-01 3.078176277597006738e-01 2.452906479303779974e-01 2.752852865775332059e-01 -1.620194257881130417e-01 2.969058737492334954e-01 1.239983983512610716e-01 3.016350984134197888e-01 3.112365697403493559e-01 1.444431637739709319e-02 3.459849968623187055e-01 4.378227435327030070e-01 -1.456601187315103241e+00 -7.429099102636816943e-01 -1.259475121391931129e-01 1.834487683190720309e-01 1.030364855660715895e-01 4.399448967259165233e-01 3.465509878048496084e-01 6.966504003009024171e-01 -1.477212870881716433e-01 3.191440145258209737e-01 3.108898160212294481e-01 9.824770836104622374e-02 -1.617343739625771992e-01 3.390064804704708834e-01 4.528067116765694955e-01 4.802190358549492943e-01 3.078616666608074981e-01 3.069997588909963437e-01 3.049000364792958107e-01 2.381780440060575210e-01 3.042709843497784505e-01 4.656217525611469066e-01 2.043991729926882273e-01 3.038193458346403197e-01 6.986611075235236168e-01 2.837507446707259184e-01 6.873844361846365159e-01 -6.513043596323050966e-02 6.069680796739440609e-01 3.265292255832649149e-01 -1.492254841799265375e+00 2.993838482553166092e-01 6.149298467211895547e-01 3.319622089440284474e-01 3.386131560706157062e-01 3.778301090996143974e-01 1.552613029932145561e-01 6.901224668940311169e-01 3.063790766999666682e-01 4.469675399854287079e-01 3.030294282507022263e-01 2.702147971783376290e-01 1.617471256587091621e-01 4.485060495169428396e-01 3.017077530339684066e-01 1.263953587048257110e-01 -2.355207862321583370e-02 1.535504417665986832e-01 1.695979486418412563e+00 1.480285986163094591e-01 3.037238437546477265e-01 3.982135609913837748e-01 -8.877698906988108485e-01 2.821337525211343178e-01 2.210529923548374132e-01 2.124853880262833616e-01 -1.256579535461123942e-01 2.593235254264474321e-01 1.776441540077294157e+00 8.994406859122253683e-01 4.775324377143983501e-01 2.751970782537458415e-01 2.936136130583555937e-01 3.429927923660516242e-01 9.448039427313039695e-01 3.143356074224065377e+00 3.062489501004814763e-01 3.306650420926777762e-03 5.790114153116673323e-01 -2.709113783218919380e-01 3.016450757622573531e-01 2.976906259285462819e-01 1.102401258680060891e+00 2.914130350842276673e-01 -3.624194383236476469e-01 3.994995917081723968e-01 1.497990784796757457e-01 5.954339665156603845e-01 1.936416197403819428e+00 3.002582345536620179e-01 3.029383686741335402e-01 1.686856079568617828e+00 3.810230829060001767e-01 2.971393810513720535e-01 1.449788120778508771e-01 1.491405311379871701e-01 -5.811810852781983810e-02 5.259880897896711538e-01 2.498499847209071367e-01 6.956984414171566433e-01 2.917843463158564798e-01 1.902613185029988219e-01 3.432913003217707426e-01 2.679102723656990870e-01 4.672938518428664256e-01 2.686131454578433164e-01 8.593675296761925653e-01 5.246999024290369684e-01 5.294380224141476132e-01 3.903396420113994791e-01 2.885296199412595297e-01 3.120298488513959523e-01 5.975315887228235257e-01 7.864143740884701472e-01 3.770859990924909089e-01 3.518882625474303860e-01 6.536361957325630412e-01 3.074397653893751192e-01 6.671901205212474872e-01 3.909606104896913292e-01 4.967071603715521588e-01 -2.942494426208762670e-01 2.999816991779991615e-01 3.198620978681047666e-01 4.710765026291360291e-01 1.776288202048715015e-01 3.596231611830930097e-01 1.861590584469166476e+00 -3.642588786966769604e-02 3.885109465991792299e-01 -2.481121712835620274e-01 1.723616639433370290e+00 1.174658488049683536e+00 4.574125245948800628e-02 -4.265047724277229446e-01 4.621591858902072136e-01 2.375854654651325115e-01 4.492867434803803905e-01 3.024406425743150773e-01 3.007760013645826014e-01 2.610059755387023062e-01 3.235529265516900455e-01 2.437847729998908475e-01 -5.776173503288659777e-02 -2.529357422279793211e-01 2.763786872196405398e-01 1.983391577929309590e-01 2.795960909927384108e-01 8.937882038260160922e-01 4.409953437032573809e-01 3.236414589814426979e-01 8.701834586352616974e-01 4.746028683264168491e-01 4.871868849238115140e-01 4.267508130754101847e-01 7.055556690119171304e-01 1.495272214929943777e+00 4.098240375551284176e-01 2.160982955910357273e+00 -1.437532725916619916e-02 1.704989805798579894e-01 3.010378850341728363e-01 3.405955188629843366e-01 4.044120983723403229e-01 2.454764327003226554e-01 2.973847675580237326e-01 3.013026110606230046e-01 3.772138265389335943e-01 2.555746305487952008e-01 -3.874768529805726058e-01 3.409530729010357697e-01 -3.539775789741080037e-02 3.174212116011339013e-01 3.892132525691027745e-01 4.409953437967641388e-01 2.501976806295393430e-01 2.709282767512156687e-01 -1.343877033392067766e+00 2.015050976178189401e+00 3.015559532915023655e-01 -7.853250128045757839e-01 2.964960882135900255e-01 3.442226254475884706e-01 3.038042318818004461e-01 -4.946233126924952650e+00 3.640281697034251529e+00 6.416891778387769918e-01 -5.415178216662077694e-03 3.216213702273125752e-01 3.010811800819085393e-01 2.398242366178273133e-01 2.701245237246546083e+00 6.384624944416824599e-01 3.198224643375793264e-01 3.506757993585336575e-01 3.354059544917441515e-01 2.987444971337234745e-01 8.472958445598559596e-01 -3.692272543125393880e-01 -1.269540169981693056e+00 -1.261967688742743121e+00 2.912201657119307119e-01 2.990301284729561249e-01 7.551509614711768847e-01 3.389359634761540674e-01 1.588792771018957772e+00 5.034850205504725063e-01 3.051669014049212536e-01 3.279083460823981611e-01 3.051077572970019025e-01 3.183302295784138369e-01 3.179881352620659296e-01 6.291994353028040887e-01 3.825563526724826136e-01 6.555088380736279197e-01 2.422143071558530703e-01 8.556506997126316072e-02 3.181359347424091433e-01 1.734883320206468682e-01 2.281929833954537412e-01 3.499548499399171009e-01 6.224070788930584630e-01 4.630716948743266448e-01 1.919494474923443272e-01 2.441962291370287641e-01 2.981510477697595363e-01 2.855713357524756746e-01 1.776423378900960026e+00 1.989940530842877919e+00 3.181029737499754817e-01 2.733040668627091385e-01 3.085328031472050481e-01 1.802261483242462992e-01 2.161211138905088369e-01 4.708282643186024186e-01 3.123989283042934995e-01 3.321380098495731459e-01 8.195779448780653453e-01 9.097712875168969537e-01 3.884134429837626801e-01 1.919894246889318090e+00 4.148569193705828329e-01 -3.162818343762794915e-01 -2.663030170973271771e-01 -2.945945721820081853e-01 3.016224741482618765e-01 3.448651895318126104e-01 7.038024483721241342e-01 3.106511023545893146e-01 4.051961077066590367e-01 3.231877685991805249e-01 2.692979860429701722e-01 2.609600210248823604e-01 -1.069805673213662794e-01 9.977907557999984300e-01 2.950090095130845635e-01 2.309672677470529234e-01 3.038985390624454053e-01 3.438448319275033138e-01 2.822182998010277499e-01 4.017007121855518115e-01 -6.251230700132374973e-02 2.217965583572949206e-01 3.176909048917509470e-01 -5.870329279063971062e-02 4.409953193195286225e-01 1.084013966814163954e+00 9.847112677928628877e-01 -7.102446204436341226e-01 -4.272498924700970924e-01 6.617836012289355363e-01 -3.436042400175461697e+00 1.597084368243495422e+00 3.089360009033257914e-01 -5.793043300368110743e-02 3.002093203802329580e-01 9.216888852270581634e-01 3.033108387882630930e-01 4.045240138423831788e-01 -4.405375599717863411e-01 8.059267167797788955e-01 3.019639791744418433e-01 8.421656207918887249e-01 2.139421710178025737e+00 -3.693591122748159372e-01 -1.505504301935266964e+00 3.294613296728289842e-01 2.972525017321411278e-01 7.361368984661643688e-01 3.297477708284418663e-01 6.871972623105225830e-01 4.690220252035433579e-01 4.036201866983777919e-01 2.900915008584443178e-01 2.954089645412459331e-01 3.496700412754487064e-01 3.195506658991975613e-01 1.462324067899299473e+00 1.704108824747865736e+00 3.096673407029875147e-01 3.237268081146503218e-01 3.597581791250091254e-01 -2.560439087368974742e-01 2.446612032010414828e-01 -8.050943473653737747e-02 3.030562789912825683e-01 7.037664184091085851e-01 -6.125247929537726010e-01 3.544128845897388524e-01 3.330396325665891943e-01 1.606023149927713056e-01 2.714123637250551169e-01 1.591651342463486218e-01 3.037696792278395952e-01 3.035319370436119768e-01 1.032959464509594499e-01 3.049236339753806369e-01 4.290680265529316362e-01 1.150062205330030896e+00 1.117063485417391533e+00 8.954592157712704115e-01 2.400039849241590306e-01 8.008537199978145171e-01 1.729208272854605988e-01 5.227203308015210270e-01 -2.240317231277209498e+00 3.055733450299306653e-01 6.685088713362633550e-01 3.078275359027244917e-01 9.360985725356228970e-01 1.392870152487862390e+00 3.506757435364613040e-01 2.278961529149864662e-01 3.774740116547894431e-01 4.544899801419349239e-01 5.457051086007531637e-01 1.016933177129564214e+00 -8.497988584664475376e-01 3.409780764930018804e-01 -1.112827392041264817e-02 3.015972243837540256e-01 3.392384128124068532e-01 7.481860650927443235e-01 -3.186446620645705385e-01 4.209556534782136206e-01 3.015931363426851419e-01 3.532779626554878316e-01 8.990576520589148579e-01 4.388118806857708165e-01 -2.307464442913176039e-01 8.564438658412859562e-01 -2.094614208683762482e-02 5.466380631685220370e-01 3.393813606041352071e-01 1.308959077402360727e+00 6.095399681527092772e-01 6.963798813618423678e-01 4.211446494637065552e-01 4.702319923392886958e-01 -6.211636355933599640e-01 2.189700063446636258e-01 7.325862212643032834e-01 3.080906565770841210e-01 5.923453879965323576e-01 2.865649768577956391e-01 3.068025019957561494e-01 6.928797826648348535e-01 1.841238450359262979e-01 -2.093364064573384642e+00 2.487536035232015830e-01 2.542924823524066458e-01 1.007341847851326522e+00 2.993060815119177320e-01 2.818267801651735960e-01 3.648843598600807203e-01 3.077227871350508570e-01 4.159692393540501687e-01 1.500748958790749932e-01 -1.646477508208566531e+00 7.753093537245989708e-01 2.322114794373254520e-01 2.778582295805814284e-01 3.749546032898224968e-01 8.148481198264391212e-01 3.073553011630594245e-01 -1.672397350159421370e-01 3.565873306289290556e-01 1.131302523429556395e+00 3.537430279028904168e-01 4.174284259726629975e-01 1.026169719921259604e+00 4.410160321483597712e-01 2.913589351927876159e+00 3.079435332708352346e-01 2.802435730444927664e-01 7.147714505081872449e-01 3.128821431122503216e-01 3.127643412995989025e-01 -2.248128003578976131e+00 4.754386402194867856e-01 3.094668127889244058e-01 5.228400897986903439e-01 2.940057511406887203e-01 1.955674683359539812e-01 -1.258129745491263218e-01 2.114182288423394063e+00 -5.158495013569778243e-01 8.191161493804550719e-01 3.017223581696327761e-01 3.385600894191415078e-01 8.858919819428113795e-01 2.794458269960123364e-01 1.361131391020353076e+00 2.722480489620875410e-01 4.291700010070198523e-01 -8.900406172958639228e-01 -1.216521920149385150e-01 -7.339535337995194419e-01 -4.184175994089118333e+00 3.056107562332560867e+00 1.133239321624357823e-02 3.017355707900761796e-01 -1.705170484067437764e+00 2.985505189439940366e-01 5.171143168704839255e-01 2.929998533232375801e-01 2.072643415015088530e-01 6.451846670011927021e-01 6.088268903150136913e-01 1.147408597347577164e+00 -4.272498921469249367e-01 -2.475714915678153272e-01 3.192287837120293958e-01 -1.209748182776616332e+00 4.112896625872670686e-01 -6.704095178368206787e-01 3.158421905221610038e-01 4.242957947695387699e-01 1.643784625846124448e-01 4.695919887167704920e-01 2.573143594207366047e-01 3.996014815320475533e-02 3.215637473898160237e-01 2.735851266420628591e-01 3.675703943692387177e-01 2.707722732820230238e-01 3.062364767853443803e-01 -7.101489755560935757e-01 4.018024692499049255e-01 1.557853233554223227e+00 8.803018455604109949e-02 2.322011599903686663e-01 2.655921912380633798e-01 1.197780420853644223e+00 2.995176078376925455e-01 5.981395448973316625e-02 8.746914057836809864e-01 1.890269226247974499e-01 1.917257190742607476e+00 3.312838834821523193e-01 1.443975556290284290e+00 3.140319914094394371e-01 7.310025918281317647e-01 1.366207167762488961e+00 4.391637108926653710e-01 1.954162917558728563e-01 9.703833909706662819e-01 -1.743097533896938167e-01 -7.614340813576621347e-02 2.894457578728852898e-01 3.113347676381580387e-01 3.724651131246402014e-01 1.485444303048201742e-01 6.686106656015099181e-02 -4.046829567494796831e-01 1.291539155932135197e+00 3.047499079744530048e-01 3.012762238069151555e-01 -3.339449998452851176e+00 5.831388138420739997e-01 2.027699111556670042e-01 2.805396302979416001e-01 3.281999648087552957e-01 3.504239283254079740e-01 -1.163125363040274696e+00 6.427295179050944718e-01 3.059470391737618700e-01 3.107857318126444057e-01 1.008032923866567732e+00 4.784420580490033603e-01 2.841048480144953148e-01 -1.437724826102531051e+00 3.038337280118447170e-01 8.989147335015450491e-01 4.054712659395535157e-01 3.104392760104919824e-01 2.308593676440193199e-01 7.051179207062399090e-01 -2.291864795418408624e-02 3.026673354849419018e-01 2.837487872470562111e-01 1.191531900773986907e-01 6.657844246890757267e-01 2.517039063454374892e-01 6.577202516212552474e-01 2.279881825177833832e-01 6.981046511057278359e-01 -2.654401890800862640e-01 -1.517120495479895359e+00 3.070936013954971844e-01 -2.412632231691673110e-02 2.544985836803145829e-01 3.099907572830712943e-01 5.937177423094654183e-02 4.630718980392414252e-01 3.031276179528322734e-01 8.874692102402087501e-02 3.864186181103896889e-01 2.856497480705083025e-01 2.774370502073202349e-01 3.444814744693641129e-01 -8.920728111080536982e-01 3.021967351866263196e-01 3.436423718773710667e-01 3.147779027301000898e-01 -4.419125925222476825e-01 3.141107755757606146e-01 8.591542774868037302e-01 -6.757127606206917436e-01 1.161252174537122928e+00 6.294794617379071422e-01 3.102760335804574110e-01 3.077140212422014298e-01 -2.097712792368707557e+00 3.103812271622740093e-01 3.840369237962337201e-01 3.334210245086642321e-01 4.630717415213113086e-01 3.016386604261440119e-01 3.373578311501767013e-01 4.116412503428656250e-02 3.061612241305933235e-01 4.289589161668010409e-01 3.133490745350007711e-01 2.706574024548327184e-01 2.737840358569444965e-01 3.048393494286893990e-01 3.010802935255774138e-01 3.827378490735759420e-01 2.103215372805067318e-01 3.070941124221829854e-01 6.352602939380534997e-01 1.294435521061310101e-01 3.007005157897792436e-01 -1.622112320207690084e-01 2.326403036148187997e-01 7.008672954388230902e-01 4.689120940144557714e+00 2.910297654025504333e-01 4.860299138471949748e-02 5.785025731582618125e-01 1.724649779978359443e-01 1.592379699798770698e+00 2.965930537972855663e-01 6.174293158135919501e-01 3.086145568841885956e-01
