# 
#                 ----------------------------------------------------
#                 Data from a 3D direct N-body simulation. 
# 
#                 rows are i-particle; 
#                 coumns are :mass, tag, x ,y, z, vx, vy, vz, ax, ay, az
# 
#                 NTHU, Computational Physics 
# 
#                 ----------------------------------------------------
#                 Time = 0.0
0.000000000000000000e+00 1.000000000000000000e+00 2.000000000000000000e+00 3.000000000000000000e+00 4.000000000000000000e+00 5.000000000000000000e+00 6.000000000000000000e+00 7.000000000000000000e+00 8.000000000000000000e+00 9.000000000000000000e+00 1.000000000000000000e+01 1.100000000000000000e+01 1.200000000000000000e+01 1.300000000000000000e+01 1.400000000000000000e+01 1.500000000000000000e+01 1.600000000000000000e+01 1.700000000000000000e+01 1.800000000000000000e+01 1.900000000000000000e+01 2.000000000000000000e+01 2.100000000000000000e+01 2.200000000000000000e+01 2.300000000000000000e+01 2.400000000000000000e+01 2.500000000000000000e+01 2.600000000000000000e+01 2.700000000000000000e+01 2.800000000000000000e+01 2.900000000000000000e+01 3.000000000000000000e+01 3.100000000000000000e+01 3.200000000000000000e+01 3.300000000000000000e+01 3.400000000000000000e+01 3.500000000000000000e+01 3.600000000000000000e+01 3.700000000000000000e+01 3.800000000000000000e+01 3.900000000000000000e+01 4.000000000000000000e+01 4.100000000000000000e+01 4.200000000000000000e+01 4.300000000000000000e+01 4.400000000000000000e+01 4.500000000000000000e+01 4.600000000000000000e+01 4.700000000000000000e+01 4.800000000000000000e+01 4.900000000000000000e+01 5.000000000000000000e+01 5.100000000000000000e+01 5.200000000000000000e+01 5.300000000000000000e+01 5.400000000000000000e+01 5.500000000000000000e+01 5.600000000000000000e+01 5.700000000000000000e+01 5.800000000000000000e+01 5.900000000000000000e+01 6.000000000000000000e+01 6.100000000000000000e+01 6.200000000000000000e+01 6.300000000000000000e+01 6.400000000000000000e+01 6.500000000000000000e+01 6.600000000000000000e+01 6.700000000000000000e+01 6.800000000000000000e+01 6.900000000000000000e+01 7.000000000000000000e+01 7.100000000000000000e+01 7.200000000000000000e+01 7.300000000000000000e+01 7.400000000000000000e+01 7.500000000000000000e+01 7.600000000000000000e+01 7.700000000000000000e+01 7.800000000000000000e+01 7.900000000000000000e+01 8.000000000000000000e+01 8.100000000000000000e+01 8.200000000000000000e+01 8.300000000000000000e+01 8.400000000000000000e+01 8.500000000000000000e+01 8.600000000000000000e+01 8.700000000000000000e+01 8.800000000000000000e+01 8.900000000000000000e+01 9.000000000000000000e+01 9.100000000000000000e+01 9.200000000000000000e+01 9.300000000000000000e+01 9.400000000000000000e+01 9.500000000000000000e+01 9.600000000000000000e+01 9.700000000000000000e+01 9.800000000000000000e+01 9.900000000000000000e+01 1.000000000000000000e+02 1.010000000000000000e+02 1.020000000000000000e+02 1.030000000000000000e+02 1.040000000000000000e+02 1.050000000000000000e+02 1.060000000000000000e+02 1.070000000000000000e+02 1.080000000000000000e+02 1.090000000000000000e+02 1.100000000000000000e+02 1.110000000000000000e+02 1.120000000000000000e+02 1.130000000000000000e+02 1.140000000000000000e+02 1.150000000000000000e+02 1.160000000000000000e+02 1.170000000000000000e+02 1.180000000000000000e+02 1.190000000000000000e+02 1.200000000000000000e+02 1.210000000000000000e+02 1.220000000000000000e+02 1.230000000000000000e+02 1.240000000000000000e+02 1.250000000000000000e+02 1.260000000000000000e+02 1.270000000000000000e+02 1.280000000000000000e+02 1.290000000000000000e+02 1.300000000000000000e+02 1.310000000000000000e+02 1.320000000000000000e+02 1.330000000000000000e+02 1.340000000000000000e+02 1.350000000000000000e+02 1.360000000000000000e+02 1.370000000000000000e+02 1.380000000000000000e+02 1.390000000000000000e+02 1.400000000000000000e+02 1.410000000000000000e+02 1.420000000000000000e+02 1.430000000000000000e+02 1.440000000000000000e+02 1.450000000000000000e+02 1.460000000000000000e+02 1.470000000000000000e+02 1.480000000000000000e+02 1.490000000000000000e+02 1.500000000000000000e+02 1.510000000000000000e+02 1.520000000000000000e+02 1.530000000000000000e+02 1.540000000000000000e+02 1.550000000000000000e+02 1.560000000000000000e+02 1.570000000000000000e+02 1.580000000000000000e+02 1.590000000000000000e+02 1.600000000000000000e+02 1.610000000000000000e+02 1.620000000000000000e+02 1.630000000000000000e+02 1.640000000000000000e+02 1.650000000000000000e+02 1.660000000000000000e+02 1.670000000000000000e+02 1.680000000000000000e+02 1.690000000000000000e+02 1.700000000000000000e+02 1.710000000000000000e+02 1.720000000000000000e+02 1.730000000000000000e+02 1.740000000000000000e+02 1.750000000000000000e+02 1.760000000000000000e+02 1.770000000000000000e+02 1.780000000000000000e+02 1.790000000000000000e+02 1.800000000000000000e+02 1.810000000000000000e+02 1.820000000000000000e+02 1.830000000000000000e+02 1.840000000000000000e+02 1.850000000000000000e+02 1.860000000000000000e+02 1.870000000000000000e+02 1.880000000000000000e+02 1.890000000000000000e+02 1.900000000000000000e+02 1.910000000000000000e+02 1.920000000000000000e+02 1.930000000000000000e+02 1.940000000000000000e+02 1.950000000000000000e+02 1.960000000000000000e+02 1.970000000000000000e+02 1.980000000000000000e+02 1.990000000000000000e+02 2.000000000000000000e+02 2.010000000000000000e+02 2.020000000000000000e+02 2.030000000000000000e+02 2.040000000000000000e+02 2.050000000000000000e+02 2.060000000000000000e+02 2.070000000000000000e+02 2.080000000000000000e+02 2.090000000000000000e+02 2.100000000000000000e+02 2.110000000000000000e+02 2.120000000000000000e+02 2.130000000000000000e+02 2.140000000000000000e+02 2.150000000000000000e+02 2.160000000000000000e+02 2.170000000000000000e+02 2.180000000000000000e+02 2.190000000000000000e+02 2.200000000000000000e+02 2.210000000000000000e+02 2.220000000000000000e+02 2.230000000000000000e+02 2.240000000000000000e+02 2.250000000000000000e+02 2.260000000000000000e+02 2.270000000000000000e+02 2.280000000000000000e+02 2.290000000000000000e+02 2.300000000000000000e+02 2.310000000000000000e+02 2.320000000000000000e+02 2.330000000000000000e+02 2.340000000000000000e+02 2.350000000000000000e+02 2.360000000000000000e+02 2.370000000000000000e+02 2.380000000000000000e+02 2.390000000000000000e+02 2.400000000000000000e+02 2.410000000000000000e+02 2.420000000000000000e+02 2.430000000000000000e+02 2.440000000000000000e+02 2.450000000000000000e+02 2.460000000000000000e+02 2.470000000000000000e+02 2.480000000000000000e+02 2.490000000000000000e+02 2.500000000000000000e+02 2.510000000000000000e+02 2.520000000000000000e+02 2.530000000000000000e+02 2.540000000000000000e+02 2.550000000000000000e+02 2.560000000000000000e+02 2.570000000000000000e+02 2.580000000000000000e+02 2.590000000000000000e+02 2.600000000000000000e+02 2.610000000000000000e+02 2.620000000000000000e+02 2.630000000000000000e+02 2.640000000000000000e+02 2.650000000000000000e+02 2.660000000000000000e+02 2.670000000000000000e+02 2.680000000000000000e+02 2.690000000000000000e+02 2.700000000000000000e+02 2.710000000000000000e+02 2.720000000000000000e+02 2.730000000000000000e+02 2.740000000000000000e+02 2.750000000000000000e+02 2.760000000000000000e+02 2.770000000000000000e+02 2.780000000000000000e+02 2.790000000000000000e+02 2.800000000000000000e+02 2.810000000000000000e+02 2.820000000000000000e+02 2.830000000000000000e+02 2.840000000000000000e+02 2.850000000000000000e+02 2.860000000000000000e+02 2.870000000000000000e+02 2.880000000000000000e+02 2.890000000000000000e+02 2.900000000000000000e+02 2.910000000000000000e+02 2.920000000000000000e+02 2.930000000000000000e+02 2.940000000000000000e+02 2.950000000000000000e+02 2.960000000000000000e+02 2.970000000000000000e+02 2.980000000000000000e+02 2.990000000000000000e+02 3.000000000000000000e+02 3.010000000000000000e+02 3.020000000000000000e+02 3.030000000000000000e+02 3.040000000000000000e+02 3.050000000000000000e+02 3.060000000000000000e+02 3.070000000000000000e+02 3.080000000000000000e+02 3.090000000000000000e+02 3.100000000000000000e+02 3.110000000000000000e+02 3.120000000000000000e+02 3.130000000000000000e+02 3.140000000000000000e+02 3.150000000000000000e+02 3.160000000000000000e+02 3.170000000000000000e+02 3.180000000000000000e+02 3.190000000000000000e+02 3.200000000000000000e+02 3.210000000000000000e+02 3.220000000000000000e+02 3.230000000000000000e+02 3.240000000000000000e+02 3.250000000000000000e+02 3.260000000000000000e+02 3.270000000000000000e+02 3.280000000000000000e+02 3.290000000000000000e+02 3.300000000000000000e+02 3.310000000000000000e+02 3.320000000000000000e+02 3.330000000000000000e+02 3.340000000000000000e+02 3.350000000000000000e+02 3.360000000000000000e+02 3.370000000000000000e+02 3.380000000000000000e+02 3.390000000000000000e+02 3.400000000000000000e+02 3.410000000000000000e+02 3.420000000000000000e+02 3.430000000000000000e+02 3.440000000000000000e+02 3.450000000000000000e+02 3.460000000000000000e+02 3.470000000000000000e+02 3.480000000000000000e+02 3.490000000000000000e+02 3.500000000000000000e+02 3.510000000000000000e+02 3.520000000000000000e+02 3.530000000000000000e+02 3.540000000000000000e+02 3.550000000000000000e+02 3.560000000000000000e+02 3.570000000000000000e+02 3.580000000000000000e+02 3.590000000000000000e+02 3.600000000000000000e+02 3.610000000000000000e+02 3.620000000000000000e+02 3.630000000000000000e+02 3.640000000000000000e+02 3.650000000000000000e+02 3.660000000000000000e+02 3.670000000000000000e+02 3.680000000000000000e+02 3.690000000000000000e+02 3.700000000000000000e+02 3.710000000000000000e+02 3.720000000000000000e+02 3.730000000000000000e+02 3.740000000000000000e+02 3.750000000000000000e+02 3.760000000000000000e+02 3.770000000000000000e+02 3.780000000000000000e+02 3.790000000000000000e+02 3.800000000000000000e+02 3.810000000000000000e+02 3.820000000000000000e+02 3.830000000000000000e+02 3.840000000000000000e+02 3.850000000000000000e+02 3.860000000000000000e+02 3.870000000000000000e+02 3.880000000000000000e+02 3.890000000000000000e+02 3.900000000000000000e+02 3.910000000000000000e+02 3.920000000000000000e+02 3.930000000000000000e+02 3.940000000000000000e+02 3.950000000000000000e+02 3.960000000000000000e+02 3.970000000000000000e+02 3.980000000000000000e+02 3.990000000000000000e+02 4.000000000000000000e+02 4.010000000000000000e+02 4.020000000000000000e+02 4.030000000000000000e+02 4.040000000000000000e+02 4.050000000000000000e+02 4.060000000000000000e+02 4.070000000000000000e+02 4.080000000000000000e+02 4.090000000000000000e+02 4.100000000000000000e+02 4.110000000000000000e+02 4.120000000000000000e+02 4.130000000000000000e+02 4.140000000000000000e+02 4.150000000000000000e+02 4.160000000000000000e+02 4.170000000000000000e+02 4.180000000000000000e+02 4.190000000000000000e+02 4.200000000000000000e+02 4.210000000000000000e+02 4.220000000000000000e+02 4.230000000000000000e+02 4.240000000000000000e+02 4.250000000000000000e+02 4.260000000000000000e+02 4.270000000000000000e+02 4.280000000000000000e+02 4.290000000000000000e+02 4.300000000000000000e+02 4.310000000000000000e+02 4.320000000000000000e+02 4.330000000000000000e+02 4.340000000000000000e+02 4.350000000000000000e+02 4.360000000000000000e+02 4.370000000000000000e+02 4.380000000000000000e+02 4.390000000000000000e+02 4.400000000000000000e+02 4.410000000000000000e+02 4.420000000000000000e+02 4.430000000000000000e+02 4.440000000000000000e+02 4.450000000000000000e+02 4.460000000000000000e+02 4.470000000000000000e+02 4.480000000000000000e+02 4.490000000000000000e+02 4.500000000000000000e+02 4.510000000000000000e+02 4.520000000000000000e+02 4.530000000000000000e+02 4.540000000000000000e+02 4.550000000000000000e+02 4.560000000000000000e+02 4.570000000000000000e+02 4.580000000000000000e+02 4.590000000000000000e+02 4.600000000000000000e+02 4.610000000000000000e+02 4.620000000000000000e+02 4.630000000000000000e+02 4.640000000000000000e+02 4.650000000000000000e+02 4.660000000000000000e+02 4.670000000000000000e+02 4.680000000000000000e+02 4.690000000000000000e+02 4.700000000000000000e+02 4.710000000000000000e+02 4.720000000000000000e+02 4.730000000000000000e+02 4.740000000000000000e+02 4.750000000000000000e+02 4.760000000000000000e+02 4.770000000000000000e+02 4.780000000000000000e+02 4.790000000000000000e+02 4.800000000000000000e+02 4.810000000000000000e+02 4.820000000000000000e+02 4.830000000000000000e+02 4.840000000000000000e+02 4.850000000000000000e+02 4.860000000000000000e+02 4.870000000000000000e+02 4.880000000000000000e+02 4.890000000000000000e+02 4.900000000000000000e+02 4.910000000000000000e+02 4.920000000000000000e+02 4.930000000000000000e+02 4.940000000000000000e+02 4.950000000000000000e+02 4.960000000000000000e+02 4.970000000000000000e+02 4.980000000000000000e+02 4.990000000000000000e+02 5.000000000000000000e+02 5.010000000000000000e+02 5.020000000000000000e+02 5.030000000000000000e+02 5.040000000000000000e+02 5.050000000000000000e+02 5.060000000000000000e+02 5.070000000000000000e+02 5.080000000000000000e+02 5.090000000000000000e+02 5.100000000000000000e+02 5.110000000000000000e+02 5.120000000000000000e+02 5.130000000000000000e+02 5.140000000000000000e+02 5.150000000000000000e+02 5.160000000000000000e+02 5.170000000000000000e+02 5.180000000000000000e+02 5.190000000000000000e+02 5.200000000000000000e+02 5.210000000000000000e+02 5.220000000000000000e+02 5.230000000000000000e+02 5.240000000000000000e+02 5.250000000000000000e+02 5.260000000000000000e+02 5.270000000000000000e+02 5.280000000000000000e+02 5.290000000000000000e+02 5.300000000000000000e+02 5.310000000000000000e+02 5.320000000000000000e+02 5.330000000000000000e+02 5.340000000000000000e+02 5.350000000000000000e+02 5.360000000000000000e+02 5.370000000000000000e+02 5.380000000000000000e+02 5.390000000000000000e+02 5.400000000000000000e+02 5.410000000000000000e+02 5.420000000000000000e+02 5.430000000000000000e+02 5.440000000000000000e+02 5.450000000000000000e+02 5.460000000000000000e+02 5.470000000000000000e+02 5.480000000000000000e+02 5.490000000000000000e+02 5.500000000000000000e+02 5.510000000000000000e+02 5.520000000000000000e+02 5.530000000000000000e+02 5.540000000000000000e+02 5.550000000000000000e+02 5.560000000000000000e+02 5.570000000000000000e+02 5.580000000000000000e+02 5.590000000000000000e+02 5.600000000000000000e+02 5.610000000000000000e+02 5.620000000000000000e+02 5.630000000000000000e+02 5.640000000000000000e+02 5.650000000000000000e+02 5.660000000000000000e+02 5.670000000000000000e+02 5.680000000000000000e+02 5.690000000000000000e+02 5.700000000000000000e+02 5.710000000000000000e+02 5.720000000000000000e+02 5.730000000000000000e+02 5.740000000000000000e+02 5.750000000000000000e+02 5.760000000000000000e+02 5.770000000000000000e+02 5.780000000000000000e+02 5.790000000000000000e+02 5.800000000000000000e+02 5.810000000000000000e+02 5.820000000000000000e+02 5.830000000000000000e+02 5.840000000000000000e+02 5.850000000000000000e+02 5.860000000000000000e+02 5.870000000000000000e+02 5.880000000000000000e+02 5.890000000000000000e+02 5.900000000000000000e+02 5.910000000000000000e+02 5.920000000000000000e+02 5.930000000000000000e+02 5.940000000000000000e+02 5.950000000000000000e+02 5.960000000000000000e+02 5.970000000000000000e+02 5.980000000000000000e+02 5.990000000000000000e+02 6.000000000000000000e+02 6.010000000000000000e+02 6.020000000000000000e+02 6.030000000000000000e+02 6.040000000000000000e+02 6.050000000000000000e+02 6.060000000000000000e+02 6.070000000000000000e+02 6.080000000000000000e+02 6.090000000000000000e+02 6.100000000000000000e+02 6.110000000000000000e+02 6.120000000000000000e+02 6.130000000000000000e+02 6.140000000000000000e+02 6.150000000000000000e+02 6.160000000000000000e+02 6.170000000000000000e+02 6.180000000000000000e+02 6.190000000000000000e+02 6.200000000000000000e+02 6.210000000000000000e+02 6.220000000000000000e+02 6.230000000000000000e+02 6.240000000000000000e+02 6.250000000000000000e+02 6.260000000000000000e+02 6.270000000000000000e+02 6.280000000000000000e+02 6.290000000000000000e+02 6.300000000000000000e+02 6.310000000000000000e+02 6.320000000000000000e+02 6.330000000000000000e+02 6.340000000000000000e+02 6.350000000000000000e+02 6.360000000000000000e+02 6.370000000000000000e+02 6.380000000000000000e+02 6.390000000000000000e+02 6.400000000000000000e+02 6.410000000000000000e+02 6.420000000000000000e+02 6.430000000000000000e+02 6.440000000000000000e+02 6.450000000000000000e+02 6.460000000000000000e+02 6.470000000000000000e+02 6.480000000000000000e+02 6.490000000000000000e+02 6.500000000000000000e+02 6.510000000000000000e+02 6.520000000000000000e+02 6.530000000000000000e+02 6.540000000000000000e+02 6.550000000000000000e+02 6.560000000000000000e+02 6.570000000000000000e+02 6.580000000000000000e+02 6.590000000000000000e+02 6.600000000000000000e+02 6.610000000000000000e+02 6.620000000000000000e+02 6.630000000000000000e+02 6.640000000000000000e+02 6.650000000000000000e+02 6.660000000000000000e+02 6.670000000000000000e+02 6.680000000000000000e+02 6.690000000000000000e+02 6.700000000000000000e+02 6.710000000000000000e+02 6.720000000000000000e+02 6.730000000000000000e+02 6.740000000000000000e+02 6.750000000000000000e+02 6.760000000000000000e+02 6.770000000000000000e+02 6.780000000000000000e+02 6.790000000000000000e+02 6.800000000000000000e+02 6.810000000000000000e+02 6.820000000000000000e+02 6.830000000000000000e+02 6.840000000000000000e+02 6.850000000000000000e+02 6.860000000000000000e+02 6.870000000000000000e+02 6.880000000000000000e+02 6.890000000000000000e+02 6.900000000000000000e+02 6.910000000000000000e+02 6.920000000000000000e+02 6.930000000000000000e+02 6.940000000000000000e+02 6.950000000000000000e+02 6.960000000000000000e+02 6.970000000000000000e+02 6.980000000000000000e+02 6.990000000000000000e+02 7.000000000000000000e+02 7.010000000000000000e+02 7.020000000000000000e+02 7.030000000000000000e+02 7.040000000000000000e+02 7.050000000000000000e+02 7.060000000000000000e+02 7.070000000000000000e+02 7.080000000000000000e+02 7.090000000000000000e+02 7.100000000000000000e+02 7.110000000000000000e+02 7.120000000000000000e+02 7.130000000000000000e+02 7.140000000000000000e+02 7.150000000000000000e+02 7.160000000000000000e+02 7.170000000000000000e+02 7.180000000000000000e+02 7.190000000000000000e+02 7.200000000000000000e+02 7.210000000000000000e+02 7.220000000000000000e+02 7.230000000000000000e+02 7.240000000000000000e+02 7.250000000000000000e+02 7.260000000000000000e+02 7.270000000000000000e+02 7.280000000000000000e+02 7.290000000000000000e+02 7.300000000000000000e+02 7.310000000000000000e+02 7.320000000000000000e+02 7.330000000000000000e+02 7.340000000000000000e+02 7.350000000000000000e+02 7.360000000000000000e+02 7.370000000000000000e+02 7.380000000000000000e+02 7.390000000000000000e+02 7.400000000000000000e+02 7.410000000000000000e+02 7.420000000000000000e+02 7.430000000000000000e+02 7.440000000000000000e+02 7.450000000000000000e+02 7.460000000000000000e+02 7.470000000000000000e+02 7.480000000000000000e+02 7.490000000000000000e+02 7.500000000000000000e+02 7.510000000000000000e+02 7.520000000000000000e+02 7.530000000000000000e+02 7.540000000000000000e+02 7.550000000000000000e+02 7.560000000000000000e+02 7.570000000000000000e+02 7.580000000000000000e+02 7.590000000000000000e+02 7.600000000000000000e+02 7.610000000000000000e+02 7.620000000000000000e+02 7.630000000000000000e+02 7.640000000000000000e+02 7.650000000000000000e+02 7.660000000000000000e+02 7.670000000000000000e+02 7.680000000000000000e+02 7.690000000000000000e+02 7.700000000000000000e+02 7.710000000000000000e+02 7.720000000000000000e+02 7.730000000000000000e+02 7.740000000000000000e+02 7.750000000000000000e+02 7.760000000000000000e+02 7.770000000000000000e+02 7.780000000000000000e+02 7.790000000000000000e+02 7.800000000000000000e+02 7.810000000000000000e+02 7.820000000000000000e+02 7.830000000000000000e+02 7.840000000000000000e+02 7.850000000000000000e+02 7.860000000000000000e+02 7.870000000000000000e+02 7.880000000000000000e+02 7.890000000000000000e+02 7.900000000000000000e+02 7.910000000000000000e+02 7.920000000000000000e+02 7.930000000000000000e+02 7.940000000000000000e+02 7.950000000000000000e+02 7.960000000000000000e+02 7.970000000000000000e+02 7.980000000000000000e+02 7.990000000000000000e+02 8.000000000000000000e+02 8.010000000000000000e+02 8.020000000000000000e+02 8.030000000000000000e+02 8.040000000000000000e+02 8.050000000000000000e+02 8.060000000000000000e+02 8.070000000000000000e+02 8.080000000000000000e+02 8.090000000000000000e+02 8.100000000000000000e+02 8.110000000000000000e+02 8.120000000000000000e+02 8.130000000000000000e+02 8.140000000000000000e+02 8.150000000000000000e+02 8.160000000000000000e+02 8.170000000000000000e+02 8.180000000000000000e+02 8.190000000000000000e+02 8.200000000000000000e+02 8.210000000000000000e+02 8.220000000000000000e+02 8.230000000000000000e+02 8.240000000000000000e+02 8.250000000000000000e+02 8.260000000000000000e+02 8.270000000000000000e+02 8.280000000000000000e+02 8.290000000000000000e+02 8.300000000000000000e+02 8.310000000000000000e+02 8.320000000000000000e+02 8.330000000000000000e+02 8.340000000000000000e+02 8.350000000000000000e+02 8.360000000000000000e+02 8.370000000000000000e+02 8.380000000000000000e+02 8.390000000000000000e+02 8.400000000000000000e+02 8.410000000000000000e+02 8.420000000000000000e+02 8.430000000000000000e+02 8.440000000000000000e+02 8.450000000000000000e+02 8.460000000000000000e+02 8.470000000000000000e+02 8.480000000000000000e+02 8.490000000000000000e+02 8.500000000000000000e+02 8.510000000000000000e+02 8.520000000000000000e+02 8.530000000000000000e+02 8.540000000000000000e+02 8.550000000000000000e+02 8.560000000000000000e+02 8.570000000000000000e+02 8.580000000000000000e+02 8.590000000000000000e+02 8.600000000000000000e+02 8.610000000000000000e+02 8.620000000000000000e+02 8.630000000000000000e+02 8.640000000000000000e+02 8.650000000000000000e+02 8.660000000000000000e+02 8.670000000000000000e+02 8.680000000000000000e+02 8.690000000000000000e+02 8.700000000000000000e+02 8.710000000000000000e+02 8.720000000000000000e+02 8.730000000000000000e+02 8.740000000000000000e+02 8.750000000000000000e+02 8.760000000000000000e+02 8.770000000000000000e+02 8.780000000000000000e+02 8.790000000000000000e+02 8.800000000000000000e+02 8.810000000000000000e+02 8.820000000000000000e+02 8.830000000000000000e+02 8.840000000000000000e+02 8.850000000000000000e+02 8.860000000000000000e+02 8.870000000000000000e+02 8.880000000000000000e+02 8.890000000000000000e+02 8.900000000000000000e+02 8.910000000000000000e+02 8.920000000000000000e+02 8.930000000000000000e+02 8.940000000000000000e+02 8.950000000000000000e+02 8.960000000000000000e+02 8.970000000000000000e+02 8.980000000000000000e+02 8.990000000000000000e+02 9.000000000000000000e+02 9.010000000000000000e+02 9.020000000000000000e+02 9.030000000000000000e+02 9.040000000000000000e+02 9.050000000000000000e+02 9.060000000000000000e+02 9.070000000000000000e+02 9.080000000000000000e+02 9.090000000000000000e+02 9.100000000000000000e+02 9.110000000000000000e+02 9.120000000000000000e+02 9.130000000000000000e+02 9.140000000000000000e+02 9.150000000000000000e+02 9.160000000000000000e+02 9.170000000000000000e+02 9.180000000000000000e+02 9.190000000000000000e+02 9.200000000000000000e+02 9.210000000000000000e+02 9.220000000000000000e+02 9.230000000000000000e+02 9.240000000000000000e+02 9.250000000000000000e+02 9.260000000000000000e+02 9.270000000000000000e+02 9.280000000000000000e+02 9.290000000000000000e+02 9.300000000000000000e+02 9.310000000000000000e+02 9.320000000000000000e+02 9.330000000000000000e+02 9.340000000000000000e+02 9.350000000000000000e+02 9.360000000000000000e+02 9.370000000000000000e+02 9.380000000000000000e+02 9.390000000000000000e+02 9.400000000000000000e+02 9.410000000000000000e+02 9.420000000000000000e+02 9.430000000000000000e+02 9.440000000000000000e+02 9.450000000000000000e+02 9.460000000000000000e+02 9.470000000000000000e+02 9.480000000000000000e+02 9.490000000000000000e+02 9.500000000000000000e+02 9.510000000000000000e+02 9.520000000000000000e+02 9.530000000000000000e+02 9.540000000000000000e+02 9.550000000000000000e+02 9.560000000000000000e+02 9.570000000000000000e+02 9.580000000000000000e+02 9.590000000000000000e+02 9.600000000000000000e+02 9.610000000000000000e+02 9.620000000000000000e+02 9.630000000000000000e+02 9.640000000000000000e+02 9.650000000000000000e+02 9.660000000000000000e+02 9.670000000000000000e+02 9.680000000000000000e+02 9.690000000000000000e+02 9.700000000000000000e+02 9.710000000000000000e+02 9.720000000000000000e+02 9.730000000000000000e+02 9.740000000000000000e+02 9.750000000000000000e+02 9.760000000000000000e+02 9.770000000000000000e+02 9.780000000000000000e+02 9.790000000000000000e+02 9.800000000000000000e+02 9.810000000000000000e+02 9.820000000000000000e+02 9.830000000000000000e+02 9.840000000000000000e+02 9.850000000000000000e+02 9.860000000000000000e+02 9.870000000000000000e+02 9.880000000000000000e+02 9.890000000000000000e+02 9.900000000000000000e+02 9.910000000000000000e+02 9.920000000000000000e+02 9.930000000000000000e+02 9.940000000000000000e+02 9.950000000000000000e+02 9.960000000000000000e+02 9.970000000000000000e+02 9.980000000000000000e+02 9.990000000000000000e+02
1.000000000000000000e+00 1.000000000000000000e+00 1.000000000000000000e+00 1.000000000000000000e+00 1.000000000000000000e+00 1.000000000000000000e+00 1.000000000000000000e+00 1.000000000000000000e+00 1.000000000000000000e+00 1.000000000000000000e+00 1.000000000000000000e+00 1.000000000000000000e+00 1.000000000000000000e+00 1.000000000000000000e+00 1.000000000000000000e+00 1.000000000000000000e+00 1.000000000000000000e+00 1.000000000000000000e+00 1.000000000000000000e+00 1.000000000000000000e+00 1.000000000000000000e+00 1.000000000000000000e+00 1.000000000000000000e+00 1.000000000000000000e+00 1.000000000000000000e+00 1.000000000000000000e+00 1.000000000000000000e+00 1.000000000000000000e+00 1.000000000000000000e+00 1.000000000000000000e+00 1.000000000000000000e+00 1.000000000000000000e+00 1.000000000000000000e+00 1.000000000000000000e+00 1.000000000000000000e+00 1.000000000000000000e+00 1.000000000000000000e+00 1.000000000000000000e+00 1.000000000000000000e+00 1.000000000000000000e+00 1.000000000000000000e+00 1.000000000000000000e+00 1.000000000000000000e+00 1.000000000000000000e+00 1.000000000000000000e+00 1.000000000000000000e+00 1.000000000000000000e+00 1.000000000000000000e+00 1.000000000000000000e+00 1.000000000000000000e+00 1.000000000000000000e+00 1.000000000000000000e+00 1.000000000000000000e+00 1.000000000000000000e+00 1.000000000000000000e+00 1.000000000000000000e+00 1.000000000000000000e+00 1.000000000000000000e+00 1.000000000000000000e+00 1.000000000000000000e+00 1.000000000000000000e+00 1.000000000000000000e+00 1.000000000000000000e+00 1.000000000000000000e+00 1.000000000000000000e+00 1.000000000000000000e+00 1.000000000000000000e+00 1.000000000000000000e+00 1.000000000000000000e+00 1.000000000000000000e+00 1.000000000000000000e+00 1.000000000000000000e+00 1.000000000000000000e+00 1.000000000000000000e+00 1.000000000000000000e+00 1.000000000000000000e+00 1.000000000000000000e+00 1.000000000000000000e+00 1.000000000000000000e+00 1.000000000000000000e+00 1.000000000000000000e+00 1.000000000000000000e+00 1.000000000000000000e+00 1.000000000000000000e+00 1.000000000000000000e+00 1.000000000000000000e+00 1.000000000000000000e+00 1.000000000000000000e+00 1.000000000000000000e+00 1.000000000000000000e+00 1.000000000000000000e+00 1.000000000000000000e+00 1.000000000000000000e+00 1.000000000000000000e+00 1.000000000000000000e+00 1.000000000000000000e+00 1.000000000000000000e+00 1.000000000000000000e+00 1.000000000000000000e+00 1.000000000000000000e+00 1.000000000000000000e+00 1.000000000000000000e+00 1.000000000000000000e+00 1.000000000000000000e+00 1.000000000000000000e+00 1.000000000000000000e+00 1.000000000000000000e+00 1.000000000000000000e+00 1.000000000000000000e+00 1.000000000000000000e+00 1.000000000000000000e+00 1.000000000000000000e+00 1.000000000000000000e+00 1.000000000000000000e+00 1.000000000000000000e+00 1.000000000000000000e+00 1.000000000000000000e+00 1.000000000000000000e+00 1.000000000000000000e+00 1.000000000000000000e+00 1.000000000000000000e+00 1.000000000000000000e+00 1.000000000000000000e+00 1.000000000000000000e+00 1.000000000000000000e+00 1.000000000000000000e+00 1.000000000000000000e+00 1.000000000000000000e+00 1.000000000000000000e+00 1.000000000000000000e+00 1.000000000000000000e+00 1.000000000000000000e+00 1.000000000000000000e+00 1.000000000000000000e+00 1.000000000000000000e+00 1.000000000000000000e+00 1.000000000000000000e+00 1.000000000000000000e+00 1.000000000000000000e+00 1.000000000000000000e+00 1.000000000000000000e+00 1.000000000000000000e+00 1.000000000000000000e+00 1.000000000000000000e+00 1.000000000000000000e+00 1.000000000000000000e+00 1.000000000000000000e+00 1.000000000000000000e+00 1.000000000000000000e+00 1.000000000000000000e+00 1.000000000000000000e+00 1.000000000000000000e+00 1.000000000000000000e+00 1.000000000000000000e+00 1.000000000000000000e+00 1.000000000000000000e+00 1.000000000000000000e+00 1.000000000000000000e+00 1.000000000000000000e+00 1.000000000000000000e+00 1.000000000000000000e+00 1.000000000000000000e+00 1.000000000000000000e+00 1.000000000000000000e+00 1.000000000000000000e+00 1.000000000000000000e+00 1.000000000000000000e+00 1.000000000000000000e+00 1.000000000000000000e+00 1.000000000000000000e+00 1.000000000000000000e+00 1.000000000000000000e+00 1.000000000000000000e+00 1.000000000000000000e+00 1.000000000000000000e+00 1.000000000000000000e+00 1.000000000000000000e+00 1.000000000000000000e+00 1.000000000000000000e+00 1.000000000000000000e+00 1.000000000000000000e+00 1.000000000000000000e+00 1.000000000000000000e+00 1.000000000000000000e+00 1.000000000000000000e+00 1.000000000000000000e+00 1.000000000000000000e+00 1.000000000000000000e+00 1.000000000000000000e+00 1.000000000000000000e+00 1.000000000000000000e+00 1.000000000000000000e+00 1.000000000000000000e+00 1.000000000000000000e+00 1.000000000000000000e+00 1.000000000000000000e+00 1.000000000000000000e+00 1.000000000000000000e+00 1.000000000000000000e+00 1.000000000000000000e+00 1.000000000000000000e+00 1.000000000000000000e+00 1.000000000000000000e+00 1.000000000000000000e+00 1.000000000000000000e+00 1.000000000000000000e+00 1.000000000000000000e+00 1.000000000000000000e+00 1.000000000000000000e+00 1.000000000000000000e+00 1.000000000000000000e+00 1.000000000000000000e+00 1.000000000000000000e+00 1.000000000000000000e+00 1.000000000000000000e+00 1.000000000000000000e+00 1.000000000000000000e+00 1.000000000000000000e+00 1.000000000000000000e+00 1.000000000000000000e+00 1.000000000000000000e+00 1.000000000000000000e+00 1.000000000000000000e+00 1.000000000000000000e+00 1.000000000000000000e+00 1.000000000000000000e+00 1.000000000000000000e+00 1.000000000000000000e+00 1.000000000000000000e+00 1.000000000000000000e+00 1.000000000000000000e+00 1.000000000000000000e+00 1.000000000000000000e+00 1.000000000000000000e+00 1.000000000000000000e+00 1.000000000000000000e+00 1.000000000000000000e+00 1.000000000000000000e+00 1.000000000000000000e+00 1.000000000000000000e+00 1.000000000000000000e+00 1.000000000000000000e+00 1.000000000000000000e+00 1.000000000000000000e+00 1.000000000000000000e+00 1.000000000000000000e+00 1.000000000000000000e+00 1.000000000000000000e+00 1.000000000000000000e+00 1.000000000000000000e+00 1.000000000000000000e+00 1.000000000000000000e+00 1.000000000000000000e+00 1.000000000000000000e+00 1.000000000000000000e+00 1.000000000000000000e+00 1.000000000000000000e+00 1.000000000000000000e+00 1.000000000000000000e+00 1.000000000000000000e+00 1.000000000000000000e+00 1.000000000000000000e+00 1.000000000000000000e+00 1.000000000000000000e+00 1.000000000000000000e+00 1.000000000000000000e+00 1.000000000000000000e+00 1.000000000000000000e+00 1.000000000000000000e+00 1.000000000000000000e+00 1.000000000000000000e+00 1.000000000000000000e+00 1.000000000000000000e+00 1.000000000000000000e+00 1.000000000000000000e+00 1.000000000000000000e+00 1.000000000000000000e+00 1.000000000000000000e+00 1.000000000000000000e+00 1.000000000000000000e+00 1.000000000000000000e+00 1.000000000000000000e+00 1.000000000000000000e+00 1.000000000000000000e+00 1.000000000000000000e+00 1.000000000000000000e+00 1.000000000000000000e+00 1.000000000000000000e+00 1.000000000000000000e+00 1.000000000000000000e+00 1.000000000000000000e+00 1.000000000000000000e+00 1.000000000000000000e+00 1.000000000000000000e+00 1.000000000000000000e+00 1.000000000000000000e+00 1.000000000000000000e+00 1.000000000000000000e+00 1.000000000000000000e+00 1.000000000000000000e+00 1.000000000000000000e+00 1.000000000000000000e+00 1.000000000000000000e+00 1.000000000000000000e+00 1.000000000000000000e+00 1.000000000000000000e+00 1.000000000000000000e+00 1.000000000000000000e+00 1.000000000000000000e+00 1.000000000000000000e+00 1.000000000000000000e+00 1.000000000000000000e+00 1.000000000000000000e+00 1.000000000000000000e+00 1.000000000000000000e+00 1.000000000000000000e+00 1.000000000000000000e+00 1.000000000000000000e+00 1.000000000000000000e+00 1.000000000000000000e+00 1.000000000000000000e+00 1.000000000000000000e+00 1.000000000000000000e+00 1.000000000000000000e+00 1.000000000000000000e+00 1.000000000000000000e+00 1.000000000000000000e+00 1.000000000000000000e+00 1.000000000000000000e+00 1.000000000000000000e+00 1.000000000000000000e+00 1.000000000000000000e+00 1.000000000000000000e+00 1.000000000000000000e+00 1.000000000000000000e+00 1.000000000000000000e+00 1.000000000000000000e+00 1.000000000000000000e+00 1.000000000000000000e+00 1.000000000000000000e+00 1.000000000000000000e+00 1.000000000000000000e+00 1.000000000000000000e+00 1.000000000000000000e+00 1.000000000000000000e+00 1.000000000000000000e+00 1.000000000000000000e+00 1.000000000000000000e+00 1.000000000000000000e+00 1.000000000000000000e+00 1.000000000000000000e+00 1.000000000000000000e+00 1.000000000000000000e+00 1.000000000000000000e+00 1.000000000000000000e+00 1.000000000000000000e+00 1.000000000000000000e+00 1.000000000000000000e+00 1.000000000000000000e+00 1.000000000000000000e+00 1.000000000000000000e+00 1.000000000000000000e+00 1.000000000000000000e+00 1.000000000000000000e+00 1.000000000000000000e+00 1.000000000000000000e+00 1.000000000000000000e+00 1.000000000000000000e+00 1.000000000000000000e+00 1.000000000000000000e+00 1.000000000000000000e+00 1.000000000000000000e+00 1.000000000000000000e+00 1.000000000000000000e+00 1.000000000000000000e+00 1.000000000000000000e+00 1.000000000000000000e+00 1.000000000000000000e+00 1.000000000000000000e+00 1.000000000000000000e+00 1.000000000000000000e+00 1.000000000000000000e+00 1.000000000000000000e+00 1.000000000000000000e+00 1.000000000000000000e+00 1.000000000000000000e+00 1.000000000000000000e+00 1.000000000000000000e+00 1.000000000000000000e+00 1.000000000000000000e+00 1.000000000000000000e+00 1.000000000000000000e+00 1.000000000000000000e+00 1.000000000000000000e+00 1.000000000000000000e+00 1.000000000000000000e+00 1.000000000000000000e+00 1.000000000000000000e+00 1.000000000000000000e+00 1.000000000000000000e+00 1.000000000000000000e+00 1.000000000000000000e+00 1.000000000000000000e+00 1.000000000000000000e+00 1.000000000000000000e+00 1.000000000000000000e+00 1.000000000000000000e+00 1.000000000000000000e+00 1.000000000000000000e+00 1.000000000000000000e+00 1.000000000000000000e+00 1.000000000000000000e+00 1.000000000000000000e+00 1.000000000000000000e+00 1.000000000000000000e+00 1.000000000000000000e+00 1.000000000000000000e+00 1.000000000000000000e+00 1.000000000000000000e+00 1.000000000000000000e+00 1.000000000000000000e+00 1.000000000000000000e+00 1.000000000000000000e+00 1.000000000000000000e+00 1.000000000000000000e+00 1.000000000000000000e+00 1.000000000000000000e+00 1.000000000000000000e+00 1.000000000000000000e+00 1.000000000000000000e+00 1.000000000000000000e+00 1.000000000000000000e+00 1.000000000000000000e+00 1.000000000000000000e+00 1.000000000000000000e+00 1.000000000000000000e+00 1.000000000000000000e+00 1.000000000000000000e+00 1.000000000000000000e+00 1.000000000000000000e+00 1.000000000000000000e+00 1.000000000000000000e+00 1.000000000000000000e+00 1.000000000000000000e+00 1.000000000000000000e+00 1.000000000000000000e+00 1.000000000000000000e+00 1.000000000000000000e+00 1.000000000000000000e+00 1.000000000000000000e+00 1.000000000000000000e+00 1.000000000000000000e+00 1.000000000000000000e+00 1.000000000000000000e+00 1.000000000000000000e+00 1.000000000000000000e+00 1.000000000000000000e+00 1.000000000000000000e+00 1.000000000000000000e+00 1.000000000000000000e+00 1.000000000000000000e+00 1.000000000000000000e+00 1.000000000000000000e+00 1.000000000000000000e+00 1.000000000000000000e+00 1.000000000000000000e+00 1.000000000000000000e+00 1.000000000000000000e+00 1.000000000000000000e+00 1.000000000000000000e+00 1.000000000000000000e+00 1.000000000000000000e+00 1.000000000000000000e+00 1.000000000000000000e+00 1.000000000000000000e+00 1.000000000000000000e+00 1.000000000000000000e+00 1.000000000000000000e+00 1.000000000000000000e+00 1.000000000000000000e+00 1.000000000000000000e+00 1.000000000000000000e+00 1.000000000000000000e+00 1.000000000000000000e+00 1.000000000000000000e+00 1.000000000000000000e+00 1.000000000000000000e+00 1.000000000000000000e+00 1.000000000000000000e+00 1.000000000000000000e+00 1.000000000000000000e+00 1.000000000000000000e+00 1.000000000000000000e+00 1.000000000000000000e+00 1.000000000000000000e+00 1.000000000000000000e+00 1.000000000000000000e+00 1.000000000000000000e+00 1.000000000000000000e+00 1.000000000000000000e+00 1.000000000000000000e+00 1.000000000000000000e+00 1.000000000000000000e+00 1.000000000000000000e+00 1.000000000000000000e+00 1.000000000000000000e+00 1.000000000000000000e+00 1.000000000000000000e+00 1.000000000000000000e+00 1.000000000000000000e+00 1.000000000000000000e+00 1.000000000000000000e+00 1.000000000000000000e+00 1.000000000000000000e+00 1.000000000000000000e+00 1.000000000000000000e+00 1.000000000000000000e+00 1.000000000000000000e+00 1.000000000000000000e+00 1.000000000000000000e+00 1.000000000000000000e+00 1.000000000000000000e+00 1.000000000000000000e+00 1.000000000000000000e+00 1.000000000000000000e+00 1.000000000000000000e+00 1.000000000000000000e+00 1.000000000000000000e+00 1.000000000000000000e+00 1.000000000000000000e+00 1.000000000000000000e+00 1.000000000000000000e+00 1.000000000000000000e+00 1.000000000000000000e+00 1.000000000000000000e+00 1.000000000000000000e+00 1.000000000000000000e+00 1.000000000000000000e+00 1.000000000000000000e+00 1.000000000000000000e+00 1.000000000000000000e+00 1.000000000000000000e+00 1.000000000000000000e+00 1.000000000000000000e+00 1.000000000000000000e+00 1.000000000000000000e+00 1.000000000000000000e+00 1.000000000000000000e+00 1.000000000000000000e+00 1.000000000000000000e+00 1.000000000000000000e+00 1.000000000000000000e+00 1.000000000000000000e+00 1.000000000000000000e+00 1.000000000000000000e+00 1.000000000000000000e+00 1.000000000000000000e+00 1.000000000000000000e+00 1.000000000000000000e+00 1.000000000000000000e+00 1.000000000000000000e+00 1.000000000000000000e+00 1.000000000000000000e+00 1.000000000000000000e+00 1.000000000000000000e+00 1.000000000000000000e+00 1.000000000000000000e+00 1.000000000000000000e+00 1.000000000000000000e+00 1.000000000000000000e+00 1.000000000000000000e+00 1.000000000000000000e+00 1.000000000000000000e+00 1.000000000000000000e+00 1.000000000000000000e+00 1.000000000000000000e+00 1.000000000000000000e+00 1.000000000000000000e+00 1.000000000000000000e+00 1.000000000000000000e+00 1.000000000000000000e+00 1.000000000000000000e+00 1.000000000000000000e+00 1.000000000000000000e+00 1.000000000000000000e+00 1.000000000000000000e+00 1.000000000000000000e+00 1.000000000000000000e+00 1.000000000000000000e+00 1.000000000000000000e+00 1.000000000000000000e+00 1.000000000000000000e+00 1.000000000000000000e+00 1.000000000000000000e+00 1.000000000000000000e+00 1.000000000000000000e+00 1.000000000000000000e+00 1.000000000000000000e+00 1.000000000000000000e+00 1.000000000000000000e+00 1.000000000000000000e+00 1.000000000000000000e+00 1.000000000000000000e+00 1.000000000000000000e+00 1.000000000000000000e+00 1.000000000000000000e+00 1.000000000000000000e+00 1.000000000000000000e+00 1.000000000000000000e+00 1.000000000000000000e+00 1.000000000000000000e+00 1.000000000000000000e+00 1.000000000000000000e+00 1.000000000000000000e+00 1.000000000000000000e+00 1.000000000000000000e+00 1.000000000000000000e+00 1.000000000000000000e+00 1.000000000000000000e+00 1.000000000000000000e+00 1.000000000000000000e+00 1.000000000000000000e+00 1.000000000000000000e+00 1.000000000000000000e+00 1.000000000000000000e+00 1.000000000000000000e+00 1.000000000000000000e+00 1.000000000000000000e+00 1.000000000000000000e+00 1.000000000000000000e+00 1.000000000000000000e+00 1.000000000000000000e+00 1.000000000000000000e+00 1.000000000000000000e+00 1.000000000000000000e+00 1.000000000000000000e+00 1.000000000000000000e+00 1.000000000000000000e+00 1.000000000000000000e+00 1.000000000000000000e+00 1.000000000000000000e+00 1.000000000000000000e+00 1.000000000000000000e+00 1.000000000000000000e+00 1.000000000000000000e+00 1.000000000000000000e+00 1.000000000000000000e+00 1.000000000000000000e+00 1.000000000000000000e+00 1.000000000000000000e+00 1.000000000000000000e+00 1.000000000000000000e+00 1.000000000000000000e+00 1.000000000000000000e+00 1.000000000000000000e+00 1.000000000000000000e+00 1.000000000000000000e+00 1.000000000000000000e+00 1.000000000000000000e+00 1.000000000000000000e+00 1.000000000000000000e+00 1.000000000000000000e+00 1.000000000000000000e+00 1.000000000000000000e+00 1.000000000000000000e+00 1.000000000000000000e+00 1.000000000000000000e+00 1.000000000000000000e+00 1.000000000000000000e+00 1.000000000000000000e+00 1.000000000000000000e+00 1.000000000000000000e+00 1.000000000000000000e+00 1.000000000000000000e+00 1.000000000000000000e+00 1.000000000000000000e+00 1.000000000000000000e+00 1.000000000000000000e+00 1.000000000000000000e+00 1.000000000000000000e+00 1.000000000000000000e+00 1.000000000000000000e+00 1.000000000000000000e+00 1.000000000000000000e+00 1.000000000000000000e+00 1.000000000000000000e+00 1.000000000000000000e+00 1.000000000000000000e+00 1.000000000000000000e+00 1.000000000000000000e+00 1.000000000000000000e+00 1.000000000000000000e+00 1.000000000000000000e+00 1.000000000000000000e+00 1.000000000000000000e+00 1.000000000000000000e+00 1.000000000000000000e+00 1.000000000000000000e+00 1.000000000000000000e+00 1.000000000000000000e+00 1.000000000000000000e+00 1.000000000000000000e+00 1.000000000000000000e+00 1.000000000000000000e+00 1.000000000000000000e+00 1.000000000000000000e+00 1.000000000000000000e+00 1.000000000000000000e+00 1.000000000000000000e+00 1.000000000000000000e+00 1.000000000000000000e+00 1.000000000000000000e+00 1.000000000000000000e+00 1.000000000000000000e+00 1.000000000000000000e+00 1.000000000000000000e+00 1.000000000000000000e+00 1.000000000000000000e+00 1.000000000000000000e+00 1.000000000000000000e+00 1.000000000000000000e+00 1.000000000000000000e+00 1.000000000000000000e+00 1.000000000000000000e+00 1.000000000000000000e+00 1.000000000000000000e+00 1.000000000000000000e+00 1.000000000000000000e+00 1.000000000000000000e+00 1.000000000000000000e+00 1.000000000000000000e+00 1.000000000000000000e+00 1.000000000000000000e+00 1.000000000000000000e+00 1.000000000000000000e+00 1.000000000000000000e+00 1.000000000000000000e+00 1.000000000000000000e+00 1.000000000000000000e+00 1.000000000000000000e+00 1.000000000000000000e+00 1.000000000000000000e+00 1.000000000000000000e+00 1.000000000000000000e+00 1.000000000000000000e+00 1.000000000000000000e+00 1.000000000000000000e+00 1.000000000000000000e+00 1.000000000000000000e+00 1.000000000000000000e+00 1.000000000000000000e+00 1.000000000000000000e+00 1.000000000000000000e+00 1.000000000000000000e+00 1.000000000000000000e+00 1.000000000000000000e+00 1.000000000000000000e+00 1.000000000000000000e+00 1.000000000000000000e+00 1.000000000000000000e+00 1.000000000000000000e+00 1.000000000000000000e+00 1.000000000000000000e+00 1.000000000000000000e+00 1.000000000000000000e+00 1.000000000000000000e+00 1.000000000000000000e+00 1.000000000000000000e+00 1.000000000000000000e+00 1.000000000000000000e+00 1.000000000000000000e+00 1.000000000000000000e+00 1.000000000000000000e+00 1.000000000000000000e+00 1.000000000000000000e+00 1.000000000000000000e+00 1.000000000000000000e+00 1.000000000000000000e+00 1.000000000000000000e+00 1.000000000000000000e+00 1.000000000000000000e+00 1.000000000000000000e+00 1.000000000000000000e+00 1.000000000000000000e+00 1.000000000000000000e+00 1.000000000000000000e+00 1.000000000000000000e+00 1.000000000000000000e+00 1.000000000000000000e+00 1.000000000000000000e+00 1.000000000000000000e+00 1.000000000000000000e+00 1.000000000000000000e+00 1.000000000000000000e+00 1.000000000000000000e+00 1.000000000000000000e+00 1.000000000000000000e+00 1.000000000000000000e+00 1.000000000000000000e+00 1.000000000000000000e+00 1.000000000000000000e+00 1.000000000000000000e+00 1.000000000000000000e+00 1.000000000000000000e+00 1.000000000000000000e+00 1.000000000000000000e+00 1.000000000000000000e+00 1.000000000000000000e+00 1.000000000000000000e+00 1.000000000000000000e+00 1.000000000000000000e+00 1.000000000000000000e+00 1.000000000000000000e+00 1.000000000000000000e+00 1.000000000000000000e+00 1.000000000000000000e+00 1.000000000000000000e+00 1.000000000000000000e+00 1.000000000000000000e+00 1.000000000000000000e+00 1.000000000000000000e+00 1.000000000000000000e+00 1.000000000000000000e+00 1.000000000000000000e+00 1.000000000000000000e+00 1.000000000000000000e+00 1.000000000000000000e+00 1.000000000000000000e+00 1.000000000000000000e+00 1.000000000000000000e+00 1.000000000000000000e+00 1.000000000000000000e+00 1.000000000000000000e+00 1.000000000000000000e+00 1.000000000000000000e+00 1.000000000000000000e+00 1.000000000000000000e+00 1.000000000000000000e+00 1.000000000000000000e+00 1.000000000000000000e+00 1.000000000000000000e+00 1.000000000000000000e+00 1.000000000000000000e+00 1.000000000000000000e+00 1.000000000000000000e+00 1.000000000000000000e+00 1.000000000000000000e+00 1.000000000000000000e+00 1.000000000000000000e+00 1.000000000000000000e+00 1.000000000000000000e+00 1.000000000000000000e+00 1.000000000000000000e+00 1.000000000000000000e+00 1.000000000000000000e+00 1.000000000000000000e+00 1.000000000000000000e+00 1.000000000000000000e+00 1.000000000000000000e+00 1.000000000000000000e+00 1.000000000000000000e+00 1.000000000000000000e+00 1.000000000000000000e+00 1.000000000000000000e+00 1.000000000000000000e+00 1.000000000000000000e+00 1.000000000000000000e+00 1.000000000000000000e+00 1.000000000000000000e+00 1.000000000000000000e+00 1.000000000000000000e+00 1.000000000000000000e+00 1.000000000000000000e+00 1.000000000000000000e+00 1.000000000000000000e+00 1.000000000000000000e+00 1.000000000000000000e+00 1.000000000000000000e+00 1.000000000000000000e+00 1.000000000000000000e+00 1.000000000000000000e+00 1.000000000000000000e+00 1.000000000000000000e+00 1.000000000000000000e+00 1.000000000000000000e+00 1.000000000000000000e+00 1.000000000000000000e+00 1.000000000000000000e+00 1.000000000000000000e+00 1.000000000000000000e+00 1.000000000000000000e+00 1.000000000000000000e+00 1.000000000000000000e+00 1.000000000000000000e+00 1.000000000000000000e+00 1.000000000000000000e+00 1.000000000000000000e+00 1.000000000000000000e+00 1.000000000000000000e+00 1.000000000000000000e+00 1.000000000000000000e+00 1.000000000000000000e+00 1.000000000000000000e+00 1.000000000000000000e+00 1.000000000000000000e+00 1.000000000000000000e+00 1.000000000000000000e+00 1.000000000000000000e+00 1.000000000000000000e+00 1.000000000000000000e+00 1.000000000000000000e+00 1.000000000000000000e+00 1.000000000000000000e+00 1.000000000000000000e+00 1.000000000000000000e+00 1.000000000000000000e+00 1.000000000000000000e+00 1.000000000000000000e+00 1.000000000000000000e+00 1.000000000000000000e+00 1.000000000000000000e+00 1.000000000000000000e+00 1.000000000000000000e+00 1.000000000000000000e+00 1.000000000000000000e+00 1.000000000000000000e+00 1.000000000000000000e+00 1.000000000000000000e+00 1.000000000000000000e+00 1.000000000000000000e+00 1.000000000000000000e+00 1.000000000000000000e+00 1.000000000000000000e+00 1.000000000000000000e+00 1.000000000000000000e+00 1.000000000000000000e+00 1.000000000000000000e+00 1.000000000000000000e+00 1.000000000000000000e+00 1.000000000000000000e+00 1.000000000000000000e+00 1.000000000000000000e+00 1.000000000000000000e+00 1.000000000000000000e+00 1.000000000000000000e+00 1.000000000000000000e+00 1.000000000000000000e+00 1.000000000000000000e+00 1.000000000000000000e+00 1.000000000000000000e+00 1.000000000000000000e+00 1.000000000000000000e+00 1.000000000000000000e+00 1.000000000000000000e+00 1.000000000000000000e+00 1.000000000000000000e+00 1.000000000000000000e+00 1.000000000000000000e+00 1.000000000000000000e+00 1.000000000000000000e+00 1.000000000000000000e+00 1.000000000000000000e+00 1.000000000000000000e+00 1.000000000000000000e+00 1.000000000000000000e+00 1.000000000000000000e+00 1.000000000000000000e+00 1.000000000000000000e+00 1.000000000000000000e+00 1.000000000000000000e+00 1.000000000000000000e+00 1.000000000000000000e+00 1.000000000000000000e+00 1.000000000000000000e+00 1.000000000000000000e+00 1.000000000000000000e+00 1.000000000000000000e+00 1.000000000000000000e+00 1.000000000000000000e+00 1.000000000000000000e+00 1.000000000000000000e+00 1.000000000000000000e+00 1.000000000000000000e+00 1.000000000000000000e+00 1.000000000000000000e+00 1.000000000000000000e+00 1.000000000000000000e+00 1.000000000000000000e+00 1.000000000000000000e+00 1.000000000000000000e+00 1.000000000000000000e+00 1.000000000000000000e+00 1.000000000000000000e+00 1.000000000000000000e+00 1.000000000000000000e+00 1.000000000000000000e+00 1.000000000000000000e+00 1.000000000000000000e+00 1.000000000000000000e+00 1.000000000000000000e+00
5.351232398145346070e-02 5.129606168753605422e-01 -2.753842010738078439e-01 7.721518063446219937e-01 5.213164480571204074e-01 5.331801614742001094e-01 5.826517046644470454e-01 3.626718762331904711e-01 5.616803276689359414e-01 5.149762035701744844e-01 1.085127461404621796e+00 -7.232558899256434914e-01 1.418983571617667749e+00 4.649674885606165375e-01 5.220835497098582634e-01 4.117113335987683809e-01 8.503964004770871998e-01 9.798318018153971964e-01 7.416009469635517215e-01 5.206538237360418542e-01 3.703940947858649912e-01 9.919138054916367686e-01 3.634912766696062336e-01 5.425786287233953509e-01 7.311315953996583294e-02 6.660108067760157624e-01 4.033697067237371758e-01 7.049216383378305029e-01 5.280527656845944717e-01 1.619923532378955366e+00 4.948802115229490317e-01 6.052469722355230397e-01 7.185789317552475630e-01 5.179128382316885437e-01 6.941342126976254301e-01 4.587322142918854873e-01 5.537932799952927088e-01 1.843577030270918682e+00 -8.694321930231184437e-02 5.281583588101645965e-01 -2.109561403663952339e-01 -5.622386548351525626e-01 7.468681874799806275e-01 2.300062452226711296e-01 3.137611024221657607e-01 4.916904442280625176e-01 7.725349883734529133e-01 5.103194276667900597e-01 6.633061786362075551e-01 1.000975054336613462e-02 3.083816663228876320e-02 7.758740262643528673e-01 6.815900624119773932e-01 4.221383112359128331e-01 4.630640556958133258e-01 2.054773792769291549e-02 5.530176130981184768e-01 5.090154178940773377e-01 1.980695595716825963e-01 5.304381117766548970e-01 9.249185592650491783e-01 4.726592286878187332e-01 5.028588954346631112e-01 3.634911520520338613e-01 6.768227567307814052e-01 6.405186493062393627e-01 5.284966805503591436e-01 3.900453626785432282e-01 5.629087268482212414e-01 3.585678928216558259e-02 4.519022433185118093e-01 5.978055144513847452e-01 5.239554405226415357e-01 1.040050324036113395e-02 1.522601033765921041e+00 5.376680104150670658e-01 6.377676102832174898e-01 7.204291113032976757e-01 5.214187755160867299e-01 1.387686268731473938e+00 5.450530781459880236e-01 3.469912829596927262e-01 1.438642040935354194e+00 7.555329248102757855e-01 5.132073599124260532e-01 7.524658632953417081e-01 7.976198469711736072e-01 5.323510127606106979e-01 4.225290817897029982e-01 5.765232323967980355e-01 3.138437901838769806e-01 2.223129312971198868e+00 7.783601411414553528e-01 4.294752377371247043e-02 4.760662931487916194e-01 4.981107643626492276e-01 5.645612680910403469e-01 4.827498912860613278e-01 1.900030664465104935e-01 6.574513557740275793e-01 1.636571048492257097e+00 6.885189796069061119e-01 5.354782312162418290e-01 6.141655686143344672e-01 8.564383260176855472e-01 -2.128769776836862970e+00 -1.243582110539656504e+00 5.258068533624130625e-01 6.181624491220356621e-01 9.687836344220641660e-01 5.899984626630405682e-01 4.232938660718617019e-01 1.787830852487133637e-01 5.042291895796577883e-01 5.268256057476276011e-01 4.973309371838779969e-01 4.605945197744765740e-01 5.049105068523443984e-01 9.839068165836082347e-01 5.074128005638978145e-01 1.315191346781778847e+00 5.405466178263198529e-01 6.315743571137723000e-01 -5.231664666191994106e-01 5.128528883309365627e-01 1.971500429957430578e+00 5.173140108450869912e-01 5.319684005783245073e-01 6.761828091149887365e-01 5.093286619383725622e-01 5.680991762630532849e-01 5.215414253679442336e-01 4.346545805839750476e-01 4.543067792462439081e-01 -3.622707815179040947e-01 -1.722361237777172982e-01 6.678898762359785080e-01 5.326640003108350230e-02 1.008591636306419348e+00 5.672074474526442867e-01 5.217923192794878817e-01 8.728709575271486054e-01 5.135947869248739250e-01 4.986874632845288424e-01 5.225528979314792988e-01 3.839695624734825591e-02 9.636555797998792583e-01 -1.318465444380167717e-01 4.267806606939890668e-01 -9.183530775503107035e-01 7.565926303046238699e-01 -2.868600914381450595e-01 4.917047934473061654e-01 5.530957299033500973e-01 5.050443242628180895e-01 5.109892995346460021e-01 2.020286574288549186e+00 -1.538552102036564173e-01 8.237915393113037776e-01 6.648170838840872232e-01 5.540046880058748791e-01 4.393978130461431708e-01 5.266449636365213571e-01 5.240393550782593834e-01 1.069470882660902733e+00 2.379250307439247925e-01 8.521980671469268076e-01 3.175438638312204631e-01 4.076756250525828684e-01 6.503751541179799700e-01 5.891795711888444531e-01 7.704932476103946160e-01 4.916381114277372233e-01 5.208624355313496990e-01 4.032126421947425654e-01 4.655835077069437472e-02 2.146192222974448172e-01 1.055411186257755873e-01 7.552066883925593332e-01 1.143794584963677696e+00 6.744554261084246827e-01 5.147124515785048704e-01 -1.688913789478320437e-01 4.396615464804292661e-01 4.919105545141633229e-01 5.494599636233872264e-01 5.168663040521809249e-01 5.201325044298285016e-01 2.853586891674928516e+00 4.882603407461302836e-01 5.630357803205858769e-01 -9.181465623701254852e-01 5.326377693961228399e-01 5.125955917561461073e-01 1.986196442159041398e-01 5.240319169050597914e-01 9.437834478176937436e-01 4.962874452525555813e-01 4.656851137147653974e-01 5.395586254808368842e-01 6.329248590054976642e-01 5.114528222994859652e-01 8.659110137730687828e-01 6.021577334482735022e-01 5.432109365923925015e-01 4.656851303693935185e-01 2.050603865648355506e-01 1.298824938870614343e+00 5.594806766519736518e-01 4.594945576552016409e-01 4.232886190095817569e-01 -9.390467056666942924e-02 4.949391682380782642e-01 1.551154908409286270e-01 5.140179291761999281e-01 5.181768557057706559e-01 5.200559503752397728e-01 5.220110697485091933e-01 5.239117773986806670e-01 5.204989768058889688e-01 4.389862704480499422e-01 5.658719345546028290e-01 -7.190759469054757158e-01 6.213253252691930406e-01 4.500665302890197728e-01 3.568709945477877565e-01 2.643095075094037405e-02 1.333343033183217230e+00 9.698523706523871635e-01 4.916475170112853399e-01 -1.023139454434408291e-01 1.065185739511717689e+00 5.247004687347709417e-01 4.628682675107021471e-01 6.509651122466187934e-01 4.079355902383922650e-01 2.663901109496589203e-01 1.686756848638613360e-01 -1.633238333805140663e-01 -7.234023595470051582e-02 4.820587013953998579e-01 4.988205828603096692e-01 -1.167095525471696649e-01 4.334385349363401030e-01 5.204982438901359920e-01 5.133787537525933420e-01 -9.453872881781259785e-02 7.609262033108076251e-01 -2.356309562328181340e+00 6.174826282251774101e-01 -6.555755874732781541e-01 4.993662407259928382e-01 5.214426872023497639e-01 3.634928009743272903e-01 4.833218533044734699e-01 5.617266815230135268e-01 5.270919137273105681e-01 7.821098823705009417e-01 5.679616649205705414e-01 1.699989119930976234e+00 6.829621559745568948e-01 6.816028437551330255e-01 4.564742507668224647e-01 3.907343918797738791e-01 9.249185246544132655e-01 4.594061208537491003e-01 2.730608470151656864e+00 4.579269689971860458e-01 2.227755718133440921e-01 7.612976739441755791e-01 5.073278590778934616e-01 9.251997721549497511e-01 5.208128540848595556e-01 5.803063081875902141e-01 5.217166062588733944e-01 1.141315163186303216e+00 7.681773582984383619e-01 8.578032977864352704e-01 8.028728314628921225e-01 5.739392039350945662e-01 6.839591032733958187e-01 5.098451029887204333e-01 3.753996433390992538e-01 -7.428590705813157280e-01 3.899043890710378601e-01 4.696541082427002634e-01 5.583203340234675904e-01 5.354562953574353301e-01 4.973310091654606913e-01 6.107429084206303926e-01 5.318250329915620300e-01 -9.070993590697131737e-01 7.548515755969286145e-01 5.235933275801384346e-01 -9.921879413905768802e-03 4.745272512861340997e-01 1.858113134519488563e+00 5.067364145545791843e-01 5.205860032706315366e-01 4.267934728709767422e-01 -3.487954575952432190e+00 5.244889888144992351e-01 2.919145186211586029e+00 7.708290351739588431e-01 5.024903866799164120e-01 -5.717032544578855013e-01 5.272801056802781661e-01 5.225155910050820474e-01 4.505075394882977480e-01 4.496072228644197311e-01 3.424443750881595028e-01 6.494320759267466769e-01 3.139261974867812999e-01 5.240654583189086058e-01 5.280209907287821691e-01 3.527072109545552614e-01 5.183539140569940473e-01 7.712069789726975211e-01 5.229676144759149992e-01 1.210970122398246529e+00 3.185334329273912385e-02 2.236448268642260651e+00 2.675668783186078148e+00 4.901358800548076267e-01 -2.316125730416635220e-01 3.911321129205213576e-01 3.999688625173069556e-01 7.400784184973959734e-01 1.393634825817836820e+00 5.321434721807506429e-01 1.134194337529813579e+00 5.229279315133065209e-01 1.198049609313889541e-01 1.260142507786442989e+00 5.360297931551785133e-01 5.594040258437454893e-01 5.236353686583303801e-01 9.075361856571058095e-01 -3.820457213329551571e+00 1.654765221941582043e+00 5.212870517125316461e-01 6.357077283396032064e-01 5.174992894443091185e-01 1.843577036512802358e+00 2.973983544111456490e-01 5.621960554303917501e-01 4.917288076504165439e-01 5.756410315765713159e-01 1.371983940114519074e+00 5.385805899385959217e-01 4.656854969173925274e-01 4.334333273901051498e-01 6.021577366241167573e-01 4.542271710403981144e-01 5.706192606024007574e-01 9.023491043085418717e-01 5.223624474334318535e-01 3.817284186811506497e-01 1.520838246149569806e-01 6.593031250823643274e-01 5.210220504438803912e-01 3.035146690218427645e-01 5.621960111463765175e-01 6.339904581669788541e-01 5.172755287474003483e-01 1.042148528680019615e+00 9.439812322074156992e-01 1.155300344543826130e+00 5.208694702376553964e-01 2.156997173829093006e-01 9.249181999172941815e-01 -1.097717556762504015e-01 9.337141083486081294e-01 6.303736034909314112e-01 3.340632191958916447e-02 4.865014379659848842e-01 9.080748057071477142e-01 3.848285317254056537e-01 4.873038852883612715e-01 3.069649682113949063e-01 -3.397287329593485228e-01 -2.514540538497833655e+00 5.258504594753685701e-01 6.021577319795936578e-01 6.021577709329927197e-01 5.078109091190335933e-01 3.681696255030524334e-01 -2.347930728042633419e-01 2.874106063109845288e-01 5.219742293153042390e-01 7.120886270723894018e-01 5.211674153615233340e-01 1.027944673398382358e+00 4.656849347438789533e-01 5.214489286218566555e-01 4.930302793898541647e-01 2.864465759491635621e-01 6.607280909106828526e-01 5.230737372433508225e-01 5.168866404691707661e-01 5.041784142172727190e-01 3.099731757861567405e-01 1.750280354433667723e-02 6.021577326669186325e-01 6.632815907707468872e-01 5.223961316220533391e-01 3.936012636454325753e-01 8.599899792092978723e-01 7.553790939895310697e-01 5.644422698959504769e-01 1.907601772198181278e+00 4.938248203678792803e-01 -3.171745081949289169e+00 7.723547978618587884e-01 1.541639492124871058e+00 5.929242371734118056e-01 -1.105357746615380554e+00 8.302499632884610126e-01 4.375243989367564867e-01 5.312083082669309952e-01 4.991453031862617684e-01 -4.187131817181595772e-01 5.067645268957537974e-01 1.076536995930028384e+00 4.548738089167063126e-01 -3.969382763650736723e-01 5.117156116707270996e-01 5.236525688167085191e-01 7.931526626742451125e-01 4.894486403540163066e-01 5.984034252647122409e-01 -5.428599623448641109e-01 5.611951024788368603e-01 5.228202876984816561e-01 5.659336634836764635e-01 5.272325258621085586e-01 7.698741911119889592e-01 5.213601306600132990e-01 6.214093869952483917e-01 4.717924152613488520e-01 5.110777511724189370e-01 2.474345686006654554e-01 3.241497861841532435e-01 3.571070677754835110e-01 9.711179342636033773e-01 5.568992706750581778e-01 3.247197661463538942e+00 6.565798216537851451e-01 6.597915050947467108e-01 5.467068056321907621e-01 5.570203996455592721e-01 1.912618747122736898e-02 4.927168203133270308e-01 5.163071352276491499e-01 5.203072550925942341e-01 1.157827178667719892e+00 7.699200974064974723e-01 5.115603374568300499e-01 4.383332392448736625e-01 1.119443152735234204e+00 5.143075480730590066e-01 5.681573807108620811e-01 4.975133037213134157e-01 8.391821712455826976e-01 5.257694918751234514e-01 9.439919796933794460e-01 5.322607848423137611e-01 5.224657168536556151e-01 3.140457676223628453e-02 5.359103700522601654e-01 1.182003610018461486e-02 2.969067850642253537e-01 4.007262924737750032e-01 5.775109501195060391e-01 7.871663521481714332e-01 5.115065272760951354e-01 3.845001634815457536e-01 1.108678156975672069e-01 5.013331709124164703e-01 5.338996193602861817e-01 4.442223055331794845e-01 1.153977204585121367e-02 5.223468051993663819e-01 2.593214418135624810e-01 5.217710523747012274e-01 4.098605995580552053e-01 1.262853368833769085e+00 7.598737668783022148e-01 5.006293488240592948e-01 2.487598486261061725e-01 7.875127402866042292e-01 4.440863499474142495e-01 1.001287595977101486e+00 5.863103575827174341e-01 6.214903826130238063e-01 7.050961119087130191e-01 2.022690734888288766e+00 4.870614416637156219e-01 5.346838499424702018e-01 5.097635059926969303e-01 7.545281558827642288e-01 6.046343342392681564e-01 8.645353096274506211e-01 -5.833181025557372390e-01 3.939440946058069271e-01 5.217829493440320210e-01 4.334559629265220537e-01 4.220697320724646762e-01 -6.348825602631004150e-01 3.856707683872478976e-01 5.195311131472988286e-01 7.271447451107301285e-01 6.693593128104348144e-01 1.539867521280313456e+00 5.191186744878470982e-01 5.220490889881501673e-01 -7.274420224913876742e-01 5.148136253076261992e-01 1.240340209212421607e+00 7.223214562030555452e-01 2.866026789885193216e-01 2.379730055930540933e-01 -1.813886208840609138e+00 5.616550772049054840e-01 1.898459549838371063e-01 1.108000280087978018e+00 8.256725012068131253e-01 5.362165521791130152e-01 5.499994156176825078e-01 5.722283294224876915e-01 7.720747003678736231e-01 4.240211940218802655e-01 5.544719534500476277e-01 1.712213589603518715e-02 5.779520814113624505e-01 5.379778745595455991e-01 4.201831898297249679e-01 5.135709738606747399e-01 4.467835981096967557e-01 1.232113165665554400e+00 -9.806383918772779151e-02 -2.441196548252155263e-01 4.112237472373299063e-01 5.342966266204103309e-01 5.300487635516513141e-01 5.007347368698015222e-01 -8.815459646800127835e-01 3.211539644712237074e+00 4.881963455099201377e-01 4.394234903502544642e-01 4.469612348339276342e-01 5.262778469857393171e-01 5.067433480677107083e-01 5.006257156519881013e-01 3.273313717751084595e-01 6.096750222918585482e-01 5.237710020545666145e-01 4.847448403766801972e-01 3.233162023451761069e-01 4.019791039124831489e-01 5.706257808405790222e-01 4.052546994077497744e-01 5.399788499530441266e-01 5.315460494486985432e-01 6.775349694655912192e-01 1.022946862891849884e+00 2.341936366679477910e+00 5.041749484905738710e-01 5.000487193696248056e-01 3.587460153108872341e-01 4.745766256298362684e-01 3.806731535364904495e-01 5.241521593245466182e-01 5.139199474115772048e-01 4.973069947236687383e-01 5.756551415322994636e-01 5.136853694102474499e-01 7.717083543369376297e-01 3.644907180500603916e-01 4.003427681739344379e-01 4.062907876645415750e-01 4.977560527776621058e-01 1.076672527507862159e-01 9.249185371258118460e-01 5.617541257204335947e-01 9.306910907549083289e-02 1.913914435685803550e+00 3.139707323366427438e-01 4.058467679780607407e-01 5.958132595310500212e-01 6.544420316300555984e-02 5.515692170102417524e-01 1.530600311610809561e+00 8.001948108835342799e-01 7.046733231710198275e-01 5.202507292566457275e-01 5.330383714314980148e-01 4.336919466242525889e-01 6.503780711231321732e-01 5.352304507728157246e-01 5.190460373937199057e-01 -2.606876399616186446e-01 4.890957315881525602e-01 -1.582012027871259274e+00 4.848352148582367183e-01 5.188263123635427077e-01 5.236309867198946089e-01 4.268082291456481436e-01 9.249185371072283779e-01 2.225605355022891030e-01 5.134747971243925901e-01 1.366660777280065187e+00 -5.781824195858082938e-01 5.231970383860845564e-01 1.153726669473032596e+00 1.553920545165168976e+00 5.763632424200958448e-01 5.232023399221582549e-01 -6.400055643729521404e-02 -1.714792608297703413e+00 2.696656797332069311e-01 8.350113214257385286e-01 5.281699386999884061e-01 5.238711588815236908e-01 6.185985464248334731e-01 4.810699872493751639e-01 -4.236950387501682846e-01 8.322756274552144395e-01 4.973301033769982338e-01 3.256418408792473018e-01 5.273648905364785033e-01 -8.259011542578025824e-04 -1.658403289186480001e-01 1.826072157555519215e+00 4.113242619270388589e-01 5.432625556729621108e-01 5.187847615569923798e-01 3.213695132831722590e-01 5.178249138602926127e-01 -1.281430866186995809e-01 -1.299490998688018095e+00 5.262590701267673143e-01 5.101279505768024913e-01 4.795668722762060354e-01 5.763042783963948645e-01 5.217789377471361290e-01 5.467909177798951914e-01 5.269097834533804647e-01 5.618473427219676797e-01 1.038848793265936488e+00 7.148553289169422564e-01 5.217967026853853607e-01 6.243328102150078607e-01 5.198923011194855892e-01 5.175488041947752249e-01 5.344778737429012327e-02 5.621960578036028222e-01 4.333100405050113735e-01 5.645152716463138765e-01 7.551422727116964273e-01 8.558394004155348567e-01 8.645166422404204631e-01 -5.382205725688126163e-01 5.225580613803694208e-01 4.580226930094015159e-01 5.223344376360302688e-01 5.949905269774008465e-01 9.139360123572722872e-01 5.127242129646486513e-01 5.254876546065574416e-01 -2.967639521714566797e-01 -8.956367658861861258e-01 2.336761865310588604e+00 5.064309150014347782e-01 9.037585712715410224e-01 4.137570062465580900e-01 5.762907151403627859e-01 3.961631582940630669e-01 1.520781384873830522e-01 5.200218527559102855e-01 5.346217830720727537e-01 -4.326826176818059956e-03 5.196626442719649575e-01 4.476136251594924897e-01 5.275131519336258012e-01 5.312721453943959338e-01 5.201271751787139852e-01 6.322525057905938883e-01 4.239250251787521906e-01 5.656701983469851758e-01 4.937730402445827949e-01 5.148900033685502864e-01 4.129443822301957501e-01 5.120240549296045662e-01 -2.536828702158147597e-01 5.163228277117410947e-01 6.418137971052219060e-01 5.583894544294445428e-01 7.724066208252441390e-01 9.249185687893156649e-01 7.264914201232502977e-01 -6.134497522860432595e-01 9.802451374404309581e-01 1.843577030250224791e+00 5.056132176613559182e-01 4.637642274196333014e-01 1.086747173554130530e+00 5.662529153435940099e-01 7.725367843175428018e-01 5.182485627072033196e-01 1.874569466045211241e+00 5.223013793585874476e-01 4.334379424156405980e-01 1.236015989375758961e+00 -6.680966049486673775e-02 4.972752947665878276e-01 -1.546884864235160417e-01 -9.837006390285728541e-01 -1.659457796816994346e-01 7.737350519796154513e-01 5.733808075846863472e-01 5.197353976512000262e-01 -3.204127307373134115e-01 5.433565582567655428e-01 5.346452810624507251e-02 -4.073573445104008983e-01 5.344544826989289232e-01 5.165396841525632388e-01 5.228395217450030330e-01 5.210591646337561222e-01 4.790344568820801285e-01 9.173398391083275039e-01 -4.383146707188659841e-01 5.202045384737066236e-01 4.961906045073630200e-01 5.911085175174527473e-01 1.174860571891247485e+00 4.847741358285140856e-01 6.821226479958064637e-01 5.198439788730752076e-01 4.937302169677974806e-02 -4.191521600594151908e-01 5.566355858690855696e-01 5.646932905268620129e-01 6.868312596515849799e-01 5.122137584294934598e-01 3.674898435852465006e-01 5.235924228343100673e-01 5.198688034890496246e-01 4.024950556944891789e-01 5.344133649466100699e-01 8.408638288199365984e-01 2.590382834044075988e+00 -2.495169599161460583e-01 6.581468758165336386e-01 3.402175672129497119e-01 2.016235465204927746e-01 6.564341313251590426e-01 -5.586889086296213669e-02 -1.582951247145867546e+00 4.955994910292826905e-01 2.652824382481626664e+00 5.812382522341241753e-01 1.669245587839179035e-01 1.575533797449933937e-01 4.973309370107815153e-01 5.903683274974049766e-01 1.581591832754769555e+00 5.139059316101891595e-01 1.260535212435161256e-01 4.174835934502958423e-01 1.735136547873710189e+00 6.030625960790895190e-01 7.874859412960247829e-01 5.294975839059476996e-01 7.380804334293127322e-01 4.641629524859723355e-01 5.800562774960295043e-01 2.451248510400932598e-02 5.272790976219162706e-01 5.629803109675903805e-01 -5.830531381004306901e-01 -9.689716711739440602e-02 1.181718551593123889e+00 2.396195574260729932e-01 4.799898310209829710e-01 7.179172518350006582e-01 5.320056429198349868e-01 2.020252494185303060e+00 6.677928708259801560e-01 1.842603172769897296e-02 3.537226820918205061e-01 3.962840875212120806e-01 1.139192942850120183e+00 5.024183558596235777e-01 -2.626845614267449974e-02 5.304853836752703167e-01 -8.861874366008968412e-03 5.418368082998284985e-01 5.176931930630338519e-01 4.942460328409871428e-03 -3.003761476826563581e-02 6.622771910728481037e-01 5.233651134740968658e-01 5.899256128207014394e-01 2.027014056675723597e-01 4.126552961115259044e-01 5.229023054494764677e-01 4.663588681975078254e-01 4.934773465439482587e-01 4.793593840412235241e-01 5.883219281232680009e-01 1.020448113029616799e+00 3.171928205979479998e+00 9.585767300896951282e-01 5.269610893080112213e-01 5.861658066599255701e-01 2.176778912653749565e-01 5.206801698161559466e-01 8.575849531643752188e-01 5.063782134149537040e-01 1.317130402914347798e+00 4.746479926244679959e-01 -5.905115636182930450e-01 -2.019811873007367614e-02 4.196223372709525501e-01 6.153156912389867728e-01 5.692239761848792989e-01 5.234205063337723507e-01 5.786027873096884905e-02 5.267860694455589465e-01 4.906137650977429043e-01 -3.808004812846392362e+00 4.785861191249738411e-01 5.146509717329846856e-01 1.137705012689540052e+00 5.239375295797168430e-01 4.382280924411283696e-01 6.758755248977330599e-01 -9.079867645435510948e-01 -5.000518054732531192e-01 2.841893850289027232e-02 5.232619786954539887e-01 5.572599299995616429e-01 2.117831938060281416e-01 5.217558924616123583e-01 -3.450194440305324184e-01 5.659757238075296959e-01 5.444738763725537334e-01 6.963871426184328195e-01 5.521784103077763683e-01 4.680868078078870842e-01 1.472223244922757357e-01 -7.792335866637106756e-01 6.555874970526414103e-01 5.597328625516517775e-01 1.560869897495531511e-01 5.188724697734089508e-01 5.325746796658529236e-01 5.129258389073814151e-01 6.685873151069012810e-01 5.791782341470596007e-01 5.487325534405503857e-01 5.035682772760178283e-01 1.843577028747860336e+00 3.526152807267115552e-01 5.365281911992950681e-01 -1.340743339544835100e-01 5.333032005179467738e-01 6.384519968111536103e-01 5.073618736923732886e-01 4.855126665573944456e-01 3.662564054149645143e-01 9.537614069103904635e-01 1.222460884244153556e+00 5.548476717500036015e-01 5.880644023699268530e-01 5.969713290341417400e-01 4.890332267041893055e-01 5.483330336984391096e-01 5.224379704430694993e-01 9.803018503003170236e-01 6.929137393404947165e-01 -4.634361587855607700e-01 4.626198886354034867e-01 9.050627596866255287e-01 5.186604314702314422e-01 -3.339764101804176821e-02 5.301112633597143686e-01 1.463938660233212508e+00 -1.386451449887684262e-01 6.410762287859456121e-01 2.369965003749278376e-01 4.699426306985273194e-01 8.631567648610609655e-01 5.182577108781121211e-01 3.729497929089830022e-01 1.409345139670321156e+00 4.690116477996225108e-01 5.210901884716743204e-01 -6.987117366285956477e-01 4.432112532883068501e-01 1.039959544989670581e+00 6.201607281417643724e-01 6.892544559775437563e-02 9.878390703753004987e-01 -2.387652306478853237e-02 7.149061481677092544e-01 1.649319393576486936e+00 -8.657263688938529045e-01 5.832078891580152469e-01 5.219436550995829593e-01 -4.753685161046319885e-01 3.030639818572773425e-01 5.888925901438408772e-01 5.066749031265908032e-01 4.848937605626849612e-01 4.126209272127118188e-01 2.628207240165812419e-01 3.466772349846243273e-01 5.796517052078398180e-01 5.225034157879927532e-01 8.572920791571472798e-03 -1.462347804464984302e-01 5.391061051619060462e-01 1.067688483332790206e+00 5.224553059105966346e-01 -5.829037968142039006e-01 4.620236635505355349e-01 5.224661153741835262e-01 5.611370416397807315e-01 4.590085717638200946e-02 3.256100189427234004e-01 5.203153265397476579e-01 5.314058320870097551e-01 4.523853691636469110e-01 -9.186563722137629229e-03 5.624599993892029914e-01 5.292907483552515835e-01 5.914562992174295930e-01 2.104262843610235301e+00 -8.570247503089722246e-03 3.883332412592966354e-01 5.718302344762969947e-01 1.851501694242297269e+00 5.022156627322791334e-01 5.438745063512553379e-01 2.393110078960988471e-02 5.621960513051625918e-01 5.242885231991796235e-01 4.777145416983274995e-01 3.933111488479720252e-01 5.109165980162592158e-01 4.315932755440276547e-01 5.128047439379851413e-01 -5.553128368074079502e-01 5.199121346500130691e-01 4.987984765903820672e-01 5.102835100482396857e-01 1.220582952453335146e+00 5.280615078656576422e-01 -2.482551692900594187e-01 1.118192208005639676e+00 -1.307614457863534252e+00 -5.397774740125556026e-01 5.423888902340543439e-01 5.211521512435384196e-01 6.627078321340487133e-01 5.231249359814478250e-01 4.771060716087629494e-01 5.350750701633503192e-01 5.621960631486612181e-01 5.200554881505844440e-01 4.901177984193925141e-01 5.997230816637291184e-01 5.228789060152805312e-01 3.137218230935517882e-01 5.157359229639486564e-01 5.411851179744782137e-01 4.020674686595657743e-01 5.261400317484373756e-01 5.243688373274590919e-01 5.330392273577363449e-01 6.543367776257263957e-01 5.239226481033314453e-01 7.140507635082091742e-01 5.090408077186209246e-01 5.317716641325457294e-01 5.385705544621791629e-01 4.077957557322173798e-01 3.698779479676311821e-01 2.464170296758132928e+00 4.907523815471322992e-01 6.203102286718017444e-01 2.972996408621448317e-01 5.805421401116123148e-01 1.119218530975275128e+00 4.171185147698880935e-01 6.933747706506588893e-01 5.234310131017013701e-01
7.153236705481933466e-01 3.025178066353328421e-01 4.451338294704441090e-01 -2.439669040849570467e-02 3.123974435247526826e-01 3.751192245804683689e-01 5.377559983490133311e-01 4.027479229160107477e-01 3.561955087422493116e-01 2.938693345510188237e-01 2.075928094546240832e+00 1.732215228556787334e+00 -1.468373293110795119e+00 5.959182272911140998e-01 3.123921844490978317e-01 4.573042128225529579e-01 1.343469741096729453e-01 4.448812874167293874e-01 4.154482787631868512e-01 2.928879060951907198e-01 4.273903820798164999e-01 2.145899226197591325e+00 3.618526284511288105e-01 3.513918464973982414e-01 7.478739454227626426e-01 -1.794980297873443875e-01 4.167566034743419023e-01 1.934392333901098215e-01 2.725361840888484433e-01 -9.189691279139433622e-01 4.350995831716773510e-01 -1.551486010254167214e-01 2.891436017576964890e-01 3.329319518968592018e-01 -4.138065840623535441e-01 4.986689379134875977e-01 3.340662965826712294e-01 -3.859240832854626824e-01 -3.292962543753186644e+00 3.163712561292441605e-01 1.189405241230430343e+00 1.454049579300563666e-01 -1.686402370637266057e-01 7.916518793485498584e-01 5.716997336187178425e-01 3.240850722325621103e-01 -2.485655962508057787e-02 2.980094923390548822e-01 1.523332015720102739e-01 6.530482983923321383e-01 6.882292294635928842e-01 5.006822829999977298e-01 -1.671887283276045910e-01 2.357651058339060302e-01 5.955584770518937976e-01 6.554010180106761840e-01 3.099434197864164298e-01 2.439827098459978194e-01 3.453638446548972785e-01 3.380098500001147976e-01 4.318505807823129206e-01 4.373483833726995451e-01 3.382687466038566404e-01 3.618526383374997546e-01 -3.432885310170860071e-01 1.275256058311163010e-01 2.976817184812166617e-01 3.119029694281731380e-01 2.250446403695096353e-01 7.101353385425349662e-01 1.501596174359866864e-01 2.438600844256096078e-01 3.206139511372076978e-01 7.268992724977181297e-01 1.941074466382514796e+00 4.308862969209886762e-01 4.769573760185902844e-01 4.824606583746350874e-01 3.118510495305698016e-01 -1.354321926006359256e+00 3.221812179257776410e-01 5.528872192120151130e-01 2.384793614754477264e+00 7.350401184051068293e-02 2.533636758093308350e-01 -3.621759592951017126e-01 1.376922607292517253e-01 2.781752212184451789e-01 -5.829770391537614227e-01 -9.069909587142354068e-01 5.717163010369090692e-01 1.606078541937123516e+00 5.739670680036325356e-02 6.806303171704182198e-01 3.556420855891866406e-01 3.422148209723231971e-01 2.673178268413478054e-01 7.785933583315437501e-01 7.368284676542000700e-01 -1.775657825333568918e-01 -1.803946824044873609e-01 5.544927053406896456e-02 2.903021806166181662e-01 2.154850523546596452e-01 -5.096373692976085418e-02 3.157795403479778606e+00 -2.933741109725973017e-01 3.052319668128443131e-01 8.698279363833549827e-02 8.116895924284404096e-01 2.672379333541273216e-01 5.176983434161953612e-01 1.619910850270807889e-01 3.863686986470047935e-01 -4.755812145250332135e-01 2.572327570478236125e-01 1.110769134144554970e-01 4.235071986788855325e-01 1.155920860096141478e+00 3.443735282858139124e-01 -1.471212143410201456e+00 1.435301157639145841e-01 8.689796124484368278e-02 1.458391238784474186e+00 3.073490031984056348e-01 2.198247404106407288e+00 3.622572138775546069e-01 2.108778666802794410e-01 3.104370712728700687e-01 3.156477122954344239e-01 3.426640867780157973e-01 3.129937886997103402e-01 6.734859744045109675e-01 4.193547570626207088e-01 1.631177318586556624e-01 8.574898384650061489e-01 7.252023439502700564e-01 7.105912947259153123e-01 -3.392471590261958991e-01 2.161759991655452240e-01 2.826942390732454236e-01 3.220302460118147914e-01 3.483963763730741903e-01 2.453521068152464679e-01 3.140855473393462938e-01 7.001357873009209642e-01 -1.746260986522225889e-01 3.192727240713700287e-01 4.285138648733565203e-01 4.026197737290100331e-01 -2.091859337529917984e-01 2.724708301736140231e-02 3.240733457614158874e-01 2.782409293656165628e-01 2.837457366463942976e-01 3.138357133940784527e-01 -2.468926288215177678e+00 4.663659299908074485e-01 -6.063574344182987019e-01 -1.829572787370522535e-01 1.564641212132248937e-01 3.568502513681176547e-01 3.079905965081891073e-01 3.128822221176937313e-01 1.273832562240998223e-01 1.108300833260756485e-01 3.190217391766200783e-01 4.807803518227525275e-01 4.399988352845606854e-01 2.898460223496333033e-01 2.138137825821662119e-01 -2.650120720017989581e-02 3.241245451240999942e-01 3.088109178862121773e-01 -2.530474930621333662e+00 6.731137544273271267e-01 5.818921123057181344e-01 9.409625862820895081e-01 -4.598827552769021443e-01 1.174204384080043129e+00 3.459319133113684941e-02 3.196099419952311838e-01 1.244554589659891963e+00 3.481530036581997889e-01 3.105091313993433855e-01 3.066253159504911951e-01 3.384466157518085661e-01 3.293243516900287715e-01 -4.957966467950147837e-01 3.110354206218579054e-01 3.159495446843202937e-01 8.223819059874923898e-01 2.871829624732461506e-01 3.557047661196603427e-01 2.460205921656196393e-01 3.077591818828148140e-01 -1.686474259792256403e+00 3.261805260592551825e-01 3.428111457108961591e-01 3.035980549610252099e-01 4.273121065560377824e-02 3.764967618424410745e-01 3.891670422752063208e-01 1.484526646378409587e-01 -7.636939359262618909e-01 3.428111104195342151e-01 4.876940750433145788e-01 -5.219079266595200162e-01 3.481176754061776069e-01 2.070207144026896817e-01 2.348884806249459112e-01 -3.295670910717563462e+00 4.344856526567564825e-01 9.167294466896281913e-01 3.200936077926402334e-01 3.143473765264361286e-01 3.120101011896320720e-01 3.141678868648279943e-01 3.083431314571656867e-01 3.116945819483283309e-01 3.688249931201589282e-01 9.521352700011452563e-02 6.705834371221389700e-01 1.053686327317269605e-01 4.635340205159244609e-01 5.160649639105122644e-01 4.060601171051125835e-01 -6.971886191093257246e-01 2.323259611306212946e+00 4.054811631301177277e-01 1.249611163155493365e+00 -1.399411316020426899e+00 3.164233070848003204e-01 2.580172898208845655e-01 3.510387869565467778e-01 1.188470255717992030e+00 5.237915135073815120e-01 8.290619018204953283e-01 2.872348815798865251e-01 6.674402023744522294e-01 2.398317672376721610e-01 2.989542665466469185e-01 -1.186669297397765055e+00 4.205404294560449174e-01 3.087781166470094929e-01 5.015716119662545491e-01 8.812684194866602372e-01 -3.773997764322918336e-01 3.206911698186707849e+00 5.016682908530444296e-01 1.295161600839705551e+00 -2.685309890220559104e-01 3.203126691762560041e-01 3.618563064418853781e-01 3.468757833656123113e-01 2.478258280443132733e-01 3.420951235635865118e-01 -1.496446585154171116e-01 9.877676287844401604e-02 5.625199467510144657e-01 2.451781419489880987e-01 1.003629824517055097e-01 2.396952334304012222e-01 4.661928218260031342e-01 4.318505987460566353e-01 2.558000028205320020e-01 3.283996877340245923e+00 3.521119865317444142e-01 6.516652349715594816e-01 5.271197955102486787e-01 2.299304310566709086e-01 4.316955505243866287e-01 3.092118121944288367e-01 3.003785388850778171e-01 3.113508028956614160e-01 -6.062365746238699282e-01 4.257508122954055674e-01 2.852054320163207035e-01 1.431357503209342852e-01 3.332110194123075186e-01 1.549427627862467016e+00 3.684396494778252040e-01 3.147996105301149594e-01 2.007632999426330223e+00 5.082606981681798697e-01 2.762331650601749788e-01 2.700304206687785813e-01 3.044067907593709377e-01 2.572334180447671814e-01 -2.071721017282321942e+00 2.893547004250947574e-01 1.579240995441741457e+00 -7.272998931852257820e-02 3.598702694407729941e-01 6.707512470417219541e-01 3.308746075507864037e-01 -7.292483581318496277e-01 3.808891261258312011e-01 3.007268106385044826e-01 4.285495188561686541e-01 -4.002930813979105884e-01 3.024390330039543051e-01 -2.323960959526540471e+00 -2.617601091908789215e-02 3.248298403026767533e-01 5.987727058771759037e-01 3.093805381686512979e-01 3.120043612959270130e-01 4.916865050261324255e-01 1.755422582347507809e-01 -8.852053636930395930e-02 -7.728084783288913240e-01 -2.423775604059291711e-03 6.882781164258471307e-01 3.173433732921723260e-01 5.015552149314329577e-01 3.246870907556704267e-01 -2.555608774771903069e-02 3.101559096806763005e-01 2.468801438926372604e+00 6.794780017598341937e-01 2.471041764242138394e-01 -1.176105362936396226e+00 2.351173010556766585e-01 4.756929431149239385e+00 3.945800440552660326e-01 -1.786930612180623046e-01 5.715203597924131129e-01 -5.660734630349600671e+00 5.275638306005231426e-01 1.570967246957731378e+00 3.117594470486971248e-01 5.273258670644584978e-01 -4.517081010850009792e-01 4.350280178013993804e-01 2.751060873706090426e-01 3.155389920654623204e-01 2.206828960526343864e-01 2.974405689629224803e+00 -3.798797257374285086e-01 3.019313145512913521e-01 -1.931178795508238899e+00 3.290155925772857981e-01 -3.859240877336729825e-01 7.561397855349272223e-01 5.087723843549866176e-01 2.611611688383597141e-01 2.830276776202362288e-01 1.267767889696624906e+00 1.525769805432562742e-01 3.428108643078784379e-01 4.205469541155571478e-01 1.484526549885408775e-01 3.495297094818236583e-01 3.886269082228696603e-01 -6.202988922427369323e-01 3.130806500843418827e-01 5.594728524428905780e-01 3.988346677418054265e-01 1.736370362334613837e-01 3.142938134590630983e-01 5.017918128165760328e-01 5.087723894092260890e-01 4.828682147454506635e-01 3.156631736354675311e-01 1.723623903372052124e-01 3.936728066686513983e-01 3.486202283378817324e+00 3.189993911193837461e-01 1.160051914886117835e-01 4.318509374607301110e-01 8.402162025983784810e-01 4.691074418880394337e-01 -1.942642114951364518e-01 6.845087612081692807e-01 3.544831779058972288e-01 1.236516752504510375e-01 4.170314405334814012e-01 6.775511091857994161e-01 5.565863637241598161e-01 7.929555259487527374e-01 8.201590940901662963e-01 3.008409463241981663e-01 1.484526645466922590e-01 1.484526026384977437e-01 2.342248486126710938e-01 1.948693395681544149e-01 1.119798301276766939e+00 3.929405851501582281e-01 3.200944840163598148e-01 2.916250498124740576e-01 3.097576761606020690e-01 7.541678850697957071e-01 3.428106547627526313e-01 3.129846686807756795e-01 4.332353384931804663e-01 2.205185327846492793e-01 -6.393324809349378857e-01 3.180905957881747792e-01 3.142723981579684800e-01 3.809713286441949731e-01 6.778986262232038484e-01 6.825201630790840301e-01 1.484526646018546059e-01 1.168861309796448145e-01 3.182684773818560964e-01 5.066072727604600257e-01 -5.941976383295218822e-01 1.784590348857841846e-01 -3.559228979355202771e+00 2.007165800666505184e+00 6.340172698274942897e-01 -4.763023937711360900e-01 -2.426603875245412351e-02 2.075809428893777842e+00 3.191478603385087265e-01 6.480576986017910768e-01 -4.170521308018881879e-02 3.776899920231628904e-01 4.103052588041319337e-01 2.973859232342586645e-01 -5.285580844646964316e-01 3.700130454019232018e-01 2.081892101701739328e+00 2.537942934962638120e-01 -4.507158014978195348e-01 3.024169800141715547e-01 3.066373572761215693e-01 -1.461539982232305857e+00 2.779899285392776753e-01 3.692941386763174405e-01 4.034046557642534947e-01 1.266557775665010377e-01 3.157605048844499551e-01 2.092794297237940693e-01 3.129592587552051386e-01 -1.611651428730092317e-01 3.229334580430087143e-01 1.053269491947354947e-01 3.043445774444872298e-01 3.058011828267855337e-01 1.197027088966551474e-02 3.888200632967150905e-01 5.294115009589096532e-01 -1.411165840967328666e+00 -6.362321210326263854e-01 -1.167663442440018823e-01 1.263194139504183744e-01 1.866116335275764815e-01 4.337409294058052756e-01 3.605417571707051350e-01 7.211916973432700440e-01 -1.368111675388105630e-01 3.285256715366291491e-01 3.230264103624800875e-01 9.497018161103691625e-02 -1.614303860101778676e-01 2.829715238811718048e-01 4.631915766355341746e-01 4.798983326334295141e-01 3.103531442719346112e-01 2.819673718071724067e-01 3.097148534593299751e-01 2.477524098401731600e-01 3.088969773358909987e-01 4.927850585019482033e-01 3.163237666727558017e-01 3.124056282995383849e-01 6.852669606106193134e-01 3.324254673196108678e-01 7.299371204319734519e-01 2.225215519050422874e-03 5.598778090847952305e-01 2.767785231906741972e-01 -1.465910094583303014e+00 3.053835449675110225e-01 6.384628479823978298e-01 3.568348525065524468e-01 3.381574489990559207e-01 2.756474774784125614e-01 1.776665228332707791e-01 6.844721311858169566e-01 3.129321871833588564e-01 4.164517361763866443e-01 3.105932929204510695e-01 2.760493652681734189e-01 1.864829196596422545e-01 4.884011194940660050e-01 3.225006365575273648e-01 1.868110967122171007e-01 6.282440736378677726e-02 8.913587351554390359e-02 1.657959095248074721e+00 1.824570353983143156e-01 3.501910354602881248e-01 3.874816036123493457e-01 -8.590344924865919163e-01 3.383570884650787258e-01 2.419807588618464456e-01 3.548778308533280246e-01 -7.271448082426880399e-02 2.773399429074470124e-01 1.659157045432795519e+00 8.933539601539698394e-01 4.599302997045053298e-01 3.151326648470104685e-01 3.299779407379618279e-01 3.454334440023753561e-01 9.295480078915747679e-01 3.073725525809808623e+00 3.139318420169506241e-01 1.983194731037311517e-02 5.871312525194083420e-01 -2.262875970795641678e-01 3.082356757602938147e-01 3.222076734332239289e-01 1.081716703697672477e+00 3.116621047000955880e-01 -3.385537936258172786e-01 3.869152212698094839e-01 1.339311608653442898e-01 6.277607300423352354e-01 1.827909539814595252e+00 2.472227846446557464e-01 2.728534556770790265e-01 1.668586615404741291e+00 3.946268125657712567e-01 2.512754138188721953e-01 1.626236367577103825e-01 2.070247278563431270e-01 -2.481469551185696079e-02 5.163931767424565500e-01 2.433144548209239533e-01 7.213164980472427379e-01 2.741856026867171003e-01 2.195971313524277824e-01 3.229112960873161131e-01 4.006940588353612998e-01 4.092177463217902544e-01 2.616923591035236196e-01 8.884312614622292825e-01 5.147300974233377513e-01 4.953153692669284291e-01 2.864464996766601934e-01 2.458905879061219768e-01 3.087854396678237356e-01 5.912792260940977762e-01 7.774625877948531105e-01 3.685588114475900623e-01 3.165369227932078311e-01 5.662237493775700292e-01 3.132895615596921757e-01 7.078734032834411716e-01 2.989760548184696165e-01 4.729288491897677416e-01 -3.091450888954562215e-01 3.089258414481257375e-01 3.343634423486842033e-01 4.441190742904563837e-01 2.324394705196902999e-01 3.339875834185175862e-01 1.811240007795856588e+00 2.570094302565793104e-02 2.786399300149962621e-01 -2.069680253905019640e-01 1.670449186835584632e+00 1.158715152400735526e+00 3.781807201857301931e-02 -4.463964061301558539e-01 4.351138934564262040e-01 2.994718074840277966e-01 4.980715210907131207e-01 3.137350592556580886e-01 3.146357696265104087e-01 2.174277322564390214e-01 3.371016315283605347e-01 3.142175102110445484e-01 -2.417844813847231517e-02 -2.243747116707569544e-01 3.311038493656487391e-01 2.492946126876982582e-01 2.393565878649269729e-01 8.776719666358554495e-01 4.318505914166728132e-01 2.937018080058151348e-01 8.536208209818701986e-01 4.754977939803247122e-01 5.720878375618018152e-01 4.617278804338817433e-01 6.968330395320306847e-01 1.479406084749315786e+00 3.835854992338290637e-01 2.109184112144236067e+00 -2.399291583081950702e-02 1.520489323416459038e-01 3.120850827985601206e-01 2.893050434370101343e-01 3.704433626414618819e-01 2.898764085116216083e-01 3.222367330637603833e-01 3.119832816530147546e-01 3.669795427055834169e-01 2.107336957321353232e-01 -3.413873912336164995e-01 2.615567201374565109e-01 -6.458208756871620937e-02 3.023488516506400159e-01 4.286148516071889847e-01 4.318505914788571820e-01 2.246711936796577935e-01 2.106327299766775074e-01 -1.277019623560755823e+00 1.975746348162250143e+00 3.088255898358786000e-01 -7.461898173905975318e-01 2.970586120210394476e-01 3.240993217427022843e-01 3.095632075986582965e-01 -4.826026011999562826e+00 3.564665428220974430e+00 6.317675655646853849e-01 3.685768251943753043e-02 3.277833969550552617e-01 3.106727418163645615e-01 2.664843016989708602e-01 2.642745161789867403e+00 6.280437541027084070e-01 3.191780182213442840e-01 2.572329587548610186e-01 2.942820430502108286e-01 3.023828474857641058e-01 8.594309064067034987e-01 -3.744331128805661879e-01 -1.212934453911116206e+00 -1.229019877681620576e+00 3.170302614391046214e-01 3.070675508165711109e-01 7.333961532965413976e-01 3.719202008644965085e-01 1.453302434834908397e+00 4.856433423112370695e-01 3.096544787480977612e-01 3.143086547001839870e-01 3.209222739398049917e-01 3.354423427064440744e-01 3.021993190402451068e-01 6.424398365510632924e-01 2.697457547185907467e-01 6.611528634863400589e-01 2.305560671045437382e-01 5.229872946742390033e-02 3.021713853207791400e-01 1.807511995100408164e-01 3.213655028807018699e-01 2.559591808135925350e-01 6.387576990759095130e-01 5.087723989913653933e-01 3.224989588110946381e-01 2.549800465167307295e-01 3.072389277448393519e-01 2.712442450206579148e-01 1.659173289375210691e+00 1.917837794977301558e+00 3.029926201885351777e-01 3.461003994166529374e-01 3.077926915958341114e-01 1.642858736222904126e-01 2.249736929351877357e-01 3.803104969724560025e-01 3.163493307527053267e-01 3.267185572080920641e-01 8.059907613395308479e-01 8.901539941477839557e-01 2.626617881431071444e-01 1.882000749653348182e+00 3.192246767657290207e-01 -2.522692922964037132e-01 -2.723086836862109172e-01 -3.077466400903209331e-01 3.101947713265081896e-01 2.882761482322725999e-01 7.109756319420605930e-01 3.125275100649186899e-01 4.534822247996953548e-01 3.335576969167190486e-01 3.433972589646172580e-01 2.944724251471608767e-01 -4.439412346507603385e-02 1.013211192029822350e+00 3.275190240105609885e-01 3.795521649941132614e-01 3.172982432122604668e-01 3.535374360215718936e-01 3.326449878792465120e-01 3.948670500412994055e-01 -8.779334059292021042e-02 2.224191849222785511e-01 2.877091840266589595e-01 -2.498374168652622157e-02 4.318506364855471680e-01 1.100781574176371791e+00 9.663152585084030521e-01 -7.238373271258731201e-01 -3.859240832019023015e-01 6.592574475931448630e-01 -3.355249475979733553e+00 1.577817245155485937e+00 2.798076110093162261e-01 -2.400486686033572598e-02 3.082699439386015761e-01 8.988927573598243237e-01 3.094457324773310924e-01 4.205407214337243405e-01 -4.377168278022927628e-01 8.193723327719547589e-01 3.211161222879624355e-01 8.673428443980779612e-01 2.103299487276722335e+00 -3.742864385082304013e-01 -1.475877834954711032e+00 2.401270108372111078e-01 3.111155937605040167e-01 7.549908261946014498e-01 2.798505645864308167e-01 7.030422295058588178e-01 4.691243371624141401e-01 2.748579456420586209e-01 2.989497394270725361e-01 3.106541749157481491e-01 2.701244150457275395e-01 3.065253195636450934e-01 1.424406527332161110e+00 1.652042881789811846e+00 3.041870439933102022e-01 3.453591279610553899e-01 1.850593101172472443e-01 -2.472081605404186089e-01 2.215471356644398704e-01 -4.418013716529690244e-02 3.114248897009496142e-01 7.035600842536405830e-01 -5.283721238210699056e-01 2.707483690544422172e-01 2.874816454080526551e-01 1.534056542583989158e-01 3.169455916083006586e-01 2.019710667666727300e-01 3.098154030135284454e-01 3.098312774731249997e-01 3.479556164947147923e-02 2.886431735414961008e-01 4.347311193532850671e-01 1.129026439243389301e+00 1.108317528801418872e+00 9.191334755218271146e-01 2.055667573319091279e-01 7.895669285287999495e-01 1.518778441842799642e-01 4.940118891053856820e-01 -2.159166641623751381e+00 3.029156448246808075e-01 6.605215343667292238e-01 2.904427495449133367e-01 9.492679975541757909e-01 1.376444012450573684e+00 2.572327560998814433e-01 2.505923804368763164e-01 3.752216060981813928e-01 3.784010826477043898e-01 5.492814249720623376e-01 9.300069855884834924e-01 -8.051979969407651039e-01 2.246898295418742197e-01 4.277877241347206871e-02 3.017425269981536817e-01 3.411115754412771262e-01 7.663940533907340757e-01 -2.484823738299033746e-01 4.064412437520165677e-01 3.038480879808165280e-01 3.611857086060046296e-01 8.937221726563912005e-01 4.315936832633416875e-01 -2.186335907199808692e-01 8.586184488452520691e-01 -4.097105149699533516e-02 5.655443872184935383e-01 2.899091298620383728e-01 1.293111632013865808e+00 5.923635663860316036e-01 7.217387375687460693e-01 4.368158072808023262e-01 4.860750100089806236e-01 -5.757967104205702347e-01 2.300168401715724231e-01 7.561500562818884719e-01 3.251179514953859706e-01 6.151844990642159061e-01 2.992620435895623765e-01 3.152977905951650506e-01 7.186866053048456271e-01 1.564860632743223234e-01 -2.063107238976477742e+00 2.023052835602046073e-01 2.534231195894496302e-01 8.951171917061931937e-01 3.578582832383023771e-01 3.799820397566833208e-01 3.795168858022462399e-01 3.144265690595992035e-01 3.969325790325788361e-01 8.944738667978208158e-02 -1.629407272868087508e+00 7.609467212138433245e-01 2.456374884302861827e-01 3.157939121303041108e-01 2.271671700669906369e-01 8.206521623760871798e-01 3.142783700137117830e-01 -1.520754904310814559e-01 3.441523594850850465e-01 1.124119959260351909e+00 2.700196424605839640e-01 4.161540891512153784e-01 1.045505743031293289e+00 4.087678133730477947e-01 2.823363262885691949e+00 3.314847451041504911e-01 3.077555422883695990e-01 7.074900485001937023e-01 3.256103772131676566e-01 3.365873733802185463e-01 -2.147262705130135174e+00 4.472766646530633161e-01 3.211849037458714418e-01 5.181437509215482962e-01 3.053845737164727070e-01 1.971299443798271989e-01 -1.863761714350981313e-01 2.071736593657926395e+00 -5.187758565475704131e-01 8.266852254870862282e-01 3.117934235038518631e-01 2.947379460103758397e-01 8.346389168880132825e-01 2.975545420868947466e-01 1.341558653556117919e+00 2.146847845808606270e-01 3.877492571224280260e-01 -8.861121465937535913e-01 -1.321584213933185981e-01 -5.369176104428439178e-01 -4.023170123409562926e+00 2.984721800540716785e+00 2.558807812280084609e-02 2.885704489752541901e-01 -1.652072914606949050e+00 3.055493353660190814e-01 3.995969446020823379e-01 3.251296053011651366e-01 1.750338332858881463e-01 6.420994505539914243e-01 6.021915801059543050e-01 1.077541007807624851e+00 -3.859240831106675040e-01 -2.334478689047683186e-01 2.392622116231326868e-01 -1.194102198199018305e+00 2.716340312535990842e-01 -6.539756466830904946e-01 3.108167135904010836e-01 4.503250180715879791e-01 9.848910975391461653e-02 4.542895316833903130e-01 2.642228364339599400e-01 -3.459740287534842501e-02 2.386683103390586924e-01 2.866731625538312955e-01 3.653511377417769102e-01 3.346588381048412608e-01 3.097015053647715344e-01 -7.239566309478293604e-01 4.911155295575929669e-01 1.544468561378759652e+00 7.274477108423757499e-02 2.365528291125215676e-01 2.594545995025819285e-01 1.205631199038889267e+00 3.341271280871557225e-01 1.029061035569154431e-01 8.874064387381682684e-01 2.500336063786507967e-01 1.879424838488741756e+00 2.731420809371243874e-01 1.333367478928275007e+00 3.249274627824524364e-01 7.350598334461715400e-01 1.355431621237427109e+00 3.817057345027419224e-01 3.178364589583722033e-01 9.427192387752391101e-01 -1.862448391782167700e-01 -6.419500830967499183e-02 2.320981284240542508e-01 3.041754010629996174e-01 3.608724185071391366e-01 1.447285744260201623e-01 1.304123896292304352e-01 -3.802658579560568852e-01 1.292358756579293777e+00 2.959840182143297360e-01 3.108975338524003207e-01 -3.231040800138617275e+00 5.518600185192946705e-01 2.452433795238974645e-01 3.762271669747500602e-01 3.846311906172321105e-01 4.480801943745131299e-01 -1.109340640285244373e+00 6.291374565888647741e-01 2.913556419849752666e-01 3.112237736230396012e-01 1.023972824757009015e+00 4.646631876288851437e-01 3.028852923071617131e-01 -1.413220289196057022e+00 3.737620785888741692e-01 8.937767242217282693e-01 3.406511551071177979e-01 3.168674785923095705e-01 3.182035140450000799e-01 7.120038581306437075e-01 -5.396177914453503116e-02 3.125188599560605462e-01 2.969084621489028741e-01 9.365410837355446494e-02 6.683239104934479702e-01 2.557476274422759710e-01 6.987545204339705718e-01 1.774690030351693537e-01 6.922874625491300948e-01 -2.420024134303761787e-01 -1.510617965863673362e+00 2.890198073325639383e-01 -2.009603068119261357e-02 3.068399860603074902e-01 3.685193422346897951e-01 5.502673331307070259e-02 5.087723669857928677e-01 3.025211856210317518e-01 8.333531731674016785e-02 4.348599575455833754e-01 3.029940422868402927e-01 2.946268108149551757e-01 2.890033560682731539e-01 -8.545149510140704896e-01 3.212721373483068965e-01 2.954538977964821789e-01 3.119865531425671801e-01 -2.922609155419120253e-01 3.084175131866139785e-01 8.310840607033112004e-01 -5.958295933857731264e-01 1.129585763652658725e+00 6.172350459226474406e-01 2.857555118423631968e-01 3.124150513327928480e-01 -2.059413770885902384e+00 3.199820287018786957e-01 2.248254199099715966e-01 2.935529849703665817e-01 5.087723916676720748e-01 3.128827240608000326e-01 3.343783277224015582e-01 6.366027014114683524e-02 3.099945731431281715e-01 4.344981524446341337e-01 3.243560502482795149e-01 2.420610503654891388e-01 2.858918991496179896e-01 3.129267266719697460e-01 3.106195682747897591e-01 2.796369905625662455e-01 1.084623443001116044e-01 3.154557015217718807e-01 6.244612484240764649e-01 1.697919740902159857e-01 3.106056541530147763e-01 -1.449176734487567508e-01 1.840108054401874138e-01 6.217927834460147407e-01 4.534832576646658175e+00 3.444314421248879654e-01 7.430363986246425745e-02 5.654423973392166403e-01 1.799473771068792194e-01 1.564790883872018812e+00 3.402845996089051139e-01 6.377051309342389729e-01 3.157429519312843769e-01
