# 
#                 ----------------------------------------------------
#                 Data from a 3D direct N-body simulation. 
# 
#                 rows are i-particle; 
#                 coumns are :mass, tag, x ,y, z, vx, vy, vz, ax, ay, az
# 
#                 NTHU, Computational Physics 
# 
#                 ----------------------------------------------------
#                 Time = 0.0
0.000000000000000000e+00 1.000000000000000000e+00 2.000000000000000000e+00 3.000000000000000000e+00 4.000000000000000000e+00 5.000000000000000000e+00 6.000000000000000000e+00 7.000000000000000000e+00 8.000000000000000000e+00 9.000000000000000000e+00 1.000000000000000000e+01 1.100000000000000000e+01 1.200000000000000000e+01 1.300000000000000000e+01 1.400000000000000000e+01 1.500000000000000000e+01 1.600000000000000000e+01 1.700000000000000000e+01 1.800000000000000000e+01 1.900000000000000000e+01 2.000000000000000000e+01 2.100000000000000000e+01 2.200000000000000000e+01 2.300000000000000000e+01 2.400000000000000000e+01 2.500000000000000000e+01 2.600000000000000000e+01 2.700000000000000000e+01 2.800000000000000000e+01 2.900000000000000000e+01 3.000000000000000000e+01 3.100000000000000000e+01 3.200000000000000000e+01 3.300000000000000000e+01 3.400000000000000000e+01 3.500000000000000000e+01 3.600000000000000000e+01 3.700000000000000000e+01 3.800000000000000000e+01 3.900000000000000000e+01 4.000000000000000000e+01 4.100000000000000000e+01 4.200000000000000000e+01 4.300000000000000000e+01 4.400000000000000000e+01 4.500000000000000000e+01 4.600000000000000000e+01 4.700000000000000000e+01 4.800000000000000000e+01 4.900000000000000000e+01 5.000000000000000000e+01 5.100000000000000000e+01 5.200000000000000000e+01 5.300000000000000000e+01 5.400000000000000000e+01 5.500000000000000000e+01 5.600000000000000000e+01 5.700000000000000000e+01 5.800000000000000000e+01 5.900000000000000000e+01 6.000000000000000000e+01 6.100000000000000000e+01 6.200000000000000000e+01 6.300000000000000000e+01 6.400000000000000000e+01 6.500000000000000000e+01 6.600000000000000000e+01 6.700000000000000000e+01 6.800000000000000000e+01 6.900000000000000000e+01 7.000000000000000000e+01 7.100000000000000000e+01 7.200000000000000000e+01 7.300000000000000000e+01 7.400000000000000000e+01 7.500000000000000000e+01 7.600000000000000000e+01 7.700000000000000000e+01 7.800000000000000000e+01 7.900000000000000000e+01 8.000000000000000000e+01 8.100000000000000000e+01 8.200000000000000000e+01 8.300000000000000000e+01 8.400000000000000000e+01 8.500000000000000000e+01 8.600000000000000000e+01 8.700000000000000000e+01 8.800000000000000000e+01 8.900000000000000000e+01 9.000000000000000000e+01 9.100000000000000000e+01 9.200000000000000000e+01 9.300000000000000000e+01 9.400000000000000000e+01 9.500000000000000000e+01 9.600000000000000000e+01 9.700000000000000000e+01 9.800000000000000000e+01 9.900000000000000000e+01 1.000000000000000000e+02 1.010000000000000000e+02 1.020000000000000000e+02 1.030000000000000000e+02 1.040000000000000000e+02 1.050000000000000000e+02 1.060000000000000000e+02 1.070000000000000000e+02 1.080000000000000000e+02 1.090000000000000000e+02 1.100000000000000000e+02 1.110000000000000000e+02 1.120000000000000000e+02 1.130000000000000000e+02 1.140000000000000000e+02 1.150000000000000000e+02 1.160000000000000000e+02 1.170000000000000000e+02 1.180000000000000000e+02 1.190000000000000000e+02 1.200000000000000000e+02 1.210000000000000000e+02 1.220000000000000000e+02 1.230000000000000000e+02 1.240000000000000000e+02 1.250000000000000000e+02 1.260000000000000000e+02 1.270000000000000000e+02 1.280000000000000000e+02 1.290000000000000000e+02 1.300000000000000000e+02 1.310000000000000000e+02 1.320000000000000000e+02 1.330000000000000000e+02 1.340000000000000000e+02 1.350000000000000000e+02 1.360000000000000000e+02 1.370000000000000000e+02 1.380000000000000000e+02 1.390000000000000000e+02 1.400000000000000000e+02 1.410000000000000000e+02 1.420000000000000000e+02 1.430000000000000000e+02 1.440000000000000000e+02 1.450000000000000000e+02 1.460000000000000000e+02 1.470000000000000000e+02 1.480000000000000000e+02 1.490000000000000000e+02 1.500000000000000000e+02 1.510000000000000000e+02 1.520000000000000000e+02 1.530000000000000000e+02 1.540000000000000000e+02 1.550000000000000000e+02 1.560000000000000000e+02 1.570000000000000000e+02 1.580000000000000000e+02 1.590000000000000000e+02 1.600000000000000000e+02 1.610000000000000000e+02 1.620000000000000000e+02 1.630000000000000000e+02 1.640000000000000000e+02 1.650000000000000000e+02 1.660000000000000000e+02 1.670000000000000000e+02 1.680000000000000000e+02 1.690000000000000000e+02 1.700000000000000000e+02 1.710000000000000000e+02 1.720000000000000000e+02 1.730000000000000000e+02 1.740000000000000000e+02 1.750000000000000000e+02 1.760000000000000000e+02 1.770000000000000000e+02 1.780000000000000000e+02 1.790000000000000000e+02 1.800000000000000000e+02 1.810000000000000000e+02 1.820000000000000000e+02 1.830000000000000000e+02 1.840000000000000000e+02 1.850000000000000000e+02 1.860000000000000000e+02 1.870000000000000000e+02 1.880000000000000000e+02 1.890000000000000000e+02 1.900000000000000000e+02 1.910000000000000000e+02 1.920000000000000000e+02 1.930000000000000000e+02 1.940000000000000000e+02 1.950000000000000000e+02 1.960000000000000000e+02 1.970000000000000000e+02 1.980000000000000000e+02 1.990000000000000000e+02 2.000000000000000000e+02 2.010000000000000000e+02 2.020000000000000000e+02 2.030000000000000000e+02 2.040000000000000000e+02 2.050000000000000000e+02 2.060000000000000000e+02 2.070000000000000000e+02 2.080000000000000000e+02 2.090000000000000000e+02 2.100000000000000000e+02 2.110000000000000000e+02 2.120000000000000000e+02 2.130000000000000000e+02 2.140000000000000000e+02 2.150000000000000000e+02 2.160000000000000000e+02 2.170000000000000000e+02 2.180000000000000000e+02 2.190000000000000000e+02 2.200000000000000000e+02 2.210000000000000000e+02 2.220000000000000000e+02 2.230000000000000000e+02 2.240000000000000000e+02 2.250000000000000000e+02 2.260000000000000000e+02 2.270000000000000000e+02 2.280000000000000000e+02 2.290000000000000000e+02 2.300000000000000000e+02 2.310000000000000000e+02 2.320000000000000000e+02 2.330000000000000000e+02 2.340000000000000000e+02 2.350000000000000000e+02 2.360000000000000000e+02 2.370000000000000000e+02 2.380000000000000000e+02 2.390000000000000000e+02 2.400000000000000000e+02 2.410000000000000000e+02 2.420000000000000000e+02 2.430000000000000000e+02 2.440000000000000000e+02 2.450000000000000000e+02 2.460000000000000000e+02 2.470000000000000000e+02 2.480000000000000000e+02 2.490000000000000000e+02 2.500000000000000000e+02 2.510000000000000000e+02 2.520000000000000000e+02 2.530000000000000000e+02 2.540000000000000000e+02 2.550000000000000000e+02 2.560000000000000000e+02 2.570000000000000000e+02 2.580000000000000000e+02 2.590000000000000000e+02 2.600000000000000000e+02 2.610000000000000000e+02 2.620000000000000000e+02 2.630000000000000000e+02 2.640000000000000000e+02 2.650000000000000000e+02 2.660000000000000000e+02 2.670000000000000000e+02 2.680000000000000000e+02 2.690000000000000000e+02 2.700000000000000000e+02 2.710000000000000000e+02 2.720000000000000000e+02 2.730000000000000000e+02 2.740000000000000000e+02 2.750000000000000000e+02 2.760000000000000000e+02 2.770000000000000000e+02 2.780000000000000000e+02 2.790000000000000000e+02 2.800000000000000000e+02 2.810000000000000000e+02 2.820000000000000000e+02 2.830000000000000000e+02 2.840000000000000000e+02 2.850000000000000000e+02 2.860000000000000000e+02 2.870000000000000000e+02 2.880000000000000000e+02 2.890000000000000000e+02 2.900000000000000000e+02 2.910000000000000000e+02 2.920000000000000000e+02 2.930000000000000000e+02 2.940000000000000000e+02 2.950000000000000000e+02 2.960000000000000000e+02 2.970000000000000000e+02 2.980000000000000000e+02 2.990000000000000000e+02 3.000000000000000000e+02 3.010000000000000000e+02 3.020000000000000000e+02 3.030000000000000000e+02 3.040000000000000000e+02 3.050000000000000000e+02 3.060000000000000000e+02 3.070000000000000000e+02 3.080000000000000000e+02 3.090000000000000000e+02 3.100000000000000000e+02 3.110000000000000000e+02 3.120000000000000000e+02 3.130000000000000000e+02 3.140000000000000000e+02 3.150000000000000000e+02 3.160000000000000000e+02 3.170000000000000000e+02 3.180000000000000000e+02 3.190000000000000000e+02 3.200000000000000000e+02 3.210000000000000000e+02 3.220000000000000000e+02 3.230000000000000000e+02 3.240000000000000000e+02 3.250000000000000000e+02 3.260000000000000000e+02 3.270000000000000000e+02 3.280000000000000000e+02 3.290000000000000000e+02 3.300000000000000000e+02 3.310000000000000000e+02 3.320000000000000000e+02 3.330000000000000000e+02 3.340000000000000000e+02 3.350000000000000000e+02 3.360000000000000000e+02 3.370000000000000000e+02 3.380000000000000000e+02 3.390000000000000000e+02 3.400000000000000000e+02 3.410000000000000000e+02 3.420000000000000000e+02 3.430000000000000000e+02 3.440000000000000000e+02 3.450000000000000000e+02 3.460000000000000000e+02 3.470000000000000000e+02 3.480000000000000000e+02 3.490000000000000000e+02 3.500000000000000000e+02 3.510000000000000000e+02 3.520000000000000000e+02 3.530000000000000000e+02 3.540000000000000000e+02 3.550000000000000000e+02 3.560000000000000000e+02 3.570000000000000000e+02 3.580000000000000000e+02 3.590000000000000000e+02 3.600000000000000000e+02 3.610000000000000000e+02 3.620000000000000000e+02 3.630000000000000000e+02 3.640000000000000000e+02 3.650000000000000000e+02 3.660000000000000000e+02 3.670000000000000000e+02 3.680000000000000000e+02 3.690000000000000000e+02 3.700000000000000000e+02 3.710000000000000000e+02 3.720000000000000000e+02 3.730000000000000000e+02 3.740000000000000000e+02 3.750000000000000000e+02 3.760000000000000000e+02 3.770000000000000000e+02 3.780000000000000000e+02 3.790000000000000000e+02 3.800000000000000000e+02 3.810000000000000000e+02 3.820000000000000000e+02 3.830000000000000000e+02 3.840000000000000000e+02 3.850000000000000000e+02 3.860000000000000000e+02 3.870000000000000000e+02 3.880000000000000000e+02 3.890000000000000000e+02 3.900000000000000000e+02 3.910000000000000000e+02 3.920000000000000000e+02 3.930000000000000000e+02 3.940000000000000000e+02 3.950000000000000000e+02 3.960000000000000000e+02 3.970000000000000000e+02 3.980000000000000000e+02 3.990000000000000000e+02 4.000000000000000000e+02 4.010000000000000000e+02 4.020000000000000000e+02 4.030000000000000000e+02 4.040000000000000000e+02 4.050000000000000000e+02 4.060000000000000000e+02 4.070000000000000000e+02 4.080000000000000000e+02 4.090000000000000000e+02 4.100000000000000000e+02 4.110000000000000000e+02 4.120000000000000000e+02 4.130000000000000000e+02 4.140000000000000000e+02 4.150000000000000000e+02 4.160000000000000000e+02 4.170000000000000000e+02 4.180000000000000000e+02 4.190000000000000000e+02 4.200000000000000000e+02 4.210000000000000000e+02 4.220000000000000000e+02 4.230000000000000000e+02 4.240000000000000000e+02 4.250000000000000000e+02 4.260000000000000000e+02 4.270000000000000000e+02 4.280000000000000000e+02 4.290000000000000000e+02 4.300000000000000000e+02 4.310000000000000000e+02 4.320000000000000000e+02 4.330000000000000000e+02 4.340000000000000000e+02 4.350000000000000000e+02 4.360000000000000000e+02 4.370000000000000000e+02 4.380000000000000000e+02 4.390000000000000000e+02 4.400000000000000000e+02 4.410000000000000000e+02 4.420000000000000000e+02 4.430000000000000000e+02 4.440000000000000000e+02 4.450000000000000000e+02 4.460000000000000000e+02 4.470000000000000000e+02 4.480000000000000000e+02 4.490000000000000000e+02 4.500000000000000000e+02 4.510000000000000000e+02 4.520000000000000000e+02 4.530000000000000000e+02 4.540000000000000000e+02 4.550000000000000000e+02 4.560000000000000000e+02 4.570000000000000000e+02 4.580000000000000000e+02 4.590000000000000000e+02 4.600000000000000000e+02 4.610000000000000000e+02 4.620000000000000000e+02 4.630000000000000000e+02 4.640000000000000000e+02 4.650000000000000000e+02 4.660000000000000000e+02 4.670000000000000000e+02 4.680000000000000000e+02 4.690000000000000000e+02 4.700000000000000000e+02 4.710000000000000000e+02 4.720000000000000000e+02 4.730000000000000000e+02 4.740000000000000000e+02 4.750000000000000000e+02 4.760000000000000000e+02 4.770000000000000000e+02 4.780000000000000000e+02 4.790000000000000000e+02 4.800000000000000000e+02 4.810000000000000000e+02 4.820000000000000000e+02 4.830000000000000000e+02 4.840000000000000000e+02 4.850000000000000000e+02 4.860000000000000000e+02 4.870000000000000000e+02 4.880000000000000000e+02 4.890000000000000000e+02 4.900000000000000000e+02 4.910000000000000000e+02 4.920000000000000000e+02 4.930000000000000000e+02 4.940000000000000000e+02 4.950000000000000000e+02 4.960000000000000000e+02 4.970000000000000000e+02 4.980000000000000000e+02 4.990000000000000000e+02 5.000000000000000000e+02 5.010000000000000000e+02 5.020000000000000000e+02 5.030000000000000000e+02 5.040000000000000000e+02 5.050000000000000000e+02 5.060000000000000000e+02 5.070000000000000000e+02 5.080000000000000000e+02 5.090000000000000000e+02 5.100000000000000000e+02 5.110000000000000000e+02 5.120000000000000000e+02 5.130000000000000000e+02 5.140000000000000000e+02 5.150000000000000000e+02 5.160000000000000000e+02 5.170000000000000000e+02 5.180000000000000000e+02 5.190000000000000000e+02 5.200000000000000000e+02 5.210000000000000000e+02 5.220000000000000000e+02 5.230000000000000000e+02 5.240000000000000000e+02 5.250000000000000000e+02 5.260000000000000000e+02 5.270000000000000000e+02 5.280000000000000000e+02 5.290000000000000000e+02 5.300000000000000000e+02 5.310000000000000000e+02 5.320000000000000000e+02 5.330000000000000000e+02 5.340000000000000000e+02 5.350000000000000000e+02 5.360000000000000000e+02 5.370000000000000000e+02 5.380000000000000000e+02 5.390000000000000000e+02 5.400000000000000000e+02 5.410000000000000000e+02 5.420000000000000000e+02 5.430000000000000000e+02 5.440000000000000000e+02 5.450000000000000000e+02 5.460000000000000000e+02 5.470000000000000000e+02 5.480000000000000000e+02 5.490000000000000000e+02 5.500000000000000000e+02 5.510000000000000000e+02 5.520000000000000000e+02 5.530000000000000000e+02 5.540000000000000000e+02 5.550000000000000000e+02 5.560000000000000000e+02 5.570000000000000000e+02 5.580000000000000000e+02 5.590000000000000000e+02 5.600000000000000000e+02 5.610000000000000000e+02 5.620000000000000000e+02 5.630000000000000000e+02 5.640000000000000000e+02 5.650000000000000000e+02 5.660000000000000000e+02 5.670000000000000000e+02 5.680000000000000000e+02 5.690000000000000000e+02 5.700000000000000000e+02 5.710000000000000000e+02 5.720000000000000000e+02 5.730000000000000000e+02 5.740000000000000000e+02 5.750000000000000000e+02 5.760000000000000000e+02 5.770000000000000000e+02 5.780000000000000000e+02 5.790000000000000000e+02 5.800000000000000000e+02 5.810000000000000000e+02 5.820000000000000000e+02 5.830000000000000000e+02 5.840000000000000000e+02 5.850000000000000000e+02 5.860000000000000000e+02 5.870000000000000000e+02 5.880000000000000000e+02 5.890000000000000000e+02 5.900000000000000000e+02 5.910000000000000000e+02 5.920000000000000000e+02 5.930000000000000000e+02 5.940000000000000000e+02 5.950000000000000000e+02 5.960000000000000000e+02 5.970000000000000000e+02 5.980000000000000000e+02 5.990000000000000000e+02 6.000000000000000000e+02 6.010000000000000000e+02 6.020000000000000000e+02 6.030000000000000000e+02 6.040000000000000000e+02 6.050000000000000000e+02 6.060000000000000000e+02 6.070000000000000000e+02 6.080000000000000000e+02 6.090000000000000000e+02 6.100000000000000000e+02 6.110000000000000000e+02 6.120000000000000000e+02 6.130000000000000000e+02 6.140000000000000000e+02 6.150000000000000000e+02 6.160000000000000000e+02 6.170000000000000000e+02 6.180000000000000000e+02 6.190000000000000000e+02 6.200000000000000000e+02 6.210000000000000000e+02 6.220000000000000000e+02 6.230000000000000000e+02 6.240000000000000000e+02 6.250000000000000000e+02 6.260000000000000000e+02 6.270000000000000000e+02 6.280000000000000000e+02 6.290000000000000000e+02 6.300000000000000000e+02 6.310000000000000000e+02 6.320000000000000000e+02 6.330000000000000000e+02 6.340000000000000000e+02 6.350000000000000000e+02 6.360000000000000000e+02 6.370000000000000000e+02 6.380000000000000000e+02 6.390000000000000000e+02 6.400000000000000000e+02 6.410000000000000000e+02 6.420000000000000000e+02 6.430000000000000000e+02 6.440000000000000000e+02 6.450000000000000000e+02 6.460000000000000000e+02 6.470000000000000000e+02 6.480000000000000000e+02 6.490000000000000000e+02 6.500000000000000000e+02 6.510000000000000000e+02 6.520000000000000000e+02 6.530000000000000000e+02 6.540000000000000000e+02 6.550000000000000000e+02 6.560000000000000000e+02 6.570000000000000000e+02 6.580000000000000000e+02 6.590000000000000000e+02 6.600000000000000000e+02 6.610000000000000000e+02 6.620000000000000000e+02 6.630000000000000000e+02 6.640000000000000000e+02 6.650000000000000000e+02 6.660000000000000000e+02 6.670000000000000000e+02 6.680000000000000000e+02 6.690000000000000000e+02 6.700000000000000000e+02 6.710000000000000000e+02 6.720000000000000000e+02 6.730000000000000000e+02 6.740000000000000000e+02 6.750000000000000000e+02 6.760000000000000000e+02 6.770000000000000000e+02 6.780000000000000000e+02 6.790000000000000000e+02 6.800000000000000000e+02 6.810000000000000000e+02 6.820000000000000000e+02 6.830000000000000000e+02 6.840000000000000000e+02 6.850000000000000000e+02 6.860000000000000000e+02 6.870000000000000000e+02 6.880000000000000000e+02 6.890000000000000000e+02 6.900000000000000000e+02 6.910000000000000000e+02 6.920000000000000000e+02 6.930000000000000000e+02 6.940000000000000000e+02 6.950000000000000000e+02 6.960000000000000000e+02 6.970000000000000000e+02 6.980000000000000000e+02 6.990000000000000000e+02 7.000000000000000000e+02 7.010000000000000000e+02 7.020000000000000000e+02 7.030000000000000000e+02 7.040000000000000000e+02 7.050000000000000000e+02 7.060000000000000000e+02 7.070000000000000000e+02 7.080000000000000000e+02 7.090000000000000000e+02 7.100000000000000000e+02 7.110000000000000000e+02 7.120000000000000000e+02 7.130000000000000000e+02 7.140000000000000000e+02 7.150000000000000000e+02 7.160000000000000000e+02 7.170000000000000000e+02 7.180000000000000000e+02 7.190000000000000000e+02 7.200000000000000000e+02 7.210000000000000000e+02 7.220000000000000000e+02 7.230000000000000000e+02 7.240000000000000000e+02 7.250000000000000000e+02 7.260000000000000000e+02 7.270000000000000000e+02 7.280000000000000000e+02 7.290000000000000000e+02 7.300000000000000000e+02 7.310000000000000000e+02 7.320000000000000000e+02 7.330000000000000000e+02 7.340000000000000000e+02 7.350000000000000000e+02 7.360000000000000000e+02 7.370000000000000000e+02 7.380000000000000000e+02 7.390000000000000000e+02 7.400000000000000000e+02 7.410000000000000000e+02 7.420000000000000000e+02 7.430000000000000000e+02 7.440000000000000000e+02 7.450000000000000000e+02 7.460000000000000000e+02 7.470000000000000000e+02 7.480000000000000000e+02 7.490000000000000000e+02 7.500000000000000000e+02 7.510000000000000000e+02 7.520000000000000000e+02 7.530000000000000000e+02 7.540000000000000000e+02 7.550000000000000000e+02 7.560000000000000000e+02 7.570000000000000000e+02 7.580000000000000000e+02 7.590000000000000000e+02 7.600000000000000000e+02 7.610000000000000000e+02 7.620000000000000000e+02 7.630000000000000000e+02 7.640000000000000000e+02 7.650000000000000000e+02 7.660000000000000000e+02 7.670000000000000000e+02 7.680000000000000000e+02 7.690000000000000000e+02 7.700000000000000000e+02 7.710000000000000000e+02 7.720000000000000000e+02 7.730000000000000000e+02 7.740000000000000000e+02 7.750000000000000000e+02 7.760000000000000000e+02 7.770000000000000000e+02 7.780000000000000000e+02 7.790000000000000000e+02 7.800000000000000000e+02 7.810000000000000000e+02 7.820000000000000000e+02 7.830000000000000000e+02 7.840000000000000000e+02 7.850000000000000000e+02 7.860000000000000000e+02 7.870000000000000000e+02 7.880000000000000000e+02 7.890000000000000000e+02 7.900000000000000000e+02 7.910000000000000000e+02 7.920000000000000000e+02 7.930000000000000000e+02 7.940000000000000000e+02 7.950000000000000000e+02 7.960000000000000000e+02 7.970000000000000000e+02 7.980000000000000000e+02 7.990000000000000000e+02 8.000000000000000000e+02 8.010000000000000000e+02 8.020000000000000000e+02 8.030000000000000000e+02 8.040000000000000000e+02 8.050000000000000000e+02 8.060000000000000000e+02 8.070000000000000000e+02 8.080000000000000000e+02 8.090000000000000000e+02 8.100000000000000000e+02 8.110000000000000000e+02 8.120000000000000000e+02 8.130000000000000000e+02 8.140000000000000000e+02 8.150000000000000000e+02 8.160000000000000000e+02 8.170000000000000000e+02 8.180000000000000000e+02 8.190000000000000000e+02 8.200000000000000000e+02 8.210000000000000000e+02 8.220000000000000000e+02 8.230000000000000000e+02 8.240000000000000000e+02 8.250000000000000000e+02 8.260000000000000000e+02 8.270000000000000000e+02 8.280000000000000000e+02 8.290000000000000000e+02 8.300000000000000000e+02 8.310000000000000000e+02 8.320000000000000000e+02 8.330000000000000000e+02 8.340000000000000000e+02 8.350000000000000000e+02 8.360000000000000000e+02 8.370000000000000000e+02 8.380000000000000000e+02 8.390000000000000000e+02 8.400000000000000000e+02 8.410000000000000000e+02 8.420000000000000000e+02 8.430000000000000000e+02 8.440000000000000000e+02 8.450000000000000000e+02 8.460000000000000000e+02 8.470000000000000000e+02 8.480000000000000000e+02 8.490000000000000000e+02 8.500000000000000000e+02 8.510000000000000000e+02 8.520000000000000000e+02 8.530000000000000000e+02 8.540000000000000000e+02 8.550000000000000000e+02 8.560000000000000000e+02 8.570000000000000000e+02 8.580000000000000000e+02 8.590000000000000000e+02 8.600000000000000000e+02 8.610000000000000000e+02 8.620000000000000000e+02 8.630000000000000000e+02 8.640000000000000000e+02 8.650000000000000000e+02 8.660000000000000000e+02 8.670000000000000000e+02 8.680000000000000000e+02 8.690000000000000000e+02 8.700000000000000000e+02 8.710000000000000000e+02 8.720000000000000000e+02 8.730000000000000000e+02 8.740000000000000000e+02 8.750000000000000000e+02 8.760000000000000000e+02 8.770000000000000000e+02 8.780000000000000000e+02 8.790000000000000000e+02 8.800000000000000000e+02 8.810000000000000000e+02 8.820000000000000000e+02 8.830000000000000000e+02 8.840000000000000000e+02 8.850000000000000000e+02 8.860000000000000000e+02 8.870000000000000000e+02 8.880000000000000000e+02 8.890000000000000000e+02 8.900000000000000000e+02 8.910000000000000000e+02 8.920000000000000000e+02 8.930000000000000000e+02 8.940000000000000000e+02 8.950000000000000000e+02 8.960000000000000000e+02 8.970000000000000000e+02 8.980000000000000000e+02 8.990000000000000000e+02 9.000000000000000000e+02 9.010000000000000000e+02 9.020000000000000000e+02 9.030000000000000000e+02 9.040000000000000000e+02 9.050000000000000000e+02 9.060000000000000000e+02 9.070000000000000000e+02 9.080000000000000000e+02 9.090000000000000000e+02 9.100000000000000000e+02 9.110000000000000000e+02 9.120000000000000000e+02 9.130000000000000000e+02 9.140000000000000000e+02 9.150000000000000000e+02 9.160000000000000000e+02 9.170000000000000000e+02 9.180000000000000000e+02 9.190000000000000000e+02 9.200000000000000000e+02 9.210000000000000000e+02 9.220000000000000000e+02 9.230000000000000000e+02 9.240000000000000000e+02 9.250000000000000000e+02 9.260000000000000000e+02 9.270000000000000000e+02 9.280000000000000000e+02 9.290000000000000000e+02 9.300000000000000000e+02 9.310000000000000000e+02 9.320000000000000000e+02 9.330000000000000000e+02 9.340000000000000000e+02 9.350000000000000000e+02 9.360000000000000000e+02 9.370000000000000000e+02 9.380000000000000000e+02 9.390000000000000000e+02 9.400000000000000000e+02 9.410000000000000000e+02 9.420000000000000000e+02 9.430000000000000000e+02 9.440000000000000000e+02 9.450000000000000000e+02 9.460000000000000000e+02 9.470000000000000000e+02 9.480000000000000000e+02 9.490000000000000000e+02 9.500000000000000000e+02 9.510000000000000000e+02 9.520000000000000000e+02 9.530000000000000000e+02 9.540000000000000000e+02 9.550000000000000000e+02 9.560000000000000000e+02 9.570000000000000000e+02 9.580000000000000000e+02 9.590000000000000000e+02 9.600000000000000000e+02 9.610000000000000000e+02 9.620000000000000000e+02 9.630000000000000000e+02 9.640000000000000000e+02 9.650000000000000000e+02 9.660000000000000000e+02 9.670000000000000000e+02 9.680000000000000000e+02 9.690000000000000000e+02 9.700000000000000000e+02 9.710000000000000000e+02 9.720000000000000000e+02 9.730000000000000000e+02 9.740000000000000000e+02 9.750000000000000000e+02 9.760000000000000000e+02 9.770000000000000000e+02 9.780000000000000000e+02 9.790000000000000000e+02 9.800000000000000000e+02 9.810000000000000000e+02 9.820000000000000000e+02 9.830000000000000000e+02 9.840000000000000000e+02 9.850000000000000000e+02 9.860000000000000000e+02 9.870000000000000000e+02 9.880000000000000000e+02 9.890000000000000000e+02 9.900000000000000000e+02 9.910000000000000000e+02 9.920000000000000000e+02 9.930000000000000000e+02 9.940000000000000000e+02 9.950000000000000000e+02 9.960000000000000000e+02 9.970000000000000000e+02 9.980000000000000000e+02 9.990000000000000000e+02
1.000000000000000000e+00 1.000000000000000000e+00 1.000000000000000000e+00 1.000000000000000000e+00 1.000000000000000000e+00 1.000000000000000000e+00 1.000000000000000000e+00 1.000000000000000000e+00 1.000000000000000000e+00 1.000000000000000000e+00 1.000000000000000000e+00 1.000000000000000000e+00 1.000000000000000000e+00 1.000000000000000000e+00 1.000000000000000000e+00 1.000000000000000000e+00 1.000000000000000000e+00 1.000000000000000000e+00 1.000000000000000000e+00 1.000000000000000000e+00 1.000000000000000000e+00 1.000000000000000000e+00 1.000000000000000000e+00 1.000000000000000000e+00 1.000000000000000000e+00 1.000000000000000000e+00 1.000000000000000000e+00 1.000000000000000000e+00 1.000000000000000000e+00 1.000000000000000000e+00 1.000000000000000000e+00 1.000000000000000000e+00 1.000000000000000000e+00 1.000000000000000000e+00 1.000000000000000000e+00 1.000000000000000000e+00 1.000000000000000000e+00 1.000000000000000000e+00 1.000000000000000000e+00 1.000000000000000000e+00 1.000000000000000000e+00 1.000000000000000000e+00 1.000000000000000000e+00 1.000000000000000000e+00 1.000000000000000000e+00 1.000000000000000000e+00 1.000000000000000000e+00 1.000000000000000000e+00 1.000000000000000000e+00 1.000000000000000000e+00 1.000000000000000000e+00 1.000000000000000000e+00 1.000000000000000000e+00 1.000000000000000000e+00 1.000000000000000000e+00 1.000000000000000000e+00 1.000000000000000000e+00 1.000000000000000000e+00 1.000000000000000000e+00 1.000000000000000000e+00 1.000000000000000000e+00 1.000000000000000000e+00 1.000000000000000000e+00 1.000000000000000000e+00 1.000000000000000000e+00 1.000000000000000000e+00 1.000000000000000000e+00 1.000000000000000000e+00 1.000000000000000000e+00 1.000000000000000000e+00 1.000000000000000000e+00 1.000000000000000000e+00 1.000000000000000000e+00 1.000000000000000000e+00 1.000000000000000000e+00 1.000000000000000000e+00 1.000000000000000000e+00 1.000000000000000000e+00 1.000000000000000000e+00 1.000000000000000000e+00 1.000000000000000000e+00 1.000000000000000000e+00 1.000000000000000000e+00 1.000000000000000000e+00 1.000000000000000000e+00 1.000000000000000000e+00 1.000000000000000000e+00 1.000000000000000000e+00 1.000000000000000000e+00 1.000000000000000000e+00 1.000000000000000000e+00 1.000000000000000000e+00 1.000000000000000000e+00 1.000000000000000000e+00 1.000000000000000000e+00 1.000000000000000000e+00 1.000000000000000000e+00 1.000000000000000000e+00 1.000000000000000000e+00 1.000000000000000000e+00 1.000000000000000000e+00 1.000000000000000000e+00 1.000000000000000000e+00 1.000000000000000000e+00 1.000000000000000000e+00 1.000000000000000000e+00 1.000000000000000000e+00 1.000000000000000000e+00 1.000000000000000000e+00 1.000000000000000000e+00 1.000000000000000000e+00 1.000000000000000000e+00 1.000000000000000000e+00 1.000000000000000000e+00 1.000000000000000000e+00 1.000000000000000000e+00 1.000000000000000000e+00 1.000000000000000000e+00 1.000000000000000000e+00 1.000000000000000000e+00 1.000000000000000000e+00 1.000000000000000000e+00 1.000000000000000000e+00 1.000000000000000000e+00 1.000000000000000000e+00 1.000000000000000000e+00 1.000000000000000000e+00 1.000000000000000000e+00 1.000000000000000000e+00 1.000000000000000000e+00 1.000000000000000000e+00 1.000000000000000000e+00 1.000000000000000000e+00 1.000000000000000000e+00 1.000000000000000000e+00 1.000000000000000000e+00 1.000000000000000000e+00 1.000000000000000000e+00 1.000000000000000000e+00 1.000000000000000000e+00 1.000000000000000000e+00 1.000000000000000000e+00 1.000000000000000000e+00 1.000000000000000000e+00 1.000000000000000000e+00 1.000000000000000000e+00 1.000000000000000000e+00 1.000000000000000000e+00 1.000000000000000000e+00 1.000000000000000000e+00 1.000000000000000000e+00 1.000000000000000000e+00 1.000000000000000000e+00 1.000000000000000000e+00 1.000000000000000000e+00 1.000000000000000000e+00 1.000000000000000000e+00 1.000000000000000000e+00 1.000000000000000000e+00 1.000000000000000000e+00 1.000000000000000000e+00 1.000000000000000000e+00 1.000000000000000000e+00 1.000000000000000000e+00 1.000000000000000000e+00 1.000000000000000000e+00 1.000000000000000000e+00 1.000000000000000000e+00 1.000000000000000000e+00 1.000000000000000000e+00 1.000000000000000000e+00 1.000000000000000000e+00 1.000000000000000000e+00 1.000000000000000000e+00 1.000000000000000000e+00 1.000000000000000000e+00 1.000000000000000000e+00 1.000000000000000000e+00 1.000000000000000000e+00 1.000000000000000000e+00 1.000000000000000000e+00 1.000000000000000000e+00 1.000000000000000000e+00 1.000000000000000000e+00 1.000000000000000000e+00 1.000000000000000000e+00 1.000000000000000000e+00 1.000000000000000000e+00 1.000000000000000000e+00 1.000000000000000000e+00 1.000000000000000000e+00 1.000000000000000000e+00 1.000000000000000000e+00 1.000000000000000000e+00 1.000000000000000000e+00 1.000000000000000000e+00 1.000000000000000000e+00 1.000000000000000000e+00 1.000000000000000000e+00 1.000000000000000000e+00 1.000000000000000000e+00 1.000000000000000000e+00 1.000000000000000000e+00 1.000000000000000000e+00 1.000000000000000000e+00 1.000000000000000000e+00 1.000000000000000000e+00 1.000000000000000000e+00 1.000000000000000000e+00 1.000000000000000000e+00 1.000000000000000000e+00 1.000000000000000000e+00 1.000000000000000000e+00 1.000000000000000000e+00 1.000000000000000000e+00 1.000000000000000000e+00 1.000000000000000000e+00 1.000000000000000000e+00 1.000000000000000000e+00 1.000000000000000000e+00 1.000000000000000000e+00 1.000000000000000000e+00 1.000000000000000000e+00 1.000000000000000000e+00 1.000000000000000000e+00 1.000000000000000000e+00 1.000000000000000000e+00 1.000000000000000000e+00 1.000000000000000000e+00 1.000000000000000000e+00 1.000000000000000000e+00 1.000000000000000000e+00 1.000000000000000000e+00 1.000000000000000000e+00 1.000000000000000000e+00 1.000000000000000000e+00 1.000000000000000000e+00 1.000000000000000000e+00 1.000000000000000000e+00 1.000000000000000000e+00 1.000000000000000000e+00 1.000000000000000000e+00 1.000000000000000000e+00 1.000000000000000000e+00 1.000000000000000000e+00 1.000000000000000000e+00 1.000000000000000000e+00 1.000000000000000000e+00 1.000000000000000000e+00 1.000000000000000000e+00 1.000000000000000000e+00 1.000000000000000000e+00 1.000000000000000000e+00 1.000000000000000000e+00 1.000000000000000000e+00 1.000000000000000000e+00 1.000000000000000000e+00 1.000000000000000000e+00 1.000000000000000000e+00 1.000000000000000000e+00 1.000000000000000000e+00 1.000000000000000000e+00 1.000000000000000000e+00 1.000000000000000000e+00 1.000000000000000000e+00 1.000000000000000000e+00 1.000000000000000000e+00 1.000000000000000000e+00 1.000000000000000000e+00 1.000000000000000000e+00 1.000000000000000000e+00 1.000000000000000000e+00 1.000000000000000000e+00 1.000000000000000000e+00 1.000000000000000000e+00 1.000000000000000000e+00 1.000000000000000000e+00 1.000000000000000000e+00 1.000000000000000000e+00 1.000000000000000000e+00 1.000000000000000000e+00 1.000000000000000000e+00 1.000000000000000000e+00 1.000000000000000000e+00 1.000000000000000000e+00 1.000000000000000000e+00 1.000000000000000000e+00 1.000000000000000000e+00 1.000000000000000000e+00 1.000000000000000000e+00 1.000000000000000000e+00 1.000000000000000000e+00 1.000000000000000000e+00 1.000000000000000000e+00 1.000000000000000000e+00 1.000000000000000000e+00 1.000000000000000000e+00 1.000000000000000000e+00 1.000000000000000000e+00 1.000000000000000000e+00 1.000000000000000000e+00 1.000000000000000000e+00 1.000000000000000000e+00 1.000000000000000000e+00 1.000000000000000000e+00 1.000000000000000000e+00 1.000000000000000000e+00 1.000000000000000000e+00 1.000000000000000000e+00 1.000000000000000000e+00 1.000000000000000000e+00 1.000000000000000000e+00 1.000000000000000000e+00 1.000000000000000000e+00 1.000000000000000000e+00 1.000000000000000000e+00 1.000000000000000000e+00 1.000000000000000000e+00 1.000000000000000000e+00 1.000000000000000000e+00 1.000000000000000000e+00 1.000000000000000000e+00 1.000000000000000000e+00 1.000000000000000000e+00 1.000000000000000000e+00 1.000000000000000000e+00 1.000000000000000000e+00 1.000000000000000000e+00 1.000000000000000000e+00 1.000000000000000000e+00 1.000000000000000000e+00 1.000000000000000000e+00 1.000000000000000000e+00 1.000000000000000000e+00 1.000000000000000000e+00 1.000000000000000000e+00 1.000000000000000000e+00 1.000000000000000000e+00 1.000000000000000000e+00 1.000000000000000000e+00 1.000000000000000000e+00 1.000000000000000000e+00 1.000000000000000000e+00 1.000000000000000000e+00 1.000000000000000000e+00 1.000000000000000000e+00 1.000000000000000000e+00 1.000000000000000000e+00 1.000000000000000000e+00 1.000000000000000000e+00 1.000000000000000000e+00 1.000000000000000000e+00 1.000000000000000000e+00 1.000000000000000000e+00 1.000000000000000000e+00 1.000000000000000000e+00 1.000000000000000000e+00 1.000000000000000000e+00 1.000000000000000000e+00 1.000000000000000000e+00 1.000000000000000000e+00 1.000000000000000000e+00 1.000000000000000000e+00 1.000000000000000000e+00 1.000000000000000000e+00 1.000000000000000000e+00 1.000000000000000000e+00 1.000000000000000000e+00 1.000000000000000000e+00 1.000000000000000000e+00 1.000000000000000000e+00 1.000000000000000000e+00 1.000000000000000000e+00 1.000000000000000000e+00 1.000000000000000000e+00 1.000000000000000000e+00 1.000000000000000000e+00 1.000000000000000000e+00 1.000000000000000000e+00 1.000000000000000000e+00 1.000000000000000000e+00 1.000000000000000000e+00 1.000000000000000000e+00 1.000000000000000000e+00 1.000000000000000000e+00 1.000000000000000000e+00 1.000000000000000000e+00 1.000000000000000000e+00 1.000000000000000000e+00 1.000000000000000000e+00 1.000000000000000000e+00 1.000000000000000000e+00 1.000000000000000000e+00 1.000000000000000000e+00 1.000000000000000000e+00 1.000000000000000000e+00 1.000000000000000000e+00 1.000000000000000000e+00 1.000000000000000000e+00 1.000000000000000000e+00 1.000000000000000000e+00 1.000000000000000000e+00 1.000000000000000000e+00 1.000000000000000000e+00 1.000000000000000000e+00 1.000000000000000000e+00 1.000000000000000000e+00 1.000000000000000000e+00 1.000000000000000000e+00 1.000000000000000000e+00 1.000000000000000000e+00 1.000000000000000000e+00 1.000000000000000000e+00 1.000000000000000000e+00 1.000000000000000000e+00 1.000000000000000000e+00 1.000000000000000000e+00 1.000000000000000000e+00 1.000000000000000000e+00 1.000000000000000000e+00 1.000000000000000000e+00 1.000000000000000000e+00 1.000000000000000000e+00 1.000000000000000000e+00 1.000000000000000000e+00 1.000000000000000000e+00 1.000000000000000000e+00 1.000000000000000000e+00 1.000000000000000000e+00 1.000000000000000000e+00 1.000000000000000000e+00 1.000000000000000000e+00 1.000000000000000000e+00 1.000000000000000000e+00 1.000000000000000000e+00 1.000000000000000000e+00 1.000000000000000000e+00 1.000000000000000000e+00 1.000000000000000000e+00 1.000000000000000000e+00 1.000000000000000000e+00 1.000000000000000000e+00 1.000000000000000000e+00 1.000000000000000000e+00 1.000000000000000000e+00 1.000000000000000000e+00 1.000000000000000000e+00 1.000000000000000000e+00 1.000000000000000000e+00 1.000000000000000000e+00 1.000000000000000000e+00 1.000000000000000000e+00 1.000000000000000000e+00 1.000000000000000000e+00 1.000000000000000000e+00 1.000000000000000000e+00 1.000000000000000000e+00 1.000000000000000000e+00 1.000000000000000000e+00 1.000000000000000000e+00 1.000000000000000000e+00 1.000000000000000000e+00 1.000000000000000000e+00 1.000000000000000000e+00 1.000000000000000000e+00 1.000000000000000000e+00 1.000000000000000000e+00 1.000000000000000000e+00 1.000000000000000000e+00 1.000000000000000000e+00 1.000000000000000000e+00 1.000000000000000000e+00 1.000000000000000000e+00 1.000000000000000000e+00 1.000000000000000000e+00 1.000000000000000000e+00 1.000000000000000000e+00 1.000000000000000000e+00 1.000000000000000000e+00 1.000000000000000000e+00 1.000000000000000000e+00 1.000000000000000000e+00 1.000000000000000000e+00 1.000000000000000000e+00 1.000000000000000000e+00 1.000000000000000000e+00 1.000000000000000000e+00 1.000000000000000000e+00 1.000000000000000000e+00 1.000000000000000000e+00 1.000000000000000000e+00 1.000000000000000000e+00 1.000000000000000000e+00 1.000000000000000000e+00 1.000000000000000000e+00 1.000000000000000000e+00 1.000000000000000000e+00 1.000000000000000000e+00 1.000000000000000000e+00 1.000000000000000000e+00 1.000000000000000000e+00 1.000000000000000000e+00 1.000000000000000000e+00 1.000000000000000000e+00 1.000000000000000000e+00 1.000000000000000000e+00 1.000000000000000000e+00 1.000000000000000000e+00 1.000000000000000000e+00 1.000000000000000000e+00 1.000000000000000000e+00 1.000000000000000000e+00 1.000000000000000000e+00 1.000000000000000000e+00 1.000000000000000000e+00 1.000000000000000000e+00 1.000000000000000000e+00 1.000000000000000000e+00 1.000000000000000000e+00 1.000000000000000000e+00 1.000000000000000000e+00 1.000000000000000000e+00 1.000000000000000000e+00 1.000000000000000000e+00 1.000000000000000000e+00 1.000000000000000000e+00 1.000000000000000000e+00 1.000000000000000000e+00 1.000000000000000000e+00 1.000000000000000000e+00 1.000000000000000000e+00 1.000000000000000000e+00 1.000000000000000000e+00 1.000000000000000000e+00 1.000000000000000000e+00 1.000000000000000000e+00 1.000000000000000000e+00 1.000000000000000000e+00 1.000000000000000000e+00 1.000000000000000000e+00 1.000000000000000000e+00 1.000000000000000000e+00 1.000000000000000000e+00 1.000000000000000000e+00 1.000000000000000000e+00 1.000000000000000000e+00 1.000000000000000000e+00 1.000000000000000000e+00 1.000000000000000000e+00 1.000000000000000000e+00 1.000000000000000000e+00 1.000000000000000000e+00 1.000000000000000000e+00 1.000000000000000000e+00 1.000000000000000000e+00 1.000000000000000000e+00 1.000000000000000000e+00 1.000000000000000000e+00 1.000000000000000000e+00 1.000000000000000000e+00 1.000000000000000000e+00 1.000000000000000000e+00 1.000000000000000000e+00 1.000000000000000000e+00 1.000000000000000000e+00 1.000000000000000000e+00 1.000000000000000000e+00 1.000000000000000000e+00 1.000000000000000000e+00 1.000000000000000000e+00 1.000000000000000000e+00 1.000000000000000000e+00 1.000000000000000000e+00 1.000000000000000000e+00 1.000000000000000000e+00 1.000000000000000000e+00 1.000000000000000000e+00 1.000000000000000000e+00 1.000000000000000000e+00 1.000000000000000000e+00 1.000000000000000000e+00 1.000000000000000000e+00 1.000000000000000000e+00 1.000000000000000000e+00 1.000000000000000000e+00 1.000000000000000000e+00 1.000000000000000000e+00 1.000000000000000000e+00 1.000000000000000000e+00 1.000000000000000000e+00 1.000000000000000000e+00 1.000000000000000000e+00 1.000000000000000000e+00 1.000000000000000000e+00 1.000000000000000000e+00 1.000000000000000000e+00 1.000000000000000000e+00 1.000000000000000000e+00 1.000000000000000000e+00 1.000000000000000000e+00 1.000000000000000000e+00 1.000000000000000000e+00 1.000000000000000000e+00 1.000000000000000000e+00 1.000000000000000000e+00 1.000000000000000000e+00 1.000000000000000000e+00 1.000000000000000000e+00 1.000000000000000000e+00 1.000000000000000000e+00 1.000000000000000000e+00 1.000000000000000000e+00 1.000000000000000000e+00 1.000000000000000000e+00 1.000000000000000000e+00 1.000000000000000000e+00 1.000000000000000000e+00 1.000000000000000000e+00 1.000000000000000000e+00 1.000000000000000000e+00 1.000000000000000000e+00 1.000000000000000000e+00 1.000000000000000000e+00 1.000000000000000000e+00 1.000000000000000000e+00 1.000000000000000000e+00 1.000000000000000000e+00 1.000000000000000000e+00 1.000000000000000000e+00 1.000000000000000000e+00 1.000000000000000000e+00 1.000000000000000000e+00 1.000000000000000000e+00 1.000000000000000000e+00 1.000000000000000000e+00 1.000000000000000000e+00 1.000000000000000000e+00 1.000000000000000000e+00 1.000000000000000000e+00 1.000000000000000000e+00 1.000000000000000000e+00 1.000000000000000000e+00 1.000000000000000000e+00 1.000000000000000000e+00 1.000000000000000000e+00 1.000000000000000000e+00 1.000000000000000000e+00 1.000000000000000000e+00 1.000000000000000000e+00 1.000000000000000000e+00 1.000000000000000000e+00 1.000000000000000000e+00 1.000000000000000000e+00 1.000000000000000000e+00 1.000000000000000000e+00 1.000000000000000000e+00 1.000000000000000000e+00 1.000000000000000000e+00 1.000000000000000000e+00 1.000000000000000000e+00 1.000000000000000000e+00 1.000000000000000000e+00 1.000000000000000000e+00 1.000000000000000000e+00 1.000000000000000000e+00 1.000000000000000000e+00 1.000000000000000000e+00 1.000000000000000000e+00 1.000000000000000000e+00 1.000000000000000000e+00 1.000000000000000000e+00 1.000000000000000000e+00 1.000000000000000000e+00 1.000000000000000000e+00 1.000000000000000000e+00 1.000000000000000000e+00 1.000000000000000000e+00 1.000000000000000000e+00 1.000000000000000000e+00 1.000000000000000000e+00 1.000000000000000000e+00 1.000000000000000000e+00 1.000000000000000000e+00 1.000000000000000000e+00 1.000000000000000000e+00 1.000000000000000000e+00 1.000000000000000000e+00 1.000000000000000000e+00 1.000000000000000000e+00 1.000000000000000000e+00 1.000000000000000000e+00 1.000000000000000000e+00 1.000000000000000000e+00 1.000000000000000000e+00 1.000000000000000000e+00 1.000000000000000000e+00 1.000000000000000000e+00 1.000000000000000000e+00 1.000000000000000000e+00 1.000000000000000000e+00 1.000000000000000000e+00 1.000000000000000000e+00 1.000000000000000000e+00 1.000000000000000000e+00 1.000000000000000000e+00 1.000000000000000000e+00 1.000000000000000000e+00 1.000000000000000000e+00 1.000000000000000000e+00 1.000000000000000000e+00 1.000000000000000000e+00 1.000000000000000000e+00 1.000000000000000000e+00 1.000000000000000000e+00 1.000000000000000000e+00 1.000000000000000000e+00 1.000000000000000000e+00 1.000000000000000000e+00 1.000000000000000000e+00 1.000000000000000000e+00 1.000000000000000000e+00 1.000000000000000000e+00 1.000000000000000000e+00 1.000000000000000000e+00 1.000000000000000000e+00 1.000000000000000000e+00 1.000000000000000000e+00 1.000000000000000000e+00 1.000000000000000000e+00 1.000000000000000000e+00 1.000000000000000000e+00 1.000000000000000000e+00 1.000000000000000000e+00 1.000000000000000000e+00 1.000000000000000000e+00 1.000000000000000000e+00 1.000000000000000000e+00 1.000000000000000000e+00 1.000000000000000000e+00 1.000000000000000000e+00 1.000000000000000000e+00 1.000000000000000000e+00 1.000000000000000000e+00 1.000000000000000000e+00 1.000000000000000000e+00 1.000000000000000000e+00 1.000000000000000000e+00 1.000000000000000000e+00 1.000000000000000000e+00 1.000000000000000000e+00 1.000000000000000000e+00 1.000000000000000000e+00 1.000000000000000000e+00 1.000000000000000000e+00 1.000000000000000000e+00 1.000000000000000000e+00 1.000000000000000000e+00 1.000000000000000000e+00 1.000000000000000000e+00 1.000000000000000000e+00 1.000000000000000000e+00 1.000000000000000000e+00 1.000000000000000000e+00 1.000000000000000000e+00 1.000000000000000000e+00 1.000000000000000000e+00 1.000000000000000000e+00 1.000000000000000000e+00 1.000000000000000000e+00 1.000000000000000000e+00 1.000000000000000000e+00 1.000000000000000000e+00 1.000000000000000000e+00 1.000000000000000000e+00 1.000000000000000000e+00 1.000000000000000000e+00 1.000000000000000000e+00 1.000000000000000000e+00 1.000000000000000000e+00 1.000000000000000000e+00 1.000000000000000000e+00 1.000000000000000000e+00 1.000000000000000000e+00 1.000000000000000000e+00 1.000000000000000000e+00 1.000000000000000000e+00 1.000000000000000000e+00 1.000000000000000000e+00 1.000000000000000000e+00 1.000000000000000000e+00 1.000000000000000000e+00 1.000000000000000000e+00 1.000000000000000000e+00 1.000000000000000000e+00 1.000000000000000000e+00 1.000000000000000000e+00 1.000000000000000000e+00 1.000000000000000000e+00 1.000000000000000000e+00 1.000000000000000000e+00 1.000000000000000000e+00 1.000000000000000000e+00 1.000000000000000000e+00 1.000000000000000000e+00 1.000000000000000000e+00 1.000000000000000000e+00 1.000000000000000000e+00 1.000000000000000000e+00 1.000000000000000000e+00 1.000000000000000000e+00 1.000000000000000000e+00 1.000000000000000000e+00 1.000000000000000000e+00 1.000000000000000000e+00 1.000000000000000000e+00 1.000000000000000000e+00 1.000000000000000000e+00 1.000000000000000000e+00 1.000000000000000000e+00 1.000000000000000000e+00 1.000000000000000000e+00 1.000000000000000000e+00 1.000000000000000000e+00 1.000000000000000000e+00 1.000000000000000000e+00 1.000000000000000000e+00 1.000000000000000000e+00 1.000000000000000000e+00 1.000000000000000000e+00 1.000000000000000000e+00 1.000000000000000000e+00 1.000000000000000000e+00 1.000000000000000000e+00 1.000000000000000000e+00 1.000000000000000000e+00 1.000000000000000000e+00 1.000000000000000000e+00 1.000000000000000000e+00 1.000000000000000000e+00 1.000000000000000000e+00 1.000000000000000000e+00 1.000000000000000000e+00 1.000000000000000000e+00 1.000000000000000000e+00 1.000000000000000000e+00 1.000000000000000000e+00 1.000000000000000000e+00 1.000000000000000000e+00 1.000000000000000000e+00 1.000000000000000000e+00 1.000000000000000000e+00 1.000000000000000000e+00 1.000000000000000000e+00 1.000000000000000000e+00 1.000000000000000000e+00 1.000000000000000000e+00 1.000000000000000000e+00 1.000000000000000000e+00 1.000000000000000000e+00 1.000000000000000000e+00 1.000000000000000000e+00 1.000000000000000000e+00 1.000000000000000000e+00 1.000000000000000000e+00 1.000000000000000000e+00 1.000000000000000000e+00 1.000000000000000000e+00 1.000000000000000000e+00 1.000000000000000000e+00 1.000000000000000000e+00 1.000000000000000000e+00 1.000000000000000000e+00 1.000000000000000000e+00 1.000000000000000000e+00 1.000000000000000000e+00 1.000000000000000000e+00 1.000000000000000000e+00 1.000000000000000000e+00 1.000000000000000000e+00 1.000000000000000000e+00 1.000000000000000000e+00 1.000000000000000000e+00 1.000000000000000000e+00 1.000000000000000000e+00 1.000000000000000000e+00 1.000000000000000000e+00 1.000000000000000000e+00 1.000000000000000000e+00 1.000000000000000000e+00 1.000000000000000000e+00 1.000000000000000000e+00 1.000000000000000000e+00 1.000000000000000000e+00 1.000000000000000000e+00 1.000000000000000000e+00 1.000000000000000000e+00 1.000000000000000000e+00 1.000000000000000000e+00 1.000000000000000000e+00 1.000000000000000000e+00 1.000000000000000000e+00 1.000000000000000000e+00 1.000000000000000000e+00 1.000000000000000000e+00 1.000000000000000000e+00 1.000000000000000000e+00 1.000000000000000000e+00 1.000000000000000000e+00 1.000000000000000000e+00 1.000000000000000000e+00 1.000000000000000000e+00 1.000000000000000000e+00 1.000000000000000000e+00 1.000000000000000000e+00 1.000000000000000000e+00 1.000000000000000000e+00 1.000000000000000000e+00 1.000000000000000000e+00 1.000000000000000000e+00 1.000000000000000000e+00 1.000000000000000000e+00 1.000000000000000000e+00 1.000000000000000000e+00 1.000000000000000000e+00 1.000000000000000000e+00 1.000000000000000000e+00 1.000000000000000000e+00 1.000000000000000000e+00 1.000000000000000000e+00 1.000000000000000000e+00 1.000000000000000000e+00 1.000000000000000000e+00 1.000000000000000000e+00 1.000000000000000000e+00 1.000000000000000000e+00 1.000000000000000000e+00 1.000000000000000000e+00 1.000000000000000000e+00 1.000000000000000000e+00 1.000000000000000000e+00 1.000000000000000000e+00 1.000000000000000000e+00 1.000000000000000000e+00 1.000000000000000000e+00 1.000000000000000000e+00 1.000000000000000000e+00 1.000000000000000000e+00 1.000000000000000000e+00 1.000000000000000000e+00 1.000000000000000000e+00 1.000000000000000000e+00 1.000000000000000000e+00 1.000000000000000000e+00 1.000000000000000000e+00 1.000000000000000000e+00 1.000000000000000000e+00 1.000000000000000000e+00 1.000000000000000000e+00 1.000000000000000000e+00 1.000000000000000000e+00 1.000000000000000000e+00 1.000000000000000000e+00 1.000000000000000000e+00 1.000000000000000000e+00 1.000000000000000000e+00 1.000000000000000000e+00 1.000000000000000000e+00 1.000000000000000000e+00 1.000000000000000000e+00 1.000000000000000000e+00 1.000000000000000000e+00 1.000000000000000000e+00 1.000000000000000000e+00 1.000000000000000000e+00 1.000000000000000000e+00 1.000000000000000000e+00 1.000000000000000000e+00 1.000000000000000000e+00 1.000000000000000000e+00 1.000000000000000000e+00 1.000000000000000000e+00 1.000000000000000000e+00 1.000000000000000000e+00 1.000000000000000000e+00 1.000000000000000000e+00 1.000000000000000000e+00 1.000000000000000000e+00 1.000000000000000000e+00 1.000000000000000000e+00 1.000000000000000000e+00 1.000000000000000000e+00 1.000000000000000000e+00 1.000000000000000000e+00 1.000000000000000000e+00 1.000000000000000000e+00 1.000000000000000000e+00 1.000000000000000000e+00 1.000000000000000000e+00 1.000000000000000000e+00 1.000000000000000000e+00
5.986361588701465813e-02 5.291064668131698623e-01 -2.903621854788083212e-01 7.789072879052854059e-01 5.230237481150861178e-01 5.523388088606960844e-01 5.693967254529177513e-01 3.994767609218538018e-01 5.667363910793310477e-01 5.259155024239313692e-01 1.087046304539286190e+00 -7.348666633543576854e-01 1.425072730764684437e+00 4.689953745094622151e-01 5.209743810062138492e-01 4.215447491034717276e-01 8.345202405426714876e-01 9.799155860794456219e-01 7.489858815047802931e-01 5.242961940851963432e-01 3.696803290284623178e-01 9.954033089075049467e-01 3.530462280307159473e-01 5.611843439955030988e-01 6.613289213700966618e-02 6.625641145223405415e-01 4.196482760445157667e-01 7.152214848948440507e-01 5.133007911126995504e-01 1.637787803127260355e+00 4.906380086918453176e-01 6.023494359279749633e-01 7.184610979033576594e-01 5.101075886462397291e-01 6.892868187070578800e-01 4.626626372578508950e-01 5.732763155518577625e-01 1.866325849015587846e+00 -9.481222342490605581e-02 5.112229132447830837e-01 -2.271792041494037351e-01 -5.622860103915184871e-01 7.458291189464286708e-01 2.314967261992406933e-01 3.264868252639380741e-01 4.934145001516365703e-01 7.785795498725166519e-01 5.408380441853868348e-01 6.789055173431155499e-01 9.161776533772659700e-03 3.637857432240267780e-02 7.550595639166228779e-01 6.834912353080582204e-01 4.168803148054599506e-01 4.663117846711050118e-01 2.298503492477056362e-02 5.699528359201787575e-01 5.033090747784001451e-01 2.010868524866966933e-01 5.490400401799016006e-01 9.293840699455286902e-01 4.544064274694037397e-01 4.938134060715347884e-01 3.530461142013486819e-01 6.749636724151980571e-01 6.605782863269301641e-01 5.233726860764834621e-01 4.348658250460961106e-01 5.520048220019702079e-01 4.754150765783422133e-02 4.695801595982188603e-01 5.964399103639271837e-01 5.197847607374339596e-01 1.502780169980601557e-02 1.529199299742106000e+00 5.280361339048210700e-01 6.390300178638405049e-01 7.149799684589837057e-01 5.233395754048865145e-01 1.389414314271527617e+00 5.423309108220701891e-01 3.614142752060239272e-01 1.453758927257087663e+00 7.675696490255173865e-01 5.212668786144836197e-01 7.507382364947413622e-01 7.961798204192699346e-01 5.141071045368172943e-01 4.266461951882641324e-01 5.767567601293325241e-01 3.299004630912198421e-01 2.242287321403503508e+00 7.880799528221158479e-01 6.309255385525097681e-02 4.793207647483017086e-01 5.188742479199831559e-01 5.612310725651274979e-01 4.851272556461040941e-01 1.903288818147405304e-01 6.583295438606661110e-01 1.649020760563276067e+00 6.874473353607429837e-01 5.051711882653190377e-01 5.675980833241701662e-01 8.535937138288636206e-01 -2.155107879439234875e+00 -1.254679515437760573e+00 5.111325566737142667e-01 6.266888844731554054e-01 9.674708830558238493e-01 5.925724563218397467e-01 4.190573065171344092e-01 1.860224404580630986e-01 5.116326188182720447e-01 5.289013849647798970e-01 5.049437588568176372e-01 4.533023768534353848e-01 4.889813637515100231e-01 1.008336982414114846e+00 5.088363563294525660e-01 1.320339430551284998e+00 5.358355241202459318e-01 6.466149758956736271e-01 -5.592565558642266232e-01 5.170992644978109620e-01 1.982238397335640556e+00 4.881968743951979883e-01 5.154599112984729059e-01 6.706627598606273999e-01 4.977972825069703622e-01 5.821120639082982828e-01 5.166401566813231261e-01 4.406045427180195206e-01 5.090803445832099428e-01 -3.927383782503980902e-01 -1.728043037479693456e-01 6.778706179914204544e-01 4.882840004348914381e-02 1.012341389219101773e+00 5.350905186541164982e-01 5.416915043543343300e-01 8.762879294450655054e-01 4.750955310861032510e-01 4.733842821794989608e-01 5.210011870682209612e-01 2.950329216469408170e-02 9.820048215404749703e-01 -1.809420970380511140e-01 4.196996395957273696e-01 -9.309458259622308551e-01 7.499760671589348338e-01 -2.827854346221104209e-01 4.934069171931358966e-01 5.312828675883154439e-01 5.506208615597821820e-01 5.301059858437352501e-01 2.051986737589694076e+00 -1.744885494022500039e-01 8.283464947995209382e-01 6.540281933492987365e-01 5.630244366521889310e-01 4.634282147775048433e-01 5.163757706452586360e-01 5.234627331475301126e-01 1.064497580408851007e+00 2.598465713792982856e-01 8.522082325879040132e-01 2.996570144237071243e-01 3.849131809388932068e-01 6.314083255504888692e-01 6.217023882373774457e-01 7.793360144730614447e-01 4.934157869199484736e-01 5.245208390419426880e-01 4.025509592303405659e-01 4.465254217801873510e-02 2.253312062471490018e-01 1.128487212502388704e-01 7.587021725067677469e-01 1.144325874868449722e+00 6.618105657325700220e-01 5.192120218539570953e-01 -1.649521004686152759e-01 4.468091903658205633e-01 4.350487090892534159e-01 5.216771756828990636e-01 5.303111003225891018e-01 5.005484302247624750e-01 2.880403901072146056e+00 4.770456016150894096e-01 5.718951692600285908e-01 -9.297263829871654783e-01 5.126960561659176241e-01 4.983405296224844849e-01 2.032781093799553851e-01 5.175829655740565860e-01 9.476129895171456763e-01 5.204889158811678573e-01 4.142640851144380743e-01 5.658761430248999691e-01 6.335676537788353935e-01 5.313739453911185961e-01 8.389595404317332639e-01 6.025183935178526351e-01 5.432058275376182577e-01 4.142640425216296829e-01 1.890028622220679411e-01 1.303341693123655887e+00 5.487971446577909473e-01 4.958486701868480839e-01 4.205697838029821001e-01 -9.756762789102661759e-02 5.006356668548128663e-01 1.541988518259272134e-01 5.272179219697120667e-01 5.274874784485601431e-01 5.266543160977946725e-01 5.261544132909327098e-01 5.191973575532193852e-01 5.242225917319469630e-01 4.424710674092093843e-01 5.535565203206572749e-01 -7.239785334638033643e-01 6.281113967413021193e-01 4.839591817791401018e-01 3.489528434820093894e-01 -1.383936796007312689e-03 1.345492134715235322e+00 9.745020960535401011e-01 4.894491291779016207e-01 -1.017844459682639008e-01 1.069347325334135013e+00 5.222763575943973891e-01 4.784714667569187618e-01 6.681207603614567336e-01 4.059223345678967254e-01 2.422496430697418657e-01 1.618143321767478438e-01 -1.672745585395302992e-01 -5.993720276424308047e-02 5.311776073083761540e-01 5.032229112644407421e-01 -1.212660969432688973e-01 4.430371556476108696e-01 5.269699868154724687e-01 5.280053615626632002e-01 -9.202568797633126074e-02 7.642381130203144135e-01 -2.390204062987086431e+00 6.165499284495810084e-01 -6.793888858286729615e-01 5.006638060978871874e-01 5.225054052915990566e-01 3.530455972964567923e-01 4.930934559901897218e-01 5.503894014638754939e-01 5.061072145272272893e-01 7.908310011390888850e-01 5.736384999855843603e-01 1.703647500603770126e+00 6.842435838563439843e-01 6.756470294887775285e-01 4.508864647041564977e-01 4.130180500592386394e-01 9.293841097072748081e-01 4.878796824554493261e-01 2.754146196107567945e+00 4.436574022833468800e-01 2.184090443641757140e-01 7.739119647796048884e-01 5.150196171723051553e-01 9.287458859394658317e-01 5.210802727056339512e-01 5.808005756982846934e-01 5.223015492708348306e-01 1.159509084399263701e+00 7.652638896763677145e-01 8.555344092984993321e-01 7.980380514527468661e-01 5.872686605713614005e-01 6.861055285812845961e-01 5.072711184748190938e-01 3.712687432889968386e-01 -7.525541038157782525e-01 3.918156590181223753e-01 4.240469081871136026e-01 5.438879736786214059e-01 4.928200991919583496e-01 5.049438167018832635e-01 6.124970251654875408e-01 5.114237092878665125e-01 -9.378620407996458574e-01 7.681807052675289071e-01 5.019159187911611530e-01 -1.517099119625149248e-02 4.557826369394591404e-01 1.861589602505494323e+00 5.069605500682520249e-01 5.207004036852637130e-01 4.197042077177465247e-01 -3.521422393874197532e+00 5.204988056871862057e-01 2.967177391446707890e+00 7.795959042071660683e-01 5.364623124897560658e-01 -5.689991628042561089e-01 5.176812378908919321e-01 5.224123012842045721e-01 4.563652692653443754e-01 4.494947032524014285e-01 3.345825706750829021e-01 6.525791390813392434e-01 3.137541884869592401e-01 5.256619260555944750e-01 5.185362116775067420e-01 3.576086182263102375e-01 5.259490907392291303e-01 7.795697441261928429e-01 5.210798310990371052e-01 1.216230744269222619e+00 4.484896547066889727e-02 2.244282662179729826e+00 2.692651742461170006e+00 4.822020867280767398e-01 -2.397281180102327491e-01 3.864488389645245325e-01 3.996871254170386578e-01 7.437685894994643387e-01 1.401306933159159662e+00 5.306165158649381874e-01 1.137785825952984720e+00 5.214211155372285855e-01 1.184830279815791837e-01 1.262842843666912573e+00 5.722488115483352900e-01 5.680703055894569253e-01 5.337832971704413731e-01 9.098973220718545862e-01 -3.867691727470852214e+00 1.664772921049697763e+00 5.332513387715061004e-01 6.348063683447495720e-01 5.289422864756284648e-01 1.866325854054452948e+00 2.945107509818081781e-01 5.663224668207157420e-01 4.739113873503732477e-01 6.193801115452730599e-01 1.369083538027700664e+00 5.197749757664851256e-01 4.142641425613354245e-01 4.430338558281243788e-01 6.025183996098146810e-01 4.110219391757405916e-01 5.706482923619191627e-01 9.045630518195384440e-01 5.209262535429166618e-01 3.811274899083132994e-01 1.392759418198002697e-01 6.542165737966201267e-01 5.264082242722979421e-01 2.767408587840756162e-01 5.663224716190560226e-01 6.186796151297584423e-01 5.203106831635514462e-01 1.050613349504034622e+00 9.280988480529305251e-01 1.163647143368214731e+00 5.229054586342443134e-01 2.121671546581410939e-01 9.293847971554370924e-01 -1.099839223564589158e-01 9.338987589783596110e-01 6.306852217089331525e-01 4.506667422993174826e-02 4.381411568123491640e-01 8.833390011658752705e-01 3.836408986668808363e-01 4.775072868517626357e-01 3.215103763749630472e-01 -3.420049522879819448e-01 -2.537359901019634378e+00 5.494771945525096513e-01 6.025183978138221041e-01 6.025184267342905686e-01 5.185474971055694660e-01 3.535060271385070396e-01 -2.415411849560744062e-01 2.787728785745654525e-01 5.253273101822055757e-01 7.123446832805705453e-01 5.230188837564613280e-01 1.019199617871255015e+00 4.142645460760671083e-01 5.222363054397537452e-01 4.985917026597036505e-01 2.957162995663513705e-01 6.626119824456665475e-01 5.215816996583962917e-01 5.230383856993755520e-01 4.916108922297555694e-01 3.214565793235634739e-01 2.168369980843322734e-02 6.025183976622441318e-01 6.638570343267555796e-01 5.212964029372300079e-01 3.895512522329750427e-01 8.602629013658856794e-01 7.667890943527186920e-01 5.647748842010970050e-01 1.930697673083015653e+00 4.866901107960080464e-01 -3.218111785068419106e+00 7.785417276869007752e-01 1.550705936303061305e+00 5.922222776785569520e-01 -1.121259854999763217e+00 8.542913758055400431e-01 4.346529256138360608e-01 5.343274287342111295e-01 5.412552356333428794e-01 -4.533104597482771059e-01 5.035372196287890567e-01 1.079526095354723436e+00 4.458404485251917793e-01 -4.145865108195863624e-01 5.109696182184433333e-01 5.368676685240424407e-01 7.958478098599114370e-01 5.082370086347538507e-01 6.119829764724779020e-01 -5.513961689775619401e-01 5.610854991363907196e-01 5.182490353812824191e-01 5.200979624515419397e-01 5.269990587930052373e-01 7.710534729922329245e-01 5.218993857254088375e-01 6.281431662364723723e-01 4.110115317224914966e-01 5.228031288823682399e-01 2.299774784664653793e-01 3.387760705402126371e-01 3.700774544618053996e-01 9.752604122517135599e-01 5.596235644218444660e-01 3.269602832606900655e+00 6.550421354366361415e-01 6.674122698761862926e-01 5.434179559805972781e-01 5.346084224404563656e-01 1.309119051828112369e-02 4.956959714009930851e-01 5.407091530762250242e-01 5.203107961983383101e-01 1.155270717614515164e+00 7.713659998816304597e-01 5.184832153846677949e-01 4.364066980849694022e-01 1.120087850881543501e+00 5.216832406440573555e-01 5.593692176982083542e-01 5.398113666779348341e-01 8.611231994011860902e-01 5.184353262806413731e-01 9.494194912736381164e-01 4.980435912901525208e-01 5.229866717683639976e-01 4.340692519132517690e-02 5.326079859819354834e-01 1.910031816446381564e-02 2.831398085626186667e-01 3.980607139804684391e-01 5.720311094887048364e-01 7.906475838871979134e-01 5.277122314670629200e-01 3.827930627449404044e-01 1.296200246811793355e-01 5.014297188129098748e-01 5.097603123982732409e-01 4.415795916825379641e-01 7.812428832874650057e-04 5.199497713760972140e-01 2.697307277536016845e-01 5.240892388764863963e-01 4.084478748244784185e-01 1.264557665944282983e+00 7.488806043257946188e-01 5.099808842532878028e-01 2.448107884586451788e-01 8.194015992526877401e-01 4.531259378024402595e-01 1.004845151999484765e+00 5.702198666605452493e-01 6.237598784936680962e-01 7.102249226041895680e-01 2.036304973527578444e+00 5.087691800562378353e-01 5.699115532590027788e-01 5.212307227881864957e-01 7.680133620909378456e-01 6.134491715606928963e-01 8.742453738702381516e-01 -5.878719398693674769e-01 4.207757843981139168e-01 5.241878525605642158e-01 4.399645086328906607e-01 4.609152201891161260e-01 -6.430780460614325955e-01 3.845504689784460250e-01 5.246600027312188219e-01 7.211712962251223269e-01 6.703768380358420265e-01 1.567538871932798283e+00 5.195696943437210225e-01 5.291519932061876652e-01 -7.381867223270928147e-01 5.223440627520912205e-01 1.250453768631991647e+00 7.281964418502804293e-01 2.950004676876215592e-01 2.287994278529380532e-01 -1.872198291958192096e+00 5.666870419536736980e-01 1.956618795879046246e-01 1.111782058971340303e+00 8.300366200828589447e-01 5.497983495361383754e-01 5.638534200583560363e-01 5.378944630728969001e-01 7.786706004037623474e-01 4.168428686956137108e-01 5.519907222077540254e-01 1.063366741958507097e-02 6.055883910042590967e-01 5.005351482996700518e-01 3.809448183136666111e-01 5.157562617352051682e-01 4.324773013480018302e-01 1.241188763535405082e+00 -9.530418199766772791e-02 -2.482314659794916667e-01 4.100008283982286006e-01 5.109310764330269317e-01 5.262587295947963595e-01 5.050580619019710005e-01 -8.937054541653998152e-01 3.233425046636045241e+00 4.615764079206322590e-01 4.368749854091316664e-01 4.589768213716396428e-01 5.211333840984094801e-01 5.041097499977065244e-01 4.701446131022135044e-01 3.291063839002363323e-01 6.171316196785292529e-01 5.231173406340806631e-01 4.549308316590611745e-01 3.116863760569126285e-01 4.046050750333720081e-01 5.647079638139329560e-01 4.050222634192726101e-01 5.574031102232078760e-01 5.143664754746982704e-01 6.853691414324343256e-01 1.028379148670172771e+00 2.354089789076486472e+00 4.887422110879522386e-01 5.016392743477353644e-01 3.288400303525268464e-01 4.743830532913456688e-01 3.909463236805201247e-01 5.216262205943174024e-01 5.267918862166338645e-01 4.885630617027261757e-01 5.876940661400225085e-01 5.635093321304273095e-01 7.791391251607361346e-01 3.645019682297982455e-01 3.852665184192697323e-01 3.911834474796185290e-01 4.791725934339177151e-01 1.033748040765798681e-01 9.293840906566533944e-01 5.123632914560428686e-01 8.186691443154218983e-02 1.914953964353556026e+00 3.305560093229658603e-01 4.010788557719530689e-01 5.984533891818246687e-01 6.665885827844314493e-02 5.540600564029476427e-01 1.539012957494565015e+00 8.085272857808259994e-01 6.817894402542491461e-01 5.227421552511155589e-01 5.104353121934852577e-01 4.203277893239198426e-01 6.313989805048038084e-01 5.132286484470608423e-01 5.236463781796170114e-01 -2.829829286217772077e-01 4.663396633150139747e-01 -1.631883248386855501e+00 5.055790826420207829e-01 5.261788916527613269e-01 5.318331766051292986e-01 4.197024038449371774e-01 9.293840905869098501e-01 2.266082056834351210e-01 5.034306293935255638e-01 1.379753468508117864e+00 -5.889457951290316684e-01 5.256437600124835852e-01 1.162230860147299483e+00 1.572183072507162827e+00 5.953547821456577349e-01 5.262954340629772965e-01 -6.856043620754416479e-02 -1.732697729797767261e+00 2.664117721994489485e-01 8.525988373008897003e-01 5.368315127144146492e-01 5.217024813730520849e-01 6.191384944054095785e-01 4.793673598834476413e-01 -4.319352486959986970e-01 8.394352857765204901e-01 5.049441515326440477e-01 3.239808709271766451e-01 5.033320481540944913e-01 4.458515320477004877e-03 -1.630000200321150283e-01 1.843310380388880843e+00 4.100464625507649341e-01 5.039276235737248921e-01 5.208113884595790832e-01 3.188140873556621346e-01 4.834184937755935940e-01 -1.539107016042254028e-01 -1.370252366241425435e+00 5.198472344813703794e-01 4.801064700891465309e-01 4.874779155723244495e-01 5.345122177115446682e-01 5.322541096191474308e-01 5.472283435215742342e-01 5.125120591849315899e-01 5.557452290892349600e-01 1.042149539245094125e+00 7.093271376771367320e-01 5.326734790492351213e-01 6.382459265341204890e-01 5.521722700780147264e-01 5.672622560608485687e-01 6.054857979423097086e-02 5.663224241350467425e-01 4.257038131548581683e-01 5.798665238070611627e-01 7.484750934296185987e-01 8.236552187556916982e-01 8.742474901009499311e-01 -5.550792651000806543e-01 5.308863165917088178e-01 4.812740550863484623e-01 5.234042889453590641e-01 5.972806421885180628e-01 9.164619884755662582e-01 4.784455242369842765e-01 5.185144181343077641e-01 -3.170602861676384832e-01 -9.091418852341700552e-01 2.357211373219799899e+00 5.169984075278426516e-01 9.076509108455040886e-01 4.172853588702941652e-01 5.793990595833135027e-01 4.049292816363306291e-01 1.530113703958801696e-01 5.211702470283762212e-01 5.074350981240796088e-01 2.865235174761848486e-04 5.232063492456211495e-01 4.597154753226301849e-01 5.180582066903709482e-01 4.681041416432200619e-01 5.246482672941069625e-01 6.427329327494495370e-01 4.326556205071357963e-01 5.603829234263199011e-01 5.346990474150111750e-01 5.265134995514106908e-01 4.158913161261119651e-01 5.240125559615700368e-01 -2.438916746049502871e-01 5.186512829720949513e-01 6.413113911713140824e-01 5.518688239348746860e-01 7.787752015971090014e-01 9.293838158418000761e-01 7.242234045674863507e-01 -6.214020695681329309e-01 9.768195497116400894e-01 1.866325848983208857e+00 5.123886246949201917e-01 4.637382016520564809e-01 1.091131626592020787e+00 5.588725124959310619e-01 7.788082712775833416e-01 5.211110605329096757e-01 1.896266874086098841e+00 5.254158116455515115e-01 4.430363437333945109e-01 1.237252710409015410e+00 -6.898505110649207073e-02 5.002081730294989370e-01 -1.515385609768371833e-01 -9.954432908491408494e-01 -1.632784310932369753e-01 7.762681280958999563e-01 5.642627363882382063e-01 5.291610621551481319e-01 -3.163668074497848481e-01 5.475870828121127687e-01 4.757253852538679412e-02 -4.208278744621030132e-01 5.494859571113995811e-01 5.270287700155337207e-01 5.215050095257487417e-01 5.023487330765200598e-01 4.713211699228179730e-01 9.211317822562459234e-01 -4.520761172682459805e-01 5.229284857377947127e-01 4.975055095677110573e-01 5.735106004672764213e-01 1.178864246802927562e+00 4.785798903372738833e-01 6.982945027697017304e-01 5.227146834797394837e-01 4.945608146116928922e-02 -4.529565207540269256e-01 5.438166897991741910e-01 5.230560297771957856e-01 6.875953381361966654e-01 5.158209225936776221e-01 3.813569098833448079e-01 5.251074730635607590e-01 5.187834546699779947e-01 4.212487902960226904e-01 5.419431135133725430e-01 8.416328777375073900e-01 2.607806967892052352e+00 -2.527573654977765538e-01 6.551421446515628411e-01 3.522453828024487699e-01 1.982317135352899273e-01 6.488511885399440571e-01 -5.439637923077817599e-02 -1.606931436574658756e+00 4.998860396076816870e-01 2.670737611282216761e+00 5.921274194381263012e-01 1.727289948458551050e-01 1.520730064850059904e-01 5.049437613387874890e-01 5.938354439951365471e-01 1.592346514325845508e+00 5.239525839211776059e-01 1.259006234287684822e-01 4.112488617029176896e-01 1.752097536730222727e+00 5.948537533370722441e-01 8.005333683857839278e-01 5.155348513685652501e-01 7.377003672573259063e-01 4.670267293157125410e-01 5.844269102119258319e-01 2.820786586888487588e-02 5.207335909308047350e-01 5.895076901762615895e-01 -5.880370150914381311e-01 -1.115728857739717306e-01 1.184771530406065088e+00 2.409608827405964049e-01 4.780108398106511225e-01 7.254756522301407662e-01 5.095010773545680660e-01 2.028411636443906652e+00 6.550741796847019405e-01 1.482164952819388197e-02 3.844862239543883065e-01 3.993513220688013066e-01 1.149327101297164866e+00 5.028740918668415105e-01 -2.300962768650813978e-02 5.195827787155811173e-01 -5.099421315982371160e-03 5.091220872384424334e-01 5.242115914744667204e-01 1.419236303314301562e-02 -1.860453563089931386e-02 6.586127795793396134e-01 4.877058457859285712e-01 5.896138686175268484e-01 1.791107644600354043e-01 4.022455322681607326e-01 5.322446010896882962e-01 4.431801622425398102e-01 4.872143642916669792e-01 4.798914003552126051e-01 5.755501768103494786e-01 1.022199912441832836e+00 3.193899537798559507e+00 9.699219758722467111e-01 5.316861276235900213e-01 5.517808741517723492e-01 2.194340245140164181e-01 5.185139244758446564e-01 8.621982164902696200e-01 5.112091336609601022e-01 1.317264974625369733e+00 5.144358578818835070e-01 -5.970109644084122813e-01 -2.106829198342050416e-02 4.317966101116438860e-01 6.163868683959020656e-01 5.800569330961795611e-01 5.190205337537497909e-01 5.837567357423225495e-02 5.164191138665775727e-01 5.527417132731273774e-01 -3.870468677505877420e+00 4.781031806308788656e-01 5.261281783705178405e-01 1.142553771018516073e+00 5.248610438282237389e-01 4.066621616809081852e-01 6.681039647253603775e-01 -9.194588856042663627e-01 -4.979035800885648899e-01 2.184521476881349025e-02 5.204723642117383697e-01 6.119075831730762527e-01 2.094385335691643923e-01 5.109801618450350302e-01 -3.483474350193188074e-01 5.433690213612492048e-01 5.634536895005934909e-01 6.970424117385954910e-01 5.564620826286649224e-01 4.662504060421492902e-01 1.427972869131777511e-01 -7.911982822899318313e-01 6.546437964517715091e-01 5.629720465807792618e-01 1.536771872936741334e-01 5.203899142729626615e-01 5.123486869642828179e-01 5.141999800728304093e-01 6.648966712362125442e-01 5.823162910132658743e-01 5.514970961688965279e-01 5.049062837332859432e-01 1.866325854001638085e+00 3.481645899377269759e-01 5.291544314347750300e-01 -1.406031186330259364e-01 5.140364890961884869e-01 6.442913505619777270e-01 5.360157198824160307e-01 4.814663063966783674e-01 3.758081810863508343e-01 9.616902933124621411e-01 1.231193491786921390e+00 5.535802208322024853e-01 5.840125773095414807e-01 5.971777878511689286e-01 4.999556959716255355e-01 5.263365172365185307e-01 5.219421665887783446e-01 9.768486503014861544e-01 6.773784907183887372e-01 -4.670020485966320800e-01 4.673902251805653330e-01 9.002257317825456129e-01 5.136393028619042900e-01 -4.103597879040704610e-02 5.273328060302633347e-01 1.529159762104121301e+00 -1.381084881800469233e-01 6.625128180619972440e-01 2.332811771939094503e-01 4.732279815311002946e-01 8.758628688428015119e-01 5.238622960647377758e-01 3.747550646412446396e-01 1.414054444662195875e+00 4.699821252940521443e-01 5.150997251071157690e-01 -7.189329996290648728e-01 4.397864288848637448e-01 1.038904738106314340e+00 6.279059763402266015e-01 6.401001981237734728e-02 9.967413193833269958e-01 -1.382910113772299956e-02 7.445611534420613076e-01 1.664630593083909815e+00 -8.694488904342617674e-01 5.741835252557315750e-01 5.219269214847673810e-01 -4.851178196415776300e-01 3.012433743831010591e-01 5.627829448314768390e-01 5.202713663832400082e-01 4.721749922801029009e-01 4.385072623688714422e-01 2.626187645521065317e-01 3.498300298673237552e-01 5.738913949925360525e-01 5.254444889989443590e-01 9.384694115588301799e-03 -1.653441308608170068e-01 5.079102668488333361e-01 1.069893990469533263e+00 5.538162197561502520e-01 -5.875378727549610547e-01 4.360402810449867106e-01 5.223285858300724671e-01 5.673127456164490656e-01 4.800376032791286995e-02 3.236345342228865163e-01 5.244916530504268870e-01 5.231367354911486967e-01 4.538191861631044599e-01 -1.422782657254575457e-02 5.547263113365935583e-01 5.349527513995153694e-01 5.676706201853416456e-01 2.113866375826580768e+00 -1.588352131077076443e-02 3.900285427723790832e-01 5.730444506905395530e-01 1.861704521607215446e+00 4.834383223902398163e-01 5.629222243039270213e-01 2.890325863299186490e-02 5.663224887972617694e-01 5.246691823914910735e-01 4.780616509329035368e-01 4.036683598042622445e-01 5.330667438063227959e-01 4.393938538420953943e-01 5.259603468245118707e-01 -5.671495738188082614e-01 5.244512867086958963e-01 4.982167975163208085e-01 5.243405934779569177e-01 1.281544700869357012e+00 5.170874513260943495e-01 -2.500787857641509349e-01 1.135917096204663412e+00 -1.328969988875191577e+00 -5.486990293971011345e-01 5.385940478641897400e-01 5.228884178844697139e-01 6.683841444771811968e-01 5.192825381673018548e-01 5.201681499944426079e-01 5.009810173429724012e-01 5.663224812184940449e-01 5.201696062929815900e-01 5.251184379230748878e-01 6.054743514391200954e-01 5.201512100402782002e-01 3.231757992607087182e-01 5.259479167281138068e-01 5.397080394440162410e-01 4.119932688315574021e-01 5.174922315348162716e-01 5.172653168601094587e-01 5.128228925329733068e-01 6.542193864638158329e-01 5.224165670733880162e-01 7.251966550489106211e-01 5.182139699139259870e-01 5.354945325940274614e-01 5.366006830045068066e-01 4.270895371301728360e-01 3.524912054760922508e-01 2.488949711673837051e+00 5.207962384072321038e-01 6.320006614246221899e-01 2.965208259237215316e-01 5.780461548409921990e-01 1.122908163683193017e+00 4.157640753320228089e-01 6.880379549663341310e-01 5.229749765400535377e-01
7.178436453651482196e-01 2.932837586513131756e-01 4.536112905464890765e-01 -3.822774488733315240e-02 3.060484498850960522e-01 4.001227324901683313e-01 5.396510539206299528e-01 3.857289318011540846e-01 3.838186387033906688e-01 3.208355873648450762e-01 2.088355945646293232e+00 1.741022216962878622e+00 -1.481478608430995214e+00 5.797490385094388188e-01 3.113418023206996899e-01 4.656640437685909406e-01 1.369575938860373154e-01 4.503689980090654355e-01 4.021625971284679135e-01 3.145931740558264300e-01 4.064608414706447070e-01 2.161979305942150376e+00 3.482734222589640161e-01 3.402510321103486834e-01 7.564534459514091758e-01 -1.622439723815906620e-01 4.004461906346587496e-01 1.830654857146319925e-01 3.132991052906037299e-01 -9.388410097602581939e-01 4.560456952197408098e-01 -1.645455315918044337e-01 2.894189748212415147e-01 3.089418340552298470e-01 -4.083230442898089785e-01 5.055761402600664756e-01 3.339708802521926811e-01 -4.003281088403756183e-01 -3.323600227804841101e+00 3.278220323627454857e-01 1.208510095957816777e+00 1.471221455154676783e-01 -1.697487822764182086e-01 7.914333207069284004e-01 5.461320910980702603e-01 3.160059868698752439e-01 -3.791061537885729443e-02 3.143293285987407426e-01 1.256295215317189684e-01 6.541497727909845183e-01 6.941777464169701650e-01 5.093186961180831140e-01 -1.371956541175790023e-01 2.485081878325081650e-01 5.889919513250909677e-01 6.631046224496893737e-01 2.879198944367738489e-01 2.629889620673122597e-01 3.447867094140653621e-01 3.041554061897642214e-01 4.347160253228768423e-01 4.375823331887563894e-01 3.445513314235559288e-01 3.482734395139031602e-01 -3.406562191996529987e-01 1.161675721240448128e-01 3.135488262299304107e-01 3.060764643408152574e-01 2.546603945394957935e-01 7.001904500145865740e-01 1.723807126405244028e-01 2.490830559550164525e-01 3.035581395136358607e-01 7.209562446360878729e-01 1.953275594133544013e+00 3.992494193294525151e-01 4.794542079368646070e-01 4.830465033991400148e-01 3.078318810221234436e-01 -1.363341531267675322e+00 3.252982938233272558e-01 5.265827278662329469e-01 2.416984287403762366e+00 6.514741527983948510e-02 2.455887378124815279e-01 -3.444474095781290268e-01 1.447676847206521844e-01 3.399949707989607939e-01 -5.860626538007797093e-01 -9.172965997774301661e-01 5.461513768761129262e-01 1.621035169559241540e+00 5.040630518287823186e-02 6.813363928006167525e-01 3.709709698520278764e-01 3.521144425950818446e-01 2.760428671980088566e-01 7.905520144033429952e-01 7.362766093050899796e-01 -1.550522272983329841e-01 -1.837723237498249118e-01 5.651821307578516057e-02 3.368073122576223377e-01 2.199656313087355042e-01 -6.547856907230860390e-02 3.186443866933135194e+00 -2.972387107644017257e-01 3.736932550451448343e-01 7.195762554660573018e-02 8.125385084277673142e-01 2.834139977580583669e-01 5.346646655359689193e-01 1.618109543284152740e-01 3.481528762999994697e-01 -4.708925260298331139e-01 2.966123068482346969e-01 7.884156825755705977e-02 4.010895010904067526e-01 1.201470813490548961e+00 3.438652615410495716e-01 -1.481757659311562891e+00 1.145456942086584828e-01 6.481520932309556282e-02 1.498027353727903854e+00 3.143735091370614132e-01 2.214575126336688182e+00 3.965945960964937789e-01 2.001115802563683266e-01 3.151895025401375561e-01 3.127306093808088772e-01 3.438413897154246612e-01 3.034999410676487153e-01 6.700413942752057039e-01 4.095784893818665839e-01 1.582672053470557949e-01 8.532089196328517255e-01 7.309208536285951574e-01 7.031057647345086981e-01 -3.419040787802038461e-01 2.288311953741661575e-01 3.052300729162143456e-01 3.221971255809245038e-01 3.637639412311394760e-01 2.690697489023469169e-01 3.045976954871827402e-01 7.011339344486887670e-01 -1.873614554154761080e-01 3.194492281714927384e-01 4.166574255581227959e-01 4.045358319339399378e-01 -1.886983752824807625e-01 2.947565618120449177e-02 3.160141499647057262e-01 2.987983811936131828e-01 2.708225446633106270e-01 3.080813306141800823e-01 -2.526780836370270844e+00 4.717608839402011034e-01 -6.117913298138685230e-01 -1.578757620882035029e-01 1.342145788187284472e-01 3.971630124726038269e-01 3.120973739042814943e-01 3.070590394076905261e-01 1.322324785106770151e-01 1.254980521612415467e-01 3.207976850915000289e-01 4.950039211396537464e-01 4.707187488297900901e-01 2.691780110613811172e-01 2.384727968006736809e-01 -3.760258351730687287e-02 3.159213764977190086e-01 3.098686080645239316e-01 -2.547660109278475637e+00 6.670160946345805586e-01 5.670833402022473768e-01 9.293618724829062483e-01 -4.615593053902447562e-01 1.175374958344246323e+00 5.423075896053783373e-02 3.169531950939331599e-01 1.248787155279038830e+00 3.726451115453928153e-01 3.147444100556335278e-01 3.440196052145141348e-01 2.749428182815444321e-01 3.283893383003346766e-01 -5.055244289022718940e-01 3.444256485394704970e-01 3.460963119300782265e-01 8.273615239310839753e-01 3.373092778556578408e-01 3.708400190202146840e-01 2.522534002396553676e-01 3.098052198454890882e-01 -1.705314476282139724e+00 3.086774504179011225e-01 3.690151520327691892e-01 2.560300852128552518e-01 3.007610991983855273e-02 3.882891673592546167e-01 3.910190380348942951e-01 1.541155019348036115e-01 -7.529602682519918044e-01 3.690151587627978347e-01 4.966486380208584017e-01 -5.267075504853335755e-01 3.312151410412460528e-01 2.365598583801972743e-01 2.273734458725502894e-01 -3.323317639424992365e+00 4.163221348767287555e-01 9.099980911643061887e-01 3.021404083386633466e-01 3.057062614453331384e-01 3.059924932704088385e-01 3.342470483794975356e-01 3.093194637443372197e-01 3.029920132903828334e-01 3.795616125984657141e-01 8.498890676860072768e-02 6.738406267466743316e-01 1.081830768085043082e-01 4.353189730953860304e-01 5.324617619237494992e-01 4.127469206494667198e-01 -7.127374034271947156e-01 2.345668849693312463e+00 4.116559464200721385e-01 1.255253491590869075e+00 -1.405011150621382487e+00 3.080553517747766090e-01 2.800437303173775039e-01 3.451993196191769919e-01 1.198715956216212630e+00 5.307081451240169834e-01 8.386828862377079252e-01 2.895704664012262453e-01 6.658956967583982145e-01 2.206519957079489946e-01 2.871713469367299099e-01 -1.197697013801542365e+00 4.211379927743817975e-01 3.096139133870992044e-01 5.058186079391892020e-01 8.720648471562958415e-01 -3.864351588659080683e-01 3.241033647695769293e+00 5.006818653649508510e-01 1.315508316369655262e+00 -3.094935382257237300e-01 3.019047774163013953e-01 3.482729510193622313e-01 3.570928122569641538e-01 2.698936944847414865e-01 2.837372441639145482e-01 -1.618262660156932486e-01 8.654953857361612213e-02 5.629090642347194251e-01 2.340536922327407787e-01 1.051783912462249948e-01 2.397822785542610691e-01 4.931809533245944399e-01 4.347159889893342788e-01 2.563980020263996740e-01 3.315792196655179325e+00 3.389576784500057394e-01 6.505133536947207418e-01 5.193009257304462833e-01 2.617024433861454558e-01 4.352129588806778471e-01 3.105461130508668788e-01 3.004134028247125165e-01 3.070904249073493353e-01 -6.318782997914438315e-01 4.110598984346724993e-01 2.851038142568299016e-01 1.475608889351087694e-01 3.487426232804627380e-01 1.559084587529634414e+00 3.719335676069454033e-01 3.238430894037032659e-01 2.015219935131831175e+00 5.126990370191614188e-01 3.017908946722243080e-01 2.867177914516351178e-01 2.964374081623200596e-01 2.966123103336023581e-01 -2.078914415788316816e+00 3.382720121937939917e-01 1.607247798856938026e+00 -9.182340610425708538e-02 3.565743071736082181e-01 6.599230089578428382e-01 3.390471566336182296e-01 -7.336065440049759356e-01 3.603635982837140594e-01 3.167786698623034636e-01 4.166752845028522390e-01 -4.061935529060072270e-01 3.141339132958936853e-01 -2.376955019515330392e+00 -3.726324520885943015e-02 2.972521788099266593e-01 5.966547662772241356e-01 3.070448872868264401e-01 3.082262869115042769e-01 4.959367216517626686e-01 1.662066805178297746e-01 -7.657501745220306189e-02 -7.782223911030270447e-01 -4.492479096982726280e-03 6.882486895388191250e-01 3.001917090260089460e-01 4.981663118210148400e-01 2.874639712912196998e-01 -3.742386339809486429e-02 3.124888790898775470e-01 2.486907626176660280e+00 6.793820890384175692e-01 2.472467302400607470e-01 -1.187685661548918192e+00 2.426881150717749291e-01 4.804291879320468972e+00 4.111967954278434312e-01 -1.947202214295170597e-01 5.721884206374345805e-01 -5.711784652951393149e+00 5.344113461178163771e-01 1.585647964045209690e+00 3.047731373615004125e-01 5.232171042086820600e-01 -4.563689210652848716e-01 4.298786685833532739e-01 2.508975450426640386e-01 3.381828530005108191e-01 2.128167344458297694e-01 3.003522023922106765e+00 -3.845098337567788294e-01 3.031414003124235368e-01 -1.941576439134308218e+00 2.870455454236719439e-01 -4.003281091664712132e-01 7.602131227132535862e-01 4.941493119249073529e-01 2.594976350835716539e-01 2.841848014550223400e-01 1.262518590363291393e+00 1.587401513687399235e-01 3.690152489980245143e-01 4.211407345570590266e-01 1.541154945450811109e-01 3.772642164938472265e-01 3.856761290087641902e-01 -6.258610794641967789e-01 3.100587868531814451e-01 5.626183168768006393e-01 4.056285907713005345e-01 1.798786511862046633e-01 3.042123764577824852e-01 5.100674072940436510e-01 4.941494115848918955e-01 5.057666856819191814e-01 3.053835512192239476e-01 1.643089773396357034e-01 3.775700080244835943e-01 3.531379157288244475e+00 2.952337749485514640e-01 1.041589296332109671e-01 4.347149279559299195e-01 8.364041524648361259e-01 4.700810547997282818e-01 -1.934576863734003560e-01 6.879710507451610724e-01 3.507058953842250859e-01 1.276188071528577828e-01 4.240224368001967448e-01 6.814245888397478801e-01 5.295856691542661920e-01 7.983055651612581682e-01 8.236876298157260745e-01 2.429705228645836490e-01 1.541155020066550252e-01 1.541154540301285236e-01 2.599413895873359803e-01 2.211931155547509076e-01 1.119633028768534766e+00 3.869380962531632218e-01 2.991975047936065168e-01 2.693016232390379461e-01 3.057467092878734527e-01 7.454236628554052890e-01 3.690147071416541302e-01 3.087859390578764351e-01 4.212614592770319577e-01 2.004807657170722957e-01 -6.423146073761567543e-01 2.897063621920388243e-01 3.062264586678812850e-01 3.702839000725363094e-01 6.679208493508250744e-01 6.635534697796137138e-01 1.541155031960074751e-01 1.379655153226642117e-01 3.048661107253723968e-01 5.149364642798094360e-01 -5.959062635153208332e-01 1.729664630640958545e-01 -3.590256348411188014e+00 2.034521608756297617e+00 6.297919649317968993e-01 -4.861507456265082294e-01 -3.831138217861743134e-02 2.090781809018575021e+00 3.237454066835157018e-01 6.526186666446601725e-01 -6.160042509344174078e-02 3.980983541506555867e-01 3.965236525261199296e-01 3.103565340460285871e-01 -5.572779156079754603e-01 3.622885337380102877e-01 2.097368179123701992e+00 2.204734788174990967e-01 -4.649648043635427053e-01 2.932593036719335911e-01 3.077425314963169733e-01 -1.467563574338090371e+00 2.857416557307712046e-01 3.718338001048561159e-01 4.035740443637116925e-01 1.130936638429594632e-01 3.108078663118283291e-01 2.166988066015395342e-01 3.184412699348720954e-01 -1.613760980481690754e-01 2.992314482363753192e-01 1.081202730953400026e-01 3.012467701132137687e-01 3.045500966390882192e-01 1.173006082965314528e-02 3.740565198706750638e-01 5.003089548777610585e-01 -1.426981365638484434e+00 -6.735905058556361791e-01 -1.199627490517213430e-01 1.464197867392445784e-01 1.559949769336547165e-01 4.359706398774532699e-01 3.584850573883325286e-01 7.124635421747741448e-01 -1.421548574084103844e-01 3.347175160943381966e-01 3.033385314297304403e-01 9.602102598229951547e-02 -1.616766175868469824e-01 2.724156348683085538e-01 4.622863357880175883e-01 4.800673997773420854e-01 3.491889846358789962e-01 2.921128985194225147e-01 3.084013425714177692e-01 2.443983938987983051e-01 3.093716334120049649e-01 4.847939787871746731e-01 2.522104269556261213e-01 3.068391146195451058e-01 6.877554992531746958e-01 3.234911413640681466e-01 7.162695012978647080e-01 -2.181549917679564965e-02 5.770181517580649233e-01 2.961734820642855648e-01 -1.475870859039724037e+00 3.118364124011660521e-01 6.320732769321460998e-01 3.481931864974963098e-01 3.383385508149018284e-01 3.433042509831207845e-01 1.660646886314683934e-01 6.852820784399594745e-01 3.084687314801110025e-01 4.282151307456084077e-01 3.076924446256264489e-01 2.735701890299556682e-01 1.778364768891390613e-01 4.756618498782546611e-01 3.170897458551587000e-01 1.654798460230073043e-01 3.190942714214916459e-02 1.076760111467400111e-01 1.671217177129802778e+00 1.631774033537975732e-01 3.373246800307057036e-01 3.912051282521955553e-01 -8.690316612941392238e-01 3.058319382290200505e-01 2.252532376807026282e-01 2.765360080732812698e-01 -9.130047877243849253e-02 2.664221641478001779e-01 1.700135522849079317e+00 8.953477587778955193e-01 4.709119877878817917e-01 2.705803966139932459e-01 3.164314059629785847e-01 3.464768483757772466e-01 9.349445026598907083e-01 3.097949059320751708e+00 3.079961335325140381e-01 1.284781544260709361e-02 5.845038934237920536e-01 -2.419286671959096358e-01 3.062369285177091727e-01 2.973024887161282437e-01 1.089017449603717935e+00 3.105420699107250271e-01 -3.468708071902781853e-01 3.913524308010596364e-01 1.393237515575198038e-01 6.171264386798713808e-01 1.865683203479433727e+00 2.494634788712707107e-01 2.831447359142573172e-01 1.675023363449574365e+00 3.897668484977634407e-01 2.450709106435474682e-01 1.508010994919147529e-01 1.813982499814364158e-01 -3.769962571074862712e-02 5.240567940030795846e-01 2.455709242687274807e-01 7.136056034241463619e-01 2.806128101074004677e-01 2.033021789389827805e-01 3.310061097263871654e-01 3.608097082506946385e-01 4.363506440449740342e-01 2.641114565954278404e-01 8.786424523731968250e-01 5.182052455691625870e-01 5.113598578829328112e-01 3.231352526883661258e-01 2.392406979803057554e-01 3.024481747990640512e-01 5.934457700146507086e-01 7.806216137634265362e-01 3.723074942962820155e-01 3.282909652728470129e-01 5.987215029026961011e-01 3.035139719744304188e-01 6.951353830112522170e-01 3.344493883169245563e-01 4.813726297848916480e-01 -3.047952734103497874e-01 3.099353597243522107e-01 3.331174592285801594e-01 4.535222390751435517e-01 2.095885377844353969e-01 3.582531086179947533e-01 1.828773264004102783e+00 2.332810347090030160e-03 3.391208987002531372e-01 -2.215934529409941678e-01 1.689095931124468652e+00 1.164290891819729667e+00 3.720940784921871608e-02 -4.401917130786835441e-01 4.458253961689263023e-01 2.744768719516512134e-01 4.852150581876344404e-01 3.088659492593123224e-01 3.021260918399712447e-01 2.315700999416469008e-01 3.334796882054085754e-01 2.695683022050720523e-01 -3.823115240568475404e-02 -2.352793289545945798e-01 3.104811854118445513e-01 2.275715805367855005e-01 2.520892693056078215e-01 8.832890645876966262e-01 4.347160066999905537e-01 3.210443728088271387e-01 8.599580649125848630e-01 4.752171601982367322e-01 5.459580881219774362e-01 4.541210215510584347e-01 6.998668043244780090e-01 1.484970507835428721e+00 3.973273391283222433e-01 2.127529157181546005e+00 -2.232069859365734196e-02 1.577348825775677366e-01 3.066511717691356442e-01 3.384897775340574011e-01 3.830798625176433103e-01 2.691955529630450372e-01 2.976546895011129568e-01 3.052891828073770464e-01 3.705540896283813779e-01 2.244041122191798299e-01 -3.574269375883761812e-01 2.922985577183124239e-01 -5.635246797148725506e-02 3.046625406370394584e-01 4.167136191722505267e-01 4.347160066654980337e-01 2.329153087029995906e-01 2.287327807475310892e-01 -1.300399454805218902e+00 1.989430805804629721e+00 3.074321623524856051e-01 -7.600083278645267670e-01 2.968452212473456919e-01 3.336506446776564272e-01 3.106570798979068071e-01 -4.867852226550541950e+00 3.590993687077129959e+00 6.352254938505574877e-01 2.130161044909538448e-02 3.288607092280292910e-01 3.120736458290045978e-01 2.553008966883028585e-01 2.663096053703028154e+00 6.316707184791712226e-01 3.191345766891653946e-01 2.966121828265919080e-01 3.083953820828905235e-01 3.397478668124114809e-01 8.552743215688827227e-01 -3.727091815775336880e-01 -1.232686656874314224e+00 -1.240647874516748850e+00 3.084673216313397748e-01 3.116601911505408884e-01 7.409879390005806865e-01 3.665896856153639249e-01 1.500631500556241837e+00 4.918571758864120347e-01 3.045592652714594339e-01 3.371540243524295266e-01 3.083670690650560098e-01 3.449037950437484068e-01 3.036862356577239574e-01 6.384534131207649787e-01 3.032545104160179750e-01 6.613604098142624732e-01 2.345930827518123984e-01 6.280344578792336485e-02 3.034288319403031231e-01 1.776670483638431441e-01 2.641756074853869873e-01 2.792609097033778021e-01 6.309912011280964794e-01 4.941493408057596737e-01 2.714899691300516338e-01 2.391135736966556458e-01 3.041017180733992520e-01 2.760224259445174244e-01 1.700158934648969167e+00 1.942936456961466218e+00 3.041589556737418487e-01 3.226048096455875758e-01 3.106651721671167543e-01 1.687325964152101287e-01 2.217606484619667750e-01 4.197806111960734610e-01 2.986421412582513368e-01 3.285567486110464452e-01 8.107266446644132429e-01 8.970063074921004187e-01 3.076577340717772113e-01 1.895187543197710989e+00 3.563580359626893346e-01 -2.758474775589374595e-01 -2.709081222117305510e-01 -3.032731081186625932e-01 3.054603258390636844e-01 3.394409459617275804e-01 7.104060903908876456e-01 3.133465897720672522e-01 4.440930250467242102e-01 2.829925937162320326e-01 3.183657557565935936e-01 2.697598239505656359e-01 -6.661490776701201044e-02 1.008678020493082084e+00 3.094009406892296310e-01 3.309132337827203063e-01 3.012651763945615735e-01 3.500153032410242004e-01 3.342686123796092534e-01 3.971900445111249955e-01 -7.911589489959533483e-02 2.221823037250914568e-01 2.789487021384471355e-01 -3.792780446198158739e-02 4.347162661791049154e-01 1.095176817853532159e+00 9.727205780801605473e-01 -7.194624637072964957e-01 -4.003281088381250297e-01 6.612431893374534075e-01 -3.383367672430496409e+00 1.584509972921444909e+00 2.907692048931670437e-01 -3.857532776684440001e-02 3.110405751055310142e-01 9.068502462173916312e-01 3.118416134293053310e-01 4.211379683844545530e-01 -4.385505736116928621e-01 8.152152923945552576e-01 3.144925073280634420e-01 8.590474170472902626e-01 2.115884055445517387e+00 -3.727636059211099639e-01 -1.487356240545562480e+00 2.526739201523586220e-01 3.052383594761570729e-01 7.484863322646476691e-01 2.739841085047510227e-01 6.995694375605966409e-01 4.691034176243667475e-01 3.242158622341198004e-01 3.093366358593670484e-01 3.103011668724298677e-01 3.084600924404287126e-01 3.112949009067890738e-01 1.437608574713076903e+00 1.670203054861132408e+00 3.149479583980542285e-01 3.497337984755816698e-01 2.409703145051413642e-01 -2.503129902250484373e-01 2.288462769408833308e-01 -5.751720080525378476e-02 3.078346657597729741e-01 7.041362764428026333e-01 -5.583303847474665460e-01 2.831615563930677815e-01 3.078161547058015368e-01 1.549846269836253621e-01 3.348181006394945203e-01 1.849309666011038078e-01 3.064499405995193548e-01 3.066470726697324012e-01 5.618751892216905519e-02 3.001642012273252336e-01 4.327875404010564919e-01 1.136356247884565018e+00 1.111392841617057980e+00 9.117517516070163808e-01 2.146173626618255725e-01 7.940722338683816606e-01 1.592342076211004653e-01 5.041106828486915381e-01 -2.187422882831894899e+00 2.964335193577050664e-01 6.633003856608908899e-01 2.968953552719913458e-01 9.453057730144065474e-01 1.382285357067195131e+00 2.966123126022254253e-01 2.416674885329251066e-01 3.760273710542034742e-01 4.112443454683310518e-01 5.478306679801823176e-01 9.610123908383717550e-01 -8.208143361353361644e-01 2.624302138914003657e-01 2.300065414916659112e-02 3.066474884679445956e-01 3.404480088612403255e-01 7.616859223536195378e-01 -2.729137820692565941e-01 4.114966198662508567e-01 3.105287081909381963e-01 3.610594420391600723e-01 8.955965825677125736e-01 4.341145436570052474e-01 -2.228420002384510490e-01 8.580167115397435706e-01 -3.573195591366034457e-02 5.602194175010630772e-01 3.374246823960308506e-01 1.298643940825129572e+00 6.006820011755947819e-01 7.123667958813911794e-01 4.335902816212821587e-01 4.829886762881764328e-01 -5.918373957513309858e-01 2.220846852889446776e-01 7.498818109657549025e-01 2.973161690568598692e-01 6.072488411103822425e-01 3.218450747209181673e-01 3.040291463925178239e-01 7.125254133398013501e-01 1.659142958386420619e-01 -2.073888511111842803e+00 2.070721862288965875e-01 2.501434460922589698e-01 9.346601258103057752e-01 3.372032910754513280e-01 3.485982181616187892e-01 3.819392532663594686e-01 3.101363728060489988e-01 4.045049472503801646e-01 1.091846208958841963e-01 -1.635417047297742066e+00 7.659017828578461584e-01 2.408484579722699470e-01 3.221502617968365345e-01 2.540738984951898538e-01 8.189655293298242489e-01 3.032714377046048515e-01 -1.576177041307244842e-01 3.528457061330498856e-01 1.126680119123562029e+00 2.930154906009228011e-01 4.165956695362988405e-01 1.039148611596259153e+00 4.256886395892294228e-01 2.854766732245470173e+00 3.216902879868397402e-01 3.302032468098869411e-01 7.139709966233152016e-01 2.865722033181553052e-01 3.349633239546122021e-01 -2.182356847246749609e+00 4.590589338009946063e-01 3.031744699694794432e-01 5.197844784730227818e-01 3.112953715488748774e-01 1.911311609556100299e-01 -1.682542178586539650e-01 2.086509383398956086e+00 -5.179179025518318991e-01 8.246126029129869917e-01 3.081687554608313895e-01 3.105391248970523765e-01 8.531344295204489336e-01 2.783599493582109563e-01 1.348500474422585693e+00 2.315286479351444937e-01 4.074960808421368430e-01 -8.877507958457263593e-01 -1.297211165205854611e-01 -6.058675264707074071e-01 -4.079193226544687079e+00 3.009585963118906804e+00 1.871262357840966159e-02 2.818366512384803402e-01 -1.670658119837070466e+00 3.075059621982439984e-01 4.437177304673109446e-01 3.259535373926257251e-01 1.862457923987929087e-01 6.432106121244385299e-01 6.046274093464703014e-01 1.102025643208641714e+00 -4.003281103961554011e-01 -2.385071110156639640e-01 2.591167757114980486e-01 -1.199570611393348640e+00 3.361338157726874720e-01 -6.600859411140823640e-01 2.950396142253369214e-01 4.415570705684817021e-01 1.184690445226795202e-01 4.600537856094307210e-01 2.618112395712687834e-01 -1.102886944214013891e-02 2.609713909309592239e-01 2.821162489471893964e-01 3.671997726936077067e-01 3.209758663152419977e-01 3.036245821935662503e-01 -7.193236372076264873e-01 4.631133132197082225e-01 1.549233993645696916e+00 7.788454694796860533e-02 2.350497979547234717e-01 2.413135592984368971e-01 1.203009142259844344e+00 3.321071837135708416e-01 8.788139117556842406e-02 8.835301893951418295e-01 2.289012621297037420e-01 1.892734349321436582e+00 2.887207562455432197e-01 1.372136352580449747e+00 3.048484532571364425e-01 7.339035200394212755e-01 1.359209476556909824e+00 4.037213138143638247e-01 2.693372007610794761e-01 9.524154725196845028e-01 -1.833225070008486224e-01 -6.834034149616262377e-02 2.522848190463593543e-01 3.066111991739652320e-01 3.649680464990502915e-01 1.459308680334719943e-01 1.070116240161567284e-01 -3.888127056537669657e-01 1.292142741125673622e+00 2.989231146631953218e-01 3.040066701567665230e-01 -3.268786274962777405e+00 5.646653397381693473e-01 2.161236389020095849e-01 3.438647488753560633e-01 3.650301914537604220e-01 4.224866149439996943e-01 -1.128217382147480574e+00 6.350584941828630869e-01 2.965860256586325128e-01 3.045366742720830855e-01 1.018547745594397869e+00 4.696094838631161839e-01 3.147831975909887725e-01 -1.421789867411234809e+00 3.493270810470120447e-01 8.957483322778871937e-01 3.677459108514831154e-01 3.084827408443888141e-01 2.879492847790532939e-01 7.104792907994792461e-01 -4.382115707907543317e-02 3.051796578689486839e-01 3.081308564495680025e-01 1.020614142911419192e-01 6.664168014896310055e-01 2.424957118574112558e-01 6.855770274449305424e-01 1.878195776350328750e-01 6.943212600098210840e-01 -2.504556009066316591e-01 -1.513019322577851877e+00 2.814902196952646651e-01 -2.151071504592505512e-02 2.699408207822962535e-01 3.506754592934803183e-01 5.601854147523425975e-02 4.941494278650279681e-01 3.134816683898991041e-01 8.421339743042766113e-02 4.220909504501419995e-01 3.364751591882408355e-01 2.829631064039495048e-01 3.430155166372615416e-01 -8.676911372113264020e-01 3.000208878850672001e-01 3.244827802750884227e-01 2.804071628091841517e-01 -3.444301136767863869e-01 3.128330405908251732e-01 8.409343856041467946e-01 -6.237619745018808670e-01 1.140607645481011012e+00 6.214949560906279924e-01 3.259372901272808432e-01 3.043013795997418502e-01 -2.072672104565403739e+00 3.040864396520457369e-01 2.602346231064922577e-01 3.239748214676091975e-01 4.941492886567575571e-01 3.093586616183602311e-01 3.473848762733632300e-01 5.426912529474740149e-02 3.041842914274879850e-01 4.330055772088775567e-01 2.851767101816758410e-01 2.369464438008675455e-01 2.815594977381953856e-01 3.051363697124860885e-01 3.133256050902049616e-01 3.403045446322022771e-01 1.404779807291625104e-01 3.098504672564875162e-01 6.298156217747875596e-01 1.555240297203206723e-01 3.131520859153175129e-01 -1.510932777008165695e-01 2.004103901285937683e-01 6.506442080104598569e-01 4.588510413613084538e+00 3.297174359204517735e-01 6.295874521696465109e-02 5.722266470823034190e-01 1.746425802852481779e-01 1.574288471609021078e+00 3.261200268607195585e-01 6.308776902587878155e-01 3.023370993571025678e-01
