# 
#                 ----------------------------------------------------
#                 Data from a 3D direct N-body simulation. 
# 
#                 rows are i-particle; 
#                 coumns are :mass, tag, x ,y, z, vx, vy, vz, ax, ay, az
# 
#                 NTHU, Computational Physics 
# 
#                 ----------------------------------------------------
#                 Time = 0.0
0.000000000000000000e+00 1.000000000000000000e+00 2.000000000000000000e+00 3.000000000000000000e+00 4.000000000000000000e+00 5.000000000000000000e+00 6.000000000000000000e+00 7.000000000000000000e+00 8.000000000000000000e+00 9.000000000000000000e+00 1.000000000000000000e+01 1.100000000000000000e+01 1.200000000000000000e+01 1.300000000000000000e+01 1.400000000000000000e+01 1.500000000000000000e+01 1.600000000000000000e+01 1.700000000000000000e+01 1.800000000000000000e+01 1.900000000000000000e+01 2.000000000000000000e+01 2.100000000000000000e+01 2.200000000000000000e+01 2.300000000000000000e+01 2.400000000000000000e+01 2.500000000000000000e+01 2.600000000000000000e+01 2.700000000000000000e+01 2.800000000000000000e+01 2.900000000000000000e+01 3.000000000000000000e+01 3.100000000000000000e+01 3.200000000000000000e+01 3.300000000000000000e+01 3.400000000000000000e+01 3.500000000000000000e+01 3.600000000000000000e+01 3.700000000000000000e+01 3.800000000000000000e+01 3.900000000000000000e+01 4.000000000000000000e+01 4.100000000000000000e+01 4.200000000000000000e+01 4.300000000000000000e+01 4.400000000000000000e+01 4.500000000000000000e+01 4.600000000000000000e+01 4.700000000000000000e+01 4.800000000000000000e+01 4.900000000000000000e+01 5.000000000000000000e+01 5.100000000000000000e+01 5.200000000000000000e+01 5.300000000000000000e+01 5.400000000000000000e+01 5.500000000000000000e+01 5.600000000000000000e+01 5.700000000000000000e+01 5.800000000000000000e+01 5.900000000000000000e+01 6.000000000000000000e+01 6.100000000000000000e+01 6.200000000000000000e+01 6.300000000000000000e+01 6.400000000000000000e+01 6.500000000000000000e+01 6.600000000000000000e+01 6.700000000000000000e+01 6.800000000000000000e+01 6.900000000000000000e+01 7.000000000000000000e+01 7.100000000000000000e+01 7.200000000000000000e+01 7.300000000000000000e+01 7.400000000000000000e+01 7.500000000000000000e+01 7.600000000000000000e+01 7.700000000000000000e+01 7.800000000000000000e+01 7.900000000000000000e+01 8.000000000000000000e+01 8.100000000000000000e+01 8.200000000000000000e+01 8.300000000000000000e+01 8.400000000000000000e+01 8.500000000000000000e+01 8.600000000000000000e+01 8.700000000000000000e+01 8.800000000000000000e+01 8.900000000000000000e+01 9.000000000000000000e+01 9.100000000000000000e+01 9.200000000000000000e+01 9.300000000000000000e+01 9.400000000000000000e+01 9.500000000000000000e+01 9.600000000000000000e+01 9.700000000000000000e+01 9.800000000000000000e+01 9.900000000000000000e+01 1.000000000000000000e+02 1.010000000000000000e+02 1.020000000000000000e+02 1.030000000000000000e+02 1.040000000000000000e+02 1.050000000000000000e+02 1.060000000000000000e+02 1.070000000000000000e+02 1.080000000000000000e+02 1.090000000000000000e+02 1.100000000000000000e+02 1.110000000000000000e+02 1.120000000000000000e+02 1.130000000000000000e+02 1.140000000000000000e+02 1.150000000000000000e+02 1.160000000000000000e+02 1.170000000000000000e+02 1.180000000000000000e+02 1.190000000000000000e+02 1.200000000000000000e+02 1.210000000000000000e+02 1.220000000000000000e+02 1.230000000000000000e+02 1.240000000000000000e+02 1.250000000000000000e+02 1.260000000000000000e+02 1.270000000000000000e+02 1.280000000000000000e+02 1.290000000000000000e+02 1.300000000000000000e+02 1.310000000000000000e+02 1.320000000000000000e+02 1.330000000000000000e+02 1.340000000000000000e+02 1.350000000000000000e+02 1.360000000000000000e+02 1.370000000000000000e+02 1.380000000000000000e+02 1.390000000000000000e+02 1.400000000000000000e+02 1.410000000000000000e+02 1.420000000000000000e+02 1.430000000000000000e+02 1.440000000000000000e+02 1.450000000000000000e+02 1.460000000000000000e+02 1.470000000000000000e+02 1.480000000000000000e+02 1.490000000000000000e+02 1.500000000000000000e+02 1.510000000000000000e+02 1.520000000000000000e+02 1.530000000000000000e+02 1.540000000000000000e+02 1.550000000000000000e+02 1.560000000000000000e+02 1.570000000000000000e+02 1.580000000000000000e+02 1.590000000000000000e+02 1.600000000000000000e+02 1.610000000000000000e+02 1.620000000000000000e+02 1.630000000000000000e+02 1.640000000000000000e+02 1.650000000000000000e+02 1.660000000000000000e+02 1.670000000000000000e+02 1.680000000000000000e+02 1.690000000000000000e+02 1.700000000000000000e+02 1.710000000000000000e+02 1.720000000000000000e+02 1.730000000000000000e+02 1.740000000000000000e+02 1.750000000000000000e+02 1.760000000000000000e+02 1.770000000000000000e+02 1.780000000000000000e+02 1.790000000000000000e+02 1.800000000000000000e+02 1.810000000000000000e+02 1.820000000000000000e+02 1.830000000000000000e+02 1.840000000000000000e+02 1.850000000000000000e+02 1.860000000000000000e+02 1.870000000000000000e+02 1.880000000000000000e+02 1.890000000000000000e+02 1.900000000000000000e+02 1.910000000000000000e+02 1.920000000000000000e+02 1.930000000000000000e+02 1.940000000000000000e+02 1.950000000000000000e+02 1.960000000000000000e+02 1.970000000000000000e+02 1.980000000000000000e+02 1.990000000000000000e+02 2.000000000000000000e+02 2.010000000000000000e+02 2.020000000000000000e+02 2.030000000000000000e+02 2.040000000000000000e+02 2.050000000000000000e+02 2.060000000000000000e+02 2.070000000000000000e+02 2.080000000000000000e+02 2.090000000000000000e+02 2.100000000000000000e+02 2.110000000000000000e+02 2.120000000000000000e+02 2.130000000000000000e+02 2.140000000000000000e+02 2.150000000000000000e+02 2.160000000000000000e+02 2.170000000000000000e+02 2.180000000000000000e+02 2.190000000000000000e+02 2.200000000000000000e+02 2.210000000000000000e+02 2.220000000000000000e+02 2.230000000000000000e+02 2.240000000000000000e+02 2.250000000000000000e+02 2.260000000000000000e+02 2.270000000000000000e+02 2.280000000000000000e+02 2.290000000000000000e+02 2.300000000000000000e+02 2.310000000000000000e+02 2.320000000000000000e+02 2.330000000000000000e+02 2.340000000000000000e+02 2.350000000000000000e+02 2.360000000000000000e+02 2.370000000000000000e+02 2.380000000000000000e+02 2.390000000000000000e+02 2.400000000000000000e+02 2.410000000000000000e+02 2.420000000000000000e+02 2.430000000000000000e+02 2.440000000000000000e+02 2.450000000000000000e+02 2.460000000000000000e+02 2.470000000000000000e+02 2.480000000000000000e+02 2.490000000000000000e+02 2.500000000000000000e+02 2.510000000000000000e+02 2.520000000000000000e+02 2.530000000000000000e+02 2.540000000000000000e+02 2.550000000000000000e+02 2.560000000000000000e+02 2.570000000000000000e+02 2.580000000000000000e+02 2.590000000000000000e+02 2.600000000000000000e+02 2.610000000000000000e+02 2.620000000000000000e+02 2.630000000000000000e+02 2.640000000000000000e+02 2.650000000000000000e+02 2.660000000000000000e+02 2.670000000000000000e+02 2.680000000000000000e+02 2.690000000000000000e+02 2.700000000000000000e+02 2.710000000000000000e+02 2.720000000000000000e+02 2.730000000000000000e+02 2.740000000000000000e+02 2.750000000000000000e+02 2.760000000000000000e+02 2.770000000000000000e+02 2.780000000000000000e+02 2.790000000000000000e+02 2.800000000000000000e+02 2.810000000000000000e+02 2.820000000000000000e+02 2.830000000000000000e+02 2.840000000000000000e+02 2.850000000000000000e+02 2.860000000000000000e+02 2.870000000000000000e+02 2.880000000000000000e+02 2.890000000000000000e+02 2.900000000000000000e+02 2.910000000000000000e+02 2.920000000000000000e+02 2.930000000000000000e+02 2.940000000000000000e+02 2.950000000000000000e+02 2.960000000000000000e+02 2.970000000000000000e+02 2.980000000000000000e+02 2.990000000000000000e+02 3.000000000000000000e+02 3.010000000000000000e+02 3.020000000000000000e+02 3.030000000000000000e+02 3.040000000000000000e+02 3.050000000000000000e+02 3.060000000000000000e+02 3.070000000000000000e+02 3.080000000000000000e+02 3.090000000000000000e+02 3.100000000000000000e+02 3.110000000000000000e+02 3.120000000000000000e+02 3.130000000000000000e+02 3.140000000000000000e+02 3.150000000000000000e+02 3.160000000000000000e+02 3.170000000000000000e+02 3.180000000000000000e+02 3.190000000000000000e+02 3.200000000000000000e+02 3.210000000000000000e+02 3.220000000000000000e+02 3.230000000000000000e+02 3.240000000000000000e+02 3.250000000000000000e+02 3.260000000000000000e+02 3.270000000000000000e+02 3.280000000000000000e+02 3.290000000000000000e+02 3.300000000000000000e+02 3.310000000000000000e+02 3.320000000000000000e+02 3.330000000000000000e+02 3.340000000000000000e+02 3.350000000000000000e+02 3.360000000000000000e+02 3.370000000000000000e+02 3.380000000000000000e+02 3.390000000000000000e+02 3.400000000000000000e+02 3.410000000000000000e+02 3.420000000000000000e+02 3.430000000000000000e+02 3.440000000000000000e+02 3.450000000000000000e+02 3.460000000000000000e+02 3.470000000000000000e+02 3.480000000000000000e+02 3.490000000000000000e+02 3.500000000000000000e+02 3.510000000000000000e+02 3.520000000000000000e+02 3.530000000000000000e+02 3.540000000000000000e+02 3.550000000000000000e+02 3.560000000000000000e+02 3.570000000000000000e+02 3.580000000000000000e+02 3.590000000000000000e+02 3.600000000000000000e+02 3.610000000000000000e+02 3.620000000000000000e+02 3.630000000000000000e+02 3.640000000000000000e+02 3.650000000000000000e+02 3.660000000000000000e+02 3.670000000000000000e+02 3.680000000000000000e+02 3.690000000000000000e+02 3.700000000000000000e+02 3.710000000000000000e+02 3.720000000000000000e+02 3.730000000000000000e+02 3.740000000000000000e+02 3.750000000000000000e+02 3.760000000000000000e+02 3.770000000000000000e+02 3.780000000000000000e+02 3.790000000000000000e+02 3.800000000000000000e+02 3.810000000000000000e+02 3.820000000000000000e+02 3.830000000000000000e+02 3.840000000000000000e+02 3.850000000000000000e+02 3.860000000000000000e+02 3.870000000000000000e+02 3.880000000000000000e+02 3.890000000000000000e+02 3.900000000000000000e+02 3.910000000000000000e+02 3.920000000000000000e+02 3.930000000000000000e+02 3.940000000000000000e+02 3.950000000000000000e+02 3.960000000000000000e+02 3.970000000000000000e+02 3.980000000000000000e+02 3.990000000000000000e+02 4.000000000000000000e+02 4.010000000000000000e+02 4.020000000000000000e+02 4.030000000000000000e+02 4.040000000000000000e+02 4.050000000000000000e+02 4.060000000000000000e+02 4.070000000000000000e+02 4.080000000000000000e+02 4.090000000000000000e+02 4.100000000000000000e+02 4.110000000000000000e+02 4.120000000000000000e+02 4.130000000000000000e+02 4.140000000000000000e+02 4.150000000000000000e+02 4.160000000000000000e+02 4.170000000000000000e+02 4.180000000000000000e+02 4.190000000000000000e+02 4.200000000000000000e+02 4.210000000000000000e+02 4.220000000000000000e+02 4.230000000000000000e+02 4.240000000000000000e+02 4.250000000000000000e+02 4.260000000000000000e+02 4.270000000000000000e+02 4.280000000000000000e+02 4.290000000000000000e+02 4.300000000000000000e+02 4.310000000000000000e+02 4.320000000000000000e+02 4.330000000000000000e+02 4.340000000000000000e+02 4.350000000000000000e+02 4.360000000000000000e+02 4.370000000000000000e+02 4.380000000000000000e+02 4.390000000000000000e+02 4.400000000000000000e+02 4.410000000000000000e+02 4.420000000000000000e+02 4.430000000000000000e+02 4.440000000000000000e+02 4.450000000000000000e+02 4.460000000000000000e+02 4.470000000000000000e+02 4.480000000000000000e+02 4.490000000000000000e+02 4.500000000000000000e+02 4.510000000000000000e+02 4.520000000000000000e+02 4.530000000000000000e+02 4.540000000000000000e+02 4.550000000000000000e+02 4.560000000000000000e+02 4.570000000000000000e+02 4.580000000000000000e+02 4.590000000000000000e+02 4.600000000000000000e+02 4.610000000000000000e+02 4.620000000000000000e+02 4.630000000000000000e+02 4.640000000000000000e+02 4.650000000000000000e+02 4.660000000000000000e+02 4.670000000000000000e+02 4.680000000000000000e+02 4.690000000000000000e+02 4.700000000000000000e+02 4.710000000000000000e+02 4.720000000000000000e+02 4.730000000000000000e+02 4.740000000000000000e+02 4.750000000000000000e+02 4.760000000000000000e+02 4.770000000000000000e+02 4.780000000000000000e+02 4.790000000000000000e+02 4.800000000000000000e+02 4.810000000000000000e+02 4.820000000000000000e+02 4.830000000000000000e+02 4.840000000000000000e+02 4.850000000000000000e+02 4.860000000000000000e+02 4.870000000000000000e+02 4.880000000000000000e+02 4.890000000000000000e+02 4.900000000000000000e+02 4.910000000000000000e+02 4.920000000000000000e+02 4.930000000000000000e+02 4.940000000000000000e+02 4.950000000000000000e+02 4.960000000000000000e+02 4.970000000000000000e+02 4.980000000000000000e+02 4.990000000000000000e+02 5.000000000000000000e+02 5.010000000000000000e+02 5.020000000000000000e+02 5.030000000000000000e+02 5.040000000000000000e+02 5.050000000000000000e+02 5.060000000000000000e+02 5.070000000000000000e+02 5.080000000000000000e+02 5.090000000000000000e+02 5.100000000000000000e+02 5.110000000000000000e+02 5.120000000000000000e+02 5.130000000000000000e+02 5.140000000000000000e+02 5.150000000000000000e+02 5.160000000000000000e+02 5.170000000000000000e+02 5.180000000000000000e+02 5.190000000000000000e+02 5.200000000000000000e+02 5.210000000000000000e+02 5.220000000000000000e+02 5.230000000000000000e+02 5.240000000000000000e+02 5.250000000000000000e+02 5.260000000000000000e+02 5.270000000000000000e+02 5.280000000000000000e+02 5.290000000000000000e+02 5.300000000000000000e+02 5.310000000000000000e+02 5.320000000000000000e+02 5.330000000000000000e+02 5.340000000000000000e+02 5.350000000000000000e+02 5.360000000000000000e+02 5.370000000000000000e+02 5.380000000000000000e+02 5.390000000000000000e+02 5.400000000000000000e+02 5.410000000000000000e+02 5.420000000000000000e+02 5.430000000000000000e+02 5.440000000000000000e+02 5.450000000000000000e+02 5.460000000000000000e+02 5.470000000000000000e+02 5.480000000000000000e+02 5.490000000000000000e+02 5.500000000000000000e+02 5.510000000000000000e+02 5.520000000000000000e+02 5.530000000000000000e+02 5.540000000000000000e+02 5.550000000000000000e+02 5.560000000000000000e+02 5.570000000000000000e+02 5.580000000000000000e+02 5.590000000000000000e+02 5.600000000000000000e+02 5.610000000000000000e+02 5.620000000000000000e+02 5.630000000000000000e+02 5.640000000000000000e+02 5.650000000000000000e+02 5.660000000000000000e+02 5.670000000000000000e+02 5.680000000000000000e+02 5.690000000000000000e+02 5.700000000000000000e+02 5.710000000000000000e+02 5.720000000000000000e+02 5.730000000000000000e+02 5.740000000000000000e+02 5.750000000000000000e+02 5.760000000000000000e+02 5.770000000000000000e+02 5.780000000000000000e+02 5.790000000000000000e+02 5.800000000000000000e+02 5.810000000000000000e+02 5.820000000000000000e+02 5.830000000000000000e+02 5.840000000000000000e+02 5.850000000000000000e+02 5.860000000000000000e+02 5.870000000000000000e+02 5.880000000000000000e+02 5.890000000000000000e+02 5.900000000000000000e+02 5.910000000000000000e+02 5.920000000000000000e+02 5.930000000000000000e+02 5.940000000000000000e+02 5.950000000000000000e+02 5.960000000000000000e+02 5.970000000000000000e+02 5.980000000000000000e+02 5.990000000000000000e+02 6.000000000000000000e+02 6.010000000000000000e+02 6.020000000000000000e+02 6.030000000000000000e+02 6.040000000000000000e+02 6.050000000000000000e+02 6.060000000000000000e+02 6.070000000000000000e+02 6.080000000000000000e+02 6.090000000000000000e+02 6.100000000000000000e+02 6.110000000000000000e+02 6.120000000000000000e+02 6.130000000000000000e+02 6.140000000000000000e+02 6.150000000000000000e+02 6.160000000000000000e+02 6.170000000000000000e+02 6.180000000000000000e+02 6.190000000000000000e+02 6.200000000000000000e+02 6.210000000000000000e+02 6.220000000000000000e+02 6.230000000000000000e+02 6.240000000000000000e+02 6.250000000000000000e+02 6.260000000000000000e+02 6.270000000000000000e+02 6.280000000000000000e+02 6.290000000000000000e+02 6.300000000000000000e+02 6.310000000000000000e+02 6.320000000000000000e+02 6.330000000000000000e+02 6.340000000000000000e+02 6.350000000000000000e+02 6.360000000000000000e+02 6.370000000000000000e+02 6.380000000000000000e+02 6.390000000000000000e+02 6.400000000000000000e+02 6.410000000000000000e+02 6.420000000000000000e+02 6.430000000000000000e+02 6.440000000000000000e+02 6.450000000000000000e+02 6.460000000000000000e+02 6.470000000000000000e+02 6.480000000000000000e+02 6.490000000000000000e+02 6.500000000000000000e+02 6.510000000000000000e+02 6.520000000000000000e+02 6.530000000000000000e+02 6.540000000000000000e+02 6.550000000000000000e+02 6.560000000000000000e+02 6.570000000000000000e+02 6.580000000000000000e+02 6.590000000000000000e+02 6.600000000000000000e+02 6.610000000000000000e+02 6.620000000000000000e+02 6.630000000000000000e+02 6.640000000000000000e+02 6.650000000000000000e+02 6.660000000000000000e+02 6.670000000000000000e+02 6.680000000000000000e+02 6.690000000000000000e+02 6.700000000000000000e+02 6.710000000000000000e+02 6.720000000000000000e+02 6.730000000000000000e+02 6.740000000000000000e+02 6.750000000000000000e+02 6.760000000000000000e+02 6.770000000000000000e+02 6.780000000000000000e+02 6.790000000000000000e+02 6.800000000000000000e+02 6.810000000000000000e+02 6.820000000000000000e+02 6.830000000000000000e+02 6.840000000000000000e+02 6.850000000000000000e+02 6.860000000000000000e+02 6.870000000000000000e+02 6.880000000000000000e+02 6.890000000000000000e+02 6.900000000000000000e+02 6.910000000000000000e+02 6.920000000000000000e+02 6.930000000000000000e+02 6.940000000000000000e+02 6.950000000000000000e+02 6.960000000000000000e+02 6.970000000000000000e+02 6.980000000000000000e+02 6.990000000000000000e+02 7.000000000000000000e+02 7.010000000000000000e+02 7.020000000000000000e+02 7.030000000000000000e+02 7.040000000000000000e+02 7.050000000000000000e+02 7.060000000000000000e+02 7.070000000000000000e+02 7.080000000000000000e+02 7.090000000000000000e+02 7.100000000000000000e+02 7.110000000000000000e+02 7.120000000000000000e+02 7.130000000000000000e+02 7.140000000000000000e+02 7.150000000000000000e+02 7.160000000000000000e+02 7.170000000000000000e+02 7.180000000000000000e+02 7.190000000000000000e+02 7.200000000000000000e+02 7.210000000000000000e+02 7.220000000000000000e+02 7.230000000000000000e+02 7.240000000000000000e+02 7.250000000000000000e+02 7.260000000000000000e+02 7.270000000000000000e+02 7.280000000000000000e+02 7.290000000000000000e+02 7.300000000000000000e+02 7.310000000000000000e+02 7.320000000000000000e+02 7.330000000000000000e+02 7.340000000000000000e+02 7.350000000000000000e+02 7.360000000000000000e+02 7.370000000000000000e+02 7.380000000000000000e+02 7.390000000000000000e+02 7.400000000000000000e+02 7.410000000000000000e+02 7.420000000000000000e+02 7.430000000000000000e+02 7.440000000000000000e+02 7.450000000000000000e+02 7.460000000000000000e+02 7.470000000000000000e+02 7.480000000000000000e+02 7.490000000000000000e+02 7.500000000000000000e+02 7.510000000000000000e+02 7.520000000000000000e+02 7.530000000000000000e+02 7.540000000000000000e+02 7.550000000000000000e+02 7.560000000000000000e+02 7.570000000000000000e+02 7.580000000000000000e+02 7.590000000000000000e+02 7.600000000000000000e+02 7.610000000000000000e+02 7.620000000000000000e+02 7.630000000000000000e+02 7.640000000000000000e+02 7.650000000000000000e+02 7.660000000000000000e+02 7.670000000000000000e+02 7.680000000000000000e+02 7.690000000000000000e+02 7.700000000000000000e+02 7.710000000000000000e+02 7.720000000000000000e+02 7.730000000000000000e+02 7.740000000000000000e+02 7.750000000000000000e+02 7.760000000000000000e+02 7.770000000000000000e+02 7.780000000000000000e+02 7.790000000000000000e+02 7.800000000000000000e+02 7.810000000000000000e+02 7.820000000000000000e+02 7.830000000000000000e+02 7.840000000000000000e+02 7.850000000000000000e+02 7.860000000000000000e+02 7.870000000000000000e+02 7.880000000000000000e+02 7.890000000000000000e+02 7.900000000000000000e+02 7.910000000000000000e+02 7.920000000000000000e+02 7.930000000000000000e+02 7.940000000000000000e+02 7.950000000000000000e+02 7.960000000000000000e+02 7.970000000000000000e+02 7.980000000000000000e+02 7.990000000000000000e+02 8.000000000000000000e+02 8.010000000000000000e+02 8.020000000000000000e+02 8.030000000000000000e+02 8.040000000000000000e+02 8.050000000000000000e+02 8.060000000000000000e+02 8.070000000000000000e+02 8.080000000000000000e+02 8.090000000000000000e+02 8.100000000000000000e+02 8.110000000000000000e+02 8.120000000000000000e+02 8.130000000000000000e+02 8.140000000000000000e+02 8.150000000000000000e+02 8.160000000000000000e+02 8.170000000000000000e+02 8.180000000000000000e+02 8.190000000000000000e+02 8.200000000000000000e+02 8.210000000000000000e+02 8.220000000000000000e+02 8.230000000000000000e+02 8.240000000000000000e+02 8.250000000000000000e+02 8.260000000000000000e+02 8.270000000000000000e+02 8.280000000000000000e+02 8.290000000000000000e+02 8.300000000000000000e+02 8.310000000000000000e+02 8.320000000000000000e+02 8.330000000000000000e+02 8.340000000000000000e+02 8.350000000000000000e+02 8.360000000000000000e+02 8.370000000000000000e+02 8.380000000000000000e+02 8.390000000000000000e+02 8.400000000000000000e+02 8.410000000000000000e+02 8.420000000000000000e+02 8.430000000000000000e+02 8.440000000000000000e+02 8.450000000000000000e+02 8.460000000000000000e+02 8.470000000000000000e+02 8.480000000000000000e+02 8.490000000000000000e+02 8.500000000000000000e+02 8.510000000000000000e+02 8.520000000000000000e+02 8.530000000000000000e+02 8.540000000000000000e+02 8.550000000000000000e+02 8.560000000000000000e+02 8.570000000000000000e+02 8.580000000000000000e+02 8.590000000000000000e+02 8.600000000000000000e+02 8.610000000000000000e+02 8.620000000000000000e+02 8.630000000000000000e+02 8.640000000000000000e+02 8.650000000000000000e+02 8.660000000000000000e+02 8.670000000000000000e+02 8.680000000000000000e+02 8.690000000000000000e+02 8.700000000000000000e+02 8.710000000000000000e+02 8.720000000000000000e+02 8.730000000000000000e+02 8.740000000000000000e+02 8.750000000000000000e+02 8.760000000000000000e+02 8.770000000000000000e+02 8.780000000000000000e+02 8.790000000000000000e+02 8.800000000000000000e+02 8.810000000000000000e+02 8.820000000000000000e+02 8.830000000000000000e+02 8.840000000000000000e+02 8.850000000000000000e+02 8.860000000000000000e+02 8.870000000000000000e+02 8.880000000000000000e+02 8.890000000000000000e+02 8.900000000000000000e+02 8.910000000000000000e+02 8.920000000000000000e+02 8.930000000000000000e+02 8.940000000000000000e+02 8.950000000000000000e+02 8.960000000000000000e+02 8.970000000000000000e+02 8.980000000000000000e+02 8.990000000000000000e+02 9.000000000000000000e+02 9.010000000000000000e+02 9.020000000000000000e+02 9.030000000000000000e+02 9.040000000000000000e+02 9.050000000000000000e+02 9.060000000000000000e+02 9.070000000000000000e+02 9.080000000000000000e+02 9.090000000000000000e+02 9.100000000000000000e+02 9.110000000000000000e+02 9.120000000000000000e+02 9.130000000000000000e+02 9.140000000000000000e+02 9.150000000000000000e+02 9.160000000000000000e+02 9.170000000000000000e+02 9.180000000000000000e+02 9.190000000000000000e+02 9.200000000000000000e+02 9.210000000000000000e+02 9.220000000000000000e+02 9.230000000000000000e+02 9.240000000000000000e+02 9.250000000000000000e+02 9.260000000000000000e+02 9.270000000000000000e+02 9.280000000000000000e+02 9.290000000000000000e+02 9.300000000000000000e+02 9.310000000000000000e+02 9.320000000000000000e+02 9.330000000000000000e+02 9.340000000000000000e+02 9.350000000000000000e+02 9.360000000000000000e+02 9.370000000000000000e+02 9.380000000000000000e+02 9.390000000000000000e+02 9.400000000000000000e+02 9.410000000000000000e+02 9.420000000000000000e+02 9.430000000000000000e+02 9.440000000000000000e+02 9.450000000000000000e+02 9.460000000000000000e+02 9.470000000000000000e+02 9.480000000000000000e+02 9.490000000000000000e+02 9.500000000000000000e+02 9.510000000000000000e+02 9.520000000000000000e+02 9.530000000000000000e+02 9.540000000000000000e+02 9.550000000000000000e+02 9.560000000000000000e+02 9.570000000000000000e+02 9.580000000000000000e+02 9.590000000000000000e+02 9.600000000000000000e+02 9.610000000000000000e+02 9.620000000000000000e+02 9.630000000000000000e+02 9.640000000000000000e+02 9.650000000000000000e+02 9.660000000000000000e+02 9.670000000000000000e+02 9.680000000000000000e+02 9.690000000000000000e+02 9.700000000000000000e+02 9.710000000000000000e+02 9.720000000000000000e+02 9.730000000000000000e+02 9.740000000000000000e+02 9.750000000000000000e+02 9.760000000000000000e+02 9.770000000000000000e+02 9.780000000000000000e+02 9.790000000000000000e+02 9.800000000000000000e+02 9.810000000000000000e+02 9.820000000000000000e+02 9.830000000000000000e+02 9.840000000000000000e+02 9.850000000000000000e+02 9.860000000000000000e+02 9.870000000000000000e+02 9.880000000000000000e+02 9.890000000000000000e+02 9.900000000000000000e+02 9.910000000000000000e+02 9.920000000000000000e+02 9.930000000000000000e+02 9.940000000000000000e+02 9.950000000000000000e+02 9.960000000000000000e+02 9.970000000000000000e+02 9.980000000000000000e+02 9.990000000000000000e+02
1.000000000000000000e+00 1.000000000000000000e+00 1.000000000000000000e+00 1.000000000000000000e+00 1.000000000000000000e+00 1.000000000000000000e+00 1.000000000000000000e+00 1.000000000000000000e+00 1.000000000000000000e+00 1.000000000000000000e+00 1.000000000000000000e+00 1.000000000000000000e+00 1.000000000000000000e+00 1.000000000000000000e+00 1.000000000000000000e+00 1.000000000000000000e+00 1.000000000000000000e+00 1.000000000000000000e+00 1.000000000000000000e+00 1.000000000000000000e+00 1.000000000000000000e+00 1.000000000000000000e+00 1.000000000000000000e+00 1.000000000000000000e+00 1.000000000000000000e+00 1.000000000000000000e+00 1.000000000000000000e+00 1.000000000000000000e+00 1.000000000000000000e+00 1.000000000000000000e+00 1.000000000000000000e+00 1.000000000000000000e+00 1.000000000000000000e+00 1.000000000000000000e+00 1.000000000000000000e+00 1.000000000000000000e+00 1.000000000000000000e+00 1.000000000000000000e+00 1.000000000000000000e+00 1.000000000000000000e+00 1.000000000000000000e+00 1.000000000000000000e+00 1.000000000000000000e+00 1.000000000000000000e+00 1.000000000000000000e+00 1.000000000000000000e+00 1.000000000000000000e+00 1.000000000000000000e+00 1.000000000000000000e+00 1.000000000000000000e+00 1.000000000000000000e+00 1.000000000000000000e+00 1.000000000000000000e+00 1.000000000000000000e+00 1.000000000000000000e+00 1.000000000000000000e+00 1.000000000000000000e+00 1.000000000000000000e+00 1.000000000000000000e+00 1.000000000000000000e+00 1.000000000000000000e+00 1.000000000000000000e+00 1.000000000000000000e+00 1.000000000000000000e+00 1.000000000000000000e+00 1.000000000000000000e+00 1.000000000000000000e+00 1.000000000000000000e+00 1.000000000000000000e+00 1.000000000000000000e+00 1.000000000000000000e+00 1.000000000000000000e+00 1.000000000000000000e+00 1.000000000000000000e+00 1.000000000000000000e+00 1.000000000000000000e+00 1.000000000000000000e+00 1.000000000000000000e+00 1.000000000000000000e+00 1.000000000000000000e+00 1.000000000000000000e+00 1.000000000000000000e+00 1.000000000000000000e+00 1.000000000000000000e+00 1.000000000000000000e+00 1.000000000000000000e+00 1.000000000000000000e+00 1.000000000000000000e+00 1.000000000000000000e+00 1.000000000000000000e+00 1.000000000000000000e+00 1.000000000000000000e+00 1.000000000000000000e+00 1.000000000000000000e+00 1.000000000000000000e+00 1.000000000000000000e+00 1.000000000000000000e+00 1.000000000000000000e+00 1.000000000000000000e+00 1.000000000000000000e+00 1.000000000000000000e+00 1.000000000000000000e+00 1.000000000000000000e+00 1.000000000000000000e+00 1.000000000000000000e+00 1.000000000000000000e+00 1.000000000000000000e+00 1.000000000000000000e+00 1.000000000000000000e+00 1.000000000000000000e+00 1.000000000000000000e+00 1.000000000000000000e+00 1.000000000000000000e+00 1.000000000000000000e+00 1.000000000000000000e+00 1.000000000000000000e+00 1.000000000000000000e+00 1.000000000000000000e+00 1.000000000000000000e+00 1.000000000000000000e+00 1.000000000000000000e+00 1.000000000000000000e+00 1.000000000000000000e+00 1.000000000000000000e+00 1.000000000000000000e+00 1.000000000000000000e+00 1.000000000000000000e+00 1.000000000000000000e+00 1.000000000000000000e+00 1.000000000000000000e+00 1.000000000000000000e+00 1.000000000000000000e+00 1.000000000000000000e+00 1.000000000000000000e+00 1.000000000000000000e+00 1.000000000000000000e+00 1.000000000000000000e+00 1.000000000000000000e+00 1.000000000000000000e+00 1.000000000000000000e+00 1.000000000000000000e+00 1.000000000000000000e+00 1.000000000000000000e+00 1.000000000000000000e+00 1.000000000000000000e+00 1.000000000000000000e+00 1.000000000000000000e+00 1.000000000000000000e+00 1.000000000000000000e+00 1.000000000000000000e+00 1.000000000000000000e+00 1.000000000000000000e+00 1.000000000000000000e+00 1.000000000000000000e+00 1.000000000000000000e+00 1.000000000000000000e+00 1.000000000000000000e+00 1.000000000000000000e+00 1.000000000000000000e+00 1.000000000000000000e+00 1.000000000000000000e+00 1.000000000000000000e+00 1.000000000000000000e+00 1.000000000000000000e+00 1.000000000000000000e+00 1.000000000000000000e+00 1.000000000000000000e+00 1.000000000000000000e+00 1.000000000000000000e+00 1.000000000000000000e+00 1.000000000000000000e+00 1.000000000000000000e+00 1.000000000000000000e+00 1.000000000000000000e+00 1.000000000000000000e+00 1.000000000000000000e+00 1.000000000000000000e+00 1.000000000000000000e+00 1.000000000000000000e+00 1.000000000000000000e+00 1.000000000000000000e+00 1.000000000000000000e+00 1.000000000000000000e+00 1.000000000000000000e+00 1.000000000000000000e+00 1.000000000000000000e+00 1.000000000000000000e+00 1.000000000000000000e+00 1.000000000000000000e+00 1.000000000000000000e+00 1.000000000000000000e+00 1.000000000000000000e+00 1.000000000000000000e+00 1.000000000000000000e+00 1.000000000000000000e+00 1.000000000000000000e+00 1.000000000000000000e+00 1.000000000000000000e+00 1.000000000000000000e+00 1.000000000000000000e+00 1.000000000000000000e+00 1.000000000000000000e+00 1.000000000000000000e+00 1.000000000000000000e+00 1.000000000000000000e+00 1.000000000000000000e+00 1.000000000000000000e+00 1.000000000000000000e+00 1.000000000000000000e+00 1.000000000000000000e+00 1.000000000000000000e+00 1.000000000000000000e+00 1.000000000000000000e+00 1.000000000000000000e+00 1.000000000000000000e+00 1.000000000000000000e+00 1.000000000000000000e+00 1.000000000000000000e+00 1.000000000000000000e+00 1.000000000000000000e+00 1.000000000000000000e+00 1.000000000000000000e+00 1.000000000000000000e+00 1.000000000000000000e+00 1.000000000000000000e+00 1.000000000000000000e+00 1.000000000000000000e+00 1.000000000000000000e+00 1.000000000000000000e+00 1.000000000000000000e+00 1.000000000000000000e+00 1.000000000000000000e+00 1.000000000000000000e+00 1.000000000000000000e+00 1.000000000000000000e+00 1.000000000000000000e+00 1.000000000000000000e+00 1.000000000000000000e+00 1.000000000000000000e+00 1.000000000000000000e+00 1.000000000000000000e+00 1.000000000000000000e+00 1.000000000000000000e+00 1.000000000000000000e+00 1.000000000000000000e+00 1.000000000000000000e+00 1.000000000000000000e+00 1.000000000000000000e+00 1.000000000000000000e+00 1.000000000000000000e+00 1.000000000000000000e+00 1.000000000000000000e+00 1.000000000000000000e+00 1.000000000000000000e+00 1.000000000000000000e+00 1.000000000000000000e+00 1.000000000000000000e+00 1.000000000000000000e+00 1.000000000000000000e+00 1.000000000000000000e+00 1.000000000000000000e+00 1.000000000000000000e+00 1.000000000000000000e+00 1.000000000000000000e+00 1.000000000000000000e+00 1.000000000000000000e+00 1.000000000000000000e+00 1.000000000000000000e+00 1.000000000000000000e+00 1.000000000000000000e+00 1.000000000000000000e+00 1.000000000000000000e+00 1.000000000000000000e+00 1.000000000000000000e+00 1.000000000000000000e+00 1.000000000000000000e+00 1.000000000000000000e+00 1.000000000000000000e+00 1.000000000000000000e+00 1.000000000000000000e+00 1.000000000000000000e+00 1.000000000000000000e+00 1.000000000000000000e+00 1.000000000000000000e+00 1.000000000000000000e+00 1.000000000000000000e+00 1.000000000000000000e+00 1.000000000000000000e+00 1.000000000000000000e+00 1.000000000000000000e+00 1.000000000000000000e+00 1.000000000000000000e+00 1.000000000000000000e+00 1.000000000000000000e+00 1.000000000000000000e+00 1.000000000000000000e+00 1.000000000000000000e+00 1.000000000000000000e+00 1.000000000000000000e+00 1.000000000000000000e+00 1.000000000000000000e+00 1.000000000000000000e+00 1.000000000000000000e+00 1.000000000000000000e+00 1.000000000000000000e+00 1.000000000000000000e+00 1.000000000000000000e+00 1.000000000000000000e+00 1.000000000000000000e+00 1.000000000000000000e+00 1.000000000000000000e+00 1.000000000000000000e+00 1.000000000000000000e+00 1.000000000000000000e+00 1.000000000000000000e+00 1.000000000000000000e+00 1.000000000000000000e+00 1.000000000000000000e+00 1.000000000000000000e+00 1.000000000000000000e+00 1.000000000000000000e+00 1.000000000000000000e+00 1.000000000000000000e+00 1.000000000000000000e+00 1.000000000000000000e+00 1.000000000000000000e+00 1.000000000000000000e+00 1.000000000000000000e+00 1.000000000000000000e+00 1.000000000000000000e+00 1.000000000000000000e+00 1.000000000000000000e+00 1.000000000000000000e+00 1.000000000000000000e+00 1.000000000000000000e+00 1.000000000000000000e+00 1.000000000000000000e+00 1.000000000000000000e+00 1.000000000000000000e+00 1.000000000000000000e+00 1.000000000000000000e+00 1.000000000000000000e+00 1.000000000000000000e+00 1.000000000000000000e+00 1.000000000000000000e+00 1.000000000000000000e+00 1.000000000000000000e+00 1.000000000000000000e+00 1.000000000000000000e+00 1.000000000000000000e+00 1.000000000000000000e+00 1.000000000000000000e+00 1.000000000000000000e+00 1.000000000000000000e+00 1.000000000000000000e+00 1.000000000000000000e+00 1.000000000000000000e+00 1.000000000000000000e+00 1.000000000000000000e+00 1.000000000000000000e+00 1.000000000000000000e+00 1.000000000000000000e+00 1.000000000000000000e+00 1.000000000000000000e+00 1.000000000000000000e+00 1.000000000000000000e+00 1.000000000000000000e+00 1.000000000000000000e+00 1.000000000000000000e+00 1.000000000000000000e+00 1.000000000000000000e+00 1.000000000000000000e+00 1.000000000000000000e+00 1.000000000000000000e+00 1.000000000000000000e+00 1.000000000000000000e+00 1.000000000000000000e+00 1.000000000000000000e+00 1.000000000000000000e+00 1.000000000000000000e+00 1.000000000000000000e+00 1.000000000000000000e+00 1.000000000000000000e+00 1.000000000000000000e+00 1.000000000000000000e+00 1.000000000000000000e+00 1.000000000000000000e+00 1.000000000000000000e+00 1.000000000000000000e+00 1.000000000000000000e+00 1.000000000000000000e+00 1.000000000000000000e+00 1.000000000000000000e+00 1.000000000000000000e+00 1.000000000000000000e+00 1.000000000000000000e+00 1.000000000000000000e+00 1.000000000000000000e+00 1.000000000000000000e+00 1.000000000000000000e+00 1.000000000000000000e+00 1.000000000000000000e+00 1.000000000000000000e+00 1.000000000000000000e+00 1.000000000000000000e+00 1.000000000000000000e+00 1.000000000000000000e+00 1.000000000000000000e+00 1.000000000000000000e+00 1.000000000000000000e+00 1.000000000000000000e+00 1.000000000000000000e+00 1.000000000000000000e+00 1.000000000000000000e+00 1.000000000000000000e+00 1.000000000000000000e+00 1.000000000000000000e+00 1.000000000000000000e+00 1.000000000000000000e+00 1.000000000000000000e+00 1.000000000000000000e+00 1.000000000000000000e+00 1.000000000000000000e+00 1.000000000000000000e+00 1.000000000000000000e+00 1.000000000000000000e+00 1.000000000000000000e+00 1.000000000000000000e+00 1.000000000000000000e+00 1.000000000000000000e+00 1.000000000000000000e+00 1.000000000000000000e+00 1.000000000000000000e+00 1.000000000000000000e+00 1.000000000000000000e+00 1.000000000000000000e+00 1.000000000000000000e+00 1.000000000000000000e+00 1.000000000000000000e+00 1.000000000000000000e+00 1.000000000000000000e+00 1.000000000000000000e+00 1.000000000000000000e+00 1.000000000000000000e+00 1.000000000000000000e+00 1.000000000000000000e+00 1.000000000000000000e+00 1.000000000000000000e+00 1.000000000000000000e+00 1.000000000000000000e+00 1.000000000000000000e+00 1.000000000000000000e+00 1.000000000000000000e+00 1.000000000000000000e+00 1.000000000000000000e+00 1.000000000000000000e+00 1.000000000000000000e+00 1.000000000000000000e+00 1.000000000000000000e+00 1.000000000000000000e+00 1.000000000000000000e+00 1.000000000000000000e+00 1.000000000000000000e+00 1.000000000000000000e+00 1.000000000000000000e+00 1.000000000000000000e+00 1.000000000000000000e+00 1.000000000000000000e+00 1.000000000000000000e+00 1.000000000000000000e+00 1.000000000000000000e+00 1.000000000000000000e+00 1.000000000000000000e+00 1.000000000000000000e+00 1.000000000000000000e+00 1.000000000000000000e+00 1.000000000000000000e+00 1.000000000000000000e+00 1.000000000000000000e+00 1.000000000000000000e+00 1.000000000000000000e+00 1.000000000000000000e+00 1.000000000000000000e+00 1.000000000000000000e+00 1.000000000000000000e+00 1.000000000000000000e+00 1.000000000000000000e+00 1.000000000000000000e+00 1.000000000000000000e+00 1.000000000000000000e+00 1.000000000000000000e+00 1.000000000000000000e+00 1.000000000000000000e+00 1.000000000000000000e+00 1.000000000000000000e+00 1.000000000000000000e+00 1.000000000000000000e+00 1.000000000000000000e+00 1.000000000000000000e+00 1.000000000000000000e+00 1.000000000000000000e+00 1.000000000000000000e+00 1.000000000000000000e+00 1.000000000000000000e+00 1.000000000000000000e+00 1.000000000000000000e+00 1.000000000000000000e+00 1.000000000000000000e+00 1.000000000000000000e+00 1.000000000000000000e+00 1.000000000000000000e+00 1.000000000000000000e+00 1.000000000000000000e+00 1.000000000000000000e+00 1.000000000000000000e+00 1.000000000000000000e+00 1.000000000000000000e+00 1.000000000000000000e+00 1.000000000000000000e+00 1.000000000000000000e+00 1.000000000000000000e+00 1.000000000000000000e+00 1.000000000000000000e+00 1.000000000000000000e+00 1.000000000000000000e+00 1.000000000000000000e+00 1.000000000000000000e+00 1.000000000000000000e+00 1.000000000000000000e+00 1.000000000000000000e+00 1.000000000000000000e+00 1.000000000000000000e+00 1.000000000000000000e+00 1.000000000000000000e+00 1.000000000000000000e+00 1.000000000000000000e+00 1.000000000000000000e+00 1.000000000000000000e+00 1.000000000000000000e+00 1.000000000000000000e+00 1.000000000000000000e+00 1.000000000000000000e+00 1.000000000000000000e+00 1.000000000000000000e+00 1.000000000000000000e+00 1.000000000000000000e+00 1.000000000000000000e+00 1.000000000000000000e+00 1.000000000000000000e+00 1.000000000000000000e+00 1.000000000000000000e+00 1.000000000000000000e+00 1.000000000000000000e+00 1.000000000000000000e+00 1.000000000000000000e+00 1.000000000000000000e+00 1.000000000000000000e+00 1.000000000000000000e+00 1.000000000000000000e+00 1.000000000000000000e+00 1.000000000000000000e+00 1.000000000000000000e+00 1.000000000000000000e+00 1.000000000000000000e+00 1.000000000000000000e+00 1.000000000000000000e+00 1.000000000000000000e+00 1.000000000000000000e+00 1.000000000000000000e+00 1.000000000000000000e+00 1.000000000000000000e+00 1.000000000000000000e+00 1.000000000000000000e+00 1.000000000000000000e+00 1.000000000000000000e+00 1.000000000000000000e+00 1.000000000000000000e+00 1.000000000000000000e+00 1.000000000000000000e+00 1.000000000000000000e+00 1.000000000000000000e+00 1.000000000000000000e+00 1.000000000000000000e+00 1.000000000000000000e+00 1.000000000000000000e+00 1.000000000000000000e+00 1.000000000000000000e+00 1.000000000000000000e+00 1.000000000000000000e+00 1.000000000000000000e+00 1.000000000000000000e+00 1.000000000000000000e+00 1.000000000000000000e+00 1.000000000000000000e+00 1.000000000000000000e+00 1.000000000000000000e+00 1.000000000000000000e+00 1.000000000000000000e+00 1.000000000000000000e+00 1.000000000000000000e+00 1.000000000000000000e+00 1.000000000000000000e+00 1.000000000000000000e+00 1.000000000000000000e+00 1.000000000000000000e+00 1.000000000000000000e+00 1.000000000000000000e+00 1.000000000000000000e+00 1.000000000000000000e+00 1.000000000000000000e+00 1.000000000000000000e+00 1.000000000000000000e+00 1.000000000000000000e+00 1.000000000000000000e+00 1.000000000000000000e+00 1.000000000000000000e+00 1.000000000000000000e+00 1.000000000000000000e+00 1.000000000000000000e+00 1.000000000000000000e+00 1.000000000000000000e+00 1.000000000000000000e+00 1.000000000000000000e+00 1.000000000000000000e+00 1.000000000000000000e+00 1.000000000000000000e+00 1.000000000000000000e+00 1.000000000000000000e+00 1.000000000000000000e+00 1.000000000000000000e+00 1.000000000000000000e+00 1.000000000000000000e+00 1.000000000000000000e+00 1.000000000000000000e+00 1.000000000000000000e+00 1.000000000000000000e+00 1.000000000000000000e+00 1.000000000000000000e+00 1.000000000000000000e+00 1.000000000000000000e+00 1.000000000000000000e+00 1.000000000000000000e+00 1.000000000000000000e+00 1.000000000000000000e+00 1.000000000000000000e+00 1.000000000000000000e+00 1.000000000000000000e+00 1.000000000000000000e+00 1.000000000000000000e+00 1.000000000000000000e+00 1.000000000000000000e+00 1.000000000000000000e+00 1.000000000000000000e+00 1.000000000000000000e+00 1.000000000000000000e+00 1.000000000000000000e+00 1.000000000000000000e+00 1.000000000000000000e+00 1.000000000000000000e+00 1.000000000000000000e+00 1.000000000000000000e+00 1.000000000000000000e+00 1.000000000000000000e+00 1.000000000000000000e+00 1.000000000000000000e+00 1.000000000000000000e+00 1.000000000000000000e+00 1.000000000000000000e+00 1.000000000000000000e+00 1.000000000000000000e+00 1.000000000000000000e+00 1.000000000000000000e+00 1.000000000000000000e+00 1.000000000000000000e+00 1.000000000000000000e+00 1.000000000000000000e+00 1.000000000000000000e+00 1.000000000000000000e+00 1.000000000000000000e+00 1.000000000000000000e+00 1.000000000000000000e+00 1.000000000000000000e+00 1.000000000000000000e+00 1.000000000000000000e+00 1.000000000000000000e+00 1.000000000000000000e+00 1.000000000000000000e+00 1.000000000000000000e+00 1.000000000000000000e+00 1.000000000000000000e+00 1.000000000000000000e+00 1.000000000000000000e+00 1.000000000000000000e+00 1.000000000000000000e+00 1.000000000000000000e+00 1.000000000000000000e+00 1.000000000000000000e+00 1.000000000000000000e+00 1.000000000000000000e+00 1.000000000000000000e+00 1.000000000000000000e+00 1.000000000000000000e+00 1.000000000000000000e+00 1.000000000000000000e+00 1.000000000000000000e+00 1.000000000000000000e+00 1.000000000000000000e+00 1.000000000000000000e+00 1.000000000000000000e+00 1.000000000000000000e+00 1.000000000000000000e+00 1.000000000000000000e+00 1.000000000000000000e+00 1.000000000000000000e+00 1.000000000000000000e+00 1.000000000000000000e+00 1.000000000000000000e+00 1.000000000000000000e+00 1.000000000000000000e+00 1.000000000000000000e+00 1.000000000000000000e+00 1.000000000000000000e+00 1.000000000000000000e+00 1.000000000000000000e+00 1.000000000000000000e+00 1.000000000000000000e+00 1.000000000000000000e+00 1.000000000000000000e+00 1.000000000000000000e+00 1.000000000000000000e+00 1.000000000000000000e+00 1.000000000000000000e+00 1.000000000000000000e+00 1.000000000000000000e+00 1.000000000000000000e+00 1.000000000000000000e+00 1.000000000000000000e+00 1.000000000000000000e+00 1.000000000000000000e+00 1.000000000000000000e+00 1.000000000000000000e+00 1.000000000000000000e+00 1.000000000000000000e+00 1.000000000000000000e+00 1.000000000000000000e+00 1.000000000000000000e+00 1.000000000000000000e+00 1.000000000000000000e+00 1.000000000000000000e+00 1.000000000000000000e+00 1.000000000000000000e+00 1.000000000000000000e+00 1.000000000000000000e+00 1.000000000000000000e+00 1.000000000000000000e+00 1.000000000000000000e+00 1.000000000000000000e+00 1.000000000000000000e+00 1.000000000000000000e+00 1.000000000000000000e+00 1.000000000000000000e+00 1.000000000000000000e+00 1.000000000000000000e+00 1.000000000000000000e+00 1.000000000000000000e+00 1.000000000000000000e+00 1.000000000000000000e+00 1.000000000000000000e+00 1.000000000000000000e+00 1.000000000000000000e+00 1.000000000000000000e+00 1.000000000000000000e+00 1.000000000000000000e+00 1.000000000000000000e+00 1.000000000000000000e+00 1.000000000000000000e+00 1.000000000000000000e+00 1.000000000000000000e+00 1.000000000000000000e+00 1.000000000000000000e+00 1.000000000000000000e+00 1.000000000000000000e+00 1.000000000000000000e+00 1.000000000000000000e+00 1.000000000000000000e+00 1.000000000000000000e+00 1.000000000000000000e+00 1.000000000000000000e+00 1.000000000000000000e+00 1.000000000000000000e+00 1.000000000000000000e+00 1.000000000000000000e+00 1.000000000000000000e+00 1.000000000000000000e+00 1.000000000000000000e+00 1.000000000000000000e+00 1.000000000000000000e+00 1.000000000000000000e+00 1.000000000000000000e+00 1.000000000000000000e+00 1.000000000000000000e+00 1.000000000000000000e+00 1.000000000000000000e+00 1.000000000000000000e+00 1.000000000000000000e+00 1.000000000000000000e+00 1.000000000000000000e+00 1.000000000000000000e+00 1.000000000000000000e+00 1.000000000000000000e+00 1.000000000000000000e+00 1.000000000000000000e+00 1.000000000000000000e+00 1.000000000000000000e+00 1.000000000000000000e+00 1.000000000000000000e+00 1.000000000000000000e+00 1.000000000000000000e+00 1.000000000000000000e+00 1.000000000000000000e+00 1.000000000000000000e+00 1.000000000000000000e+00 1.000000000000000000e+00 1.000000000000000000e+00 1.000000000000000000e+00 1.000000000000000000e+00 1.000000000000000000e+00 1.000000000000000000e+00 1.000000000000000000e+00 1.000000000000000000e+00 1.000000000000000000e+00 1.000000000000000000e+00 1.000000000000000000e+00 1.000000000000000000e+00 1.000000000000000000e+00 1.000000000000000000e+00 1.000000000000000000e+00 1.000000000000000000e+00 1.000000000000000000e+00 1.000000000000000000e+00 1.000000000000000000e+00 1.000000000000000000e+00 1.000000000000000000e+00 1.000000000000000000e+00 1.000000000000000000e+00 1.000000000000000000e+00 1.000000000000000000e+00 1.000000000000000000e+00 1.000000000000000000e+00 1.000000000000000000e+00 1.000000000000000000e+00 1.000000000000000000e+00 1.000000000000000000e+00 1.000000000000000000e+00 1.000000000000000000e+00 1.000000000000000000e+00 1.000000000000000000e+00 1.000000000000000000e+00 1.000000000000000000e+00 1.000000000000000000e+00 1.000000000000000000e+00 1.000000000000000000e+00 1.000000000000000000e+00 1.000000000000000000e+00 1.000000000000000000e+00 1.000000000000000000e+00 1.000000000000000000e+00 1.000000000000000000e+00 1.000000000000000000e+00 1.000000000000000000e+00 1.000000000000000000e+00 1.000000000000000000e+00 1.000000000000000000e+00 1.000000000000000000e+00 1.000000000000000000e+00 1.000000000000000000e+00 1.000000000000000000e+00 1.000000000000000000e+00 1.000000000000000000e+00 1.000000000000000000e+00 1.000000000000000000e+00 1.000000000000000000e+00 1.000000000000000000e+00 1.000000000000000000e+00 1.000000000000000000e+00 1.000000000000000000e+00 1.000000000000000000e+00 1.000000000000000000e+00 1.000000000000000000e+00 1.000000000000000000e+00 1.000000000000000000e+00 1.000000000000000000e+00 1.000000000000000000e+00 1.000000000000000000e+00 1.000000000000000000e+00 1.000000000000000000e+00 1.000000000000000000e+00 1.000000000000000000e+00 1.000000000000000000e+00 1.000000000000000000e+00 1.000000000000000000e+00 1.000000000000000000e+00 1.000000000000000000e+00 1.000000000000000000e+00 1.000000000000000000e+00 1.000000000000000000e+00 1.000000000000000000e+00 1.000000000000000000e+00 1.000000000000000000e+00 1.000000000000000000e+00 1.000000000000000000e+00 1.000000000000000000e+00 1.000000000000000000e+00 1.000000000000000000e+00 1.000000000000000000e+00 1.000000000000000000e+00 1.000000000000000000e+00 1.000000000000000000e+00 1.000000000000000000e+00 1.000000000000000000e+00 1.000000000000000000e+00 1.000000000000000000e+00 1.000000000000000000e+00 1.000000000000000000e+00 1.000000000000000000e+00 1.000000000000000000e+00 1.000000000000000000e+00 1.000000000000000000e+00 1.000000000000000000e+00 1.000000000000000000e+00 1.000000000000000000e+00 1.000000000000000000e+00 1.000000000000000000e+00 1.000000000000000000e+00 1.000000000000000000e+00 1.000000000000000000e+00 1.000000000000000000e+00 1.000000000000000000e+00 1.000000000000000000e+00 1.000000000000000000e+00 1.000000000000000000e+00 1.000000000000000000e+00 1.000000000000000000e+00 1.000000000000000000e+00 1.000000000000000000e+00 1.000000000000000000e+00 1.000000000000000000e+00 1.000000000000000000e+00 1.000000000000000000e+00 1.000000000000000000e+00 1.000000000000000000e+00 1.000000000000000000e+00 1.000000000000000000e+00 1.000000000000000000e+00 1.000000000000000000e+00 1.000000000000000000e+00 1.000000000000000000e+00 1.000000000000000000e+00 1.000000000000000000e+00 1.000000000000000000e+00 1.000000000000000000e+00 1.000000000000000000e+00 1.000000000000000000e+00 1.000000000000000000e+00 1.000000000000000000e+00 1.000000000000000000e+00 1.000000000000000000e+00 1.000000000000000000e+00 1.000000000000000000e+00 1.000000000000000000e+00 1.000000000000000000e+00 1.000000000000000000e+00 1.000000000000000000e+00 1.000000000000000000e+00 1.000000000000000000e+00 1.000000000000000000e+00 1.000000000000000000e+00 1.000000000000000000e+00 1.000000000000000000e+00 1.000000000000000000e+00 1.000000000000000000e+00 1.000000000000000000e+00 1.000000000000000000e+00 1.000000000000000000e+00 1.000000000000000000e+00 1.000000000000000000e+00 1.000000000000000000e+00 1.000000000000000000e+00 1.000000000000000000e+00 1.000000000000000000e+00 1.000000000000000000e+00 1.000000000000000000e+00 1.000000000000000000e+00 1.000000000000000000e+00 1.000000000000000000e+00 1.000000000000000000e+00 1.000000000000000000e+00 1.000000000000000000e+00 1.000000000000000000e+00 1.000000000000000000e+00
5.244959703191789252e-02 5.110827711361759507e-01 -2.734685228713064076e-01 7.710927211632260247e-01 5.212618179453144540e-01 5.306755571649540704e-01 5.842971089071845592e-01 3.585372343988391663e-01 5.606168459268294768e-01 5.141263822369006586e-01 1.084887339690146169e+00 -7.218035550268727674e-01 1.418218599191082729e+00 4.643976118164402922e-01 5.206992850225857783e-01 4.106145685044696458e-01 8.523104118000487395e-01 9.797750249136594203e-01 7.404198307809997104e-01 5.189088694204689878e-01 3.709062304823501077e-01 9.914775905775452536e-01 3.652919000726015386e-01 5.400493826338927938e-01 7.403414846778411107e-02 6.663194264425363889e-01 4.015606829703087244e-01 7.033717230605305293e-01 5.309026797418896493e-01 1.617687687825463572e+00 4.954707659298387412e-01 6.055868741398018340e-01 7.186034233545781635e-01 5.190787999236315953e-01 6.947282017399585285e-01 4.582678481215557986e-01 5.511415135640770346e-01 1.840728274171861356e+00 -8.598717960856458453e-02 5.277099011319131838e-01 -2.089236074008874733e-01 -5.622152364236926436e-01 7.469949094383518950e-01 2.298205054847601292e-01 3.123697260129581488e-01 4.918403404983823224e-01 7.714684787185654979e-01 5.090208709688761601e-01 6.613162252483822945e-01 1.023247576717206328e-02 3.028573975058019771e-02 7.783318879930292145e-01 6.813327395515283991e-01 4.229555051605450866e-01 4.627263260100477615e-01 2.028639450930890681e-02 5.502727135150985438e-01 5.101899696533335193e-01 1.976985264856931657e-01 5.267693350452441470e-01 9.243630021232893679e-01 4.750727692128006163e-01 5.047449775363094249e-01 3.652917927837111556e-01 6.770421681760953048e-01 6.378368616444730632e-01 5.244562628565343498e-01 3.852129141085413044e-01 5.636906992144781192e-01 3.433144375482126420e-02 4.499208091281479693e-01 5.971571044969549158e-01 5.243846480882425887e-01 1.006364871038544634e-02 1.521775320699529699e+00 5.387566995604616826e-01 6.376098837943070530e-01 7.210957045145015565e-01 5.223822557493594809e-01 1.387465631539394062e+00 5.447205928819854881e-01 3.452893338498044251e-01 1.436750602146650957e+00 7.538982781380723086e-01 5.121945925536623978e-01 7.526657981462049340e-01 7.978894023645970446e-01 5.350232508776402440e-01 4.220160179897300967e-01 5.764938302735502784e-01 3.119027460672464946e-01 2.220732481091669097e+00 7.770295532775005620e-01 3.994950166175045142e-02 4.764873301915716342e-01 4.956391289773335318e-01 5.646235883166450531e-01 4.824519491681815153e-01 1.899676559687280553e-01 6.574709893851882203e-01 1.634995616358354553e+00 6.886202230808883273e-01 5.379592436049048798e-01 6.196039409023326172e-01 8.567404499440720578e-01 -2.125476621605790761e+00 -1.242193584356693359e+00 5.271547364787817491e-01 6.169918493788449920e-01 9.689378151381983217e-01 5.889727753983848846e-01 4.239197018049566390e-01 1.779829526244382232e-01 5.034075280067398239e-01 5.265664364503737094e-01 4.968674072405759867e-01 4.616267790220801026e-01 5.069296879259539423e-01 9.808391424489506516e-01 5.074401311148574178e-01 1.314546257557189790e+00 5.411394489507523886e-01 6.295887785085743094e-01 -5.186476788916143388e-01 5.137993802687341738e-01 1.970157787574859931e+00 5.210158434482714540e-01 5.340163533276004459e-01 6.768047388910803930e-01 5.139131505583632853e-01 5.659619202317495157e-01 5.179643046183234345e-01 4.339197751994344210e-01 4.477069202756324140e-01 -3.584305180132512092e-01 -1.720590924504020180e-01 6.666235924991262829e-01 5.355332407978573295e-02 1.008123481497659846e+00 5.710602025743249932e-01 5.186064869853924675e-01 8.724403994975615806e-01 5.185672101252410959e-01 5.028801982041258833e-01 5.210003599504484662e-01 3.950875602988892371e-02 9.613106866130394224e-01 -1.256646510360366065e-01 4.277901910895829940e-01 -9.167786512835987001e-01 7.573747467702798275e-01 -2.873331873067249687e-01 4.918562890557545697e-01 5.544968275809846192e-01 4.995188610856213240e-01 5.103004716319922140e-01 2.016322165751861295e+00 -1.512728146364820669e-01 8.232528044378703003e-01 6.662947847461355710e-01 5.528023804851531775e-01 4.368817337428599901e-01 5.263074808049678088e-01 5.234516649252123344e-01 1.070081393255884361e+00 2.352467077800243778e-01 8.521508380266308302e-01 3.199414233603453117e-01 4.109048749140051804e-01 6.519667638394430753e-01 5.848561286376978696e-01 7.698555892722377392e-01 4.917866766717182148e-01 5.220109990375227937e-01 4.032956661799381171e-01 4.672833077556173831e-02 2.133574111197008571e-01 1.046553836792574466e-01 7.547669192077461897e-01 1.143720550711989636e+00 6.759386770386822674e-01 5.146170442357902441e-01 -1.693782697715872920e-01 4.391305192728486295e-01 5.019899985110540808e-01 5.517698116042374368e-01 5.163443056056503666e-01 5.243115693965072488e-01 2.850229482257005120e+00 4.907918151107330540e-01 5.618325217405575334e-01 -9.166848783320626914e-01 5.359787671002755882e-01 5.145459114540433809e-01 1.980438494073656908e-01 5.214450592821656683e-01 9.433030871195218214e-01 4.980592840570603475e-01 4.733673864818125354e-01 5.325587311871259333e-01 6.327819848296758476e-01 5.088841104741596011e-01 8.691122465686293985e-01 6.021033607086528905e-01 5.432116966235740474e-01 4.733674119297184846e-01 2.071034903444250452e-01 1.298258118538506700e+00 5.602099411114555005e-01 4.553639145519839948e-01 4.236801070128184410e-01 -9.341875094753139541e-02 4.942209335605900478e-01 1.552563816386796913e-01 5.135423661900709869e-01 5.189390461823992773e-01 5.212994497505111235e-01 5.213302332801345029e-01 5.239063464538625814e-01 5.221187022585307425e-01 4.386866834212837518e-01 5.673968573425581807e-01 -7.184495196711376819e-01 6.203487257704591862e-01 4.459306420204827703e-01 3.578918199451735505e-01 2.992023089411925685e-02 1.331811886505933407e+00 9.692706319985096020e-01 4.919246851705418311e-01 -1.023794044659276231e-01 1.064663987810446244e+00 5.237671945160525810e-01 4.612894255853831615e-01 6.482028781293013298e-01 4.081892979984457215e-01 2.695868750773131595e-01 1.695339396128608955e-01 -1.628291563377050055e-01 -7.384545460642064074e-02 4.760866592934316355e-01 5.010684717286516543e-01 -1.161591531780085257e-01 4.326647493629325325e-01 5.214704733209039045e-01 5.116237341894999124e-01 -9.484543419898096295e-02 7.604991057438801327e-01 -2.352071012164161701e+00 6.174218499707615493e-01 -6.525899735214525377e-01 4.992211269695763232e-01 5.224924635303557219e-01 3.652935601136139132e-01 4.824954841877280853e-01 5.625319488249659328e-01 5.296841605546288578e-01 7.809730934950992465e-01 5.672306041914320085e-01 1.699521225128817870e+00 6.827712610646855529e-01 6.822804721320731014e-01 4.574033213331344383e-01 3.881671536638278686e-01 9.243629620835143168e-01 4.562116533930044571e-01 2.727664890246018992e+00 4.601819305824649819e-01 2.233220974591006991e-01 7.595986305470763256e-01 5.067005742927283007e-01 9.247839016790818656e-01 5.193587647332306156e-01 5.797418013955164540e-01 5.218106905249211280e-01 1.139035287835218568e+00 7.684446825927813141e-01 8.580814790581263729e-01 8.033732907401648360e-01 5.710168242136377525e-01 6.836907213127312311e-01 5.103239462801690829e-01 3.759309352173173524e-01 -7.416445030000874405e-01 3.896679524034803443e-01 4.766101135148937407e-01 5.593658522704840763e-01 5.403039969205870596e-01 4.968674738417119818e-01 6.105447433704439542e-01 5.348914301929418302e-01 -9.032472636712607361e-01 7.531397969159489003e-01 5.262425407412312239e-01 -9.028314133107869302e-03 4.783210180852631166e-01 1.857668346548074112e+00 5.067211686489293543e-01 5.194413619453805975e-01 4.278023480856135152e-01 -3.483768707001437814e+00 5.238501742233419023e-01 2.913139308472857181e+00 7.699796286046571847e-01 5.001141228918803971e-01 -5.720289070169781720e-01 5.242362089625983712e-01 5.218071603386726931e-01 4.497986735436741990e-01 4.496658961552286726e-01 3.434613424638955914e-01 6.490399781119114975e-01 3.139488225152138878e-01 5.238618817066190703e-01 5.281284564550638994e-01 3.523285459995609825e-01 5.155712284793438904e-01 7.702244713045852675e-01 5.226518962598637463e-01 1.210312150917529417e+00 3.023380607245913787e-02 2.235464098486197315e+00 2.673541393025331558e+00 4.912922027196595098e-01 -2.305978392677906497e-01 3.919192906831119316e-01 4.000276240192994215e-01 7.396035102397607863e-01 1.392675740801965212e+00 5.323330348319387229e-01 1.133738199409880298e+00 5.222142771056398347e-01 1.199910657475316555e-01 1.259782128772336307e+00 5.312826320296862859e-01 5.582569256166847182e-01 5.221853678392294196e-01 9.070985002217517579e-01 -3.814551494729894188e+00 1.653513877146765232e+00 5.196544539587392153e-01 6.358205703874102444e-01 5.173376363455334248e-01 1.840728279251705013e+00 2.977619142734778679e-01 5.616170867881138395e-01 4.940649275221635217e-01 5.695848380728588678e-01 1.372334206161244685e+00 5.409418536886899664e-01 4.733677618285807576e-01 4.326599189523575584e-01 6.021033627326684012e-01 4.598913976875795839e-01 5.705333109040642281e-01 9.020533923880089677e-01 5.211099712286265673e-01 3.818665885210439925e-01 1.538033657243664254e-01 6.597434112157261055e-01 5.219990823112500289e-01 3.070445520405680750e-01 5.616170444291588293e-01 6.357218251212377602e-01 5.169338514382227912e-01 1.041015174382944775e+00 9.458926283241583244e-01 1.154256232721888820e+00 5.219871408977754257e-01 2.162318272510219130e-01 9.243624901906796199e-01 -1.097432364112198022e-01 9.336978572975829227e-01 6.303226150624546831e-01 3.176126965240949618e-02 4.933372081669321063e-01 9.110471163097380032e-01 3.849901989525848500e-01 4.885408734218771309e-01 3.053832223121902834e-01 -3.394408043412258658e-01 -2.511686152496627855e+00 5.218010569376482222e-01 6.021033583728923055e-01 6.021033879534576361e-01 5.066736120210864058e-01 3.702003492136811680e-01 -2.339474662716281850e-01 2.885593978560729300e-01 5.241252156676167173e-01 7.116232902283257111e-01 5.216084128617752835e-01 1.029011921153615283e+00 4.733671370011707791e-01 5.217496238850192203e-01 4.924556991980765241e-01 2.854133690298352177e-01 6.604646622459556804e-01 5.196445135565601614e-01 5.172998527287395731e-01 5.059915766661645664e-01 3.086056228742833918e-01 1.714793752397958046e-02 6.021033590503908073e-01 6.631593737082500661e-01 5.215340816413199798e-01 3.942693679632889303e-01 8.599410772092312971e-01 7.537207145616081627e-01 5.644005211940696931e-01 1.904713320563459877e+00 4.947121357351682569e-01 -3.165947151407501714e+00 7.713941991032855494e-01 1.540497243124181459e+00 5.921632886864623968e-01 -1.103367107353550924e+00 8.271208175875881530e-01 4.380068325137189689e-01 5.307979975960206431e-01 4.969325192697510163e-01 -4.143874443707389887e-01 5.075604804458079267e-01 1.076163220516468844e+00 4.569011679385845404e-01 -3.947260665700604854e-01 5.118984179207787255e-01 5.206188778919641491e-01 7.926839882662669590e-01 4.885091010649989518e-01 5.964898990894595965e-01 -5.417724205825692474e-01 5.611795362246578822e-01 5.196897093470048690e-01 5.716195785717946842e-01 5.240603852819845088e-01 7.697326528872828755e-01 5.201980057210245922e-01 6.204325600075254465e-01 4.808408320938938885e-01 5.099673670531438274e-01 2.497080980899834546e-01 3.223523435545861404e-01 3.555869539923066647e-01 9.705998840522949145e-01 5.565583571857086742e-01 3.244396113292713935e+00 6.567635750400265815e-01 6.586772708441442914e-01 5.471124886405716037e-01 5.596487969088218550e-01 1.983868892264622000e-02 4.923618296741624212e-01 5.131410049398801299e-01 5.208178585773529656e-01 1.158127163942910487e+00 7.697325116877661300e-01 5.123300636414178655e-01 4.386043719531296237e-01 1.119347340435868476e+00 5.172686753570746587e-01 5.688212473904853406e-01 4.950760632922297511e-01 8.362922035251177943e-01 5.235947033478943746e-01 9.432874117954077597e-01 5.336846281770335487e-01 5.225816849482628479e-01 2.996819442896243163e-02 5.356408953769006276e-01 1.101811893311550189e-02 2.986645704992887951e-01 4.010901700305278816e-01 5.778821522998323079e-01 7.867580745772947415e-01 5.096400964116803989e-01 3.847681185354754341e-01 1.086369184867626292e-01 5.015882118877906803e-01 5.354736372814593581e-01 4.447853005485962741e-01 1.314442539239373160e-02 5.209195842275284871e-01 2.582438079677998877e-01 5.230470440567177581e-01 4.100931867260889652e-01 1.262605204457082353e+00 7.611466741826942162e-01 5.011988066209102088e-01 2.493229909667015465e-01 7.834368575478464214e-01 4.430547257738944866e-01 1.000841853117490077e+00 5.880662114296116849e-01 6.205170659582489590e-01 7.044594465658609028e-01 2.020988748408294899e+00 4.849162000787313187e-01 5.301638798398313757e-01 5.098388070839958708e-01 7.528241801462095539e-01 6.023795224635963841e-01 8.633167193261052086e-01 -5.827170213659742526e-01 3.907703205508776811e-01 5.207328452669980345e-01 4.327941839122549372e-01 4.180147726902159189e-01 -6.338440934169085050e-01 3.858108589353707041e-01 5.203824532135302716e-01 7.278176196672613285e-01 6.692246522096314543e-01 1.536388025666466595e+00 5.182155680796670660e-01 5.241366910898214160e-01 -7.260860123640239250e-01 5.152282082220389636e-01 1.239074754104471987e+00 7.215630526962093505e-01 2.855615129993898105e-01 2.391605232653916668e-01 -1.806593231097498586e+00 5.601428226076402561e-01 1.892884942000436499e-01 1.107525555434967668e+00 8.251526482969043785e-01 5.342576901814445334e-01 5.482222325569408028e-01 5.763326860923723149e-01 7.711718736306071298e-01 4.249961200566275132e-01 5.547821638747107986e-01 1.822066967898166440e-02 5.741135865368799385e-01 5.427538558355975429e-01 4.260259974860896026e-01 5.132187382005156673e-01 4.487289637532616560e-01 1.230925681645606895e+00 -9.840747146361790432e-02 -2.436047515698485655e-01 4.115160202298897563e-01 5.369268355492192724e-01 5.306424411163415122e-01 5.032115525390206123e-01 -8.800258585839669800e-01 3.208793961618796597e+00 4.915736973122806774e-01 4.398037680054789345e-01 4.454909010136045011e-01 5.241022716070864451e-01 5.070559441952522395e-01 5.047969841756646536e-01 3.271536070735838742e-01 6.087361815490452965e-01 5.238126851942870310e-01 4.904414772394646849e-01 3.247736924744361597e-01 4.021000289824079865e-01 5.705505481718430305e-01 4.052839538774619665e-01 5.378160965628703272e-01 5.342534060739944080e-01 6.765495375969624581e-01 1.022262691046289751e+00 2.340412192243709999e+00 5.061440358657338656e-01 4.998540936226747444e-01 3.627401744966792241e-01 4.749652913763796613e-01 3.795856661044571534e-01 5.226706056703225300e-01 5.147221347897059651e-01 4.984335462577381692e-01 5.735783218152495921e-01 5.070976494274456181e-01 7.707319671837752351e-01 3.645189956223645056e-01 4.030099974640685145e-01 4.086442995949754464e-01 5.000925845178283424e-01 1.082044417777443535e-01 9.243629779546199687e-01 5.638504059551754377e-01 9.450724317941099073e-02 1.913769283532508192e+00 3.119230105416894716e-01 4.066900525574793090e-01 5.954832665705472872e-01 6.529326326740138298e-02 5.508250344052488812e-01 1.529557372446305630e+00 7.990643360113995897e-01 7.074224546112780621e-01 5.203811700377772853e-01 5.362041306802922680e-01 4.354784081851868494e-01 6.519712391174752320e-01 5.388092800188277742e-01 5.199160575913306381e-01 -2.578577582391851086e-01 4.919809130583956969e-01 -1.575776097542352927e+00 4.836099145360446827e-01 5.179282958004763904e-01 5.221392290563149352e-01 4.278175760900969626e-01 9.243629779598594443e-01 2.222034645969067079e-01 5.149527653168316510e-01 1.365018771632066974e+00 -5.768363895123527207e-01 5.251564839911866400e-01 1.152655008611447984e+00 1.551632446836036516e+00 5.729717709441874973e-01 5.244358584458124195e-01 -6.343042751633987120e-02 -1.712553132382096610e+00 2.700728128710148113e-01 8.326679364489139035e-01 5.269737419959074076e-01 5.227391204805595937e-01 6.179274502052192197e-01 4.812828169572005432e-01 -4.226639972188381278e-01 8.314293927902703940e-01 4.968665254278943899e-01 3.259096521401557700e-01 5.314532984456215026e-01 -1.485093756177933034e-03 -1.661930966704057433e-01 1.823912917606085982e+00 4.114852847008140246e-01 5.460356962941856906e-01 5.188062137524930284e-01 3.216895488942433379e-01 5.222506134046348558e-01 -1.249137223844499212e-01 -1.290635614611920445e+00 5.237354675756454858e-01 5.171828500608838253e-01 4.803616953516087196e-01 5.805103505717241763e-01 5.203532821338677783e-01 5.467175462294247001e-01 5.294219133505611019e-01 5.625753304551845968e-01 1.038430765555290902e+00 7.154728615510607126e-01 5.202639775481554540e-01 6.225115783578009099e-01 5.125838536075305596e-01 5.107933227629799511e-01 5.245747234793596281e-02 5.616170988116965246e-01 4.352100811373279532e-01 5.615241631196247196e-01 7.557021088552567933e-01 8.596830130883504895e-01 8.632966724588381213e-01 -5.361121581098832189e-01 5.213908681101289133e-01 4.561173087399211790e-01 5.233689323562027429e-01 5.946646158178703345e-01 9.135791660598652220e-01 5.171160575913090751e-01 5.269129955446009150e-01 -2.941830606052527886e-01 -8.939483721967560470e-01 2.334199158643752714e+00 5.057005418722163581e-01 9.032719119231741312e-01 4.140595769521537295e-01 5.760311475752519783e-01 3.950810163653238893e-01 1.519661779092673359e-01 5.197531371357034802e-01 5.374906589182160133e-01 -4.641312583986338322e-03 5.211050498459316449e-01 4.462883081673581498e-01 5.278529915098455483e-01 5.392300260394069511e-01 5.203740760638261298e-01 6.309379542650028760e-01 4.228366767461926301e-01 5.641910118659616558e-01 4.887787168753925937e-01 5.160322349273736009e-01 4.127691195344264652e-01 5.114972031226551197e-01 -2.548927869334270957e-01 5.160318701444250866e-01 6.418714438107840925e-01 5.564630169922861747e-01 7.712997953318933009e-01 9.243630874242120266e-01 7.267686755260638343e-01 -6.124548993909986194e-01 9.806661641018508124e-01 1.840728274158135225e+00 5.047607724880023294e-01 4.637674958570924266e-01 1.086198591216668063e+00 5.668312624464930671e-01 7.713676471260193512e-01 5.181834695221705367e-01 1.871852617006422914e+00 5.233861398873477233e-01 4.326642936918593252e-01 1.235878753349806347e+00 -6.650337245122492358e-02 4.984003927536871936e-01 -1.551019530991282758e-01 -9.822315669468483224e-01 -1.662611663341427293e-01 7.735234522754312891e-01 5.738982169784576648e-01 5.184977330852623689e-01 -3.209023052771487472e-01 5.406165926236116137e-01 5.388628803135648432e-02 -4.056566587595575868e-01 5.322472692524342630e-01 5.161850818865006962e-01 5.249216529419489241e-01 5.234593019060118646e-01 4.806516924293034454e-01 9.168653135071280769e-01 -4.365919416281500154e-01 5.198904198549086919e-01 4.970504093577844951e-01 5.928099465605872753e-01 1.174357423723486393e+00 4.856004588265860344e-01 6.800714485080577854e-01 5.206680347710730405e-01 4.924270734382097531e-02 -4.149063028218636928e-01 5.566381077575732750e-01 5.662130183724229937e-01 6.865981463354415837e-01 5.148082482358355971e-01 3.659113734226383530e-01 5.244028396500274303e-01 5.182205046797064840e-01 4.002378211256666929e-01 5.334632910541130535e-01 8.407642809552834384e-01 2.588202203173463722e+00 -2.491095623798485759e-01 6.585037467839428560e-01 3.390644033920150457e-01 2.020845830085397643e-01 6.573695970731855409e-01 -5.601826805872672094e-02 -1.579951748272657719e+00 4.960923498991408609e-01 2.650584511298170298e+00 5.787840907136143631e-01 1.662228167036244320e-01 1.582408112646346565e-01 4.968674070656617370e-01 5.898536329204921991e-01 1.580242275255516304e+00 5.126298676233930207e-01 1.260654085108545985e-01 4.182702209631519175e-01 1.733007146173610513e+00 6.033963561040095458e-01 7.857449579558125619e-01 5.288398950274312282e-01 7.381422968836411913e-01 4.638110700732370750e-01 5.793983406208587095e-01 2.406035549410641405e-02 5.281405750325466331e-01 5.591477003793540179e-01 -5.824182560362379801e-01 -9.503443946111489460e-02 1.181332648644567218e+00 2.394575213683476922e-01 4.802691719069504539e-01 7.168852832323059365e-01 5.344042509085717985e-01 2.019229910398142369e+00 6.692921650578149695e-01 1.881169876883466430e-02 3.501179204743770645e-01 3.960545350732123659e-01 1.137911474771717169e+00 5.024792000807315473e-01 -2.653563671980621597e-02 5.323023256806913572e-01 -9.326481960544433236e-03 5.425086867558495118e-01 5.182574500216565738e-01 4.066094178834274778e-03 -3.141961622441117458e-02 6.627918577522277088e-01 5.279158011166176223e-01 5.895763876320510022e-01 2.056707250087215499e-01 4.143844361680801280e-01 5.214776038620005938e-01 4.698829463159525655e-01 4.956786804150163372e-01 4.793219396922439035e-01 5.899134139821357037e-01 1.020228048612971117e+00 3.169190201889833691e+00 9.570474376974776876e-01 5.252503945150526210e-01 5.898021519926857081e-01 2.174620739090809274e-01 5.186220024479354374e-01 8.569873564108717590e-01 5.058590893211454276e-01 1.317108875244344723e+00 4.712311353821434512e-01 -5.896976950454276833e-01 -2.006046185443067717e-02 4.183793890154202111e-01 6.151817820368497003e-01 5.672453814781344139e-01 5.230096289070942372e-01 5.740587090159134098e-02 5.241559642157489485e-01 4.831601958971881716e-01 -3.800195415990526460e+00 4.786795933902092126e-01 5.152815524987265361e-01 1.137097869574303699e+00 5.231198170960449367e-01 4.425740132676065919e-01 6.766591646342092758e-01 -9.065521901558817319e-01 -5.003056407173980258e-01 2.923974592415067367e-02 5.211292226126978955e-01 5.485072207486064721e-01 2.120990185305708653e-01 5.240521546334694358e-01 -3.445958869605800223e-01 5.687441499232469555e-01 5.418291181881739194e-01 6.963030843959147065e-01 5.516452696719418292e-01 4.683217483629357747e-01 1.477756062116877545e-01 -7.777367830467888377e-01 6.556497884060145109e-01 5.584627963273610662e-01 1.563904756148599695e-01 5.180295040995364086e-01 5.350373516360659165e-01 5.145146115213466986e-01 6.689553147723175108e-01 5.787876962461031560e-01 5.483836782995914483e-01 5.033997635945403060e-01 1.840728272039009017e+00 3.531756416407179078e-01 5.373464452414682402e-01 -1.332371274050928034e-01 5.351707568064275611e-01 6.377517315782905705e-01 5.051194850785734047e-01 4.860188869920655796e-01 3.652265933755838856e-01 9.527245712989048654e-01 1.221314550788859199e+00 5.549919826705994597e-01 5.880501250303946659e-01 5.969395655791266408e-01 4.877326527178134086e-01 5.488820350767410483e-01 5.219171610890174229e-01 9.807215368873023476e-01 6.946403978779224220e-01 -4.629859685940329594e-01 4.620276237044701473e-01 9.056325507828596466e-01 5.194052532587425386e-01 -3.244028698785932086e-02 5.302532908370598541e-01 1.455769324090634864e+00 -1.386894770801845311e-01 6.383228353075716122e-01 2.374622674372433295e-01 4.709006477732033957e-01 8.615593735318168855e-01 5.177937990753765929e-01 3.727310265943155065e-01 1.408754328850581716e+00 4.690183490281559231e-01 5.219176254873876264e-01 -6.961724020215561692e-01 4.436632603246924988e-01 1.040089680353091017e+00 6.191605027013058482e-01 6.964347734773297660e-02 9.866898186639051493e-01 -2.511729254269853134e-02 7.110173259556247238e-01 1.647398284586439221e+00 -8.652534118917902806e-01 5.835784328206758964e-01 5.214894787143674604e-01 -4.741489644699589667e-01 3.034287555500009836e-01 5.913451140564441877e-01 5.050284860604382642e-01 4.864991692720809779e-01 4.096929755315973920e-01 2.628489190448034529e-01 3.464079745428942925e-01 5.798239719906501666e-01 5.238023092357995125e-01 8.468068736544299979e-03 -1.437931835679516768e-01 5.373785619194078045e-01 1.067411380668852328e+00 5.184483943514075488e-01 -5.823534595698990346e-01 4.660523104417513274e-01 5.218535599166177485e-01 5.601559863396510242e-01 4.560752256702034491e-02 3.259136312715698036e-01 5.213272303456500945e-01 5.281039204843362977e-01 4.522572431840021778e-01 -8.279015887428339826e-03 5.625631185177780713e-01 5.285712117638152741e-01 5.942173517552487017e-01 2.103059472067243973e+00 -7.633759889760966671e-03 3.881222616780126700e-01 5.704892708296157577e-01 1.850222839542312148e+00 5.088574232490239435e-01 5.411417714161903536e-01 2.338130618799737215e-02 5.616170791358311432e-01 5.260220606049511582e-01 4.776428416538369692e-01 3.922915880146228274e-01 5.088474311596563604e-01 4.317707550940111938e-01 5.143327421130784449e-01 -5.538257188492118344e-01 5.197342143128557135e-01 5.013878033367006326e-01 5.129035659009516523e-01 1.212949991549968409e+00 5.262948614859211949e-01 -2.480169032546779007e-01 1.115969230703206083e+00 -1.304943445961182835e+00 -5.386618407715065837e-01 5.409221363169125496e-01 5.219308039967082147e-01 6.619192756748332185e-01 5.234198262448299666e-01 4.723369855783996485e-01 5.393866475983457587e-01 5.616170906809553331e-01 5.194745751464804329e-01 4.868068114885478193e-01 5.989788020626445331e-01 5.208996680119650780e-01 3.125820424917870599e-01 5.143876245386703738e-01 5.410376500033075020e-01 4.008351511572229020e-01 5.203226873774448036e-01 5.242069670842203211e-01 5.356186990436121453e-01 6.541424354134048880e-01 5.233190999265133758e-01 7.125667395142217808e-01 5.079274387284619108e-01 5.293253868530738426e-01 5.388155903412124026e-01 4.054129212853388453e-01 3.720451241540142506e-01 2.461072416953845821e+00 4.877483447148970863e-01 6.187921119507683310e-01 2.975335158419303294e-01 5.807812591836997163e-01 1.118764153129778505e+00 4.180078903310422422e-01 6.940352646167419204e-01 5.230391726446511624e-01
7.147327898531902202e-01 3.041294339870820318e-01 4.440642169150827989e-01 -2.276760206210294568e-02 3.113724923798638078e-01 3.715522184738688227e-01 5.374980454821655096e-01 4.046908097606962129e-01 3.521826891796276393e-01 2.952935633387515635e-01 2.074373192002433974e+00 1.731113191171003818e+00 -1.466727896321888380e+00 5.978085024380582757e-01 3.143100307549324124e-01 4.560055341831221742e-01 1.340559002099194763e-01 4.441990187487522279e-01 4.169835689681896107e-01 2.936680183068248184e-01 4.297328803925771212e-01 2.143888573454761914e+00 3.634857490513447864e-01 3.527248250459305012e-01 7.467613228456161378e-01 -1.816656149202507675e-01 4.186531927508772011e-01 1.948388929642945744e-01 2.718162061747845248e-01 -9.164823789709024560e-01 4.317164491866161691e-01 -1.538753217989437261e-01 2.891181419907399852e-01 3.352745806876221701e-01 -4.144401986049473519e-01 4.975879853644151751e-01 3.337701049438080991e-01 -3.841212783236815365e-01 -3.289141017106326892e+00 3.082964784768587596e-01 1.187011048291509496e+00 1.451940431494895545e-01 -1.684963591896873336e-01 7.916724521851606911e-01 5.746585178459679977e-01 3.249024221056324713e-01 -2.318256088620565536e-02 2.994458224279433756e-01 1.557149869316436785e-01 6.531962100862411802e-01 6.873962090651998258e-01 4.995192496236909863e-01 -1.708320354635995408e-01 2.342349501346491503e-01 5.961113804896993607e-01 6.547406537781905733e-01 3.129519401274802881e-01 2.430735036074647692e-01 3.454374790719251798e-01 3.411730936249892654e-01 4.315116981270113450e-01 4.367750111149245051e-01 3.364957493516952391e-01 3.634857562686200083e-01 -3.435622215344216190e-01 1.291488856709353816e-01 2.999032295793760405e-01 3.127156821352711780e-01 2.223929212610646078e-01 7.110987495890662702e-01 1.478454575626676204e-01 2.438081510754796788e-01 3.226027879681510058e-01 7.272693087404673573e-01 1.939548189177151327e+00 4.343985875614723713e-01 4.766451915633364012e-01 4.823786593288162949e-01 3.121283201641181226e-01 -1.353186158459663835e+00 3.216361470860412131e-01 5.559848830663913777e-01 2.380765829483897367e+00 7.465477355885703770e-02 2.543322263923915028e-01 -3.643513614769153253e-01 1.369169695912187124e-01 2.746360370664037154e-01 -5.825844397843253919e-01 -9.056956068084454081e-01 5.746928257380026217e-01 1.604207211414360401e+00 5.834542441654263362e-02 6.807924640732035959e-01 3.528320727149857894e-01 3.409262613480925075e-01 2.667723876479152767e-01 7.770678010819697112e-01 7.368958016325513061e-01 -1.804254361214617242e-01 -1.799652573328554273e-01 5.535205029442707286e-02 2.860057650960109998e-01 2.152405418054838260e-01 -4.911291740952480195e-02 3.154213407958507354e+00 -2.928905206148421092e-01 2.953261687188066253e-01 8.913516251514301547e-02 8.115734667083213116e-01 2.654135656374515539e-01 5.153738573735865414e-01 1.620652413244944301e-01 3.905384558277772977e-01 -4.761595629766984805e-01 2.532637774492738081e-01 1.154166768466204918e-01 4.254450543925916706e-01 1.150204492342277618e+00 3.431944011365469782e-01 -1.469891280418847090e+00 1.472119331896926953e-01 8.987751830988534307e-02 1.453430028027168808e+00 3.067033161382338169e-01 2.196206068493004704e+00 3.566243553142595668e-01 2.133323695845581458e-01 3.098524370708320985e-01 3.149210563628156989e-01 3.424428824732765331e-01 3.107489986787292380e-01 6.738003292953205214e-01 4.198923476955340184e-01 1.637304650414748708e-01 8.580392464747194081e-01 7.244440360553163760e-01 7.113975217987974498e-01 -3.389127170698001401e-01 2.149427296770118900e-01 2.838606839707468743e-01 3.220092360799470255e-01 3.459753847722314979e-01 2.439494447020509327e-01 3.128662943081005343e-01 6.998720875110536754e-01 -1.729848323906533758e-01 3.192505681439573029e-01 4.298580988372162626e-01 4.023803357823646509e-01 -2.116908502513894508e-01 2.698302772055360607e-02 3.248891710332101335e-01 2.767762026480085624e-01 2.857133903513163209e-01 3.148924659848550411e-01 -2.461691101346703991e+00 4.656915937319696663e-01 -6.056685464951607756e-01 -1.859832374083988660e-01 1.597853931057546806e-01 3.514938311118644410e-01 3.084392082133883273e-01 3.122461155795567822e-01 1.267808164221005118e-01 1.090467179706500617e-01 3.188100552233464891e-01 4.788968259972548602e-01 4.358134175925391651e-01 2.925403802528657726e-01 2.109592295040749743e-01 -2.437227393711470166e-02 3.249573737983141308e-01 3.102683326211131409e-01 -2.528321775207899247e+00 6.740466637928468341e-01 5.836924627854139791e-01 9.423663405429250073e-01 -4.596664701794918040e-01 1.174048495479542487e+00 3.232460400672403089e-02 3.182221278298125733e-01 1.244015411693506712e+00 3.450226691946629565e-01 3.100517701120217295e-01 3.017804893904036390e-01 3.448895298851816782e-01 3.240794835220935921e-01 -4.945790227196160682e-01 3.066811446557720089e-01 3.122170407961453731e-01 8.217549741235784522e-01 2.848460003522870765e-01 3.528479729091641426e-01 2.452479347974524104e-01 3.084313521684628467e-01 -1.684110996709319963e+00 3.259336852358751813e-01 3.388373011775147603e-01 3.114586831772691577e-01 4.446700399015052207e-02 3.736456045374441093e-01 3.888874918378689705e-01 1.477601267805462582e-01 -7.650106768560505088e-01 3.388372656644266234e-01 4.865535439036872134e-01 -5.213067383163620949e-01 3.497722219446816605e-01 2.039615366810391961e-01 2.358327016441441604e-01 -3.292205402693034522e+00 4.363335974955164231e-01 9.175254776335679541e-01 3.148636290166022533e-01 3.146116753751819761e-01 3.113417019372748951e-01 3.105636408299972673e-01 3.101864345116335797e-01 3.095340889825232145e-01 3.674213647325528798e-01 9.679209640691789629e-02 6.701731931059601299e-01 1.053111754606906036e-01 4.666028223855880896e-01 5.139720093752916386e-01 4.052373149037813982e-01 -6.952314230156589892e-01 2.320456416849554948e+00 4.046955314946732996e-01 1.248904635525294182e+00 -1.398707034990795295e+00 3.163683278404944010e-01 2.553862195632404797e-01 3.515535085968229945e-01 1.187158342363788588e+00 5.228176765458694142e-01 8.278586087266677218e-01 2.869436049203581973e-01 6.676105934883852511e-01 2.424864311698431418e-01 3.023924545026612232e-01 -1.185294990598410036e+00 4.199497910868772443e-01 3.090781025786406011e-01 5.009405022742191571e-01 8.824124663874556296e-01 -3.762356272240414690e-01 3.202644718182215744e+00 5.014850634470570112e-01 1.292610316540253379e+00 -2.633507742826942111e-01 3.197247398760159065e-01 3.634895670655457489e-01 3.454257754780765133e-01 2.459422342920811466e-01 3.478061976110560227e-01 -1.480307987616158727e-01 1.003698356926514129e-01 5.624688290512904754e-01 2.465510816124742155e-01 9.984517834936462721e-02 2.399776538522752078e-01 4.625728614646890668e-01 4.315117237067008227e-01 2.560348358049485129e-01 3.280020701036248543e+00 3.536461478359939625e-01 6.518070488737015555e-01 5.279978015696867866e-01 2.277099319833639779e-01 4.312356544216215948e-01 3.096669245589530606e-01 3.001187171553312827e-01 3.113739355562765709e-01 -6.030229150456607456e-01 4.275352028265603233e-01 2.852174893874319661e-01 1.424796431423435150e-01 3.306296868052874816e-01 1.548219279706358087e+00 3.663202703780126801e-01 3.136667610017394581e-01 2.006680921853371657e+00 5.077056785872807732e-01 2.736228948116856685e-01 2.688027571381318981e-01 3.105175486599617285e-01 2.532644270504915140e-01 -2.070809822818405532e+00 2.847088779299592476e-01 1.575734099015135170e+00 -7.029992278097352276e-02 3.600866861714818179e-01 6.722412750149663330e-01 3.292969226000727612e-01 -7.286964962250088718e-01 3.832497921280719200e-01 3.017305142333419066e-01 4.298912782438695235e-01 -3.995550838954942674e-01 3.068474788377895668e-01 -2.317334755909459698e+00 -2.428067241172799512e-02 3.274728779402925616e-01 5.990353456823894751e-01 3.089174221360813100e-01 3.125263004849400672e-01 4.909915643259926132e-01 1.767565488772080140e-01 -8.993057981980345783e-02 -7.721288763060923932e-01 -2.163892589439137416e-03 6.882306264602263690e-01 3.163554077817915533e-01 5.017453295465348351e-01 3.285929547457073219e-01 -2.382833771516635474e-02 3.088645047082588246e-01 2.466537147069197022e+00 6.799784485956850144e-01 2.470862254720086471e-01 -1.174654940958332228e+00 2.342622707683912897e-01 4.751007264370154637e+00 3.924117920443537244e-01 -1.766383579078091015e-01 5.714315929257295368e-01 -5.654352894130082241e+00 5.267055469278975055e-01 1.569128297665460581e+00 3.101310896107560833e-01 5.278310402855482808e-01 -4.511108586256951658e-01 4.349912338087617569e-01 2.782796012433794708e-01 3.125216928996681909e-01 2.216841891335337711e-01 2.970765309872654303e+00 -3.793006736715670013e-01 3.022749217073879002e-01 -1.929878147636649777e+00 3.288673064792807521e-01 -3.841212825926472174e-01 7.556238345516186339e-01 5.105039932384689561e-01 2.616264206377836854e-01 2.831882888121509678e-01 1.268411481745258529e+00 1.518329857216142165e-01 3.388370010209345584e-01 4.199560433175961172e-01 1.477601177085482720e-01 3.459658543827582866e-01 3.889695969862454472e-01 -6.195937871792872587e-01 3.142327917915438418e-01 5.589924264556735967e-01 3.979588416496412373e-01 1.729818748881795931e-01 3.130696162955592388e-01 5.006445706077392588e-01 5.105039779268222278e-01 4.797464319810880173e-01 3.144897073162276624e-01 1.733794613588257316e-01 3.956635556141361310e-01 3.480551714920928408e+00 3.187705284052991805e-01 1.175348138895754013e-01 4.315123208537222643e-01 8.406870747025847468e-01 4.689683944529145498e-01 -1.943120337891512117e-01 6.841925540157512975e-01 3.541283444466801211e-01 1.231874474731543129e-01 4.161512633690626628e-01 6.769872020627912823e-01 5.600192625271698255e-01 7.922852583509727431e-01 8.197177434552371800e-01 3.102047621025944557e-01 1.477601266797203272e-01 1.477600801679979925e-01 2.325277984145985577e-01 1.916918989221672587e-01 1.119816154205465208e+00 3.936803386645568170e-01 3.234227924091088724e-01 2.944439859759455103e-01 3.091967810196172284e-01 7.552384814554113923e-01 3.388369154406206674e-01 3.135422558238730173e-01 4.342969784491465535e-01 2.230625139318844485e-01 -6.389796780976453316e-01 3.230069027812940141e-01 3.148533247622815612e-01 3.816421978907318935e-01 6.790371242074809688e-01 6.850067692468847502e-01 1.477601264561171635e-01 1.143099104916474595e-01 3.173518975957090871e-01 5.052494078055812521e-01 -5.940003202604323684e-01 1.792240463297898601e-01 -3.555349710616795722e+00 2.003744737005669130e+00 6.343445659245651180e-01 -4.750708770403003212e-01 -2.265062086011445514e-02 2.073964536371619705e+00 3.185619816496338963e-01 6.474872334640416893e-01 -3.912221287912220902e-02 3.750848585658592693e-01 4.119931296188282799e-01 3.003470258392583747e-01 -5.249683124513818688e-01 3.691707002534150850e-01 2.079957231299965237e+00 2.587542977485158824e-01 -4.489293589710750543e-01 3.038243327497928692e-01 3.074014099377840870e-01 -1.460906094036399150e+00 2.788290810136095921e-01 3.688973705332468933e-01 4.033832196912586210e-01 1.286509785177055720e-01 3.177098323471668206e-01 2.088590418287023243e-01 3.098623661482993175e-01 -1.611503992754629300e-01 3.247935742498064271e-01 1.052767241393860742e-01 3.049898274800461051e-01 3.061865276785764034e-01 1.208905406740526899e-02 3.906521496256392667e-01 5.328788461194368109e-01 -1.409187988773703770e+00 -6.315420246090107659e-01 -1.163665683120195804e-01 1.238030239354528245e-01 1.905153332669756450e-01 4.334568733053228429e-01 3.607245615408044559e-01 7.222719415248047836e-01 -1.360251714127587996e-01 3.270702964928070000e-01 3.244734346279361525e-01 9.484557257692824428e-02 -1.613838375172882700e-01 2.879348321327307447e-01 4.630406499766900885e-01 4.798727829739634076e-01 3.026841596235882448e-01 2.807123753451906123e-01 3.085877900971865651e-01 2.481731504955274892e-01 3.098903296678592878e-01 4.937003330216025998e-01 3.272463601110552345e-01 3.118520049322084930e-01 6.850315111181224381e-01 3.329462918710425767e-01 7.311665598849378389e-01 5.280535237304243359e-03 5.576743195637419159e-01 2.743953068716158961e-01 -1.464621443433002712e+00 3.052205708574966536e-01 6.391161762100108223e-01 3.579117097078161058e-01 3.379363255714810110e-01 2.701264741340620446e-01 1.794340245173919601e-01 6.844741932597713241e-01 3.138478283513918554e-01 4.149161784464048264e-01 3.112406452868940465e-01 2.764025291636927339e-01 1.875666384272244580e-01 4.899075771883329433e-01 3.219327607430577665e-01 1.894953421503871582e-01 6.676422380482591179e-02 8.703475379433391057e-02 1.656299271067839918e+00 1.855044528928302960e-01 3.515631173563103506e-01 3.870169590218482947e-01 -8.577846748052802006e-01 3.423357539014521556e-01 2.446318401419422806e-01 3.632957288926673689e-01 -7.036491217375062668e-02 2.790298685695812853e-01 1.654020373171585678e+00 8.931416391675233157e-01 4.582562973094429504e-01 3.217652486074316642e-01 3.317563738520804550e-01 3.451077736628959114e-01 9.288666460533141489e-01 3.070697262774207292e+00 3.146283949625990339e-01 2.080783313357490588e-02 5.874458728910323391e-01 -2.243230469023447526e-01 3.079164718956851621e-01 3.200271809845580129e-01 1.080796028777773143e+00 3.109471975187505510e-01 -3.375129371579148607e-01 3.863563802952187376e-01 1.332666396724332403e-01 6.290413058638232302e-01 1.823185298175491242e+00 2.482603938335671556e-01 2.715890818184690803e-01 1.667775924554818046e+00 3.952429031971986806e-01 2.535975198019685406e-01 1.645682447212188648e-01 2.107878019946965165e-01 -2.326676072039905036e-02 5.151100536637296390e-01 2.430336135804227471e-01 7.222038550296525639e-01 2.734454409636755123e-01 2.221639257906481424e-01 3.218379953193212240e-01 4.046237528944436335e-01 4.053507611254989484e-01 2.613894001701695391e-01 8.896303071554143571e-01 5.142951476984707337e-01 4.929840137421784840e-01 2.827084303242761165e-01 2.473984121712556050e-01 3.102899522042023572e-01 5.910090318297738232e-01 7.770638075042520798e-01 3.679742410640054473e-01 3.151066303600419394e-01 5.619989154073103954e-01 3.110588039648631287e-01 7.093571445600592718e-01 2.945751101672467454e-01 4.718596902083076472e-01 -3.096218443310654878e-01 3.103280863294812786e-01 3.335166991096947253e-01 4.429396493481829178e-01 2.355855865495381785e-01 3.303571842189810259e-01 1.809046814580899110e+00 2.875741865836967462e-02 2.754825931956235152e-01 -2.051148795699837546e-01 1.668106468456181934e+00 1.158015885057646965e+00 3.814574956405625966e-02 -4.471191629221425989e-01 4.336423233054398363e-01 3.028428255660402524e-01 4.994140940589525401e-01 3.140656558875877802e-01 3.129645612166426782e-01 2.158516274304922988e-01 3.375202079224614571e-01 3.221570152472635340e-01 -2.264510925369441971e-02 -2.229366062109299218e-01 3.336812556154976628e-01 2.523042521543509831e-01 2.377317140674073959e-01 8.769689393858357551e-01 4.315117123892730500e-01 2.898740996107153634e-01 8.527842772207628874e-01 4.755305721417337206e-01 5.751092479175542449e-01 4.622466774391313926e-01 6.964538336131743668e-01 1.478707067463342018e+00 3.814193512575022038e-01 2.106863864804299435e+00 -2.408723979745045624e-02 1.513637456269758264e-01 3.118367142110889390e-01 2.853685540656883401e-01 3.687927294466143424e-01 2.925695819315282109e-01 3.225667369920314775e-01 3.111676443658571989e-01 3.665316437530558025e-01 2.091751967464535455e-01 -3.393817875467434741e-01 2.591043733742069421e-01 -6.546670812577633225e-02 3.023183502137893330e-01 4.299510914555152996e-01 4.315117124483516808e-01 2.236813122073685323e-01 2.088255813697128815e-01 -1.274087502530596216e+00 1.974034779758580660e+00 3.089161281301171513e-01 -7.444466330688370714e-01 2.970864075196029130e-01 3.226998850771292116e-01 3.110555171121813789e-01 -4.820796589292981160e+00 3.561372342238842137e+00 6.313348087490516791e-01 3.887198009980756541e-02 3.273900722444467171e-01 3.133618251541610555e-01 2.679840244980458142e-01 2.640201068366811121e+00 6.275901512285345651e-01 3.191963162525752740e-01 2.532639925477845888e-01 2.925355813408626604e-01 2.968307796441519431e-01 8.599456848607588411e-01 -3.746340275542389131e-01 -1.210460563368591203e+00 -1.227553579076019474e+00 3.172470528193719885e-01 3.095877803536082329e-01 7.324452690245329967e-01 3.721038522696120676e-01 1.447370086790967791e+00 4.848659773263603312e-01 3.083449093220789750e-01 3.097971814049608752e-01 3.223548582635728521e-01 3.335159765671765753e-01 3.024015496405046410e-01 6.428926761826824210e-01 2.685851522567225813e-01 6.609642763115045616e-01 2.300528364717587537e-01 5.104850751714139212e-02 3.024345552661513725e-01 1.811932913322899241e-01 3.285347940523660193e-01 2.555286698818625690e-01 6.399244205163249211e-01 5.105040001631664381e-01 3.290202304754686891e-01 2.580530323820438565e-01 3.076285747500420720e-01 2.706580317904195288e-01 1.654033885977800100e+00 1.914698958037203580e+00 3.030358225455618837e-01 3.486235143316707141e-01 3.091027014529549866e-01 1.638577771800086291e-01 2.253853838314306413e-01 3.745390679432692438e-01 3.145468817454490917e-01 3.264927075748533247e-01 8.053980209660155376e-01 8.892952406931654563e-01 2.581854139976869633e-01 1.880351908370206715e+00 3.145124269374964809e-01 -2.491656934277559077e-01 -2.724322299486938159e-01 -3.082982720113763841e-01 3.095441595905940035e-01 2.841247228854845708e-01 7.109478524984195191e-01 3.101679179775972961e-01 4.542954819912475295e-01 3.358592567645419247e-01 3.460258163797963471e-01 3.015321296295604414e-01 -4.157767985185716747e-02 1.013715464949455303e+00 3.291589923623935432e-01 3.845683592665526396e-01 3.154643570049204815e-01 3.540111389991150159e-01 3.282549241582644606e-01 3.945807120018251513e-01 -8.886932135178575443e-02 2.224503468763663339e-01 2.902390155340688893e-01 -2.324246510716319186e-02 4.315116695500184618e-01 1.101465384940029102e+00 9.655140826126989984e-01 -7.243667429933279278e-01 -3.841212782427187444e-01 6.589255644853263538e-01 -3.351733457938279148e+00 1.576981195602186192e+00 2.786100425223561050e-01 -2.236039021639938534e-02 3.099842425677214464e-01 8.978958804591490317e-01 3.116169641117866318e-01 4.199501006807279113e-01 -4.376224828240725673e-01 8.198502975098941326e-01 3.213654093156723679e-01 8.683280726159271490e-01 2.101724869683052610e+00 -3.744706057445517100e-01 -1.474358049262892045e+00 2.392869029871671216e-01 3.119907220726652053e-01 7.557999643115583810e-01 2.831491620946066101e-01 7.033136653483847978e-01 4.691256095201529197e-01 2.691221759349367582e-01 2.994980899584290257e-01 3.116239918507174855e-01 2.662297152058764604e-01 3.060646081745559965e-01 1.422755238033418523e+00 1.649768981261577672e+00 3.056009012096744248e-01 3.434422907967900618e-01 1.787605035464515379e-01 -2.468165507142271176e-01 2.206808237912413206e-01 -4.245159572263367681e-02 3.118800243865675337e-01 7.036062569833079205e-01 -5.246081688335426652e-01 2.706710178153168833e-01 2.862854330226020094e-01 1.532818872953468359e-01 3.118654069594689604e-01 2.041965605805522166e-01 3.090523512533345230e-01 3.099859089710120252e-01 3.228035731668909419e-02 2.872303550360678082e-01 4.349720523553050611e-01 1.128109217303716161e+00 1.107930570074138643e+00 9.199939517661150923e-01 2.046379718818366888e-01 7.889605465135811624e-01 1.509449853915847961e-01 4.927416133777895446e-01 -2.155632315525325193e+00 3.042314959789633733e-01 6.601741287522405743e-01 2.896772248812864436e-01 9.497170919758146646e-01 1.375704238203502072e+00 2.532637764463540053e-01 2.517926071222329476e-01 3.751194304793992185e-01 3.739004739526096688e-01 5.494774734728354870e-01 9.260689815582211493e-01 -8.032380499800313434e-01 2.204434440377194271e-01 4.534922193183874017e-02 3.052247495876482253e-01 3.411954113482838502e-01 7.668639383106836682e-01 -2.454764858618393719e-01 4.058089234730853367e-01 3.019610052536935152e-01 3.608766051593185198e-01 8.934730263262055105e-01 4.312769385212839035e-01 -2.181088648869253799e-01 8.586819556917979490e-01 -4.149649040268463956e-02 5.661151348727555543e-01 2.853412602031112910e-01 1.292418562403165216e+00 5.911594234662144176e-01 7.228517143592101402e-01 4.370888038309532764e-01 4.863034526544925407e-01 -5.737714698103197897e-01 2.312686794333547458e-01 7.567925993870324719e-01 3.251404837799209413e-01 6.161759400163433487e-01 2.947746179803650834e-01 3.139599064857536703e-01 7.193692883741524824e-01 1.553220009998012296e-01 -2.061678997956839066e+00 2.026918079854880261e-01 2.540904727785827655e-01 8.901321695926162070e-01 3.603861512043287085e-01 3.829197468718790187e-01 3.784466396338846961e-01 3.149979675753071806e-01 3.959279995689821696e-01 8.707409943854670098e-02 -1.628650573175628447e+00 7.603308807332462838e-01 2.462459091643003362e-01 3.137791259630116070e-01 2.247236438970704742e-01 8.208386590469550770e-01 3.119165998544772278e-01 -1.513621947672256218e-01 3.430196966777862011e-01 1.123795284576327713e+00 2.686909836264050333e-01 4.160990163909106809e-01 1.046270823761082935e+00 4.063487429445782340e-01 2.819436256076379266e+00 3.326497138067891490e-01 3.043058613194067896e-01 7.065530738563192692e-01 3.309941400807784317e-01 3.357460723447185380e-01 -2.142875123034644780e+00 4.456371193382742679e-01 3.234719907185509835e-01 5.179381144939313453e-01 3.049839772369113966e-01 1.983752267595596530e-01 -1.884803223560115315e-01 2.069889304012694886e+00 -5.188711341776115482e-01 8.268978823950919876e-01 3.121931893689054438e-01 2.931614601254687869e-01 8.322710975303465597e-01 3.032289450657513208e-01 1.340680738728580401e+00 2.126947025367598165e-01 3.847442283166209176e-01 -8.858868984257421975e-01 -1.323687427565381769e-01 -5.282625994256373581e-01 -4.016165613920238187e+00 2.981611154461442315e+00 2.660996160648266759e-02 2.898958617700035933e-01 -1.649740869235574392e+00 3.048319515957425008e-01 3.938191292942546662e-01 3.223941752793927362e-01 1.736522787140641899e-01 6.419576799340599438e-01 6.018773779781977362e-01 1.074465843879663485e+00 -3.841212780404000826e-01 -2.328040340112110251e-01 2.372419021935548433e-01 -1.193409941211281966e+00 2.681339326447456095e-01 -6.531892027258063838e-01 3.156818376911630364e-01 4.513983164032504547e-01 9.617265499133749451e-02 4.535301449064426116e-01 2.645248739373882718e-01 -3.739201168758849586e-02 2.363050871749555193e-01 2.872426679724862653e-01 3.650832242713862863e-01 3.342068703784510375e-01 3.082128156444016720e-01 -7.245143845501920143e-01 4.944193682610888985e-01 1.543864201339382181e+00 7.211543978605119976e-02 2.367397759818165581e-01 2.637332830075108658e-01 1.205950673768427350e+00 3.337737418678218271e-01 1.047872086531637381e-01 8.878514975334228509e-01 2.526586603061510838e-01 1.877749681747279409e+00 2.720153463205409738e-01 1.328497648054294933e+00 3.225744209608100155e-01 7.351851225989813887e-01 1.354957131578621521e+00 3.787821314506416570e-01 3.241382734752909500e-01 9.415014826746930243e-01 -1.865176022014152224e-01 -6.367766727984879027e-02 2.295620604469549575e-01 3.038752953529813006e-01 3.603556012484427362e-01 1.445875823218799872e-01 1.334615652969347588e-01 -3.791933456670387725e-01 1.292380529086984087e+00 2.953201644310070040e-01 3.094877995089712619e-01 -3.226319711609023866e+00 5.501065959307943620e-01 2.496936147358651548e-01 3.798847442264301488e-01 3.870270031495369190e-01 4.508496226372354365e-01 -1.106968065664843293e+00 6.282968330069622631e-01 2.906642664270451815e-01 3.094195046237757651e-01 1.024644546869469597e+00 4.640327464410093916e-01 3.039593188391252476e-01 -1.412145575413629617e+00 3.767341992490075842e-01 8.935021797304144586e-01 3.368867644322676158e-01 3.212495065346893663e-01 3.218473095113958404e-01 7.120959704122616918e-01 -5.517369846588663501e-02 3.111573691754637161e-01 3.000898214772330652e-01 9.263856016453847486e-02 6.686673039978804356e-01 2.586236295585210287e-01 7.003239141256013545e-01 1.765807227593714779e-01 6.920324501519568017e-01 -2.409225390742076311e-01 -1.510307291755476733e+00 2.904346900241872032e-01 -1.991822641143803016e-02 3.131095293442835992e-01 3.703761644954477461e-01 5.494086891059629663e-02 5.105039569414114853e-01 3.004460022800006236e-01 8.329995212850808961e-02 4.362479016249820041e-01 2.961706094786044630e-01 2.964046961749994824e-01 2.838455417034592143e-01 -8.528594486449909695e-01 3.225015446854169743e-01 2.928913393856386049e-01 3.182885576059592547e-01 -2.857295703909515372e-01 3.109807168480303030e-01 8.298462436266786924e-01 -5.923264569101621690e-01 1.128207455323370301e+00 6.167024828029997741e-01 2.811221105004189647e-01 3.105481828883805973e-01 -2.057823925042475466e+00 3.218689125521695393e-01 2.217825484565102423e-01 2.901616642784295430e-01 5.105040053139362488e-01 3.138328770478049368e-01 3.311885488555822987e-01 6.496339382437915644e-02 3.087516515646112625e-01 4.346526206075405629e-01 3.302893391995898043e-01 2.438492967251585375e-01 2.864417951256159056e-01 3.156770221760922812e-01 3.098558311843279678e-01 2.760096716970097397e-01 1.046837611388447969e-01 3.167080381471966133e-01 6.236646446475236916e-01 1.715860868274486639e-01 3.100374459839203567e-01 -1.441332787856684505e-01 1.819985803760213183e-01 6.180812594122977455e-01 4.528121899844136600e+00 3.453816927977447215e-01 7.590154594313414105e-02 5.644300470430528849e-01 1.808059656161056239e-01 1.563607116591404944e+00 3.418324916698050608e-01 6.385413233294336965e-01 3.126751171608472823e-01
