# 
#                 ----------------------------------------------------
#                 Data from a 3D direct N-body simulation. 
# 
#                 rows are i-particle; 
#                 coumns are :mass, tag, x ,y, z, vx, vy, vz, ax, ay, az
# 
#                 NTHU, Computational Physics 
# 
#                 ----------------------------------------------------
#                 Time = 0.0
0.000000000000000000e+00 1.000000000000000000e+00 2.000000000000000000e+00 3.000000000000000000e+00 4.000000000000000000e+00 5.000000000000000000e+00 6.000000000000000000e+00 7.000000000000000000e+00 8.000000000000000000e+00 9.000000000000000000e+00 1.000000000000000000e+01 1.100000000000000000e+01 1.200000000000000000e+01 1.300000000000000000e+01 1.400000000000000000e+01 1.500000000000000000e+01 1.600000000000000000e+01 1.700000000000000000e+01 1.800000000000000000e+01 1.900000000000000000e+01 2.000000000000000000e+01 2.100000000000000000e+01 2.200000000000000000e+01 2.300000000000000000e+01 2.400000000000000000e+01 2.500000000000000000e+01 2.600000000000000000e+01 2.700000000000000000e+01 2.800000000000000000e+01 2.900000000000000000e+01 3.000000000000000000e+01 3.100000000000000000e+01 3.200000000000000000e+01 3.300000000000000000e+01 3.400000000000000000e+01 3.500000000000000000e+01 3.600000000000000000e+01 3.700000000000000000e+01 3.800000000000000000e+01 3.900000000000000000e+01 4.000000000000000000e+01 4.100000000000000000e+01 4.200000000000000000e+01 4.300000000000000000e+01 4.400000000000000000e+01 4.500000000000000000e+01 4.600000000000000000e+01 4.700000000000000000e+01 4.800000000000000000e+01 4.900000000000000000e+01 5.000000000000000000e+01 5.100000000000000000e+01 5.200000000000000000e+01 5.300000000000000000e+01 5.400000000000000000e+01 5.500000000000000000e+01 5.600000000000000000e+01 5.700000000000000000e+01 5.800000000000000000e+01 5.900000000000000000e+01 6.000000000000000000e+01 6.100000000000000000e+01 6.200000000000000000e+01 6.300000000000000000e+01 6.400000000000000000e+01 6.500000000000000000e+01 6.600000000000000000e+01 6.700000000000000000e+01 6.800000000000000000e+01 6.900000000000000000e+01 7.000000000000000000e+01 7.100000000000000000e+01 7.200000000000000000e+01 7.300000000000000000e+01 7.400000000000000000e+01 7.500000000000000000e+01 7.600000000000000000e+01 7.700000000000000000e+01 7.800000000000000000e+01 7.900000000000000000e+01 8.000000000000000000e+01 8.100000000000000000e+01 8.200000000000000000e+01 8.300000000000000000e+01 8.400000000000000000e+01 8.500000000000000000e+01 8.600000000000000000e+01 8.700000000000000000e+01 8.800000000000000000e+01 8.900000000000000000e+01 9.000000000000000000e+01 9.100000000000000000e+01 9.200000000000000000e+01 9.300000000000000000e+01 9.400000000000000000e+01 9.500000000000000000e+01 9.600000000000000000e+01 9.700000000000000000e+01 9.800000000000000000e+01 9.900000000000000000e+01 1.000000000000000000e+02 1.010000000000000000e+02 1.020000000000000000e+02 1.030000000000000000e+02 1.040000000000000000e+02 1.050000000000000000e+02 1.060000000000000000e+02 1.070000000000000000e+02 1.080000000000000000e+02 1.090000000000000000e+02 1.100000000000000000e+02 1.110000000000000000e+02 1.120000000000000000e+02 1.130000000000000000e+02 1.140000000000000000e+02 1.150000000000000000e+02 1.160000000000000000e+02 1.170000000000000000e+02 1.180000000000000000e+02 1.190000000000000000e+02 1.200000000000000000e+02 1.210000000000000000e+02 1.220000000000000000e+02 1.230000000000000000e+02 1.240000000000000000e+02 1.250000000000000000e+02 1.260000000000000000e+02 1.270000000000000000e+02 1.280000000000000000e+02 1.290000000000000000e+02 1.300000000000000000e+02 1.310000000000000000e+02 1.320000000000000000e+02 1.330000000000000000e+02 1.340000000000000000e+02 1.350000000000000000e+02 1.360000000000000000e+02 1.370000000000000000e+02 1.380000000000000000e+02 1.390000000000000000e+02 1.400000000000000000e+02 1.410000000000000000e+02 1.420000000000000000e+02 1.430000000000000000e+02 1.440000000000000000e+02 1.450000000000000000e+02 1.460000000000000000e+02 1.470000000000000000e+02 1.480000000000000000e+02 1.490000000000000000e+02 1.500000000000000000e+02 1.510000000000000000e+02 1.520000000000000000e+02 1.530000000000000000e+02 1.540000000000000000e+02 1.550000000000000000e+02 1.560000000000000000e+02 1.570000000000000000e+02 1.580000000000000000e+02 1.590000000000000000e+02 1.600000000000000000e+02 1.610000000000000000e+02 1.620000000000000000e+02 1.630000000000000000e+02 1.640000000000000000e+02 1.650000000000000000e+02 1.660000000000000000e+02 1.670000000000000000e+02 1.680000000000000000e+02 1.690000000000000000e+02 1.700000000000000000e+02 1.710000000000000000e+02 1.720000000000000000e+02 1.730000000000000000e+02 1.740000000000000000e+02 1.750000000000000000e+02 1.760000000000000000e+02 1.770000000000000000e+02 1.780000000000000000e+02 1.790000000000000000e+02 1.800000000000000000e+02 1.810000000000000000e+02 1.820000000000000000e+02 1.830000000000000000e+02 1.840000000000000000e+02 1.850000000000000000e+02 1.860000000000000000e+02 1.870000000000000000e+02 1.880000000000000000e+02 1.890000000000000000e+02 1.900000000000000000e+02 1.910000000000000000e+02 1.920000000000000000e+02 1.930000000000000000e+02 1.940000000000000000e+02 1.950000000000000000e+02 1.960000000000000000e+02 1.970000000000000000e+02 1.980000000000000000e+02 1.990000000000000000e+02 2.000000000000000000e+02 2.010000000000000000e+02 2.020000000000000000e+02 2.030000000000000000e+02 2.040000000000000000e+02 2.050000000000000000e+02 2.060000000000000000e+02 2.070000000000000000e+02 2.080000000000000000e+02 2.090000000000000000e+02 2.100000000000000000e+02 2.110000000000000000e+02 2.120000000000000000e+02 2.130000000000000000e+02 2.140000000000000000e+02 2.150000000000000000e+02 2.160000000000000000e+02 2.170000000000000000e+02 2.180000000000000000e+02 2.190000000000000000e+02 2.200000000000000000e+02 2.210000000000000000e+02 2.220000000000000000e+02 2.230000000000000000e+02 2.240000000000000000e+02 2.250000000000000000e+02 2.260000000000000000e+02 2.270000000000000000e+02 2.280000000000000000e+02 2.290000000000000000e+02 2.300000000000000000e+02 2.310000000000000000e+02 2.320000000000000000e+02 2.330000000000000000e+02 2.340000000000000000e+02 2.350000000000000000e+02 2.360000000000000000e+02 2.370000000000000000e+02 2.380000000000000000e+02 2.390000000000000000e+02 2.400000000000000000e+02 2.410000000000000000e+02 2.420000000000000000e+02 2.430000000000000000e+02 2.440000000000000000e+02 2.450000000000000000e+02 2.460000000000000000e+02 2.470000000000000000e+02 2.480000000000000000e+02 2.490000000000000000e+02 2.500000000000000000e+02 2.510000000000000000e+02 2.520000000000000000e+02 2.530000000000000000e+02 2.540000000000000000e+02 2.550000000000000000e+02 2.560000000000000000e+02 2.570000000000000000e+02 2.580000000000000000e+02 2.590000000000000000e+02 2.600000000000000000e+02 2.610000000000000000e+02 2.620000000000000000e+02 2.630000000000000000e+02 2.640000000000000000e+02 2.650000000000000000e+02 2.660000000000000000e+02 2.670000000000000000e+02 2.680000000000000000e+02 2.690000000000000000e+02 2.700000000000000000e+02 2.710000000000000000e+02 2.720000000000000000e+02 2.730000000000000000e+02 2.740000000000000000e+02 2.750000000000000000e+02 2.760000000000000000e+02 2.770000000000000000e+02 2.780000000000000000e+02 2.790000000000000000e+02 2.800000000000000000e+02 2.810000000000000000e+02 2.820000000000000000e+02 2.830000000000000000e+02 2.840000000000000000e+02 2.850000000000000000e+02 2.860000000000000000e+02 2.870000000000000000e+02 2.880000000000000000e+02 2.890000000000000000e+02 2.900000000000000000e+02 2.910000000000000000e+02 2.920000000000000000e+02 2.930000000000000000e+02 2.940000000000000000e+02 2.950000000000000000e+02 2.960000000000000000e+02 2.970000000000000000e+02 2.980000000000000000e+02 2.990000000000000000e+02 3.000000000000000000e+02 3.010000000000000000e+02 3.020000000000000000e+02 3.030000000000000000e+02 3.040000000000000000e+02 3.050000000000000000e+02 3.060000000000000000e+02 3.070000000000000000e+02 3.080000000000000000e+02 3.090000000000000000e+02 3.100000000000000000e+02 3.110000000000000000e+02 3.120000000000000000e+02 3.130000000000000000e+02 3.140000000000000000e+02 3.150000000000000000e+02 3.160000000000000000e+02 3.170000000000000000e+02 3.180000000000000000e+02 3.190000000000000000e+02 3.200000000000000000e+02 3.210000000000000000e+02 3.220000000000000000e+02 3.230000000000000000e+02 3.240000000000000000e+02 3.250000000000000000e+02 3.260000000000000000e+02 3.270000000000000000e+02 3.280000000000000000e+02 3.290000000000000000e+02 3.300000000000000000e+02 3.310000000000000000e+02 3.320000000000000000e+02 3.330000000000000000e+02 3.340000000000000000e+02 3.350000000000000000e+02 3.360000000000000000e+02 3.370000000000000000e+02 3.380000000000000000e+02 3.390000000000000000e+02 3.400000000000000000e+02 3.410000000000000000e+02 3.420000000000000000e+02 3.430000000000000000e+02 3.440000000000000000e+02 3.450000000000000000e+02 3.460000000000000000e+02 3.470000000000000000e+02 3.480000000000000000e+02 3.490000000000000000e+02 3.500000000000000000e+02 3.510000000000000000e+02 3.520000000000000000e+02 3.530000000000000000e+02 3.540000000000000000e+02 3.550000000000000000e+02 3.560000000000000000e+02 3.570000000000000000e+02 3.580000000000000000e+02 3.590000000000000000e+02 3.600000000000000000e+02 3.610000000000000000e+02 3.620000000000000000e+02 3.630000000000000000e+02 3.640000000000000000e+02 3.650000000000000000e+02 3.660000000000000000e+02 3.670000000000000000e+02 3.680000000000000000e+02 3.690000000000000000e+02 3.700000000000000000e+02 3.710000000000000000e+02 3.720000000000000000e+02 3.730000000000000000e+02 3.740000000000000000e+02 3.750000000000000000e+02 3.760000000000000000e+02 3.770000000000000000e+02 3.780000000000000000e+02 3.790000000000000000e+02 3.800000000000000000e+02 3.810000000000000000e+02 3.820000000000000000e+02 3.830000000000000000e+02 3.840000000000000000e+02 3.850000000000000000e+02 3.860000000000000000e+02 3.870000000000000000e+02 3.880000000000000000e+02 3.890000000000000000e+02 3.900000000000000000e+02 3.910000000000000000e+02 3.920000000000000000e+02 3.930000000000000000e+02 3.940000000000000000e+02 3.950000000000000000e+02 3.960000000000000000e+02 3.970000000000000000e+02 3.980000000000000000e+02 3.990000000000000000e+02 4.000000000000000000e+02 4.010000000000000000e+02 4.020000000000000000e+02 4.030000000000000000e+02 4.040000000000000000e+02 4.050000000000000000e+02 4.060000000000000000e+02 4.070000000000000000e+02 4.080000000000000000e+02 4.090000000000000000e+02 4.100000000000000000e+02 4.110000000000000000e+02 4.120000000000000000e+02 4.130000000000000000e+02 4.140000000000000000e+02 4.150000000000000000e+02 4.160000000000000000e+02 4.170000000000000000e+02 4.180000000000000000e+02 4.190000000000000000e+02 4.200000000000000000e+02 4.210000000000000000e+02 4.220000000000000000e+02 4.230000000000000000e+02 4.240000000000000000e+02 4.250000000000000000e+02 4.260000000000000000e+02 4.270000000000000000e+02 4.280000000000000000e+02 4.290000000000000000e+02 4.300000000000000000e+02 4.310000000000000000e+02 4.320000000000000000e+02 4.330000000000000000e+02 4.340000000000000000e+02 4.350000000000000000e+02 4.360000000000000000e+02 4.370000000000000000e+02 4.380000000000000000e+02 4.390000000000000000e+02 4.400000000000000000e+02 4.410000000000000000e+02 4.420000000000000000e+02 4.430000000000000000e+02 4.440000000000000000e+02 4.450000000000000000e+02 4.460000000000000000e+02 4.470000000000000000e+02 4.480000000000000000e+02 4.490000000000000000e+02 4.500000000000000000e+02 4.510000000000000000e+02 4.520000000000000000e+02 4.530000000000000000e+02 4.540000000000000000e+02 4.550000000000000000e+02 4.560000000000000000e+02 4.570000000000000000e+02 4.580000000000000000e+02 4.590000000000000000e+02 4.600000000000000000e+02 4.610000000000000000e+02 4.620000000000000000e+02 4.630000000000000000e+02 4.640000000000000000e+02 4.650000000000000000e+02 4.660000000000000000e+02 4.670000000000000000e+02 4.680000000000000000e+02 4.690000000000000000e+02 4.700000000000000000e+02 4.710000000000000000e+02 4.720000000000000000e+02 4.730000000000000000e+02 4.740000000000000000e+02 4.750000000000000000e+02 4.760000000000000000e+02 4.770000000000000000e+02 4.780000000000000000e+02 4.790000000000000000e+02 4.800000000000000000e+02 4.810000000000000000e+02 4.820000000000000000e+02 4.830000000000000000e+02 4.840000000000000000e+02 4.850000000000000000e+02 4.860000000000000000e+02 4.870000000000000000e+02 4.880000000000000000e+02 4.890000000000000000e+02 4.900000000000000000e+02 4.910000000000000000e+02 4.920000000000000000e+02 4.930000000000000000e+02 4.940000000000000000e+02 4.950000000000000000e+02 4.960000000000000000e+02 4.970000000000000000e+02 4.980000000000000000e+02 4.990000000000000000e+02 5.000000000000000000e+02 5.010000000000000000e+02 5.020000000000000000e+02 5.030000000000000000e+02 5.040000000000000000e+02 5.050000000000000000e+02 5.060000000000000000e+02 5.070000000000000000e+02 5.080000000000000000e+02 5.090000000000000000e+02 5.100000000000000000e+02 5.110000000000000000e+02 5.120000000000000000e+02 5.130000000000000000e+02 5.140000000000000000e+02 5.150000000000000000e+02 5.160000000000000000e+02 5.170000000000000000e+02 5.180000000000000000e+02 5.190000000000000000e+02 5.200000000000000000e+02 5.210000000000000000e+02 5.220000000000000000e+02 5.230000000000000000e+02 5.240000000000000000e+02 5.250000000000000000e+02 5.260000000000000000e+02 5.270000000000000000e+02 5.280000000000000000e+02 5.290000000000000000e+02 5.300000000000000000e+02 5.310000000000000000e+02 5.320000000000000000e+02 5.330000000000000000e+02 5.340000000000000000e+02 5.350000000000000000e+02 5.360000000000000000e+02 5.370000000000000000e+02 5.380000000000000000e+02 5.390000000000000000e+02 5.400000000000000000e+02 5.410000000000000000e+02 5.420000000000000000e+02 5.430000000000000000e+02 5.440000000000000000e+02 5.450000000000000000e+02 5.460000000000000000e+02 5.470000000000000000e+02 5.480000000000000000e+02 5.490000000000000000e+02 5.500000000000000000e+02 5.510000000000000000e+02 5.520000000000000000e+02 5.530000000000000000e+02 5.540000000000000000e+02 5.550000000000000000e+02 5.560000000000000000e+02 5.570000000000000000e+02 5.580000000000000000e+02 5.590000000000000000e+02 5.600000000000000000e+02 5.610000000000000000e+02 5.620000000000000000e+02 5.630000000000000000e+02 5.640000000000000000e+02 5.650000000000000000e+02 5.660000000000000000e+02 5.670000000000000000e+02 5.680000000000000000e+02 5.690000000000000000e+02 5.700000000000000000e+02 5.710000000000000000e+02 5.720000000000000000e+02 5.730000000000000000e+02 5.740000000000000000e+02 5.750000000000000000e+02 5.760000000000000000e+02 5.770000000000000000e+02 5.780000000000000000e+02 5.790000000000000000e+02 5.800000000000000000e+02 5.810000000000000000e+02 5.820000000000000000e+02 5.830000000000000000e+02 5.840000000000000000e+02 5.850000000000000000e+02 5.860000000000000000e+02 5.870000000000000000e+02 5.880000000000000000e+02 5.890000000000000000e+02 5.900000000000000000e+02 5.910000000000000000e+02 5.920000000000000000e+02 5.930000000000000000e+02 5.940000000000000000e+02 5.950000000000000000e+02 5.960000000000000000e+02 5.970000000000000000e+02 5.980000000000000000e+02 5.990000000000000000e+02 6.000000000000000000e+02 6.010000000000000000e+02 6.020000000000000000e+02 6.030000000000000000e+02 6.040000000000000000e+02 6.050000000000000000e+02 6.060000000000000000e+02 6.070000000000000000e+02 6.080000000000000000e+02 6.090000000000000000e+02 6.100000000000000000e+02 6.110000000000000000e+02 6.120000000000000000e+02 6.130000000000000000e+02 6.140000000000000000e+02 6.150000000000000000e+02 6.160000000000000000e+02 6.170000000000000000e+02 6.180000000000000000e+02 6.190000000000000000e+02 6.200000000000000000e+02 6.210000000000000000e+02 6.220000000000000000e+02 6.230000000000000000e+02 6.240000000000000000e+02 6.250000000000000000e+02 6.260000000000000000e+02 6.270000000000000000e+02 6.280000000000000000e+02 6.290000000000000000e+02 6.300000000000000000e+02 6.310000000000000000e+02 6.320000000000000000e+02 6.330000000000000000e+02 6.340000000000000000e+02 6.350000000000000000e+02 6.360000000000000000e+02 6.370000000000000000e+02 6.380000000000000000e+02 6.390000000000000000e+02 6.400000000000000000e+02 6.410000000000000000e+02 6.420000000000000000e+02 6.430000000000000000e+02 6.440000000000000000e+02 6.450000000000000000e+02 6.460000000000000000e+02 6.470000000000000000e+02 6.480000000000000000e+02 6.490000000000000000e+02 6.500000000000000000e+02 6.510000000000000000e+02 6.520000000000000000e+02 6.530000000000000000e+02 6.540000000000000000e+02 6.550000000000000000e+02 6.560000000000000000e+02 6.570000000000000000e+02 6.580000000000000000e+02 6.590000000000000000e+02 6.600000000000000000e+02 6.610000000000000000e+02 6.620000000000000000e+02 6.630000000000000000e+02 6.640000000000000000e+02 6.650000000000000000e+02 6.660000000000000000e+02 6.670000000000000000e+02 6.680000000000000000e+02 6.690000000000000000e+02 6.700000000000000000e+02 6.710000000000000000e+02 6.720000000000000000e+02 6.730000000000000000e+02 6.740000000000000000e+02 6.750000000000000000e+02 6.760000000000000000e+02 6.770000000000000000e+02 6.780000000000000000e+02 6.790000000000000000e+02 6.800000000000000000e+02 6.810000000000000000e+02 6.820000000000000000e+02 6.830000000000000000e+02 6.840000000000000000e+02 6.850000000000000000e+02 6.860000000000000000e+02 6.870000000000000000e+02 6.880000000000000000e+02 6.890000000000000000e+02 6.900000000000000000e+02 6.910000000000000000e+02 6.920000000000000000e+02 6.930000000000000000e+02 6.940000000000000000e+02 6.950000000000000000e+02 6.960000000000000000e+02 6.970000000000000000e+02 6.980000000000000000e+02 6.990000000000000000e+02 7.000000000000000000e+02 7.010000000000000000e+02 7.020000000000000000e+02 7.030000000000000000e+02 7.040000000000000000e+02 7.050000000000000000e+02 7.060000000000000000e+02 7.070000000000000000e+02 7.080000000000000000e+02 7.090000000000000000e+02 7.100000000000000000e+02 7.110000000000000000e+02 7.120000000000000000e+02 7.130000000000000000e+02 7.140000000000000000e+02 7.150000000000000000e+02 7.160000000000000000e+02 7.170000000000000000e+02 7.180000000000000000e+02 7.190000000000000000e+02 7.200000000000000000e+02 7.210000000000000000e+02 7.220000000000000000e+02 7.230000000000000000e+02 7.240000000000000000e+02 7.250000000000000000e+02 7.260000000000000000e+02 7.270000000000000000e+02 7.280000000000000000e+02 7.290000000000000000e+02 7.300000000000000000e+02 7.310000000000000000e+02 7.320000000000000000e+02 7.330000000000000000e+02 7.340000000000000000e+02 7.350000000000000000e+02 7.360000000000000000e+02 7.370000000000000000e+02 7.380000000000000000e+02 7.390000000000000000e+02 7.400000000000000000e+02 7.410000000000000000e+02 7.420000000000000000e+02 7.430000000000000000e+02 7.440000000000000000e+02 7.450000000000000000e+02 7.460000000000000000e+02 7.470000000000000000e+02 7.480000000000000000e+02 7.490000000000000000e+02 7.500000000000000000e+02 7.510000000000000000e+02 7.520000000000000000e+02 7.530000000000000000e+02 7.540000000000000000e+02 7.550000000000000000e+02 7.560000000000000000e+02 7.570000000000000000e+02 7.580000000000000000e+02 7.590000000000000000e+02 7.600000000000000000e+02 7.610000000000000000e+02 7.620000000000000000e+02 7.630000000000000000e+02 7.640000000000000000e+02 7.650000000000000000e+02 7.660000000000000000e+02 7.670000000000000000e+02 7.680000000000000000e+02 7.690000000000000000e+02 7.700000000000000000e+02 7.710000000000000000e+02 7.720000000000000000e+02 7.730000000000000000e+02 7.740000000000000000e+02 7.750000000000000000e+02 7.760000000000000000e+02 7.770000000000000000e+02 7.780000000000000000e+02 7.790000000000000000e+02 7.800000000000000000e+02 7.810000000000000000e+02 7.820000000000000000e+02 7.830000000000000000e+02 7.840000000000000000e+02 7.850000000000000000e+02 7.860000000000000000e+02 7.870000000000000000e+02 7.880000000000000000e+02 7.890000000000000000e+02 7.900000000000000000e+02 7.910000000000000000e+02 7.920000000000000000e+02 7.930000000000000000e+02 7.940000000000000000e+02 7.950000000000000000e+02 7.960000000000000000e+02 7.970000000000000000e+02 7.980000000000000000e+02 7.990000000000000000e+02 8.000000000000000000e+02 8.010000000000000000e+02 8.020000000000000000e+02 8.030000000000000000e+02 8.040000000000000000e+02 8.050000000000000000e+02 8.060000000000000000e+02 8.070000000000000000e+02 8.080000000000000000e+02 8.090000000000000000e+02 8.100000000000000000e+02 8.110000000000000000e+02 8.120000000000000000e+02 8.130000000000000000e+02 8.140000000000000000e+02 8.150000000000000000e+02 8.160000000000000000e+02 8.170000000000000000e+02 8.180000000000000000e+02 8.190000000000000000e+02 8.200000000000000000e+02 8.210000000000000000e+02 8.220000000000000000e+02 8.230000000000000000e+02 8.240000000000000000e+02 8.250000000000000000e+02 8.260000000000000000e+02 8.270000000000000000e+02 8.280000000000000000e+02 8.290000000000000000e+02 8.300000000000000000e+02 8.310000000000000000e+02 8.320000000000000000e+02 8.330000000000000000e+02 8.340000000000000000e+02 8.350000000000000000e+02 8.360000000000000000e+02 8.370000000000000000e+02 8.380000000000000000e+02 8.390000000000000000e+02 8.400000000000000000e+02 8.410000000000000000e+02 8.420000000000000000e+02 8.430000000000000000e+02 8.440000000000000000e+02 8.450000000000000000e+02 8.460000000000000000e+02 8.470000000000000000e+02 8.480000000000000000e+02 8.490000000000000000e+02 8.500000000000000000e+02 8.510000000000000000e+02 8.520000000000000000e+02 8.530000000000000000e+02 8.540000000000000000e+02 8.550000000000000000e+02 8.560000000000000000e+02 8.570000000000000000e+02 8.580000000000000000e+02 8.590000000000000000e+02 8.600000000000000000e+02 8.610000000000000000e+02 8.620000000000000000e+02 8.630000000000000000e+02 8.640000000000000000e+02 8.650000000000000000e+02 8.660000000000000000e+02 8.670000000000000000e+02 8.680000000000000000e+02 8.690000000000000000e+02 8.700000000000000000e+02 8.710000000000000000e+02 8.720000000000000000e+02 8.730000000000000000e+02 8.740000000000000000e+02 8.750000000000000000e+02 8.760000000000000000e+02 8.770000000000000000e+02 8.780000000000000000e+02 8.790000000000000000e+02 8.800000000000000000e+02 8.810000000000000000e+02 8.820000000000000000e+02 8.830000000000000000e+02 8.840000000000000000e+02 8.850000000000000000e+02 8.860000000000000000e+02 8.870000000000000000e+02 8.880000000000000000e+02 8.890000000000000000e+02 8.900000000000000000e+02 8.910000000000000000e+02 8.920000000000000000e+02 8.930000000000000000e+02 8.940000000000000000e+02 8.950000000000000000e+02 8.960000000000000000e+02 8.970000000000000000e+02 8.980000000000000000e+02 8.990000000000000000e+02 9.000000000000000000e+02 9.010000000000000000e+02 9.020000000000000000e+02 9.030000000000000000e+02 9.040000000000000000e+02 9.050000000000000000e+02 9.060000000000000000e+02 9.070000000000000000e+02 9.080000000000000000e+02 9.090000000000000000e+02 9.100000000000000000e+02 9.110000000000000000e+02 9.120000000000000000e+02 9.130000000000000000e+02 9.140000000000000000e+02 9.150000000000000000e+02 9.160000000000000000e+02 9.170000000000000000e+02 9.180000000000000000e+02 9.190000000000000000e+02 9.200000000000000000e+02 9.210000000000000000e+02 9.220000000000000000e+02 9.230000000000000000e+02 9.240000000000000000e+02 9.250000000000000000e+02 9.260000000000000000e+02 9.270000000000000000e+02 9.280000000000000000e+02 9.290000000000000000e+02 9.300000000000000000e+02 9.310000000000000000e+02 9.320000000000000000e+02 9.330000000000000000e+02 9.340000000000000000e+02 9.350000000000000000e+02 9.360000000000000000e+02 9.370000000000000000e+02 9.380000000000000000e+02 9.390000000000000000e+02 9.400000000000000000e+02 9.410000000000000000e+02 9.420000000000000000e+02 9.430000000000000000e+02 9.440000000000000000e+02 9.450000000000000000e+02 9.460000000000000000e+02 9.470000000000000000e+02 9.480000000000000000e+02 9.490000000000000000e+02 9.500000000000000000e+02 9.510000000000000000e+02 9.520000000000000000e+02 9.530000000000000000e+02 9.540000000000000000e+02 9.550000000000000000e+02 9.560000000000000000e+02 9.570000000000000000e+02 9.580000000000000000e+02 9.590000000000000000e+02 9.600000000000000000e+02 9.610000000000000000e+02 9.620000000000000000e+02 9.630000000000000000e+02 9.640000000000000000e+02 9.650000000000000000e+02 9.660000000000000000e+02 9.670000000000000000e+02 9.680000000000000000e+02 9.690000000000000000e+02 9.700000000000000000e+02 9.710000000000000000e+02 9.720000000000000000e+02 9.730000000000000000e+02 9.740000000000000000e+02 9.750000000000000000e+02 9.760000000000000000e+02 9.770000000000000000e+02 9.780000000000000000e+02 9.790000000000000000e+02 9.800000000000000000e+02 9.810000000000000000e+02 9.820000000000000000e+02 9.830000000000000000e+02 9.840000000000000000e+02 9.850000000000000000e+02 9.860000000000000000e+02 9.870000000000000000e+02 9.880000000000000000e+02 9.890000000000000000e+02 9.900000000000000000e+02 9.910000000000000000e+02 9.920000000000000000e+02 9.930000000000000000e+02 9.940000000000000000e+02 9.950000000000000000e+02 9.960000000000000000e+02 9.970000000000000000e+02 9.980000000000000000e+02 9.990000000000000000e+02
1.000000000000000000e+00 1.000000000000000000e+00 1.000000000000000000e+00 1.000000000000000000e+00 1.000000000000000000e+00 1.000000000000000000e+00 1.000000000000000000e+00 1.000000000000000000e+00 1.000000000000000000e+00 1.000000000000000000e+00 1.000000000000000000e+00 1.000000000000000000e+00 1.000000000000000000e+00 1.000000000000000000e+00 1.000000000000000000e+00 1.000000000000000000e+00 1.000000000000000000e+00 1.000000000000000000e+00 1.000000000000000000e+00 1.000000000000000000e+00 1.000000000000000000e+00 1.000000000000000000e+00 1.000000000000000000e+00 1.000000000000000000e+00 1.000000000000000000e+00 1.000000000000000000e+00 1.000000000000000000e+00 1.000000000000000000e+00 1.000000000000000000e+00 1.000000000000000000e+00 1.000000000000000000e+00 1.000000000000000000e+00 1.000000000000000000e+00 1.000000000000000000e+00 1.000000000000000000e+00 1.000000000000000000e+00 1.000000000000000000e+00 1.000000000000000000e+00 1.000000000000000000e+00 1.000000000000000000e+00 1.000000000000000000e+00 1.000000000000000000e+00 1.000000000000000000e+00 1.000000000000000000e+00 1.000000000000000000e+00 1.000000000000000000e+00 1.000000000000000000e+00 1.000000000000000000e+00 1.000000000000000000e+00 1.000000000000000000e+00 1.000000000000000000e+00 1.000000000000000000e+00 1.000000000000000000e+00 1.000000000000000000e+00 1.000000000000000000e+00 1.000000000000000000e+00 1.000000000000000000e+00 1.000000000000000000e+00 1.000000000000000000e+00 1.000000000000000000e+00 1.000000000000000000e+00 1.000000000000000000e+00 1.000000000000000000e+00 1.000000000000000000e+00 1.000000000000000000e+00 1.000000000000000000e+00 1.000000000000000000e+00 1.000000000000000000e+00 1.000000000000000000e+00 1.000000000000000000e+00 1.000000000000000000e+00 1.000000000000000000e+00 1.000000000000000000e+00 1.000000000000000000e+00 1.000000000000000000e+00 1.000000000000000000e+00 1.000000000000000000e+00 1.000000000000000000e+00 1.000000000000000000e+00 1.000000000000000000e+00 1.000000000000000000e+00 1.000000000000000000e+00 1.000000000000000000e+00 1.000000000000000000e+00 1.000000000000000000e+00 1.000000000000000000e+00 1.000000000000000000e+00 1.000000000000000000e+00 1.000000000000000000e+00 1.000000000000000000e+00 1.000000000000000000e+00 1.000000000000000000e+00 1.000000000000000000e+00 1.000000000000000000e+00 1.000000000000000000e+00 1.000000000000000000e+00 1.000000000000000000e+00 1.000000000000000000e+00 1.000000000000000000e+00 1.000000000000000000e+00 1.000000000000000000e+00 1.000000000000000000e+00 1.000000000000000000e+00 1.000000000000000000e+00 1.000000000000000000e+00 1.000000000000000000e+00 1.000000000000000000e+00 1.000000000000000000e+00 1.000000000000000000e+00 1.000000000000000000e+00 1.000000000000000000e+00 1.000000000000000000e+00 1.000000000000000000e+00 1.000000000000000000e+00 1.000000000000000000e+00 1.000000000000000000e+00 1.000000000000000000e+00 1.000000000000000000e+00 1.000000000000000000e+00 1.000000000000000000e+00 1.000000000000000000e+00 1.000000000000000000e+00 1.000000000000000000e+00 1.000000000000000000e+00 1.000000000000000000e+00 1.000000000000000000e+00 1.000000000000000000e+00 1.000000000000000000e+00 1.000000000000000000e+00 1.000000000000000000e+00 1.000000000000000000e+00 1.000000000000000000e+00 1.000000000000000000e+00 1.000000000000000000e+00 1.000000000000000000e+00 1.000000000000000000e+00 1.000000000000000000e+00 1.000000000000000000e+00 1.000000000000000000e+00 1.000000000000000000e+00 1.000000000000000000e+00 1.000000000000000000e+00 1.000000000000000000e+00 1.000000000000000000e+00 1.000000000000000000e+00 1.000000000000000000e+00 1.000000000000000000e+00 1.000000000000000000e+00 1.000000000000000000e+00 1.000000000000000000e+00 1.000000000000000000e+00 1.000000000000000000e+00 1.000000000000000000e+00 1.000000000000000000e+00 1.000000000000000000e+00 1.000000000000000000e+00 1.000000000000000000e+00 1.000000000000000000e+00 1.000000000000000000e+00 1.000000000000000000e+00 1.000000000000000000e+00 1.000000000000000000e+00 1.000000000000000000e+00 1.000000000000000000e+00 1.000000000000000000e+00 1.000000000000000000e+00 1.000000000000000000e+00 1.000000000000000000e+00 1.000000000000000000e+00 1.000000000000000000e+00 1.000000000000000000e+00 1.000000000000000000e+00 1.000000000000000000e+00 1.000000000000000000e+00 1.000000000000000000e+00 1.000000000000000000e+00 1.000000000000000000e+00 1.000000000000000000e+00 1.000000000000000000e+00 1.000000000000000000e+00 1.000000000000000000e+00 1.000000000000000000e+00 1.000000000000000000e+00 1.000000000000000000e+00 1.000000000000000000e+00 1.000000000000000000e+00 1.000000000000000000e+00 1.000000000000000000e+00 1.000000000000000000e+00 1.000000000000000000e+00 1.000000000000000000e+00 1.000000000000000000e+00 1.000000000000000000e+00 1.000000000000000000e+00 1.000000000000000000e+00 1.000000000000000000e+00 1.000000000000000000e+00 1.000000000000000000e+00 1.000000000000000000e+00 1.000000000000000000e+00 1.000000000000000000e+00 1.000000000000000000e+00 1.000000000000000000e+00 1.000000000000000000e+00 1.000000000000000000e+00 1.000000000000000000e+00 1.000000000000000000e+00 1.000000000000000000e+00 1.000000000000000000e+00 1.000000000000000000e+00 1.000000000000000000e+00 1.000000000000000000e+00 1.000000000000000000e+00 1.000000000000000000e+00 1.000000000000000000e+00 1.000000000000000000e+00 1.000000000000000000e+00 1.000000000000000000e+00 1.000000000000000000e+00 1.000000000000000000e+00 1.000000000000000000e+00 1.000000000000000000e+00 1.000000000000000000e+00 1.000000000000000000e+00 1.000000000000000000e+00 1.000000000000000000e+00 1.000000000000000000e+00 1.000000000000000000e+00 1.000000000000000000e+00 1.000000000000000000e+00 1.000000000000000000e+00 1.000000000000000000e+00 1.000000000000000000e+00 1.000000000000000000e+00 1.000000000000000000e+00 1.000000000000000000e+00 1.000000000000000000e+00 1.000000000000000000e+00 1.000000000000000000e+00 1.000000000000000000e+00 1.000000000000000000e+00 1.000000000000000000e+00 1.000000000000000000e+00 1.000000000000000000e+00 1.000000000000000000e+00 1.000000000000000000e+00 1.000000000000000000e+00 1.000000000000000000e+00 1.000000000000000000e+00 1.000000000000000000e+00 1.000000000000000000e+00 1.000000000000000000e+00 1.000000000000000000e+00 1.000000000000000000e+00 1.000000000000000000e+00 1.000000000000000000e+00 1.000000000000000000e+00 1.000000000000000000e+00 1.000000000000000000e+00 1.000000000000000000e+00 1.000000000000000000e+00 1.000000000000000000e+00 1.000000000000000000e+00 1.000000000000000000e+00 1.000000000000000000e+00 1.000000000000000000e+00 1.000000000000000000e+00 1.000000000000000000e+00 1.000000000000000000e+00 1.000000000000000000e+00 1.000000000000000000e+00 1.000000000000000000e+00 1.000000000000000000e+00 1.000000000000000000e+00 1.000000000000000000e+00 1.000000000000000000e+00 1.000000000000000000e+00 1.000000000000000000e+00 1.000000000000000000e+00 1.000000000000000000e+00 1.000000000000000000e+00 1.000000000000000000e+00 1.000000000000000000e+00 1.000000000000000000e+00 1.000000000000000000e+00 1.000000000000000000e+00 1.000000000000000000e+00 1.000000000000000000e+00 1.000000000000000000e+00 1.000000000000000000e+00 1.000000000000000000e+00 1.000000000000000000e+00 1.000000000000000000e+00 1.000000000000000000e+00 1.000000000000000000e+00 1.000000000000000000e+00 1.000000000000000000e+00 1.000000000000000000e+00 1.000000000000000000e+00 1.000000000000000000e+00 1.000000000000000000e+00 1.000000000000000000e+00 1.000000000000000000e+00 1.000000000000000000e+00 1.000000000000000000e+00 1.000000000000000000e+00 1.000000000000000000e+00 1.000000000000000000e+00 1.000000000000000000e+00 1.000000000000000000e+00 1.000000000000000000e+00 1.000000000000000000e+00 1.000000000000000000e+00 1.000000000000000000e+00 1.000000000000000000e+00 1.000000000000000000e+00 1.000000000000000000e+00 1.000000000000000000e+00 1.000000000000000000e+00 1.000000000000000000e+00 1.000000000000000000e+00 1.000000000000000000e+00 1.000000000000000000e+00 1.000000000000000000e+00 1.000000000000000000e+00 1.000000000000000000e+00 1.000000000000000000e+00 1.000000000000000000e+00 1.000000000000000000e+00 1.000000000000000000e+00 1.000000000000000000e+00 1.000000000000000000e+00 1.000000000000000000e+00 1.000000000000000000e+00 1.000000000000000000e+00 1.000000000000000000e+00 1.000000000000000000e+00 1.000000000000000000e+00 1.000000000000000000e+00 1.000000000000000000e+00 1.000000000000000000e+00 1.000000000000000000e+00 1.000000000000000000e+00 1.000000000000000000e+00 1.000000000000000000e+00 1.000000000000000000e+00 1.000000000000000000e+00 1.000000000000000000e+00 1.000000000000000000e+00 1.000000000000000000e+00 1.000000000000000000e+00 1.000000000000000000e+00 1.000000000000000000e+00 1.000000000000000000e+00 1.000000000000000000e+00 1.000000000000000000e+00 1.000000000000000000e+00 1.000000000000000000e+00 1.000000000000000000e+00 1.000000000000000000e+00 1.000000000000000000e+00 1.000000000000000000e+00 1.000000000000000000e+00 1.000000000000000000e+00 1.000000000000000000e+00 1.000000000000000000e+00 1.000000000000000000e+00 1.000000000000000000e+00 1.000000000000000000e+00 1.000000000000000000e+00 1.000000000000000000e+00 1.000000000000000000e+00 1.000000000000000000e+00 1.000000000000000000e+00 1.000000000000000000e+00 1.000000000000000000e+00 1.000000000000000000e+00 1.000000000000000000e+00 1.000000000000000000e+00 1.000000000000000000e+00 1.000000000000000000e+00 1.000000000000000000e+00 1.000000000000000000e+00 1.000000000000000000e+00 1.000000000000000000e+00 1.000000000000000000e+00 1.000000000000000000e+00 1.000000000000000000e+00 1.000000000000000000e+00 1.000000000000000000e+00 1.000000000000000000e+00 1.000000000000000000e+00 1.000000000000000000e+00 1.000000000000000000e+00 1.000000000000000000e+00 1.000000000000000000e+00 1.000000000000000000e+00 1.000000000000000000e+00 1.000000000000000000e+00 1.000000000000000000e+00 1.000000000000000000e+00 1.000000000000000000e+00 1.000000000000000000e+00 1.000000000000000000e+00 1.000000000000000000e+00 1.000000000000000000e+00 1.000000000000000000e+00 1.000000000000000000e+00 1.000000000000000000e+00 1.000000000000000000e+00 1.000000000000000000e+00 1.000000000000000000e+00 1.000000000000000000e+00 1.000000000000000000e+00 1.000000000000000000e+00 1.000000000000000000e+00 1.000000000000000000e+00 1.000000000000000000e+00 1.000000000000000000e+00 1.000000000000000000e+00 1.000000000000000000e+00 1.000000000000000000e+00 1.000000000000000000e+00 1.000000000000000000e+00 1.000000000000000000e+00 1.000000000000000000e+00 1.000000000000000000e+00 1.000000000000000000e+00 1.000000000000000000e+00 1.000000000000000000e+00 1.000000000000000000e+00 1.000000000000000000e+00 1.000000000000000000e+00 1.000000000000000000e+00 1.000000000000000000e+00 1.000000000000000000e+00 1.000000000000000000e+00 1.000000000000000000e+00 1.000000000000000000e+00 1.000000000000000000e+00 1.000000000000000000e+00 1.000000000000000000e+00 1.000000000000000000e+00 1.000000000000000000e+00 1.000000000000000000e+00 1.000000000000000000e+00 1.000000000000000000e+00 1.000000000000000000e+00 1.000000000000000000e+00 1.000000000000000000e+00 1.000000000000000000e+00 1.000000000000000000e+00 1.000000000000000000e+00 1.000000000000000000e+00 1.000000000000000000e+00 1.000000000000000000e+00 1.000000000000000000e+00 1.000000000000000000e+00 1.000000000000000000e+00 1.000000000000000000e+00 1.000000000000000000e+00 1.000000000000000000e+00 1.000000000000000000e+00 1.000000000000000000e+00 1.000000000000000000e+00 1.000000000000000000e+00 1.000000000000000000e+00 1.000000000000000000e+00 1.000000000000000000e+00 1.000000000000000000e+00 1.000000000000000000e+00 1.000000000000000000e+00 1.000000000000000000e+00 1.000000000000000000e+00 1.000000000000000000e+00 1.000000000000000000e+00 1.000000000000000000e+00 1.000000000000000000e+00 1.000000000000000000e+00 1.000000000000000000e+00 1.000000000000000000e+00 1.000000000000000000e+00 1.000000000000000000e+00 1.000000000000000000e+00 1.000000000000000000e+00 1.000000000000000000e+00 1.000000000000000000e+00 1.000000000000000000e+00 1.000000000000000000e+00 1.000000000000000000e+00 1.000000000000000000e+00 1.000000000000000000e+00 1.000000000000000000e+00 1.000000000000000000e+00 1.000000000000000000e+00 1.000000000000000000e+00 1.000000000000000000e+00 1.000000000000000000e+00 1.000000000000000000e+00 1.000000000000000000e+00 1.000000000000000000e+00 1.000000000000000000e+00 1.000000000000000000e+00 1.000000000000000000e+00 1.000000000000000000e+00 1.000000000000000000e+00 1.000000000000000000e+00 1.000000000000000000e+00 1.000000000000000000e+00 1.000000000000000000e+00 1.000000000000000000e+00 1.000000000000000000e+00 1.000000000000000000e+00 1.000000000000000000e+00 1.000000000000000000e+00 1.000000000000000000e+00 1.000000000000000000e+00 1.000000000000000000e+00 1.000000000000000000e+00 1.000000000000000000e+00 1.000000000000000000e+00 1.000000000000000000e+00 1.000000000000000000e+00 1.000000000000000000e+00 1.000000000000000000e+00 1.000000000000000000e+00 1.000000000000000000e+00 1.000000000000000000e+00 1.000000000000000000e+00 1.000000000000000000e+00 1.000000000000000000e+00 1.000000000000000000e+00 1.000000000000000000e+00 1.000000000000000000e+00 1.000000000000000000e+00 1.000000000000000000e+00 1.000000000000000000e+00 1.000000000000000000e+00 1.000000000000000000e+00 1.000000000000000000e+00 1.000000000000000000e+00 1.000000000000000000e+00 1.000000000000000000e+00 1.000000000000000000e+00 1.000000000000000000e+00 1.000000000000000000e+00 1.000000000000000000e+00 1.000000000000000000e+00 1.000000000000000000e+00 1.000000000000000000e+00 1.000000000000000000e+00 1.000000000000000000e+00 1.000000000000000000e+00 1.000000000000000000e+00 1.000000000000000000e+00 1.000000000000000000e+00 1.000000000000000000e+00 1.000000000000000000e+00 1.000000000000000000e+00 1.000000000000000000e+00 1.000000000000000000e+00 1.000000000000000000e+00 1.000000000000000000e+00 1.000000000000000000e+00 1.000000000000000000e+00 1.000000000000000000e+00 1.000000000000000000e+00 1.000000000000000000e+00 1.000000000000000000e+00 1.000000000000000000e+00 1.000000000000000000e+00 1.000000000000000000e+00 1.000000000000000000e+00 1.000000000000000000e+00 1.000000000000000000e+00 1.000000000000000000e+00 1.000000000000000000e+00 1.000000000000000000e+00 1.000000000000000000e+00 1.000000000000000000e+00 1.000000000000000000e+00 1.000000000000000000e+00 1.000000000000000000e+00 1.000000000000000000e+00 1.000000000000000000e+00 1.000000000000000000e+00 1.000000000000000000e+00 1.000000000000000000e+00 1.000000000000000000e+00 1.000000000000000000e+00 1.000000000000000000e+00 1.000000000000000000e+00 1.000000000000000000e+00 1.000000000000000000e+00 1.000000000000000000e+00 1.000000000000000000e+00 1.000000000000000000e+00 1.000000000000000000e+00 1.000000000000000000e+00 1.000000000000000000e+00 1.000000000000000000e+00 1.000000000000000000e+00 1.000000000000000000e+00 1.000000000000000000e+00 1.000000000000000000e+00 1.000000000000000000e+00 1.000000000000000000e+00 1.000000000000000000e+00 1.000000000000000000e+00 1.000000000000000000e+00 1.000000000000000000e+00 1.000000000000000000e+00 1.000000000000000000e+00 1.000000000000000000e+00 1.000000000000000000e+00 1.000000000000000000e+00 1.000000000000000000e+00 1.000000000000000000e+00 1.000000000000000000e+00 1.000000000000000000e+00 1.000000000000000000e+00 1.000000000000000000e+00 1.000000000000000000e+00 1.000000000000000000e+00 1.000000000000000000e+00 1.000000000000000000e+00 1.000000000000000000e+00 1.000000000000000000e+00 1.000000000000000000e+00 1.000000000000000000e+00 1.000000000000000000e+00 1.000000000000000000e+00 1.000000000000000000e+00 1.000000000000000000e+00 1.000000000000000000e+00 1.000000000000000000e+00 1.000000000000000000e+00 1.000000000000000000e+00 1.000000000000000000e+00 1.000000000000000000e+00 1.000000000000000000e+00 1.000000000000000000e+00 1.000000000000000000e+00 1.000000000000000000e+00 1.000000000000000000e+00 1.000000000000000000e+00 1.000000000000000000e+00 1.000000000000000000e+00 1.000000000000000000e+00 1.000000000000000000e+00 1.000000000000000000e+00 1.000000000000000000e+00 1.000000000000000000e+00 1.000000000000000000e+00 1.000000000000000000e+00 1.000000000000000000e+00 1.000000000000000000e+00 1.000000000000000000e+00 1.000000000000000000e+00 1.000000000000000000e+00 1.000000000000000000e+00 1.000000000000000000e+00 1.000000000000000000e+00 1.000000000000000000e+00 1.000000000000000000e+00 1.000000000000000000e+00 1.000000000000000000e+00 1.000000000000000000e+00 1.000000000000000000e+00 1.000000000000000000e+00 1.000000000000000000e+00 1.000000000000000000e+00 1.000000000000000000e+00 1.000000000000000000e+00 1.000000000000000000e+00 1.000000000000000000e+00 1.000000000000000000e+00 1.000000000000000000e+00 1.000000000000000000e+00 1.000000000000000000e+00 1.000000000000000000e+00 1.000000000000000000e+00 1.000000000000000000e+00 1.000000000000000000e+00 1.000000000000000000e+00 1.000000000000000000e+00 1.000000000000000000e+00 1.000000000000000000e+00 1.000000000000000000e+00 1.000000000000000000e+00 1.000000000000000000e+00 1.000000000000000000e+00 1.000000000000000000e+00 1.000000000000000000e+00 1.000000000000000000e+00 1.000000000000000000e+00 1.000000000000000000e+00 1.000000000000000000e+00 1.000000000000000000e+00 1.000000000000000000e+00 1.000000000000000000e+00 1.000000000000000000e+00 1.000000000000000000e+00 1.000000000000000000e+00 1.000000000000000000e+00 1.000000000000000000e+00 1.000000000000000000e+00 1.000000000000000000e+00 1.000000000000000000e+00 1.000000000000000000e+00 1.000000000000000000e+00 1.000000000000000000e+00 1.000000000000000000e+00 1.000000000000000000e+00 1.000000000000000000e+00 1.000000000000000000e+00 1.000000000000000000e+00 1.000000000000000000e+00 1.000000000000000000e+00 1.000000000000000000e+00 1.000000000000000000e+00 1.000000000000000000e+00 1.000000000000000000e+00 1.000000000000000000e+00 1.000000000000000000e+00 1.000000000000000000e+00 1.000000000000000000e+00 1.000000000000000000e+00 1.000000000000000000e+00 1.000000000000000000e+00 1.000000000000000000e+00 1.000000000000000000e+00 1.000000000000000000e+00 1.000000000000000000e+00 1.000000000000000000e+00 1.000000000000000000e+00 1.000000000000000000e+00 1.000000000000000000e+00 1.000000000000000000e+00 1.000000000000000000e+00 1.000000000000000000e+00 1.000000000000000000e+00 1.000000000000000000e+00 1.000000000000000000e+00 1.000000000000000000e+00 1.000000000000000000e+00 1.000000000000000000e+00 1.000000000000000000e+00 1.000000000000000000e+00 1.000000000000000000e+00 1.000000000000000000e+00 1.000000000000000000e+00 1.000000000000000000e+00 1.000000000000000000e+00 1.000000000000000000e+00 1.000000000000000000e+00 1.000000000000000000e+00 1.000000000000000000e+00 1.000000000000000000e+00 1.000000000000000000e+00 1.000000000000000000e+00 1.000000000000000000e+00 1.000000000000000000e+00 1.000000000000000000e+00 1.000000000000000000e+00 1.000000000000000000e+00 1.000000000000000000e+00 1.000000000000000000e+00 1.000000000000000000e+00 1.000000000000000000e+00 1.000000000000000000e+00 1.000000000000000000e+00 1.000000000000000000e+00 1.000000000000000000e+00 1.000000000000000000e+00 1.000000000000000000e+00 1.000000000000000000e+00 1.000000000000000000e+00 1.000000000000000000e+00 1.000000000000000000e+00 1.000000000000000000e+00 1.000000000000000000e+00 1.000000000000000000e+00 1.000000000000000000e+00 1.000000000000000000e+00 1.000000000000000000e+00 1.000000000000000000e+00 1.000000000000000000e+00 1.000000000000000000e+00 1.000000000000000000e+00 1.000000000000000000e+00 1.000000000000000000e+00 1.000000000000000000e+00 1.000000000000000000e+00 1.000000000000000000e+00 1.000000000000000000e+00 1.000000000000000000e+00 1.000000000000000000e+00 1.000000000000000000e+00 1.000000000000000000e+00 1.000000000000000000e+00 1.000000000000000000e+00 1.000000000000000000e+00 1.000000000000000000e+00 1.000000000000000000e+00 1.000000000000000000e+00 1.000000000000000000e+00 1.000000000000000000e+00 1.000000000000000000e+00 1.000000000000000000e+00 1.000000000000000000e+00 1.000000000000000000e+00 1.000000000000000000e+00 1.000000000000000000e+00 1.000000000000000000e+00 1.000000000000000000e+00 1.000000000000000000e+00 1.000000000000000000e+00 1.000000000000000000e+00 1.000000000000000000e+00 1.000000000000000000e+00 1.000000000000000000e+00 1.000000000000000000e+00 1.000000000000000000e+00 1.000000000000000000e+00 1.000000000000000000e+00 1.000000000000000000e+00 1.000000000000000000e+00 1.000000000000000000e+00 1.000000000000000000e+00 1.000000000000000000e+00 1.000000000000000000e+00 1.000000000000000000e+00 1.000000000000000000e+00 1.000000000000000000e+00 1.000000000000000000e+00 1.000000000000000000e+00 1.000000000000000000e+00 1.000000000000000000e+00 1.000000000000000000e+00 1.000000000000000000e+00 1.000000000000000000e+00 1.000000000000000000e+00 1.000000000000000000e+00 1.000000000000000000e+00 1.000000000000000000e+00 1.000000000000000000e+00 1.000000000000000000e+00 1.000000000000000000e+00 1.000000000000000000e+00 1.000000000000000000e+00 1.000000000000000000e+00 1.000000000000000000e+00 1.000000000000000000e+00 1.000000000000000000e+00 1.000000000000000000e+00 1.000000000000000000e+00 1.000000000000000000e+00 1.000000000000000000e+00 1.000000000000000000e+00 1.000000000000000000e+00 1.000000000000000000e+00 1.000000000000000000e+00 1.000000000000000000e+00 1.000000000000000000e+00 1.000000000000000000e+00 1.000000000000000000e+00 1.000000000000000000e+00 1.000000000000000000e+00 1.000000000000000000e+00 1.000000000000000000e+00 1.000000000000000000e+00 1.000000000000000000e+00 1.000000000000000000e+00 1.000000000000000000e+00 1.000000000000000000e+00 1.000000000000000000e+00 1.000000000000000000e+00 1.000000000000000000e+00 1.000000000000000000e+00 1.000000000000000000e+00 1.000000000000000000e+00 1.000000000000000000e+00 1.000000000000000000e+00 1.000000000000000000e+00 1.000000000000000000e+00 1.000000000000000000e+00 1.000000000000000000e+00 1.000000000000000000e+00 1.000000000000000000e+00 1.000000000000000000e+00 1.000000000000000000e+00 1.000000000000000000e+00 1.000000000000000000e+00 1.000000000000000000e+00 1.000000000000000000e+00 1.000000000000000000e+00 1.000000000000000000e+00 1.000000000000000000e+00 1.000000000000000000e+00 1.000000000000000000e+00 1.000000000000000000e+00 1.000000000000000000e+00 1.000000000000000000e+00 1.000000000000000000e+00 1.000000000000000000e+00 1.000000000000000000e+00 1.000000000000000000e+00 1.000000000000000000e+00 1.000000000000000000e+00 1.000000000000000000e+00 1.000000000000000000e+00 1.000000000000000000e+00 1.000000000000000000e+00 1.000000000000000000e+00 1.000000000000000000e+00 1.000000000000000000e+00 1.000000000000000000e+00 1.000000000000000000e+00 1.000000000000000000e+00 1.000000000000000000e+00 1.000000000000000000e+00 1.000000000000000000e+00 1.000000000000000000e+00 1.000000000000000000e+00 1.000000000000000000e+00 1.000000000000000000e+00 1.000000000000000000e+00 1.000000000000000000e+00 1.000000000000000000e+00 1.000000000000000000e+00 1.000000000000000000e+00 1.000000000000000000e+00 1.000000000000000000e+00 1.000000000000000000e+00 1.000000000000000000e+00 1.000000000000000000e+00 1.000000000000000000e+00 1.000000000000000000e+00 1.000000000000000000e+00 1.000000000000000000e+00 1.000000000000000000e+00 1.000000000000000000e+00 1.000000000000000000e+00 1.000000000000000000e+00 1.000000000000000000e+00 1.000000000000000000e+00 1.000000000000000000e+00 1.000000000000000000e+00 1.000000000000000000e+00 1.000000000000000000e+00 1.000000000000000000e+00 1.000000000000000000e+00 1.000000000000000000e+00 1.000000000000000000e+00 1.000000000000000000e+00 1.000000000000000000e+00 1.000000000000000000e+00 1.000000000000000000e+00 1.000000000000000000e+00 1.000000000000000000e+00 1.000000000000000000e+00 1.000000000000000000e+00 1.000000000000000000e+00 1.000000000000000000e+00 1.000000000000000000e+00 1.000000000000000000e+00 1.000000000000000000e+00 1.000000000000000000e+00 1.000000000000000000e+00 1.000000000000000000e+00 1.000000000000000000e+00 1.000000000000000000e+00 1.000000000000000000e+00 1.000000000000000000e+00 1.000000000000000000e+00 1.000000000000000000e+00 1.000000000000000000e+00 1.000000000000000000e+00 1.000000000000000000e+00 1.000000000000000000e+00 1.000000000000000000e+00 1.000000000000000000e+00 1.000000000000000000e+00 1.000000000000000000e+00 1.000000000000000000e+00 1.000000000000000000e+00 1.000000000000000000e+00 1.000000000000000000e+00 1.000000000000000000e+00 1.000000000000000000e+00 1.000000000000000000e+00 1.000000000000000000e+00 1.000000000000000000e+00 1.000000000000000000e+00 1.000000000000000000e+00 1.000000000000000000e+00 1.000000000000000000e+00 1.000000000000000000e+00 1.000000000000000000e+00
2.201283986484023694e-02 5.417306856703623108e-01 -2.351423053086570403e-01 7.492567426744699555e-01 5.163228555926102636e-01 5.115832598453303737e-01 6.150072459266220370e-01 2.959300356725293457e-01 5.278307496400911347e-01 5.041118630990742977e-01 1.080313526290201276e+00 -6.941668249765247101e-01 1.403519686127916888e+00 4.533541595920363432e-01 5.181098183054622108e-01 3.954059780837643201e-01 8.859135259403995155e-01 9.767063113110667771e-01 7.069409278242949624e-01 5.148751915617976183e-01 3.943235992657018740e-01 9.831883530039270402e-01 4.183761076926267308e-01 4.879853209308832596e-01 9.365304209671539148e-02 6.729982787874609906e-01 3.757850657983929366e-01 6.592979378156885728e-01 5.532243436351942378e-01 1.575084045126791343e+00 5.154281475925527323e-01 6.109419139033924750e-01 7.194857737394293462e-01 5.046698976317002261e-01 7.054897365922383479e-01 4.511169459294861461e-01 5.158665457504288954e-01 1.786375548911664168e+00 -7.019566709635848001e-02 5.244333819489421789e-01 -1.700958043291173893e-01 -5.610280682342870806e-01 7.492663578437506189e-01 2.263089230970022625e-01 2.823781921465200462e-01 5.245772722451634840e-01 7.496434916418056593e-01 5.243920118725148294e-01 6.211030989836222593e-01 1.887766941242833771e-02 9.197784972995457289e-03 8.187264146312331903e-01 6.755530105581387668e-01 4.451090806369646935e-01 4.569574835876817898e-01 1.786922489938856662e-02 4.891908456789362813e-01 5.301445718037383070e-01 1.909108118546284094e-01 4.682762147094113314e-01 9.148009200009039610e-01 5.234713396371035721e-01 5.415008525761025870e-01 4.183762040575529917e-01 6.806580554451469034e-01 5.799519107726905931e-01 5.182553250340479201e-01 3.173834582547845895e-01 5.599400657972789519e-01 5.129526133507282190e-03 4.212888274309248282e-01 5.429101021461599785e-01 5.127079207286676654e-01 1.776561544738778503e-02 1.506046712657901132e+00 5.535836774739461008e-01 6.346161763513793463e-01 7.331467482144513603e-01 5.172443158542818775e-01 1.383074834108795947e+00 5.079934110688990589e-01 3.149285074571092080e-01 1.400733084117917082e+00 7.168179402876813100e-01 4.943043377872088362e-01 7.558643886898364084e-01 8.070869033815620819e-01 5.481817508144406492e-01 4.123388062310339719e-01 5.759255673588800084e-01 2.813980825731911550e-01 2.175102393419891644e+00 7.470663418798072497e-01 -2.008276536847445823e-02 5.317877493260844135e-01 4.797609835962309832e-01 5.603051989830896140e-01 4.767798856572482147e-01 1.895245438069069754e-01 6.673976485612745924e-01 1.604231871600992010e+00 6.890724452083064611e-01 5.510557807094738081e-01 7.096834754013502389e-01 8.600433106165321639e-01 -2.062868083996051816e+00 -1.215753282860930540e+00 5.413538640236706945e-01 5.893789057636300566e-01 9.714462845460144491e-01 5.566275596109452328e-01 4.409048043367260750e-01 1.674922630918327382e-01 4.884422314878825166e-01 5.216549436378170590e-01 5.004520180287769238e-01 4.888903232629993045e-01 5.405456887822061018e-01 9.218845806995554781e-01 5.176513196854677368e-01 1.302221724943483094e+00 5.528904174956502660e-01 5.858177352206530575e-01 -4.324788605208286230e-01 5.088751394446444642e-01 1.944630489873809598e+00 5.582183906827825615e-01 5.495130635986001932e-01 6.854273557472282397e-01 5.140044359369714266e-01 5.008430723538791485e-01 5.212594827703899147e-01 4.207080329513715466e-01 3.383357887517114415e-01 -2.840259153143707693e-01 -1.642849558290573053e-01 6.417647579041048100e-01 5.001284773796111499e-02 9.992485683866743074e-01 6.360733882639867387e-01 5.161232585140476115e-01 8.641042061851016420e-01 6.060925478889996887e-01 5.834278213001047320e-01 5.165921117887453118e-01 5.182706739665682988e-02 9.144488309520480973e-01 -5.975305626747842193e-03 4.504661866102220302e-01 -8.868502155565877176e-01 7.703738999861534653e-01 -2.948033459400754008e-01 5.245737663886800295e-01 5.584369232752096623e-01 4.533688628394367814e-01 5.154279599951930857e-01 1.940914645263116523e+00 -1.020585635644789269e-01 8.142231605837662034e-01 6.905626526935104703e-01 5.277060152376321644e-01 4.129354779398649589e-01 4.961946751974221081e-01 5.184956312368108611e-01 1.081246501223437351e+00 1.870787845886864309e-01 8.493916621968702341e-01 3.734992305241833233e-01 4.971495254008636566e-01 6.535473421841203612e-01 4.997068941716717450e-01 7.473645776213116987e-01 5.245799953860215137e-01 5.145412160637518051e-01 4.048865057075614060e-01 4.366859833160234572e-02 1.921972626889937030e-01 8.898376857037840204e-02 7.462895403063948274e-01 1.141989358764387674e+00 7.004549318999025997e-01 5.272426222519088768e-01 -1.783908190667463922e-01 4.431731059862606403e-01 6.346048834192423715e-01 5.325127314382855914e-01 5.115052389100632757e-01 5.100129026286762679e-01 2.786209824355887044e+00 5.555703331927602795e-01 5.363877533283504251e-01 -8.883018828064588313e-01 4.968964579829251993e-01 5.553075466318239117e-01 1.873880205293291801e-01 5.133766583165005892e-01 9.341041380960766194e-01 5.106666190371333958e-01 6.169664134293865176e-01 4.328666417863573646e-01 6.270850710281343776e-01 5.092874604345947187e-01 9.236910534179024745e-01 6.008435348385187114e-01 5.432303519370226264e-01 6.169663460375255370e-01 2.476446773179109828e-01 1.287392935333840915e+00 5.452798138173029496e-01 3.928036863544726032e-01 4.333210380325482336e-01 -8.179307565211614561e-02 4.814367762566336140e-01 1.589377333868240427e-01 5.220367358637347799e-01 5.198520966425750345e-01 5.136248250561625817e-01 5.126465291413433434e-01 5.147166916517477153e-01 5.131668921616917567e-01 4.379786452549555009e-01 5.964992550365130208e-01 -7.059571713694107187e-01 5.959380031763827912e-01 3.728313694621074315e-01 3.787364915736080584e-01 9.671936621922364030e-02 1.302172632935108210e+00 9.581948559017571254e-01 4.974618477710707198e-01 -1.035916374150627622e-01 1.054684751481463456e+00 5.192732105719266578e-01 4.447738176043049552e-01 5.692410574709675375e-01 4.130990810480837383e-01 3.388935335770104640e-01 1.858661244649971178e-01 -1.533942231027275171e-01 -1.005865366920855736e-01 3.758519636480774362e-01 5.190117279123893645e-01 -1.062199769578431180e-01 4.362584791795153238e-01 5.158015409279117502e-01 4.793114073064467240e-01 -1.003517921772131283e-01 7.517927936850287152e-01 -2.271463196127399442e+00 6.088402966826034213e-01 -5.954654662039343682e-01 4.971157097095372790e-01 5.200414180510857243e-01 4.183744015105005931e-01 4.738269155523592846e-01 5.624280865335415935e-01 5.395293922593749070e-01 7.572773080175683180e-01 5.524434078555853223e-01 1.690178722818493462e+00 6.779017508817809512e-01 6.924719183402914258e-01 4.817549260585760051e-01 3.527568548284710226e-01 9.148009225080981910e-01 4.073601334333467050e-01 2.671677824630897646e+00 5.125447531571146742e-01 2.337327933959520432e-01 7.221272829572875640e-01 5.081999029121493372e-01 9.144452518989950596e-01 5.154117884758047108e-01 5.549380447243620340e-01 5.170102830461610344e-01 1.095463155521831933e+00 7.690099129131696687e-01 8.631357283477034681e-01 8.082108213645308181e-01 4.408341904322001237e-01 6.785880817989398128e-01 5.266192198758911092e-01 3.865809778047673007e-01 -7.184532703876266302e-01 3.852800872253215325e-01 6.175808466591883317e-01 5.613072333629740562e-01 5.009446864571747149e-01 5.004519686190511685e-01 6.076018128110299843e-01 5.474473395100525330e-01 -8.297573593108267254e-01 7.189064174358570369e-01 5.425428802118138494e-01 2.453447542741583887e-02 5.573068844673224609e-01 1.848781450301667961e+00 5.018583220875976192e-01 5.177656643551767912e-01 4.504551878946645438e-01 -3.404134234838341655e+00 5.202743171593657845e-01 2.798945737393170319e+00 7.478621245724859090e-01 5.404364058264387038e-01 -5.777074378871158711e-01 5.208885011678187071e-01 5.165386127781471659e-01 4.376385057321314220e-01 4.533589491430047858e-01 3.641769932398197795e-01 6.416447365637867328e-01 3.144269568442004115e-01 5.199587200789878016e-01 5.186339443711172059e-01 3.541409514346079979e-01 5.270226296745864625e-01 7.482857013830588322e-01 5.165219585777776068e-01 1.197793817516524584e+00 6.729091426580628005e-03 2.216556737306200286e+00 2.632926547674164564e+00 5.179398080129936632e-01 -2.113053326561969425e-01 4.188185712924276660e-01 4.021478823677120396e-01 7.300513592525799123e-01 1.374450038196975976e+00 5.358774226901943383e-01 1.124829871751899635e+00 5.177859224155695328e-01 1.243905040393309958e-01 1.251874474907674228e+00 4.426084316945841923e-01 5.344753797102018700e-01 5.019321986943787728e-01 8.926362087144178448e-01 -3.702282034392555765e+00 1.629721856826190862e+00 5.347216435030786030e-01 6.379697083012905168e-01 5.157148935648860899e-01 1.786375548783454503e+00 3.047820276640519355e-01 5.486799693706240211e-01 5.387967610990564982e-01 4.532932922744585813e-01 1.378476886671742951e+00 5.853996691744384195e-01 6.169665047603494212e-01 4.362629609927300978e-01 6.008435382585461948e-01 5.716136285259691974e-01 5.661970597276039241e-01 8.955819350173355176e-01 5.172573578954243745e-01 3.873352002473264832e-01 1.919674890593108529e-01 6.588077194988140040e-01 5.146972246793217742e-01 3.829866858368942695e-01 5.486799659608868618e-01 6.589153174296061843e-01 5.134884268587258660e-01 1.016222758245445057e+00 9.793005754433213861e-01 1.134384828732590611e+00 5.127639027791047743e-01 2.297448931110667447e-01 9.148012586235444443e-01 -1.091246464415875084e-01 9.334281494386167388e-01 6.288468767384428615e-01 5.867701775660689664e-03 5.816592261904268701e-01 9.628490763798654983e-01 3.886315578334249010e-01 5.120709468484810900e-01 2.836387933544098905e-01 -3.338258589383167330e-01 -2.457368394177372739e+00 4.835644212256139940e-01 6.008435391438332607e-01 6.008435660879000162e-01 5.002383057046334569e-01 4.150802643002223791e-01 -2.177918030747218459e-01 3.135630263400251416e-01 5.213165590575027375e-01 6.847788132710604936e-01 5.149272963509656797e-01 1.048244328791879010e+00 6.169665657334160169e-01 5.166667750090887523e-01 4.840353113861800005e-01 2.708578408026681705e-01 6.541627616762317743e-01 5.270201857375107490e-01 5.160757538034436154e-01 5.414594639221738115e-01 2.852321054986442506e-01 1.906837847422687693e-02 6.008435389136708160e-01 6.594995781619666930e-01 5.188936886192110354e-01 4.138955182496318885e-01 8.585246440728334649e-01 7.109518315114737863e-01 5.635998815634265524e-01 1.849768571084242863e+00 5.112602971097814919e-01 -3.055695535180699807e+00 7.494604822541663935e-01 1.518330640815683585e+00 5.430734363431249934e-01 -1.065420122014806514e+00 7.624638834091445050e-01 4.526811470404092375e-01 5.223271140153831205e-01 5.229431357149054715e-01 -3.328298669941787136e-01 5.129409960047230932e-01 1.069055514426355158e+00 5.663216263194247313e-01 -3.524200443175832809e-01 5.189375968889415880e-01 5.144556394653601039e-01 7.787520583198613844e-01 5.391572222176488349e-01 5.482758564031773307e-01 -5.202307129592969037e-01 5.614480650271815865e-01 5.231677187857769473e-01 6.636642957100664653e-01 5.397260374448832332e-01 7.666588395609150730e-01 5.162668009960753590e-01 5.958583576720460906e-01 6.408699208780832546e-01 5.326442007646382537e-01 2.969947930425333449e-01 2.894561409421348430e-01 3.295025155123387783e-01 9.607465174021737608e-01 5.500649718759134110e-01 3.191127907069671643e+00 6.596073387110577002e-01 6.303932815953224855e-01 5.545999907345114943e-01 6.039578126729681085e-01 2.712173578757685541e-02 4.864050695958393455e-01 5.337022478057240615e-01 5.134361073033180123e-01 1.162971802278907507e+00 7.665135126222413220e-01 5.085768668486572164e-01 4.451017708102231185e-01 1.116870205117307169e+00 5.106246318687884811e-01 5.594875692188528982e-01 5.386591333775153645e-01 7.744413449594280685e-01 5.147426141668095534e-01 9.292159206579421182e-01 5.069406682275955367e-01 5.174960515862977450e-01 7.796094514292055064e-03 5.120248545167928045e-01 1.050508871802344896e-02 3.338522541889489825e-01 4.096161667956026431e-01 5.712345227814458193e-01 7.778630081807884622e-01 5.177558138013442779e-01 3.922464943196721232e-01 7.063167251168600558e-02 5.242428313252804895e-01 5.508457341981809474e-01 4.689498033882497641e-01 4.314142439682851216e-02 5.173153399992970192e-01 2.463734991354133985e-01 5.175902175828740459e-01 4.180371699765985105e-01 1.256376173842680410e+00 7.811622875777771702e-01 5.492040115992614657e-01 2.629998064906584609e-01 7.011441135827736204e-01 4.269704738228335961e-01 9.923275495437193783e-01 6.021997482986543027e-01 5.806992900644566413e-01 6.925518423926906308e-01 1.988642099803662022e+00 4.600833346671940882e-01 4.564010513629480070e-01 5.132778521884995282e-01 7.192250277453205998e-01 4.805137742553040603e-01 8.399405169308683528e-01 -5.707601998698426105e-01 3.417612536795400779e-01 5.139641297796498920e-01 4.273190895635913811e-01 3.727438010952691672e-01 -6.135111528819805482e-01 3.884748675252077676e-01 5.156322966510384909e-01 7.367866438674661733e-01 6.663710468334980153e-01 1.469354157663967264e+00 5.144358373460241607e-01 5.127533688375800480e-01 -6.997641574806318099e-01 5.158876595449936042e-01 1.214976172221650552e+00 7.061096530500986512e-01 2.661429085008105155e-01 2.634448418616411325e-01 -1.667849205164308790e+00 5.033180991470772581e-01 1.857949462862155399e-01 1.098420556950161275e+00 8.165171146087927267e-01 5.132471460094362170e-01 5.170850843451155754e-01 6.279428130928819130e-01 7.491735772391691084e-01 4.474303088535562245e-01 5.606952148466394226e-01 2.959376036795558981e-02 5.062812385519883662e-01 6.164268895051705499e-01 5.843154156656609199e-01 5.053262676059023795e-01 5.294588484854942934e-01 1.206037768431301060e+00 -1.049095163294612026e-01 -2.337818577212754101e-01 4.253918730476073384e-01 5.459140002000907321e-01 5.473099128558781556e-01 4.970806729052568707e-01 -8.511363278355067452e-01 3.156185254648135263e+00 5.567225053611031260e-01 4.491231732703209745e-01 4.202174934306932563e-01 5.213667606420416822e-01 5.126090947077885929e-01 5.902759719814952843e-01 3.257453504786551601e-01 5.908050108451311511e-01 5.182648710982047380e-01 6.065748576296684513e-01 3.527500909111765393e-01 4.318090509942263400e-01 5.445014192883856907e-01 4.058484097666043566e-01 4.979226277569070991e-01 5.477273339705492905e-01 6.575590628122232051e-01 1.009039770880864051e+00 2.311238109958791309e+00 5.449813814006252422e-01 4.963294614774103608e-01 4.522286832445185922e-01 5.063667496667697554e-01 3.661089425320235846e-01 5.185601066102066836e-01 5.220305403113295606e-01 5.225864143860571298e-01 5.152940579200121496e-01 4.763868448391174182e-01 7.488045306622354014e-01 3.663938457589486219e-01 4.855627702163523018e-01 4.692675541462498767e-01 5.452126355239792499e-01 1.184387169289039254e-01 9.148009169553613651e-01 5.608299512772156881e-01 1.234516905153385385e-01 1.910366562534640211e+00 2.813693185213200221e-01 4.313933603711067044e-01 5.892144244929631292e-01 6.246404898917715109e-02 5.155829287453679299e-01 1.510192402257327648e+00 7.737279484468921886e-01 7.557180005505871323e-01 5.150511488793971804e-01 5.479736739284543079e-01 4.728587537364208893e-01 6.535491489294896761e-01 5.084998254952516339e-01 5.134881442584573463e-01 -2.021628137128886893e-01 5.471372539360476184e-01 -1.457203213257135310e+00 4.946920437275563742e-01 5.021536070438340493e-01 5.354533355779582671e-01 4.504405554474974482e-01 9.148009169150318476e-01 2.211440592079058354e-01 5.480736647418761320e-01 1.333584431750594490e+00 -5.512357306631090470e-01 5.125928487681152834e-01 1.131915211990363934e+00 1.507926510461212732e+00 4.493336247321654819e-01 5.155293032385382945e-01 -5.259180017645898042e-02 -1.669945600300412503e+00 2.778248031170112986e-01 7.812645741837923596e-01 5.172853253075975211e-01 5.197431585287916045e-01 5.683518977988388787e-01 4.853266296832942639e-01 -4.030306309932223940e-01 8.172931149024953434e-01 5.004527687231314914e-01 3.337776448948991392e-01 5.509205287488658787e-01 -1.395374806628899185e-02 -1.722365152100118479e-01 1.782692989546228457e+00 4.146001733498715924e-01 4.904620058596330656e-01 5.134623702472022044e-01 3.277956197883657441e-01 5.947362292806512851e-01 -6.316763798538586883e-02 -1.121913715467587114e+00 5.204641545882437992e-01 5.238651391071778018e-01 5.381045150490494366e-01 6.167212844860797683e-01 5.343991688857665512e-01 5.444986592594122099e-01 5.619902828053706667e-01 5.747665481558507095e-01 1.030257955785137014e+00 7.248185112671864383e-01 5.347123358449756836e-01 5.832342802232323153e-01 4.548314348394547624e-01 4.301511633491885145e-01 2.683437026942258816e-02 5.486799672568445363e-01 4.978165878784429621e-01 4.748119940588411692e-01 7.558344882581201629e-01 9.264239088167810499e-01 8.399548533200169587e-01 -4.960051505974460984e-01 5.343091512673596721e-01 4.629307999324525635e-01 5.177078806953562262e-01 5.858028591247348427e-01 9.050192464466255693e-01 5.631576162206961556e-01 5.253696055002343712e-01 -2.431926551713164963e-01 -8.618581633765993733e-01 2.285225132435397377e+00 5.115769038612595354e-01 8.940203578417333929e-01 4.426431977917006377e-01 5.724554240148439499e-01 3.751320772415291938e-01 1.500374371735337387e-01 5.145108143703934767e-01 5.490367176758840229e-01 -3.324955754693011307e-03 5.245907255366147881e-01 4.281775807854773519e-01 5.212920100287208314e-01 6.692286826897991814e-01 5.167901921257892495e-01 6.058077291632588679e-01 4.023551188679739821e-01 4.891627692983565034e-01 4.047678948494429774e-01 5.196917936310440078e-01 4.211198344762970835e-01 5.143735310570491936e-01 -2.772880356952341918e-01 5.105111653932176141e-01 6.427292081178666017e-01 4.787793715050513432e-01 7.495193778333406609e-01 9.148006769062687615e-01 7.317773712859586555e-01 -5.935176859800125326e-01 9.883079128287486359e-01 1.786375548900223320e+00 4.883694454812835817e-01 4.638302568122752989e-01 1.075752595614018148e+00 5.596524619296450176e-01 7.496727531657103594e-01 5.136563385491375033e-01 1.820027190282964336e+00 5.158581562027299006e-01 4.362588232079980810e-01 1.234096522913348482e+00 -5.917081028410569460e-02 5.607230764937671808e-01 -1.637758416219160240e-01 -9.542659100334957012e-01 -1.720562720606295393e-01 7.756733056660121139e-01 5.624727042387256404e-01 5.264393800950741831e-01 -3.295204752133427117e-01 5.023102036241371415e-01 4.537368796669005722e-02 -3.725970770814040489e-01 4.891415740092555642e-01 5.117772328590615150e-01 5.152260409758863124e-01 5.579657894526456330e-01 5.508375945792335360e-01 9.078260323518830832e-01 -4.037491852871330500e-01 5.163032941909843077e-01 5.614931857732183840e-01 6.160115383634167108e-01 1.164715827055404773e+00 5.026837000148226542e-01 6.400383507297537911e-01 5.161355184768915416e-01 3.885530902714921103e-02 -3.326223072012917115e-01 5.283615056271729893e-01 5.029652473352623776e-01 6.761648420917945046e-01 5.031382127746986122e-01 3.436144538108816815e-01 5.153173368998062998e-01 5.139102862513680314e-01 3.607825638026299075e-01 5.182619016904227438e-01 8.387273127906862413e-01 2.546657250131940664e+00 -2.412684694935340324e-01 6.645117366892443478e-01 3.305249266106006778e-01 2.125501388738177122e-01 6.742829390781346355e-01 -5.738921636072635141e-02 -1.522875636273840483e+00 5.190486885951868246e-01 2.607996104773372625e+00 5.141463830992114570e-01 1.539069540660226165e-01 1.713991019594895693e-01 5.004520181635891962e-01 5.753658699968693391e-01 1.554372676006707144e+00 4.927577867784582177e-01 1.260035082073179824e-01 4.335130281422749920e-01 1.692145109684180859e+00 5.919484029025092742e-01 7.469615021689590684e-01 5.274748995825899733e-01 7.399705485040808384e-01 4.573996269171501927e-01 5.667628530872571568e-01 1.588394394365964454e-02 5.119311237902854916e-01 4.867754914814388378e-01 -5.710816919989255558e-01 -5.839981433215077344e-02 1.173785400120382461e+00 2.366213646931824288e-01 4.867748536046017649e-01 6.936298657330518536e-01 5.490446660523667921e-01 1.999684941553459661e+00 6.940181735399001406e-01 2.745535333633294939e-02 2.916647180236744963e-01 3.978694967853304010e-01 1.112917042573458248e+00 5.114951795553113190e-01 -2.624572354468994104e-02 5.122061064191834046e-01 -1.791206919721689134e-02 5.145429438508203335e-01 5.163719209460351234e-01 2.938939596068780927e-03 -5.572564591513006621e-02 6.674982815548650139e-01 6.020041444199314418e-01 5.591411159257410057e-01 2.630873348031668169e-01 4.661767886617338430e-01 4.948210047916831722e-01 5.507581588383716475e-01 5.574408857273782658e-01 4.797419176290481646e-01 6.195942977797693763e-01 1.015999937092898486e+00 3.117540197063781715e+00 9.230099860157467972e-01 5.164089391370066950e-01 6.373964567604277764e-01 2.134957557733573319e-01 5.157283078558576594e-01 8.447230710624045180e-01 4.938830264152784255e-01 1.316500349201970010e+00 4.511245669820603821e-01 -5.741720996744270611e-01 -1.611754659304873855e-02 4.078505207561558543e-01 6.126369136278456695e-01 4.971530273905173658e-01 5.209346526912339570e-01 3.148276675939378627e-02 5.414717173781384840e-01 4.035663093244918898e-01 -3.651755184543727051e+00 4.832291485435344369e-01 5.196000815972909859e-01 1.125517145438627020e+00 5.149837514248543080e-01 5.396671362992560006e-01 6.821294528231790499e-01 -8.792712003452779479e-01 -5.045072555323387720e-01 4.468616476447548336e-02 5.169524856384900557e-01 4.318102114169808936e-01 2.191602443872267270e-01 5.003385626604260894e-01 -3.362232455069419368e-01 6.195544411275795138e-01 4.976788422502860243e-01 6.946171115456523104e-01 5.416712248033495047e-01 4.731059879328122220e-01 1.582946121924245220e-01 -7.492449661289963814e-01 6.542130753737512849e-01 5.019077260913062943e-01 1.622554792634207099e-01 5.169824802840987665e-01 5.759763197972386228e-01 5.320860121696461276e-01 6.713569507134691250e-01 5.714416220758536946e-01 5.416208680235976569e-01 5.001424751064472707e-01 1.786375553913998049e+00 3.639973995561294196e-01 5.482711378118787504e-01 -1.167290365544940006e-01 5.523236279678592764e-01 6.258174189460219417e-01 5.243613047150283979e-01 4.956392740562363675e-01 3.514415368501437320e-01 9.290781545075044168e-01 1.197146377506390857e+00 5.569210674181760412e-01 5.741040706743503197e-01 5.960841083362118376e-01 4.668482492641372050e-01 4.852020398883016283e-01 5.163245608392355024e-01 9.882523666923873629e-01 7.201617272039488871e-01 -4.542095090097219012e-01 4.509465103251893425e-01 9.150152996612641587e-01 5.039724222509766038e-01 -1.414907870110118301e-02 5.127624881412919944e-01 1.299728447664665332e+00 -1.387372800188378941e-01 5.825597640897222096e-01 2.463696215101576215e-01 5.384797126747224993e-01 8.307889036541913352e-01 5.103833411770383188e-01 3.688753250580908416e-01 1.397436845739767008e+00 4.797072779252569141e-01 5.289663485656375119e-01 -6.474162071541953445e-01 4.532482191154951212e-01 1.042485900738658655e+00 5.990254618483167315e-01 8.768501940461569111e-02 9.632306530388405896e-01 -4.804301001393770226e-02 6.266797414167236679e-01 1.610584621238565495e+00 -8.559446459740538415e-01 5.599039441794262384e-01 5.159009646316693454e-01 -4.509389281400261740e-01 3.172221110462546401e-01 5.961286308276203538e-01 4.778186266815993011e-01 5.164785961757479837e-01 3.676403694631237840e-01 2.635146212096618479e-01 3.446818389999203869e-01 5.617374250048208228e-01 5.166157064886499617e-01 6.190558262445967387e-03 -9.501891066683476605e-02 5.323959188856876024e-01 1.062085471055509212e+00 4.438235234205887281e-01 -5.710771228921664999e-01 5.626134901189820958e-01 5.142034520110579932e-01 5.201283114501497051e-01 3.891257183255068808e-02 3.339685049416259988e-01 5.141293767042173224e-01 5.290994545919152081e-01 4.525369282853472508e-01 2.444564454297225645e-02 4.816524377419416636e-01 5.145438201418798263e-01 6.380582388019753193e-01 2.080070172472584744e+00 1.114075957482215523e-02 3.841526458519266551e-01 5.047503170308933473e-01 1.825775447638547710e+00 5.824329150607020500e-01 4.847400559150005783e-01 1.593228701319352597e-02 5.486799722885455921e-01 5.245716397473531023e-01 4.743818346166582267e-01 3.812439878776256452e-01 5.052779975249143130e-01 5.011855749621157985e-01 5.653272885124134284e-01 -5.252456775498177688e-01 5.151935433473757708e-01 5.422795595814990932e-01 5.328666548830682803e-01 1.067277871883377527e+00 5.068773940534762046e-01 -2.430408753338691163e-01 1.073396470262987901e+00 -1.254126020628599791e+00 -5.174459192704822241e-01 5.209411102559803330e-01 5.149980769199282715e-01 6.511330196303853901e-01 5.136454774658024691e-01 3.998280341921424674e-01 5.990806144655841381e-01 5.486799718123818170e-01 5.150543785710002265e-01 5.361685045997812704e-01 5.843239784894946887e-01 5.162805927556067820e-01 2.930710272518293191e-01 4.997450024770605514e-01 4.943500536589895966e-01 3.777977042097107052e-01 5.035919115314673178e-01 5.231085064427053455e-01 5.489019980550108313e-01 6.450548115925618387e-01 5.183074557832403340e-01 6.804208428261012687e-01 4.879452109367149459e-01 5.160217862906807396e-01 5.434164513626387194e-01 3.615697005514154627e-01 4.156220886704598549e-01 2.402193000497408804e+00 5.002625777905971294e-01 5.872828837939261248e-01 3.081416171330224607e-01 5.832638899275873756e-01 1.110356460598147521e+00 4.780789074808587946e-01 7.062713892592548115e-01 5.180988061550192425e-01
6.957040701653567361e-01 2.940455332805302358e-01 4.233051636618850866e-01 1.423395204220332527e-02 3.173014032708154075e-01 2.963958291209077833e-01 5.317235358911265308e-01 4.360450560157358435e-01 2.580760425464324603e-01 2.921114039898777825e-01 2.044768979362357797e+00 1.710124384838208833e+00 -1.435155326862998404e+00 6.205575583583108346e-01 3.097866310604193152e-01 4.215946761421384692e-01 1.298908269384339009e-01 4.313129014273400785e-01 4.401375607772415877e-01 3.080520554915794906e-01 4.631908200275465237e-01 2.105658535703012202e+00 3.904386575354197864e-01 3.711254633833870331e-01 7.238962206498368301e-01 -2.271962122027197939e-01 4.503597957145151764e-01 2.266223202719970520e-01 2.790003186950043568e-01 -8.691131124377545758e-01 3.156997032492868671e-01 -1.253208644758540546e-01 2.890233099464752375e-01 2.790677708994929729e-01 -4.243248512169255360e-01 4.656276665033967643e-01 3.041877608296880697e-01 -3.497674145790921618e-01 -3.217731697575980654e+00 3.352508951594407316e-01 1.141250646238451294e+00 1.413447805858786266e-01 -1.655325799415214572e-01 7.917633177549998624e-01 6.230059709599656825e-01 3.011988128096022010e-01 1.376421604826322774e-02 3.361702374541568061e-01 2.219710561045050712e-01 6.739667482130253795e-01 6.785084514080670370e-01 4.739614033481663879e-01 -2.361159554894916301e-01 2.090414880079859705e-01 6.037242346937882198e-01 6.572032236451742504e-01 3.613452183819212404e-01 2.552997256913019930e-01 3.468973779331650520e-01 3.572794087840375776e-01 4.253539555759162649e-01 4.001047561591573043e-01 3.006769502139750583e-01 3.904386490034392199e-01 -3.464599207420696603e-01 1.715148340201980426e-01 2.899113353787619585e-01 3.287810407391139611e-01 2.105903125011238941e-01 7.270996395069372342e-01 1.204443437677914092e-01 2.766760093443128010e-01 3.227714127398605415e-01 7.243523401344672541e-01 1.910500173600341745e+00 4.882814721550025050e-01 4.707102921708813392e-01 4.804314641595829882e-01 3.138365190569770702e-01 -1.331251490544487437e+00 3.161264875250835438e-01 6.089507929223830773e-01 2.304064738142645563e+00 1.015663775539508151e-01 2.721978139139358266e-01 -4.038382817759591514e-01 1.263004426209428932e-01 2.692747422905907295e-01 -5.748277598915353392e-01 -8.807757776276718964e-01 6.235644924609120565e-01 1.568576031778213142e+00 8.069537480195194956e-02 6.939294396868488368e-01 2.832444211148280599e-01 3.128936751475932532e-01 2.731853140955524117e-01 7.467705675873371751e-01 7.381180733188991150e-01 -2.327075782929789172e-01 -1.714917525345838467e-01 5.502173054287074622e-02 2.652420661684606884e-01 2.150803320357601855e-01 -1.231209688912090518e-02 3.086114949082042092e+00 -2.836800897955981116e-01 1.475137076005369197e-01 1.441109382396277838e-01 8.089430894172342512e-01 2.401040146558145461e-01 4.592649334532815653e-01 1.656961217159814703e-01 4.508442597400214025e-01 -4.868194048327633139e-01 2.075155862485817959e-01 2.169376448489746256e-01 4.265301359872927245e-01 1.040513583666321740e+00 3.115273924508601966e-01 -1.444680464163321520e+00 2.177792838672363285e-01 1.578450270613500905e-01 1.358839046526898908e+00 3.235509298395992106e-01 2.157404745360580467e+00 2.283843111482821986e-01 3.161804666185245027e-01 2.992084875583511661e-01 3.053296374387448608e-01 3.140710601051885931e-01 3.191914826326898713e-01 6.753516695998732500e-01 4.143666025164499667e-01 1.756485989530668645e-01 8.706057960357199699e-01 7.080965532168311816e-01 7.218838736598112149e-01 -3.324611936667922207e-01 2.016136706406676526e-01 3.620576596564258343e-01 3.216048929142378277e-01 2.842108292402426017e-01 2.824279586755921168e-01 3.147120415294775153e-01 6.936033118967936950e-01 -1.395384965667837429e-01 3.188085997940108274e-01 4.482732057376042079e-01 3.978340349384220653e-01 -2.570589396301277141e-01 2.257883699533659930e-02 3.012028348498332342e-01 2.648964172046803234e-01 3.368971411662202153e-01 3.180966052892297835e-01 -2.324073458868794795e+00 4.528831507179734150e-01 -5.923532138453611040e-01 -2.352467297737448337e-01 2.554430455469862693e-01 2.514930682523905947e-01 3.311032204118366518e-01 3.141436142436516143e-01 1.154879962678469207e-01 7.736368652186118022e-02 3.154123228621901753e-01 4.369388751883103161e-01 3.304609071636005480e-01 3.428692954825984240e-01 1.789563753604992702e-01 1.184093912590560363e-02 3.011547760229461579e-01 3.106312355978271267e-01 -2.487197345436823248e+00 7.002310575944344917e-01 6.159393995418320777e-01 9.671620664922454536e-01 -4.552675036546981469e-01 1.170679656934229484e+00 -3.799689895004712027e-03 3.060312232236229724e-01 1.233341358649887587e+00 2.883163163910095750e-01 3.066917162200716307e-01 2.580328894885775548e-01 3.543692248223414554e-01 3.218942553166072584e-01 -4.713726579497264924e-01 3.157539716894463000e-01 2.438042801893735845e-01 8.096509875108189869e-01 3.218780984769754605e-01 2.749467295607647688e-01 2.308352173645914773e-01 3.216045054394161551e-01 -1.638853511999551982e+00 3.099381303666709497e-01 2.349417868750324212e-01 3.527711770810941783e-01 8.478907204670231568e-02 2.778342437923505548e-01 3.819194001032037433e-01 1.351731269743215169e-01 -7.889876520956036199e-01 2.349418196922961888e-01 4.638374564614671236e-01 -5.098310407023439739e-01 3.617144737342576355e-01 1.649020777624361223e-01 2.539240043656931234e-01 -3.225097242692749777e+00 4.489169760576292578e-01 9.308534834741185593e-01 3.047077074812352682e-01 3.142036251350065479e-01 3.146563510965043053e-01 3.406028414669510229e-01 3.212732655976142104e-01 3.156362520117787507e-01 3.387865860739318613e-01 1.409848290318830855e-01 6.622452446332877107e-01 1.183145497003293550e-01 5.101071788367553816e-01 4.724867127421737978e-01 3.901048216076785091e-01 -6.574489508866336873e-01 2.267107198028481818e+00 3.892201150051323721e-01 1.235427697842564454e+00 -1.385141492135532504e+00 3.158264695244293874e-01 2.158231964886114240e-01 3.519092535418338885e-01 1.160871044372411509e+00 4.988055079024519833e-01 8.049667152480165511e-01 2.814382600015200575e-01 6.699159118341464492e-01 2.985786510450626485e-01 2.889298222344708345e-01 -1.159513665967455864e+00 3.877844890360613306e-01 3.177492486819434303e-01 4.840759275751691515e-01 9.038611940032736936e-01 -3.527700666070616720e-01 3.121496798227995306e+00 4.851252079839322162e-01 1.243786495838435258e+00 -1.621140294557277817e-01 3.169937560691823975e-01 3.904348075603477630e-01 3.187196799378044787e-01 2.460846906949875346e-01 3.699280223050085414e-01 -1.132691859427528563e-01 1.338700752085920376e-01 5.613927105461179456e-01 2.719380894084448275e-01 9.297471307038342181e-02 2.552710548561908932e-01 3.841844626801273477e-01 4.253539390092578309e-01 2.636476005863528926e-01 3.204397112049557794e+00 3.747890026581409129e-01 6.544078338276320128e-01 5.404218953580467444e-01 2.417759352170352483e-01 4.256834654389370365e-01 3.209189387503518787e-01 2.793576750109516005e-01 3.131740905836461475e-01 -5.415847476355759582e-01 4.589550363224533247e-01 2.854182357533112113e-01 1.261652348705447624e-01 2.686405283899276353e-01 1.525207921564363911e+00 2.827775483132658474e-01 2.920984862451564967e-01 1.988432821263325323e+00 4.971512165662935745e-01 3.028406389103128760e-01 2.660348924217215694e-01 3.048517716864519445e-01 2.075151161200459726e-01 -2.052910150721279248e+00 2.661737396248739507e-01 1.508834366300467522e+00 -2.319211852444792721e-02 3.187574207346537958e-01 7.018335058709155305e-01 2.784201360385691881e-01 -7.179091284351318825e-01 4.215808077383753072e-01 3.236382837834079762e-01 4.482427781577200676e-01 -3.855142647740770756e-01 3.095668893141458877e-01 -2.191350910481861369e+00 1.236010949851153347e-02 2.871479373937848023e-01 6.039449909337474276e-01 3.139272821114994505e-01 3.147897985394910170e-01 4.700205556394344009e-01 2.022735241085228675e-01 -1.135915688782850458e-01 -7.590940922009304925e-01 2.829410066540678000e-03 6.849846519686952906e-01 3.300676248406789748e-01 4.957547960001431053e-01 3.061638576374663967e-01 1.304087256340739215e-02 3.134484527019565370e-01 2.423471817709814236e+00 6.950235321036418723e-01 2.467400155211724733e-01 -1.146972844872568453e+00 2.208288530168506514e-01 4.638405560626285506e+00 3.474860209289748481e-01 -1.353446551923903618e-01 5.695507224722219375e-01 -5.533079070758326168e+00 5.102962613709617345e-01 1.534148753855063330e+00 3.143698094006600607e-01 5.370668828458823318e-01 -4.392391917777345722e-01 4.051508916133185756e-01 3.293719033246367833e-01 2.806149151826148880e-01 2.413182284573090752e-01 2.901561812549763086e+00 -3.682862376833032636e-01 3.030929382386000626e-01 -1.905127388830012647e+00 3.343240023017483575e-01 -3.497674120161392564e-01 7.455303290503475511e-01 5.393995606872011850e-01 2.937437630653090270e-01 3.083550765469393884e-01 1.280111580845482377e+00 1.402423929755607646e-01 2.349416960545275823e-01 3.877784916291528994e-01 1.351731288659188124e-01 2.833356488705399134e-01 3.949489587468484331e-01 -6.057925832553562318e-01 3.136974871543692922e-01 5.458442505506886366e-01 3.802322451669168379e-01 1.665449140957891150e-01 3.150094460502899096e-01 4.722321368760403759e-01 5.393995857100827296e-01 4.104355715824430373e-01 3.147830099952245164e-01 1.930950334348203457e-01 4.325343631037830150e-01 3.373040104962259811e+00 3.065739393742401009e-01 1.481333597281110914e-01 4.253532575851365349e-01 8.494324713370727808e-01 4.656715932200689578e-01 -1.929777860809806511e-01 6.850129712806142246e-01 2.843094476471889065e-01 1.156430353082162771e-01 3.991836334635294747e-01 6.628795882513798254e-01 6.269110449645990402e-01 7.794889578671776453e-01 8.113198852258939331e-01 3.753304467176402093e-01 1.351731270472641966e-01 1.351730815649941353e-01 2.541859585918417319e-01 1.380020968676793636e-01 1.120035333926182153e+00 4.071908226748853221e-01 3.217567128641592444e-01 3.474136004538586620e-01 3.144800109102194319e-01 7.746708674718291165e-01 2.349414850638908703e-01 3.154203687432632353e-01 4.425341605532659428e-01 2.724207424435230451e-01 -6.328323805156581550e-01 3.131270054179204343e-01 3.180126131770805165e-01 3.742793099685660096e-01 6.964746524534087824e-01 7.275602893947316074e-01 1.351731282821763414e-01 6.766034280268957979e-02 3.079548155116428876e-01 4.648172001274850640e-01 -5.907418911606645562e-01 1.977062993396712931e-01 -3.481607081415381888e+00 1.938674719645632649e+00 6.321939230174542512e-01 -4.516515077717117022e-01 1.436682594986741363e-02 2.040222651029711454e+00 3.097106021665072539e-01 6.366338113116556396e-01 1.440285062700404246e-02 3.223741236036671842e-01 4.421910438298431445e-01 2.933380968124056354e-01 -4.546170381793348536e-01 2.611142796733071370e-01 2.043179164647596302e+00 3.504130168376929366e-01 -4.147507555096102139e-01 3.319931725643842091e-01 3.186639740172749202e-01 -1.449951250337741859e+00 3.234212863922227843e-01 3.555664095025140581e-01 4.029627139218643905e-01 1.790223914487315271e-01 3.093884240428026455e-01 2.192244774295269427e-01 3.248076309134899087e-01 -1.607542771308690110e-01 3.098396473538521101e-01 1.183685860372414439e-01 3.276884110090259039e-01 3.004657023176094399e-01 1.850183768237348078e-02 4.248177726219230510e-01 5.932277793337249472e-01 -1.371569430132228762e+00 -5.414959689548825006e-01 -1.087611236534129361e-01 7.619620809347076029e-02 2.654756752861243130e-01 4.278416363924782972e-01 3.624826200021092903e-01 7.297641995701983353e-01 -1.159742133227029126e-01 3.140159871905429667e-01 3.226106773182665921e-01 9.276391880175963167e-02 -1.604369664801127138e-01 3.069656823383904443e-01 4.493099679936203295e-01 4.791956276280859850e-01 3.223153295732563706e-01 2.612223964402016763e-01 3.158629888186580970e-01 2.561913079068913746e-01 3.161778315388737992e-01 5.081786712493500113e-01 4.207322727064377599e-01 3.141772554225554237e-01 6.836827915497692976e-01 3.279566963909187893e-01 7.324478077560049316e-01 6.572025319732389959e-02 5.130100406881167308e-01 2.332125281678531503e-01 -1.441823381454166775e+00 2.997397394439104690e-01 6.449853580588962298e-01 3.781470586362617459e-01 2.813953322265612123e-01 2.713088551474636123e-01 2.298848450024703061e-01 6.897359225662856863e-01 3.116778184876205504e-01 3.836686916770089550e-01 3.127675534076791442e-01 2.855890500559715717e-01 2.082661425914761055e-01 5.147537464672395924e-01 2.870775499684272147e-01 2.412028146254960315e-01 1.455628594819916855e-01 5.429569945303445305e-02 1.624652080705149215e+00 2.658778216050122212e-01 3.695202342120459948e-01 3.782266983842781372e-01 -8.340307410038415581e-01 4.060442946597940805e-01 3.052197160791347286e-01 4.779301645462591952e-01 -2.338801655061259824e-02 3.212529193024858398e-01 1.555726615155330173e+00 8.888246377075680327e-01 4.178033308636367460e-01 2.959045536199467752e-01 3.684718128609990595e-01 3.326433771826410313e-01 9.156314963033044263e-01 3.013146417994282622e+00 3.126820531101865974e-01 4.372065212529507860e-02 5.928799258067934952e-01 -1.865748987897021260e-01 3.135321475927686508e-01 3.052763025543074882e-01 1.062955443451542470e+00 3.086094703768130776e-01 -3.176828706792835799e-01 3.755781889363095094e-01 1.210454223117087696e-01 6.511612541155444855e-01 1.733311348053831358e+00 3.222317489848147143e-01 2.487868169077721570e-01 1.652117908084085984e+00 4.072314296620937468e-01 3.308196867808953501e-01 2.215136733521415602e-01 2.995440663510324231e-01 1.381899491946161039e-02 4.757605929637366837e-01 2.377473748156501976e-01 7.297343649114480524e-01 2.683001828272555955e-01 2.903601369679224553e-01 3.029004192093055492e-01 4.517668790520026900e-01 2.961968362839579871e-01 2.556283066888789812e-01 9.113259978421115459e-01 5.060075277305975394e-01 4.354297709381557135e-01 2.754527740964214932e-01 2.897728770747927118e-01 2.987394948286138940e-01 5.859021533587736030e-01 7.692935968419706283e-01 3.465941141353824362e-01 2.895536451399088329e-01 4.730279190735339201e-01 3.159373636659887352e-01 7.332829253220290999e-01 2.256766547848608195e-01 4.508427091332148917e-01 -3.159200795036357090e-01 3.123851646708828977e-01 2.808771725544723097e-01 4.202377322403996751e-01 3.071444852551800664e-01 2.495839859336476119e-01 1.767309459743545919e+00 9.257691109257583373e-02 2.672772552071769891e-01 -1.687673895969044324e-01 1.623075403536340167e+00 1.144631032529390025e+00 5.495284235808773482e-02 -4.586484544376637773e-01 3.959610571075068419e-01 3.647983906892350303e-01 5.147138332850005327e-01 3.155699478617740028e-01 3.115692757099594590e-01 1.957192808720563670e-01 3.432419553926623346e-01 3.743461728654273180e-01 1.446467710884111191e-02 -1.923053697264651418e-01 3.759794775975350278e-01 3.190108160095925793e-01 2.088849076931251492e-01 8.635722146927474752e-01 4.253539485930004638e-01 2.343137076229365179e-01 8.349189061350011931e-01 4.760560947376505370e-01 6.231564494326675696e-01 4.540357502333596251e-01 6.892495500735538183e-01 1.465277860268665799e+00 3.177652743003843705e-01 2.061448222069465430e+00 -2.098450766127261946e-02 1.393663786740521604e-01 3.160548505336724379e-01 2.637193389121260112e-01 3.365476270729459429e-01 3.428384921656530415e-01 3.094653970500531037e-01 3.166986496033857290e-01 3.579767031066850569e-01 1.867286014295525820e-01 -3.012458716981405993e-01 2.509032802595443368e-01 -7.639415723822295945e-02 3.052842530335320159e-01 4.481896778815493421e-01 4.253539486315104368e-01 2.065248109208655258e-01 2.044291850371395824e-01 -1.217956317479479189e+00 1.941471523820113454e+00 3.130885092643659884e-01 -7.106350614366796492e-01 2.976537752753297128e-01 3.096777340764982345e-01 3.099411609462363049e-01 -4.721388273524861567e+00 3.498715343459885663e+00 6.230909107226350052e-01 8.062936861614632134e-02 3.077975141025652839e-01 3.084467385592174482e-01 2.981710960677162459e-01 2.591853298567871278e+00 6.189617259691582163e-01 3.199079103919750811e-01 2.075153969206973981e-01 2.603066555705791929e-01 2.584580262736201339e-01 8.695250710510895598e-01 -3.777242883089284575e-01 -1.163244959151585878e+00 -1.199142660596199894e+00 3.112024237303489538e-01 3.087089502544193564e-01 7.142957690573871199e-01 3.556518555240722468e-01 1.333909483598076706e+00 4.700672726347796537e-01 3.140044574729713434e-01 3.039808292960752834e-01 3.305785557242535977e-01 2.909515621884894987e-01 3.038019623543344316e-01 6.497939131924629352e-01 2.754980972380892679e-01 6.503919458218693217e-01 2.205527352891427095e-01 2.966150935946270870e-02 3.036447805425982471e-01 1.940833396039909065e-01 3.531354326148651857e-01 3.047286157628501524e-01 6.730784054747536160e-01 5.393995493519821993e-01 4.361512563222192940e-01 3.680374986593535347e-01 3.149433281268576579e-01 2.599096863308967276e-01 1.555705536308826797e+00 1.854995144087746572e+00 3.049846858334941402e-01 3.661827858407647462e-01 3.215365638315900720e-01 1.649390065603681399e-01 2.336327582794947011e-01 2.461762195844312273e-01 2.905719843567300953e-01 3.223926882204523059e-01 7.941034690893067349e-01 8.728830469715975759e-01 2.358071800571568122e-01 1.849002707897020592e+00 2.287506678136243810e-01 -1.859097309047616220e-01 -2.726019336784046843e-01 -3.184612342543025609e-01 3.151746261663941895e-01 2.663041005848181819e-01 7.073136959655840217e-01 3.042299832690946726e-01 4.582025116600627612e-01 3.078437874487834347e-01 3.734713901934280655e-01 3.966612412285510092e-01 1.378385796591648574e-02 1.020791798755781077e+00 3.212608644103679967e-01 4.583153118883817601e-01 3.094246654554966836e-01 3.617929027067204317e-01 3.214652558422407824e-01 3.893110392870350878e-01 -1.089454012905727714e-01 2.231089193287763006e-01 3.263362411165523502e-01 1.363440582233272323e-02 4.253542485431436315e-01 1.113761721313534458e+00 9.502697677541334098e-01 -7.339827677526831184e-01 -3.497674146301632536e-01 6.489731336357413838e-01 -3.284875564504368128e+00 1.561113489394557297e+00 2.627478178716592949e-01 1.464967198888704296e-02 3.111728190253835180e-01 8.788595484841655869e-01 3.086779807653482477e-01 3.877840801003618609e-01 -4.361523910697868711e-01 8.269885440333379911e-01 2.703200070944870581e-01 8.834502707187674719e-01 2.071740676800522429e+00 -3.778235778654849830e-01 -1.442300021300626289e+00 2.518270026649791493e-01 2.998635561828397189e-01 7.710105576993137033e-01 3.381533681278192649e-01 7.030165451182098790e-01 4.690830751732771864e-01 1.800700398666484903e-01 3.136098510308050757e-01 3.066997007223885574e-01 2.230350838980633965e-01 3.341351840589936728e-01 1.391335422660906707e+00 1.606395464055775824e+00 3.210669030734546459e-01 2.587289867586974879e-01 7.696711659496492663e-02 -2.391082047685312295e-01 2.057150557194777907e-01 -6.619132698207685905e-03 3.105187749320370005e-01 7.074878675656086635e-01 -4.543616258116339734e-01 2.831655416599920261e-01 3.206158111971134650e-01 1.543908061435460277e-01 3.229295091688041963e-01 2.483444156313663331e-01 3.156368233954983671e-01 3.108695344489380008e-01 -9.605704126226225284e-03 2.611001370152466472e-01 4.394622061405074054e-01 1.110638947711435565e+00 1.100468285749693909e+00 9.337827814733756782e-01 1.947023684661433052e-01 7.756620988568355690e-01 1.327181738100731700e-01 4.682995201362701865e-01 -2.088380601037200357e+00 2.937322411670298394e-01 6.535713105733004236e-01 2.730984616849690960e-01 9.563078287303806713e-01 1.361242216323456988e+00 2.075155871563426901e-01 2.784080031743423889e-01 3.731252219638069856e-01 2.795901954519484645e-01 5.538064593889590048e-01 8.481759256584324724e-01 -7.656558558832415873e-01 1.627185032901294903e-01 9.791225273281140007e-02 3.031873034818210466e-01 3.428240057838615740e-01 7.708924361805589154e-01 -1.879377996286405172e-01 3.937838346694310654e-01 3.179603918259597539e-01 3.154833836651694257e-01 8.885300315152817596e-01 4.251474465535847735e-01 -2.083063317275659632e-01 8.593878953553106825e-01 -4.602730859478172676e-02 5.728261667027310100e-01 2.661734076272219696e-01 1.279184618961715092e+00 5.622729904798214884e-01 7.294683443672204115e-01 4.384116902477735445e-01 4.844180461579195573e-01 -5.344088700836391315e-01 2.660566088140044472e-01 7.635266792365531519e-01 3.284027069668811749e-01 6.349945445333854410e-01 2.649819778346325649e-01 3.139718386155217478e-01 7.302639760783741218e-01 1.338359276375453155e-01 -2.031253100620459495e+00 2.470844517606330670e-01 2.776156744367190288e-01 7.933385013787033202e-01 3.975426321230248750e-01 4.042877068458356482e-01 3.096243228765699906e-01 2.714785896528844056e-01 3.754389610457775084e-01 4.598793994929715329e-02 -1.614039198305001532e+00 7.488078247383894714e-01 2.582949103446618433e-01 3.334098077780121572e-01 1.956160969938496030e-01 8.233807430077467737e-01 3.162161762270376819e-01 -1.369167562518967818e-01 3.231220127264245456e-01 1.117429170001017269e+00 2.760995607653550787e-01 4.150578860320111030e-01 1.059400184916482468e+00 3.524929490707815471e-01 2.744754788797834522e+00 3.269327392759314166e-01 3.019297993213272413e-01 6.906951421712963501e-01 2.905709333596385169e-01 3.045195120110558151e-01 -2.059475518118929038e+00 4.053866654542138681e-01 3.248002373357133377e-01 5.140077852960235338e-01 3.236769900213107287e-01 2.546250935736737442e-01 -2.257378857944989936e-01 2.034761085573272510e+00 -5.201768096309135059e-01 8.287212023638500513e-01 3.127006312919580755e-01 3.481972991404784779e-01 7.845639562743086382e-01 3.640595330714848643e-01 1.323562525919655286e+00 1.776755198619182352e-01 3.066025251297787579e-01 -8.807440474768887251e-01 -1.321380297620232125e-01 -3.619539659864930981e-01 -3.883009290304815231e+00 2.922395414424744153e+00 5.344813485162597938e-02 3.351284167770054445e-01 -1.605048377532995785e+00 3.162109444347239173e-01 2.729024213428298262e-01 2.863904599398255368e-01 1.486045353145572512e-01 6.391415772719619692e-01 5.954894228688577540e-01 1.015372659597119087e+00 -3.497674169651728282e-01 -2.200655064037812525e-01 2.129091843732768552e-01 -1.179731753562315522e+00 2.757386229678958633e-01 -6.375747844509741524e-01 2.808609774168622786e-01 4.707672486949951995e-01 5.872254915909592282e-02 4.360751053478939543e-01 2.702854432616648706e-01 -8.476173973837902720e-02 2.068420866560746751e-01 2.980299033822499388e-01 3.568743671969691333e-01 3.046245222831320820e-01 3.130491030505503924e-01 -7.339341578023574897e-01 5.497714369788807565e-01 1.532020538493324091e+00 6.070568327306882089e-02 2.402483482549543359e-01 3.929718676523710763e-01 1.211664309997523503e+00 3.193174241509633693e-01 1.406746650083373629e-01 8.947019951125576576e-01 3.012406302065748220e-01 1.845427965970868778e+00 3.338229465227615655e-01 1.234883634309758893e+00 3.271297441335074274e-01 7.367441812778031673e-01 1.345845534018159873e+00 3.191722288709046840e-01 4.012210088831466570e-01 9.181132365217284930e-01 -1.877331173558992872e-01 -5.388434752157764823e-02 1.810931999508585410e-01 2.983774056249157147e-01 3.503211061151537686e-01 1.422929672978174576e-01 1.985705540218634380e-01 -3.586344418656349786e-01 1.292571510445891469e+00 2.719527594793773595e-01 3.171613985970190841e-01 -3.136493345597070714e+00 5.100776878054191776e-01 3.401140370450936312e-01 4.394719066264726193e-01 4.249084436659310016e-01 4.907045608950950100e-01 -1.061324699192322196e+00 6.076645494817910498e-01 2.745638437383898234e-01 3.100863555781492864e-01 1.037322288735458953e+00 4.515055606862321547e-01 3.029241563770888046e-01 -1.391575196663500824e+00 4.299111396488213277e-01 8.885205850315415210e-01 2.951521187658131540e-01 3.126315178659391791e-01 3.587173827058026121e-01 7.061833213862246383e-01 -7.570889913134083715e-02 3.179661811506123703e-01 2.893380966035122293e-01 7.538368032079115211e-02 6.862457341366570152e-01 3.475419416628751645e-01 7.270124639496223784e-01 1.715560138020159886e-01 6.871537024406795258e-01 -2.193882539663245257e-01 -1.503959064983850569e+00 3.323353079768571749e-01 -1.649874759531486448e-02 3.302702458538464558e-01 3.677398606088537747e-01 5.489274970308345020e-02 5.393995764898421585e-01 3.095291368186919856e-01 8.518027694540618311e-02 4.552817313046652603e-01 2.494755024749237271e-01 3.338750868094128021e-01 2.715303716865476447e-01 -8.210434615594233154e-01 3.259665448213089900e-01 3.538143153893830162e-01 2.944623940239749493e-01 -1.611025798864339498e-01 3.169498515585031928e-01 8.060514608194367936e-01 -5.252486000080031081e-01 1.101994762719163079e+00 6.065806127464835606e-01 2.507179597700415763e-01 3.150122141302943435e-01 -2.030416730888248367e+00 3.243309839626216107e-01 1.877079554430454711e-01 2.454749715724252879e-01 5.393995370263771072e-01 3.143802367719686353e-01 2.692144034231794825e-01 9.675308344465154142e-02 3.121053685524330379e-01 4.361478212053558901e-01 4.035736730670421712e-01 3.517303772346388469e-01 2.971960317263039331e-01 3.173451613895936774e-01 3.042290214456147557e-01 2.681495408096157829e-01 4.175827567823496567e-02 3.065771673554379961e-01 6.023279533483585357e-01 2.059513982424278911e-01 3.291614363360789719e-01 -1.286822454476206079e-01 1.453697523859887042e-01 5.419984795497885255e-01 4.400577850211266018e+00 3.131695866042047416e-01 1.128746883921091237e-01 5.377923869161546078e-01 2.033064408276537838e-01 1.541136644094433850e+00 3.552751647237652466e-01 6.536971642025353191e-01 3.194564194502352850e-01
