# 
#                 ----------------------------------------------------
#                 Data from a 3D direct N-body simulation. 
# 
#                 rows are i-particle; 
#                 coumns are :mass, tag, x ,y, z, vx, vy, vz, ax, ay, az
# 
#                 NTHU, Computational Physics 
# 
#                 ----------------------------------------------------
#                 Time = 0.0
0.000000000000000000e+00 1.000000000000000000e+00 2.000000000000000000e+00 3.000000000000000000e+00 4.000000000000000000e+00 5.000000000000000000e+00 6.000000000000000000e+00 7.000000000000000000e+00 8.000000000000000000e+00 9.000000000000000000e+00 1.000000000000000000e+01 1.100000000000000000e+01 1.200000000000000000e+01 1.300000000000000000e+01 1.400000000000000000e+01 1.500000000000000000e+01 1.600000000000000000e+01 1.700000000000000000e+01 1.800000000000000000e+01 1.900000000000000000e+01 2.000000000000000000e+01 2.100000000000000000e+01 2.200000000000000000e+01 2.300000000000000000e+01 2.400000000000000000e+01 2.500000000000000000e+01 2.600000000000000000e+01 2.700000000000000000e+01 2.800000000000000000e+01 2.900000000000000000e+01 3.000000000000000000e+01 3.100000000000000000e+01 3.200000000000000000e+01 3.300000000000000000e+01 3.400000000000000000e+01 3.500000000000000000e+01 3.600000000000000000e+01 3.700000000000000000e+01 3.800000000000000000e+01 3.900000000000000000e+01 4.000000000000000000e+01 4.100000000000000000e+01 4.200000000000000000e+01 4.300000000000000000e+01 4.400000000000000000e+01 4.500000000000000000e+01 4.600000000000000000e+01 4.700000000000000000e+01 4.800000000000000000e+01 4.900000000000000000e+01 5.000000000000000000e+01 5.100000000000000000e+01 5.200000000000000000e+01 5.300000000000000000e+01 5.400000000000000000e+01 5.500000000000000000e+01 5.600000000000000000e+01 5.700000000000000000e+01 5.800000000000000000e+01 5.900000000000000000e+01 6.000000000000000000e+01 6.100000000000000000e+01 6.200000000000000000e+01 6.300000000000000000e+01 6.400000000000000000e+01 6.500000000000000000e+01 6.600000000000000000e+01 6.700000000000000000e+01 6.800000000000000000e+01 6.900000000000000000e+01 7.000000000000000000e+01 7.100000000000000000e+01 7.200000000000000000e+01 7.300000000000000000e+01 7.400000000000000000e+01 7.500000000000000000e+01 7.600000000000000000e+01 7.700000000000000000e+01 7.800000000000000000e+01 7.900000000000000000e+01 8.000000000000000000e+01 8.100000000000000000e+01 8.200000000000000000e+01 8.300000000000000000e+01 8.400000000000000000e+01 8.500000000000000000e+01 8.600000000000000000e+01 8.700000000000000000e+01 8.800000000000000000e+01 8.900000000000000000e+01 9.000000000000000000e+01 9.100000000000000000e+01 9.200000000000000000e+01 9.300000000000000000e+01 9.400000000000000000e+01 9.500000000000000000e+01 9.600000000000000000e+01 9.700000000000000000e+01 9.800000000000000000e+01 9.900000000000000000e+01 1.000000000000000000e+02 1.010000000000000000e+02 1.020000000000000000e+02 1.030000000000000000e+02 1.040000000000000000e+02 1.050000000000000000e+02 1.060000000000000000e+02 1.070000000000000000e+02 1.080000000000000000e+02 1.090000000000000000e+02 1.100000000000000000e+02 1.110000000000000000e+02 1.120000000000000000e+02 1.130000000000000000e+02 1.140000000000000000e+02 1.150000000000000000e+02 1.160000000000000000e+02 1.170000000000000000e+02 1.180000000000000000e+02 1.190000000000000000e+02 1.200000000000000000e+02 1.210000000000000000e+02 1.220000000000000000e+02 1.230000000000000000e+02 1.240000000000000000e+02 1.250000000000000000e+02 1.260000000000000000e+02 1.270000000000000000e+02 1.280000000000000000e+02 1.290000000000000000e+02 1.300000000000000000e+02 1.310000000000000000e+02 1.320000000000000000e+02 1.330000000000000000e+02 1.340000000000000000e+02 1.350000000000000000e+02 1.360000000000000000e+02 1.370000000000000000e+02 1.380000000000000000e+02 1.390000000000000000e+02 1.400000000000000000e+02 1.410000000000000000e+02 1.420000000000000000e+02 1.430000000000000000e+02 1.440000000000000000e+02 1.450000000000000000e+02 1.460000000000000000e+02 1.470000000000000000e+02 1.480000000000000000e+02 1.490000000000000000e+02 1.500000000000000000e+02 1.510000000000000000e+02 1.520000000000000000e+02 1.530000000000000000e+02 1.540000000000000000e+02 1.550000000000000000e+02 1.560000000000000000e+02 1.570000000000000000e+02 1.580000000000000000e+02 1.590000000000000000e+02 1.600000000000000000e+02 1.610000000000000000e+02 1.620000000000000000e+02 1.630000000000000000e+02 1.640000000000000000e+02 1.650000000000000000e+02 1.660000000000000000e+02 1.670000000000000000e+02 1.680000000000000000e+02 1.690000000000000000e+02 1.700000000000000000e+02 1.710000000000000000e+02 1.720000000000000000e+02 1.730000000000000000e+02 1.740000000000000000e+02 1.750000000000000000e+02 1.760000000000000000e+02 1.770000000000000000e+02 1.780000000000000000e+02 1.790000000000000000e+02 1.800000000000000000e+02 1.810000000000000000e+02 1.820000000000000000e+02 1.830000000000000000e+02 1.840000000000000000e+02 1.850000000000000000e+02 1.860000000000000000e+02 1.870000000000000000e+02 1.880000000000000000e+02 1.890000000000000000e+02 1.900000000000000000e+02 1.910000000000000000e+02 1.920000000000000000e+02 1.930000000000000000e+02 1.940000000000000000e+02 1.950000000000000000e+02 1.960000000000000000e+02 1.970000000000000000e+02 1.980000000000000000e+02 1.990000000000000000e+02 2.000000000000000000e+02 2.010000000000000000e+02 2.020000000000000000e+02 2.030000000000000000e+02 2.040000000000000000e+02 2.050000000000000000e+02 2.060000000000000000e+02 2.070000000000000000e+02 2.080000000000000000e+02 2.090000000000000000e+02 2.100000000000000000e+02 2.110000000000000000e+02 2.120000000000000000e+02 2.130000000000000000e+02 2.140000000000000000e+02 2.150000000000000000e+02 2.160000000000000000e+02 2.170000000000000000e+02 2.180000000000000000e+02 2.190000000000000000e+02 2.200000000000000000e+02 2.210000000000000000e+02 2.220000000000000000e+02 2.230000000000000000e+02 2.240000000000000000e+02 2.250000000000000000e+02 2.260000000000000000e+02 2.270000000000000000e+02 2.280000000000000000e+02 2.290000000000000000e+02 2.300000000000000000e+02 2.310000000000000000e+02 2.320000000000000000e+02 2.330000000000000000e+02 2.340000000000000000e+02 2.350000000000000000e+02 2.360000000000000000e+02 2.370000000000000000e+02 2.380000000000000000e+02 2.390000000000000000e+02 2.400000000000000000e+02 2.410000000000000000e+02 2.420000000000000000e+02 2.430000000000000000e+02 2.440000000000000000e+02 2.450000000000000000e+02 2.460000000000000000e+02 2.470000000000000000e+02 2.480000000000000000e+02 2.490000000000000000e+02 2.500000000000000000e+02 2.510000000000000000e+02 2.520000000000000000e+02 2.530000000000000000e+02 2.540000000000000000e+02 2.550000000000000000e+02 2.560000000000000000e+02 2.570000000000000000e+02 2.580000000000000000e+02 2.590000000000000000e+02 2.600000000000000000e+02 2.610000000000000000e+02 2.620000000000000000e+02 2.630000000000000000e+02 2.640000000000000000e+02 2.650000000000000000e+02 2.660000000000000000e+02 2.670000000000000000e+02 2.680000000000000000e+02 2.690000000000000000e+02 2.700000000000000000e+02 2.710000000000000000e+02 2.720000000000000000e+02 2.730000000000000000e+02 2.740000000000000000e+02 2.750000000000000000e+02 2.760000000000000000e+02 2.770000000000000000e+02 2.780000000000000000e+02 2.790000000000000000e+02 2.800000000000000000e+02 2.810000000000000000e+02 2.820000000000000000e+02 2.830000000000000000e+02 2.840000000000000000e+02 2.850000000000000000e+02 2.860000000000000000e+02 2.870000000000000000e+02 2.880000000000000000e+02 2.890000000000000000e+02 2.900000000000000000e+02 2.910000000000000000e+02 2.920000000000000000e+02 2.930000000000000000e+02 2.940000000000000000e+02 2.950000000000000000e+02 2.960000000000000000e+02 2.970000000000000000e+02 2.980000000000000000e+02 2.990000000000000000e+02 3.000000000000000000e+02 3.010000000000000000e+02 3.020000000000000000e+02 3.030000000000000000e+02 3.040000000000000000e+02 3.050000000000000000e+02 3.060000000000000000e+02 3.070000000000000000e+02 3.080000000000000000e+02 3.090000000000000000e+02 3.100000000000000000e+02 3.110000000000000000e+02 3.120000000000000000e+02 3.130000000000000000e+02 3.140000000000000000e+02 3.150000000000000000e+02 3.160000000000000000e+02 3.170000000000000000e+02 3.180000000000000000e+02 3.190000000000000000e+02 3.200000000000000000e+02 3.210000000000000000e+02 3.220000000000000000e+02 3.230000000000000000e+02 3.240000000000000000e+02 3.250000000000000000e+02 3.260000000000000000e+02 3.270000000000000000e+02 3.280000000000000000e+02 3.290000000000000000e+02 3.300000000000000000e+02 3.310000000000000000e+02 3.320000000000000000e+02 3.330000000000000000e+02 3.340000000000000000e+02 3.350000000000000000e+02 3.360000000000000000e+02 3.370000000000000000e+02 3.380000000000000000e+02 3.390000000000000000e+02 3.400000000000000000e+02 3.410000000000000000e+02 3.420000000000000000e+02 3.430000000000000000e+02 3.440000000000000000e+02 3.450000000000000000e+02 3.460000000000000000e+02 3.470000000000000000e+02 3.480000000000000000e+02 3.490000000000000000e+02 3.500000000000000000e+02 3.510000000000000000e+02 3.520000000000000000e+02 3.530000000000000000e+02 3.540000000000000000e+02 3.550000000000000000e+02 3.560000000000000000e+02 3.570000000000000000e+02 3.580000000000000000e+02 3.590000000000000000e+02 3.600000000000000000e+02 3.610000000000000000e+02 3.620000000000000000e+02 3.630000000000000000e+02 3.640000000000000000e+02 3.650000000000000000e+02 3.660000000000000000e+02 3.670000000000000000e+02 3.680000000000000000e+02 3.690000000000000000e+02 3.700000000000000000e+02 3.710000000000000000e+02 3.720000000000000000e+02 3.730000000000000000e+02 3.740000000000000000e+02 3.750000000000000000e+02 3.760000000000000000e+02 3.770000000000000000e+02 3.780000000000000000e+02 3.790000000000000000e+02 3.800000000000000000e+02 3.810000000000000000e+02 3.820000000000000000e+02 3.830000000000000000e+02 3.840000000000000000e+02 3.850000000000000000e+02 3.860000000000000000e+02 3.870000000000000000e+02 3.880000000000000000e+02 3.890000000000000000e+02 3.900000000000000000e+02 3.910000000000000000e+02 3.920000000000000000e+02 3.930000000000000000e+02 3.940000000000000000e+02 3.950000000000000000e+02 3.960000000000000000e+02 3.970000000000000000e+02 3.980000000000000000e+02 3.990000000000000000e+02 4.000000000000000000e+02 4.010000000000000000e+02 4.020000000000000000e+02 4.030000000000000000e+02 4.040000000000000000e+02 4.050000000000000000e+02 4.060000000000000000e+02 4.070000000000000000e+02 4.080000000000000000e+02 4.090000000000000000e+02 4.100000000000000000e+02 4.110000000000000000e+02 4.120000000000000000e+02 4.130000000000000000e+02 4.140000000000000000e+02 4.150000000000000000e+02 4.160000000000000000e+02 4.170000000000000000e+02 4.180000000000000000e+02 4.190000000000000000e+02 4.200000000000000000e+02 4.210000000000000000e+02 4.220000000000000000e+02 4.230000000000000000e+02 4.240000000000000000e+02 4.250000000000000000e+02 4.260000000000000000e+02 4.270000000000000000e+02 4.280000000000000000e+02 4.290000000000000000e+02 4.300000000000000000e+02 4.310000000000000000e+02 4.320000000000000000e+02 4.330000000000000000e+02 4.340000000000000000e+02 4.350000000000000000e+02 4.360000000000000000e+02 4.370000000000000000e+02 4.380000000000000000e+02 4.390000000000000000e+02 4.400000000000000000e+02 4.410000000000000000e+02 4.420000000000000000e+02 4.430000000000000000e+02 4.440000000000000000e+02 4.450000000000000000e+02 4.460000000000000000e+02 4.470000000000000000e+02 4.480000000000000000e+02 4.490000000000000000e+02 4.500000000000000000e+02 4.510000000000000000e+02 4.520000000000000000e+02 4.530000000000000000e+02 4.540000000000000000e+02 4.550000000000000000e+02 4.560000000000000000e+02 4.570000000000000000e+02 4.580000000000000000e+02 4.590000000000000000e+02 4.600000000000000000e+02 4.610000000000000000e+02 4.620000000000000000e+02 4.630000000000000000e+02 4.640000000000000000e+02 4.650000000000000000e+02 4.660000000000000000e+02 4.670000000000000000e+02 4.680000000000000000e+02 4.690000000000000000e+02 4.700000000000000000e+02 4.710000000000000000e+02 4.720000000000000000e+02 4.730000000000000000e+02 4.740000000000000000e+02 4.750000000000000000e+02 4.760000000000000000e+02 4.770000000000000000e+02 4.780000000000000000e+02 4.790000000000000000e+02 4.800000000000000000e+02 4.810000000000000000e+02 4.820000000000000000e+02 4.830000000000000000e+02 4.840000000000000000e+02 4.850000000000000000e+02 4.860000000000000000e+02 4.870000000000000000e+02 4.880000000000000000e+02 4.890000000000000000e+02 4.900000000000000000e+02 4.910000000000000000e+02 4.920000000000000000e+02 4.930000000000000000e+02 4.940000000000000000e+02 4.950000000000000000e+02 4.960000000000000000e+02 4.970000000000000000e+02 4.980000000000000000e+02 4.990000000000000000e+02 5.000000000000000000e+02 5.010000000000000000e+02 5.020000000000000000e+02 5.030000000000000000e+02 5.040000000000000000e+02 5.050000000000000000e+02 5.060000000000000000e+02 5.070000000000000000e+02 5.080000000000000000e+02 5.090000000000000000e+02 5.100000000000000000e+02 5.110000000000000000e+02 5.120000000000000000e+02 5.130000000000000000e+02 5.140000000000000000e+02 5.150000000000000000e+02 5.160000000000000000e+02 5.170000000000000000e+02 5.180000000000000000e+02 5.190000000000000000e+02 5.200000000000000000e+02 5.210000000000000000e+02 5.220000000000000000e+02 5.230000000000000000e+02 5.240000000000000000e+02 5.250000000000000000e+02 5.260000000000000000e+02 5.270000000000000000e+02 5.280000000000000000e+02 5.290000000000000000e+02 5.300000000000000000e+02 5.310000000000000000e+02 5.320000000000000000e+02 5.330000000000000000e+02 5.340000000000000000e+02 5.350000000000000000e+02 5.360000000000000000e+02 5.370000000000000000e+02 5.380000000000000000e+02 5.390000000000000000e+02 5.400000000000000000e+02 5.410000000000000000e+02 5.420000000000000000e+02 5.430000000000000000e+02 5.440000000000000000e+02 5.450000000000000000e+02 5.460000000000000000e+02 5.470000000000000000e+02 5.480000000000000000e+02 5.490000000000000000e+02 5.500000000000000000e+02 5.510000000000000000e+02 5.520000000000000000e+02 5.530000000000000000e+02 5.540000000000000000e+02 5.550000000000000000e+02 5.560000000000000000e+02 5.570000000000000000e+02 5.580000000000000000e+02 5.590000000000000000e+02 5.600000000000000000e+02 5.610000000000000000e+02 5.620000000000000000e+02 5.630000000000000000e+02 5.640000000000000000e+02 5.650000000000000000e+02 5.660000000000000000e+02 5.670000000000000000e+02 5.680000000000000000e+02 5.690000000000000000e+02 5.700000000000000000e+02 5.710000000000000000e+02 5.720000000000000000e+02 5.730000000000000000e+02 5.740000000000000000e+02 5.750000000000000000e+02 5.760000000000000000e+02 5.770000000000000000e+02 5.780000000000000000e+02 5.790000000000000000e+02 5.800000000000000000e+02 5.810000000000000000e+02 5.820000000000000000e+02 5.830000000000000000e+02 5.840000000000000000e+02 5.850000000000000000e+02 5.860000000000000000e+02 5.870000000000000000e+02 5.880000000000000000e+02 5.890000000000000000e+02 5.900000000000000000e+02 5.910000000000000000e+02 5.920000000000000000e+02 5.930000000000000000e+02 5.940000000000000000e+02 5.950000000000000000e+02 5.960000000000000000e+02 5.970000000000000000e+02 5.980000000000000000e+02 5.990000000000000000e+02 6.000000000000000000e+02 6.010000000000000000e+02 6.020000000000000000e+02 6.030000000000000000e+02 6.040000000000000000e+02 6.050000000000000000e+02 6.060000000000000000e+02 6.070000000000000000e+02 6.080000000000000000e+02 6.090000000000000000e+02 6.100000000000000000e+02 6.110000000000000000e+02 6.120000000000000000e+02 6.130000000000000000e+02 6.140000000000000000e+02 6.150000000000000000e+02 6.160000000000000000e+02 6.170000000000000000e+02 6.180000000000000000e+02 6.190000000000000000e+02 6.200000000000000000e+02 6.210000000000000000e+02 6.220000000000000000e+02 6.230000000000000000e+02 6.240000000000000000e+02 6.250000000000000000e+02 6.260000000000000000e+02 6.270000000000000000e+02 6.280000000000000000e+02 6.290000000000000000e+02 6.300000000000000000e+02 6.310000000000000000e+02 6.320000000000000000e+02 6.330000000000000000e+02 6.340000000000000000e+02 6.350000000000000000e+02 6.360000000000000000e+02 6.370000000000000000e+02 6.380000000000000000e+02 6.390000000000000000e+02 6.400000000000000000e+02 6.410000000000000000e+02 6.420000000000000000e+02 6.430000000000000000e+02 6.440000000000000000e+02 6.450000000000000000e+02 6.460000000000000000e+02 6.470000000000000000e+02 6.480000000000000000e+02 6.490000000000000000e+02 6.500000000000000000e+02 6.510000000000000000e+02 6.520000000000000000e+02 6.530000000000000000e+02 6.540000000000000000e+02 6.550000000000000000e+02 6.560000000000000000e+02 6.570000000000000000e+02 6.580000000000000000e+02 6.590000000000000000e+02 6.600000000000000000e+02 6.610000000000000000e+02 6.620000000000000000e+02 6.630000000000000000e+02 6.640000000000000000e+02 6.650000000000000000e+02 6.660000000000000000e+02 6.670000000000000000e+02 6.680000000000000000e+02 6.690000000000000000e+02 6.700000000000000000e+02 6.710000000000000000e+02 6.720000000000000000e+02 6.730000000000000000e+02 6.740000000000000000e+02 6.750000000000000000e+02 6.760000000000000000e+02 6.770000000000000000e+02 6.780000000000000000e+02 6.790000000000000000e+02 6.800000000000000000e+02 6.810000000000000000e+02 6.820000000000000000e+02 6.830000000000000000e+02 6.840000000000000000e+02 6.850000000000000000e+02 6.860000000000000000e+02 6.870000000000000000e+02 6.880000000000000000e+02 6.890000000000000000e+02 6.900000000000000000e+02 6.910000000000000000e+02 6.920000000000000000e+02 6.930000000000000000e+02 6.940000000000000000e+02 6.950000000000000000e+02 6.960000000000000000e+02 6.970000000000000000e+02 6.980000000000000000e+02 6.990000000000000000e+02 7.000000000000000000e+02 7.010000000000000000e+02 7.020000000000000000e+02 7.030000000000000000e+02 7.040000000000000000e+02 7.050000000000000000e+02 7.060000000000000000e+02 7.070000000000000000e+02 7.080000000000000000e+02 7.090000000000000000e+02 7.100000000000000000e+02 7.110000000000000000e+02 7.120000000000000000e+02 7.130000000000000000e+02 7.140000000000000000e+02 7.150000000000000000e+02 7.160000000000000000e+02 7.170000000000000000e+02 7.180000000000000000e+02 7.190000000000000000e+02 7.200000000000000000e+02 7.210000000000000000e+02 7.220000000000000000e+02 7.230000000000000000e+02 7.240000000000000000e+02 7.250000000000000000e+02 7.260000000000000000e+02 7.270000000000000000e+02 7.280000000000000000e+02 7.290000000000000000e+02 7.300000000000000000e+02 7.310000000000000000e+02 7.320000000000000000e+02 7.330000000000000000e+02 7.340000000000000000e+02 7.350000000000000000e+02 7.360000000000000000e+02 7.370000000000000000e+02 7.380000000000000000e+02 7.390000000000000000e+02 7.400000000000000000e+02 7.410000000000000000e+02 7.420000000000000000e+02 7.430000000000000000e+02 7.440000000000000000e+02 7.450000000000000000e+02 7.460000000000000000e+02 7.470000000000000000e+02 7.480000000000000000e+02 7.490000000000000000e+02 7.500000000000000000e+02 7.510000000000000000e+02 7.520000000000000000e+02 7.530000000000000000e+02 7.540000000000000000e+02 7.550000000000000000e+02 7.560000000000000000e+02 7.570000000000000000e+02 7.580000000000000000e+02 7.590000000000000000e+02 7.600000000000000000e+02 7.610000000000000000e+02 7.620000000000000000e+02 7.630000000000000000e+02 7.640000000000000000e+02 7.650000000000000000e+02 7.660000000000000000e+02 7.670000000000000000e+02 7.680000000000000000e+02 7.690000000000000000e+02 7.700000000000000000e+02 7.710000000000000000e+02 7.720000000000000000e+02 7.730000000000000000e+02 7.740000000000000000e+02 7.750000000000000000e+02 7.760000000000000000e+02 7.770000000000000000e+02 7.780000000000000000e+02 7.790000000000000000e+02 7.800000000000000000e+02 7.810000000000000000e+02 7.820000000000000000e+02 7.830000000000000000e+02 7.840000000000000000e+02 7.850000000000000000e+02 7.860000000000000000e+02 7.870000000000000000e+02 7.880000000000000000e+02 7.890000000000000000e+02 7.900000000000000000e+02 7.910000000000000000e+02 7.920000000000000000e+02 7.930000000000000000e+02 7.940000000000000000e+02 7.950000000000000000e+02 7.960000000000000000e+02 7.970000000000000000e+02 7.980000000000000000e+02 7.990000000000000000e+02 8.000000000000000000e+02 8.010000000000000000e+02 8.020000000000000000e+02 8.030000000000000000e+02 8.040000000000000000e+02 8.050000000000000000e+02 8.060000000000000000e+02 8.070000000000000000e+02 8.080000000000000000e+02 8.090000000000000000e+02 8.100000000000000000e+02 8.110000000000000000e+02 8.120000000000000000e+02 8.130000000000000000e+02 8.140000000000000000e+02 8.150000000000000000e+02 8.160000000000000000e+02 8.170000000000000000e+02 8.180000000000000000e+02 8.190000000000000000e+02 8.200000000000000000e+02 8.210000000000000000e+02 8.220000000000000000e+02 8.230000000000000000e+02 8.240000000000000000e+02 8.250000000000000000e+02 8.260000000000000000e+02 8.270000000000000000e+02 8.280000000000000000e+02 8.290000000000000000e+02 8.300000000000000000e+02 8.310000000000000000e+02 8.320000000000000000e+02 8.330000000000000000e+02 8.340000000000000000e+02 8.350000000000000000e+02 8.360000000000000000e+02 8.370000000000000000e+02 8.380000000000000000e+02 8.390000000000000000e+02 8.400000000000000000e+02 8.410000000000000000e+02 8.420000000000000000e+02 8.430000000000000000e+02 8.440000000000000000e+02 8.450000000000000000e+02 8.460000000000000000e+02 8.470000000000000000e+02 8.480000000000000000e+02 8.490000000000000000e+02 8.500000000000000000e+02 8.510000000000000000e+02 8.520000000000000000e+02 8.530000000000000000e+02 8.540000000000000000e+02 8.550000000000000000e+02 8.560000000000000000e+02 8.570000000000000000e+02 8.580000000000000000e+02 8.590000000000000000e+02 8.600000000000000000e+02 8.610000000000000000e+02 8.620000000000000000e+02 8.630000000000000000e+02 8.640000000000000000e+02 8.650000000000000000e+02 8.660000000000000000e+02 8.670000000000000000e+02 8.680000000000000000e+02 8.690000000000000000e+02 8.700000000000000000e+02 8.710000000000000000e+02 8.720000000000000000e+02 8.730000000000000000e+02 8.740000000000000000e+02 8.750000000000000000e+02 8.760000000000000000e+02 8.770000000000000000e+02 8.780000000000000000e+02 8.790000000000000000e+02 8.800000000000000000e+02 8.810000000000000000e+02 8.820000000000000000e+02 8.830000000000000000e+02 8.840000000000000000e+02 8.850000000000000000e+02 8.860000000000000000e+02 8.870000000000000000e+02 8.880000000000000000e+02 8.890000000000000000e+02 8.900000000000000000e+02 8.910000000000000000e+02 8.920000000000000000e+02 8.930000000000000000e+02 8.940000000000000000e+02 8.950000000000000000e+02 8.960000000000000000e+02 8.970000000000000000e+02 8.980000000000000000e+02 8.990000000000000000e+02 9.000000000000000000e+02 9.010000000000000000e+02 9.020000000000000000e+02 9.030000000000000000e+02 9.040000000000000000e+02 9.050000000000000000e+02 9.060000000000000000e+02 9.070000000000000000e+02 9.080000000000000000e+02 9.090000000000000000e+02 9.100000000000000000e+02 9.110000000000000000e+02 9.120000000000000000e+02 9.130000000000000000e+02 9.140000000000000000e+02 9.150000000000000000e+02 9.160000000000000000e+02 9.170000000000000000e+02 9.180000000000000000e+02 9.190000000000000000e+02 9.200000000000000000e+02 9.210000000000000000e+02 9.220000000000000000e+02 9.230000000000000000e+02 9.240000000000000000e+02 9.250000000000000000e+02 9.260000000000000000e+02 9.270000000000000000e+02 9.280000000000000000e+02 9.290000000000000000e+02 9.300000000000000000e+02 9.310000000000000000e+02 9.320000000000000000e+02 9.330000000000000000e+02 9.340000000000000000e+02 9.350000000000000000e+02 9.360000000000000000e+02 9.370000000000000000e+02 9.380000000000000000e+02 9.390000000000000000e+02 9.400000000000000000e+02 9.410000000000000000e+02 9.420000000000000000e+02 9.430000000000000000e+02 9.440000000000000000e+02 9.450000000000000000e+02 9.460000000000000000e+02 9.470000000000000000e+02 9.480000000000000000e+02 9.490000000000000000e+02 9.500000000000000000e+02 9.510000000000000000e+02 9.520000000000000000e+02 9.530000000000000000e+02 9.540000000000000000e+02 9.550000000000000000e+02 9.560000000000000000e+02 9.570000000000000000e+02 9.580000000000000000e+02 9.590000000000000000e+02 9.600000000000000000e+02 9.610000000000000000e+02 9.620000000000000000e+02 9.630000000000000000e+02 9.640000000000000000e+02 9.650000000000000000e+02 9.660000000000000000e+02 9.670000000000000000e+02 9.680000000000000000e+02 9.690000000000000000e+02 9.700000000000000000e+02 9.710000000000000000e+02 9.720000000000000000e+02 9.730000000000000000e+02 9.740000000000000000e+02 9.750000000000000000e+02 9.760000000000000000e+02 9.770000000000000000e+02 9.780000000000000000e+02 9.790000000000000000e+02 9.800000000000000000e+02 9.810000000000000000e+02 9.820000000000000000e+02 9.830000000000000000e+02 9.840000000000000000e+02 9.850000000000000000e+02 9.860000000000000000e+02 9.870000000000000000e+02 9.880000000000000000e+02 9.890000000000000000e+02 9.900000000000000000e+02 9.910000000000000000e+02 9.920000000000000000e+02 9.930000000000000000e+02 9.940000000000000000e+02 9.950000000000000000e+02 9.960000000000000000e+02 9.970000000000000000e+02 9.980000000000000000e+02 9.990000000000000000e+02
1.000000000000000000e+00 1.000000000000000000e+00 1.000000000000000000e+00 1.000000000000000000e+00 1.000000000000000000e+00 1.000000000000000000e+00 1.000000000000000000e+00 1.000000000000000000e+00 1.000000000000000000e+00 1.000000000000000000e+00 1.000000000000000000e+00 1.000000000000000000e+00 1.000000000000000000e+00 1.000000000000000000e+00 1.000000000000000000e+00 1.000000000000000000e+00 1.000000000000000000e+00 1.000000000000000000e+00 1.000000000000000000e+00 1.000000000000000000e+00 1.000000000000000000e+00 1.000000000000000000e+00 1.000000000000000000e+00 1.000000000000000000e+00 1.000000000000000000e+00 1.000000000000000000e+00 1.000000000000000000e+00 1.000000000000000000e+00 1.000000000000000000e+00 1.000000000000000000e+00 1.000000000000000000e+00 1.000000000000000000e+00 1.000000000000000000e+00 1.000000000000000000e+00 1.000000000000000000e+00 1.000000000000000000e+00 1.000000000000000000e+00 1.000000000000000000e+00 1.000000000000000000e+00 1.000000000000000000e+00 1.000000000000000000e+00 1.000000000000000000e+00 1.000000000000000000e+00 1.000000000000000000e+00 1.000000000000000000e+00 1.000000000000000000e+00 1.000000000000000000e+00 1.000000000000000000e+00 1.000000000000000000e+00 1.000000000000000000e+00 1.000000000000000000e+00 1.000000000000000000e+00 1.000000000000000000e+00 1.000000000000000000e+00 1.000000000000000000e+00 1.000000000000000000e+00 1.000000000000000000e+00 1.000000000000000000e+00 1.000000000000000000e+00 1.000000000000000000e+00 1.000000000000000000e+00 1.000000000000000000e+00 1.000000000000000000e+00 1.000000000000000000e+00 1.000000000000000000e+00 1.000000000000000000e+00 1.000000000000000000e+00 1.000000000000000000e+00 1.000000000000000000e+00 1.000000000000000000e+00 1.000000000000000000e+00 1.000000000000000000e+00 1.000000000000000000e+00 1.000000000000000000e+00 1.000000000000000000e+00 1.000000000000000000e+00 1.000000000000000000e+00 1.000000000000000000e+00 1.000000000000000000e+00 1.000000000000000000e+00 1.000000000000000000e+00 1.000000000000000000e+00 1.000000000000000000e+00 1.000000000000000000e+00 1.000000000000000000e+00 1.000000000000000000e+00 1.000000000000000000e+00 1.000000000000000000e+00 1.000000000000000000e+00 1.000000000000000000e+00 1.000000000000000000e+00 1.000000000000000000e+00 1.000000000000000000e+00 1.000000000000000000e+00 1.000000000000000000e+00 1.000000000000000000e+00 1.000000000000000000e+00 1.000000000000000000e+00 1.000000000000000000e+00 1.000000000000000000e+00 1.000000000000000000e+00 1.000000000000000000e+00 1.000000000000000000e+00 1.000000000000000000e+00 1.000000000000000000e+00 1.000000000000000000e+00 1.000000000000000000e+00 1.000000000000000000e+00 1.000000000000000000e+00 1.000000000000000000e+00 1.000000000000000000e+00 1.000000000000000000e+00 1.000000000000000000e+00 1.000000000000000000e+00 1.000000000000000000e+00 1.000000000000000000e+00 1.000000000000000000e+00 1.000000000000000000e+00 1.000000000000000000e+00 1.000000000000000000e+00 1.000000000000000000e+00 1.000000000000000000e+00 1.000000000000000000e+00 1.000000000000000000e+00 1.000000000000000000e+00 1.000000000000000000e+00 1.000000000000000000e+00 1.000000000000000000e+00 1.000000000000000000e+00 1.000000000000000000e+00 1.000000000000000000e+00 1.000000000000000000e+00 1.000000000000000000e+00 1.000000000000000000e+00 1.000000000000000000e+00 1.000000000000000000e+00 1.000000000000000000e+00 1.000000000000000000e+00 1.000000000000000000e+00 1.000000000000000000e+00 1.000000000000000000e+00 1.000000000000000000e+00 1.000000000000000000e+00 1.000000000000000000e+00 1.000000000000000000e+00 1.000000000000000000e+00 1.000000000000000000e+00 1.000000000000000000e+00 1.000000000000000000e+00 1.000000000000000000e+00 1.000000000000000000e+00 1.000000000000000000e+00 1.000000000000000000e+00 1.000000000000000000e+00 1.000000000000000000e+00 1.000000000000000000e+00 1.000000000000000000e+00 1.000000000000000000e+00 1.000000000000000000e+00 1.000000000000000000e+00 1.000000000000000000e+00 1.000000000000000000e+00 1.000000000000000000e+00 1.000000000000000000e+00 1.000000000000000000e+00 1.000000000000000000e+00 1.000000000000000000e+00 1.000000000000000000e+00 1.000000000000000000e+00 1.000000000000000000e+00 1.000000000000000000e+00 1.000000000000000000e+00 1.000000000000000000e+00 1.000000000000000000e+00 1.000000000000000000e+00 1.000000000000000000e+00 1.000000000000000000e+00 1.000000000000000000e+00 1.000000000000000000e+00 1.000000000000000000e+00 1.000000000000000000e+00 1.000000000000000000e+00 1.000000000000000000e+00 1.000000000000000000e+00 1.000000000000000000e+00 1.000000000000000000e+00 1.000000000000000000e+00 1.000000000000000000e+00 1.000000000000000000e+00 1.000000000000000000e+00 1.000000000000000000e+00 1.000000000000000000e+00 1.000000000000000000e+00 1.000000000000000000e+00 1.000000000000000000e+00 1.000000000000000000e+00 1.000000000000000000e+00 1.000000000000000000e+00 1.000000000000000000e+00 1.000000000000000000e+00 1.000000000000000000e+00 1.000000000000000000e+00 1.000000000000000000e+00 1.000000000000000000e+00 1.000000000000000000e+00 1.000000000000000000e+00 1.000000000000000000e+00 1.000000000000000000e+00 1.000000000000000000e+00 1.000000000000000000e+00 1.000000000000000000e+00 1.000000000000000000e+00 1.000000000000000000e+00 1.000000000000000000e+00 1.000000000000000000e+00 1.000000000000000000e+00 1.000000000000000000e+00 1.000000000000000000e+00 1.000000000000000000e+00 1.000000000000000000e+00 1.000000000000000000e+00 1.000000000000000000e+00 1.000000000000000000e+00 1.000000000000000000e+00 1.000000000000000000e+00 1.000000000000000000e+00 1.000000000000000000e+00 1.000000000000000000e+00 1.000000000000000000e+00 1.000000000000000000e+00 1.000000000000000000e+00 1.000000000000000000e+00 1.000000000000000000e+00 1.000000000000000000e+00 1.000000000000000000e+00 1.000000000000000000e+00 1.000000000000000000e+00 1.000000000000000000e+00 1.000000000000000000e+00 1.000000000000000000e+00 1.000000000000000000e+00 1.000000000000000000e+00 1.000000000000000000e+00 1.000000000000000000e+00 1.000000000000000000e+00 1.000000000000000000e+00 1.000000000000000000e+00 1.000000000000000000e+00 1.000000000000000000e+00 1.000000000000000000e+00 1.000000000000000000e+00 1.000000000000000000e+00 1.000000000000000000e+00 1.000000000000000000e+00 1.000000000000000000e+00 1.000000000000000000e+00 1.000000000000000000e+00 1.000000000000000000e+00 1.000000000000000000e+00 1.000000000000000000e+00 1.000000000000000000e+00 1.000000000000000000e+00 1.000000000000000000e+00 1.000000000000000000e+00 1.000000000000000000e+00 1.000000000000000000e+00 1.000000000000000000e+00 1.000000000000000000e+00 1.000000000000000000e+00 1.000000000000000000e+00 1.000000000000000000e+00 1.000000000000000000e+00 1.000000000000000000e+00 1.000000000000000000e+00 1.000000000000000000e+00 1.000000000000000000e+00 1.000000000000000000e+00 1.000000000000000000e+00 1.000000000000000000e+00 1.000000000000000000e+00 1.000000000000000000e+00 1.000000000000000000e+00 1.000000000000000000e+00 1.000000000000000000e+00 1.000000000000000000e+00 1.000000000000000000e+00 1.000000000000000000e+00 1.000000000000000000e+00 1.000000000000000000e+00 1.000000000000000000e+00 1.000000000000000000e+00 1.000000000000000000e+00 1.000000000000000000e+00 1.000000000000000000e+00 1.000000000000000000e+00 1.000000000000000000e+00 1.000000000000000000e+00 1.000000000000000000e+00 1.000000000000000000e+00 1.000000000000000000e+00 1.000000000000000000e+00 1.000000000000000000e+00 1.000000000000000000e+00 1.000000000000000000e+00 1.000000000000000000e+00 1.000000000000000000e+00 1.000000000000000000e+00 1.000000000000000000e+00 1.000000000000000000e+00 1.000000000000000000e+00 1.000000000000000000e+00 1.000000000000000000e+00 1.000000000000000000e+00 1.000000000000000000e+00 1.000000000000000000e+00 1.000000000000000000e+00 1.000000000000000000e+00 1.000000000000000000e+00 1.000000000000000000e+00 1.000000000000000000e+00 1.000000000000000000e+00 1.000000000000000000e+00 1.000000000000000000e+00 1.000000000000000000e+00 1.000000000000000000e+00 1.000000000000000000e+00 1.000000000000000000e+00 1.000000000000000000e+00 1.000000000000000000e+00 1.000000000000000000e+00 1.000000000000000000e+00 1.000000000000000000e+00 1.000000000000000000e+00 1.000000000000000000e+00 1.000000000000000000e+00 1.000000000000000000e+00 1.000000000000000000e+00 1.000000000000000000e+00 1.000000000000000000e+00 1.000000000000000000e+00 1.000000000000000000e+00 1.000000000000000000e+00 1.000000000000000000e+00 1.000000000000000000e+00 1.000000000000000000e+00 1.000000000000000000e+00 1.000000000000000000e+00 1.000000000000000000e+00 1.000000000000000000e+00 1.000000000000000000e+00 1.000000000000000000e+00 1.000000000000000000e+00 1.000000000000000000e+00 1.000000000000000000e+00 1.000000000000000000e+00 1.000000000000000000e+00 1.000000000000000000e+00 1.000000000000000000e+00 1.000000000000000000e+00 1.000000000000000000e+00 1.000000000000000000e+00 1.000000000000000000e+00 1.000000000000000000e+00 1.000000000000000000e+00 1.000000000000000000e+00 1.000000000000000000e+00 1.000000000000000000e+00 1.000000000000000000e+00 1.000000000000000000e+00 1.000000000000000000e+00 1.000000000000000000e+00 1.000000000000000000e+00 1.000000000000000000e+00 1.000000000000000000e+00 1.000000000000000000e+00 1.000000000000000000e+00 1.000000000000000000e+00 1.000000000000000000e+00 1.000000000000000000e+00 1.000000000000000000e+00 1.000000000000000000e+00 1.000000000000000000e+00 1.000000000000000000e+00 1.000000000000000000e+00 1.000000000000000000e+00 1.000000000000000000e+00 1.000000000000000000e+00 1.000000000000000000e+00 1.000000000000000000e+00 1.000000000000000000e+00 1.000000000000000000e+00 1.000000000000000000e+00 1.000000000000000000e+00 1.000000000000000000e+00 1.000000000000000000e+00 1.000000000000000000e+00 1.000000000000000000e+00 1.000000000000000000e+00 1.000000000000000000e+00 1.000000000000000000e+00 1.000000000000000000e+00 1.000000000000000000e+00 1.000000000000000000e+00 1.000000000000000000e+00 1.000000000000000000e+00 1.000000000000000000e+00 1.000000000000000000e+00 1.000000000000000000e+00 1.000000000000000000e+00 1.000000000000000000e+00 1.000000000000000000e+00 1.000000000000000000e+00 1.000000000000000000e+00 1.000000000000000000e+00 1.000000000000000000e+00 1.000000000000000000e+00 1.000000000000000000e+00 1.000000000000000000e+00 1.000000000000000000e+00 1.000000000000000000e+00 1.000000000000000000e+00 1.000000000000000000e+00 1.000000000000000000e+00 1.000000000000000000e+00 1.000000000000000000e+00 1.000000000000000000e+00 1.000000000000000000e+00 1.000000000000000000e+00 1.000000000000000000e+00 1.000000000000000000e+00 1.000000000000000000e+00 1.000000000000000000e+00 1.000000000000000000e+00 1.000000000000000000e+00 1.000000000000000000e+00 1.000000000000000000e+00 1.000000000000000000e+00 1.000000000000000000e+00 1.000000000000000000e+00 1.000000000000000000e+00 1.000000000000000000e+00 1.000000000000000000e+00 1.000000000000000000e+00 1.000000000000000000e+00 1.000000000000000000e+00 1.000000000000000000e+00 1.000000000000000000e+00 1.000000000000000000e+00 1.000000000000000000e+00 1.000000000000000000e+00 1.000000000000000000e+00 1.000000000000000000e+00 1.000000000000000000e+00 1.000000000000000000e+00 1.000000000000000000e+00 1.000000000000000000e+00 1.000000000000000000e+00 1.000000000000000000e+00 1.000000000000000000e+00 1.000000000000000000e+00 1.000000000000000000e+00 1.000000000000000000e+00 1.000000000000000000e+00 1.000000000000000000e+00 1.000000000000000000e+00 1.000000000000000000e+00 1.000000000000000000e+00 1.000000000000000000e+00 1.000000000000000000e+00 1.000000000000000000e+00 1.000000000000000000e+00 1.000000000000000000e+00 1.000000000000000000e+00 1.000000000000000000e+00 1.000000000000000000e+00 1.000000000000000000e+00 1.000000000000000000e+00 1.000000000000000000e+00 1.000000000000000000e+00 1.000000000000000000e+00 1.000000000000000000e+00 1.000000000000000000e+00 1.000000000000000000e+00 1.000000000000000000e+00 1.000000000000000000e+00 1.000000000000000000e+00 1.000000000000000000e+00 1.000000000000000000e+00 1.000000000000000000e+00 1.000000000000000000e+00 1.000000000000000000e+00 1.000000000000000000e+00 1.000000000000000000e+00 1.000000000000000000e+00 1.000000000000000000e+00 1.000000000000000000e+00 1.000000000000000000e+00 1.000000000000000000e+00 1.000000000000000000e+00 1.000000000000000000e+00 1.000000000000000000e+00 1.000000000000000000e+00 1.000000000000000000e+00 1.000000000000000000e+00 1.000000000000000000e+00 1.000000000000000000e+00 1.000000000000000000e+00 1.000000000000000000e+00 1.000000000000000000e+00 1.000000000000000000e+00 1.000000000000000000e+00 1.000000000000000000e+00 1.000000000000000000e+00 1.000000000000000000e+00 1.000000000000000000e+00 1.000000000000000000e+00 1.000000000000000000e+00 1.000000000000000000e+00 1.000000000000000000e+00 1.000000000000000000e+00 1.000000000000000000e+00 1.000000000000000000e+00 1.000000000000000000e+00 1.000000000000000000e+00 1.000000000000000000e+00 1.000000000000000000e+00 1.000000000000000000e+00 1.000000000000000000e+00 1.000000000000000000e+00 1.000000000000000000e+00 1.000000000000000000e+00 1.000000000000000000e+00 1.000000000000000000e+00 1.000000000000000000e+00 1.000000000000000000e+00 1.000000000000000000e+00 1.000000000000000000e+00 1.000000000000000000e+00 1.000000000000000000e+00 1.000000000000000000e+00 1.000000000000000000e+00 1.000000000000000000e+00 1.000000000000000000e+00 1.000000000000000000e+00 1.000000000000000000e+00 1.000000000000000000e+00 1.000000000000000000e+00 1.000000000000000000e+00 1.000000000000000000e+00 1.000000000000000000e+00 1.000000000000000000e+00 1.000000000000000000e+00 1.000000000000000000e+00 1.000000000000000000e+00 1.000000000000000000e+00 1.000000000000000000e+00 1.000000000000000000e+00 1.000000000000000000e+00 1.000000000000000000e+00 1.000000000000000000e+00 1.000000000000000000e+00 1.000000000000000000e+00 1.000000000000000000e+00 1.000000000000000000e+00 1.000000000000000000e+00 1.000000000000000000e+00 1.000000000000000000e+00 1.000000000000000000e+00 1.000000000000000000e+00 1.000000000000000000e+00 1.000000000000000000e+00 1.000000000000000000e+00 1.000000000000000000e+00 1.000000000000000000e+00 1.000000000000000000e+00 1.000000000000000000e+00 1.000000000000000000e+00 1.000000000000000000e+00 1.000000000000000000e+00 1.000000000000000000e+00 1.000000000000000000e+00 1.000000000000000000e+00 1.000000000000000000e+00 1.000000000000000000e+00 1.000000000000000000e+00 1.000000000000000000e+00 1.000000000000000000e+00 1.000000000000000000e+00 1.000000000000000000e+00 1.000000000000000000e+00 1.000000000000000000e+00 1.000000000000000000e+00 1.000000000000000000e+00 1.000000000000000000e+00 1.000000000000000000e+00 1.000000000000000000e+00 1.000000000000000000e+00 1.000000000000000000e+00 1.000000000000000000e+00 1.000000000000000000e+00 1.000000000000000000e+00 1.000000000000000000e+00 1.000000000000000000e+00 1.000000000000000000e+00 1.000000000000000000e+00 1.000000000000000000e+00 1.000000000000000000e+00 1.000000000000000000e+00 1.000000000000000000e+00 1.000000000000000000e+00 1.000000000000000000e+00 1.000000000000000000e+00 1.000000000000000000e+00 1.000000000000000000e+00 1.000000000000000000e+00 1.000000000000000000e+00 1.000000000000000000e+00 1.000000000000000000e+00 1.000000000000000000e+00 1.000000000000000000e+00 1.000000000000000000e+00 1.000000000000000000e+00 1.000000000000000000e+00 1.000000000000000000e+00 1.000000000000000000e+00 1.000000000000000000e+00 1.000000000000000000e+00 1.000000000000000000e+00 1.000000000000000000e+00 1.000000000000000000e+00 1.000000000000000000e+00 1.000000000000000000e+00 1.000000000000000000e+00 1.000000000000000000e+00 1.000000000000000000e+00 1.000000000000000000e+00 1.000000000000000000e+00 1.000000000000000000e+00 1.000000000000000000e+00 1.000000000000000000e+00 1.000000000000000000e+00 1.000000000000000000e+00 1.000000000000000000e+00 1.000000000000000000e+00 1.000000000000000000e+00 1.000000000000000000e+00 1.000000000000000000e+00 1.000000000000000000e+00 1.000000000000000000e+00 1.000000000000000000e+00 1.000000000000000000e+00 1.000000000000000000e+00 1.000000000000000000e+00 1.000000000000000000e+00 1.000000000000000000e+00 1.000000000000000000e+00 1.000000000000000000e+00 1.000000000000000000e+00 1.000000000000000000e+00 1.000000000000000000e+00 1.000000000000000000e+00 1.000000000000000000e+00 1.000000000000000000e+00 1.000000000000000000e+00 1.000000000000000000e+00 1.000000000000000000e+00 1.000000000000000000e+00 1.000000000000000000e+00 1.000000000000000000e+00 1.000000000000000000e+00 1.000000000000000000e+00 1.000000000000000000e+00 1.000000000000000000e+00 1.000000000000000000e+00 1.000000000000000000e+00 1.000000000000000000e+00 1.000000000000000000e+00 1.000000000000000000e+00 1.000000000000000000e+00 1.000000000000000000e+00 1.000000000000000000e+00 1.000000000000000000e+00 1.000000000000000000e+00 1.000000000000000000e+00 1.000000000000000000e+00 1.000000000000000000e+00 1.000000000000000000e+00 1.000000000000000000e+00 1.000000000000000000e+00 1.000000000000000000e+00 1.000000000000000000e+00 1.000000000000000000e+00 1.000000000000000000e+00 1.000000000000000000e+00 1.000000000000000000e+00 1.000000000000000000e+00 1.000000000000000000e+00 1.000000000000000000e+00 1.000000000000000000e+00 1.000000000000000000e+00 1.000000000000000000e+00 1.000000000000000000e+00 1.000000000000000000e+00 1.000000000000000000e+00 1.000000000000000000e+00 1.000000000000000000e+00 1.000000000000000000e+00 1.000000000000000000e+00 1.000000000000000000e+00 1.000000000000000000e+00 1.000000000000000000e+00 1.000000000000000000e+00 1.000000000000000000e+00 1.000000000000000000e+00 1.000000000000000000e+00 1.000000000000000000e+00 1.000000000000000000e+00 1.000000000000000000e+00 1.000000000000000000e+00 1.000000000000000000e+00 1.000000000000000000e+00 1.000000000000000000e+00 1.000000000000000000e+00 1.000000000000000000e+00 1.000000000000000000e+00 1.000000000000000000e+00 1.000000000000000000e+00 1.000000000000000000e+00 1.000000000000000000e+00 1.000000000000000000e+00 1.000000000000000000e+00 1.000000000000000000e+00 1.000000000000000000e+00 1.000000000000000000e+00 1.000000000000000000e+00 1.000000000000000000e+00 1.000000000000000000e+00 1.000000000000000000e+00 1.000000000000000000e+00 1.000000000000000000e+00 1.000000000000000000e+00 1.000000000000000000e+00 1.000000000000000000e+00 1.000000000000000000e+00 1.000000000000000000e+00 1.000000000000000000e+00 1.000000000000000000e+00 1.000000000000000000e+00 1.000000000000000000e+00 1.000000000000000000e+00 1.000000000000000000e+00 1.000000000000000000e+00 1.000000000000000000e+00 1.000000000000000000e+00 1.000000000000000000e+00 1.000000000000000000e+00 1.000000000000000000e+00 1.000000000000000000e+00 1.000000000000000000e+00 1.000000000000000000e+00 1.000000000000000000e+00 1.000000000000000000e+00 1.000000000000000000e+00 1.000000000000000000e+00 1.000000000000000000e+00 1.000000000000000000e+00 1.000000000000000000e+00 1.000000000000000000e+00 1.000000000000000000e+00 1.000000000000000000e+00 1.000000000000000000e+00 1.000000000000000000e+00 1.000000000000000000e+00 1.000000000000000000e+00 1.000000000000000000e+00 1.000000000000000000e+00 1.000000000000000000e+00 1.000000000000000000e+00 1.000000000000000000e+00 1.000000000000000000e+00 1.000000000000000000e+00 1.000000000000000000e+00 1.000000000000000000e+00 1.000000000000000000e+00 1.000000000000000000e+00 1.000000000000000000e+00 1.000000000000000000e+00 1.000000000000000000e+00 1.000000000000000000e+00 1.000000000000000000e+00 1.000000000000000000e+00 1.000000000000000000e+00 1.000000000000000000e+00 1.000000000000000000e+00 1.000000000000000000e+00 1.000000000000000000e+00 1.000000000000000000e+00 1.000000000000000000e+00 1.000000000000000000e+00 1.000000000000000000e+00 1.000000000000000000e+00 1.000000000000000000e+00 1.000000000000000000e+00 1.000000000000000000e+00 1.000000000000000000e+00 1.000000000000000000e+00 1.000000000000000000e+00 1.000000000000000000e+00 1.000000000000000000e+00 1.000000000000000000e+00 1.000000000000000000e+00 1.000000000000000000e+00 1.000000000000000000e+00 1.000000000000000000e+00 1.000000000000000000e+00 1.000000000000000000e+00 1.000000000000000000e+00 1.000000000000000000e+00 1.000000000000000000e+00 1.000000000000000000e+00 1.000000000000000000e+00 1.000000000000000000e+00 1.000000000000000000e+00 1.000000000000000000e+00 1.000000000000000000e+00 1.000000000000000000e+00 1.000000000000000000e+00 1.000000000000000000e+00 1.000000000000000000e+00 1.000000000000000000e+00 1.000000000000000000e+00 1.000000000000000000e+00 1.000000000000000000e+00 1.000000000000000000e+00 1.000000000000000000e+00 1.000000000000000000e+00 1.000000000000000000e+00 1.000000000000000000e+00 1.000000000000000000e+00 1.000000000000000000e+00 1.000000000000000000e+00 1.000000000000000000e+00 1.000000000000000000e+00 1.000000000000000000e+00 1.000000000000000000e+00 1.000000000000000000e+00 1.000000000000000000e+00 1.000000000000000000e+00 1.000000000000000000e+00 1.000000000000000000e+00 1.000000000000000000e+00 1.000000000000000000e+00 1.000000000000000000e+00 1.000000000000000000e+00 1.000000000000000000e+00 1.000000000000000000e+00 1.000000000000000000e+00 1.000000000000000000e+00 1.000000000000000000e+00 1.000000000000000000e+00 1.000000000000000000e+00 1.000000000000000000e+00 1.000000000000000000e+00 1.000000000000000000e+00 1.000000000000000000e+00 1.000000000000000000e+00 1.000000000000000000e+00 1.000000000000000000e+00 1.000000000000000000e+00 1.000000000000000000e+00 1.000000000000000000e+00 1.000000000000000000e+00 1.000000000000000000e+00 1.000000000000000000e+00 1.000000000000000000e+00 1.000000000000000000e+00 1.000000000000000000e+00 1.000000000000000000e+00 1.000000000000000000e+00 1.000000000000000000e+00 1.000000000000000000e+00 1.000000000000000000e+00 1.000000000000000000e+00 1.000000000000000000e+00 1.000000000000000000e+00 1.000000000000000000e+00 1.000000000000000000e+00 1.000000000000000000e+00 1.000000000000000000e+00 1.000000000000000000e+00 1.000000000000000000e+00 1.000000000000000000e+00 1.000000000000000000e+00 1.000000000000000000e+00 1.000000000000000000e+00 1.000000000000000000e+00 1.000000000000000000e+00 1.000000000000000000e+00 1.000000000000000000e+00 1.000000000000000000e+00 1.000000000000000000e+00 1.000000000000000000e+00 1.000000000000000000e+00 1.000000000000000000e+00 1.000000000000000000e+00 1.000000000000000000e+00 1.000000000000000000e+00 1.000000000000000000e+00 1.000000000000000000e+00 1.000000000000000000e+00 1.000000000000000000e+00 1.000000000000000000e+00 1.000000000000000000e+00 1.000000000000000000e+00 1.000000000000000000e+00 1.000000000000000000e+00 1.000000000000000000e+00 1.000000000000000000e+00 1.000000000000000000e+00 1.000000000000000000e+00 1.000000000000000000e+00 1.000000000000000000e+00 1.000000000000000000e+00 1.000000000000000000e+00 1.000000000000000000e+00 1.000000000000000000e+00 1.000000000000000000e+00 1.000000000000000000e+00 1.000000000000000000e+00 1.000000000000000000e+00 1.000000000000000000e+00 1.000000000000000000e+00 1.000000000000000000e+00 1.000000000000000000e+00 1.000000000000000000e+00 1.000000000000000000e+00 1.000000000000000000e+00 1.000000000000000000e+00 1.000000000000000000e+00 1.000000000000000000e+00 1.000000000000000000e+00 1.000000000000000000e+00 1.000000000000000000e+00 1.000000000000000000e+00 1.000000000000000000e+00 1.000000000000000000e+00 1.000000000000000000e+00 1.000000000000000000e+00 1.000000000000000000e+00 1.000000000000000000e+00 1.000000000000000000e+00 1.000000000000000000e+00 1.000000000000000000e+00 1.000000000000000000e+00 1.000000000000000000e+00 1.000000000000000000e+00 1.000000000000000000e+00 1.000000000000000000e+00 1.000000000000000000e+00 1.000000000000000000e+00 1.000000000000000000e+00 1.000000000000000000e+00 1.000000000000000000e+00 1.000000000000000000e+00 1.000000000000000000e+00 1.000000000000000000e+00 1.000000000000000000e+00 1.000000000000000000e+00 1.000000000000000000e+00 1.000000000000000000e+00 1.000000000000000000e+00 1.000000000000000000e+00 1.000000000000000000e+00 1.000000000000000000e+00 1.000000000000000000e+00 1.000000000000000000e+00 1.000000000000000000e+00 1.000000000000000000e+00 1.000000000000000000e+00 1.000000000000000000e+00 1.000000000000000000e+00 1.000000000000000000e+00 1.000000000000000000e+00 1.000000000000000000e+00 1.000000000000000000e+00 1.000000000000000000e+00 1.000000000000000000e+00 1.000000000000000000e+00 1.000000000000000000e+00 1.000000000000000000e+00 1.000000000000000000e+00 1.000000000000000000e+00 1.000000000000000000e+00 1.000000000000000000e+00 1.000000000000000000e+00 1.000000000000000000e+00 1.000000000000000000e+00 1.000000000000000000e+00 1.000000000000000000e+00 1.000000000000000000e+00
4.515991947595036915e-02 4.728740254821241495e-01 1.979674684165686760e-01 4.655135824585329707e-01 5.156343295307244112e-01 5.890998062215833109e-01 7.712434023415029039e-01 1.784723637601253465e-01 4.244234743914701569e-01 5.273086296808877638e-01 1.047597377964878840e+00 -4.982461196874077292e-01 1.290978600506723639e+00 5.387289596946045478e-01 5.397056380447337043e-01 8.135889467900589977e-01 1.005651502894815641e+00 8.027147615426882821e-01 2.325644588062952267e-01 5.286214076296241737e-01 5.407082490842203271e-01 9.250990662762897943e-01 7.176359291905161086e-01 5.063406558236860366e-01 3.746629302379379522e-01 7.571425609768277498e-01 3.620105403682291612e-01 6.012823657535509847e-01 5.368013934375160945e-01 1.268927314862095423e+00 5.447028370509854334e-01 4.056110294572226049e-01 7.549943516542121369e-01 5.334201564767057091e-01 7.527082718065841727e-01 5.851166923172759216e-01 5.902010577774419176e-01 1.390308717410047468e+00 2.259403841597936238e-02 5.184983150604454138e-01 1.188763772302249971e-01 -5.116824049609182135e-01 7.571864541943928995e-01 1.982457938613235160e-01 2.458909333210327619e-01 6.128215046262998067e-01 4.654685273272164969e-01 5.107310931215829353e-01 5.008988015960471607e-01 8.928949841913776803e-03 1.685634742514145745e-02 7.322119774024551386e-01 6.044298330583345313e-01 3.778378925340377670e-01 5.404077363389411248e-01 -2.187037280133214551e-03 4.507756855614065694e-01 5.334075112798418727e-01 1.588423716092418891e-01 5.176140930471557766e-01 8.506923418723482122e-01 5.120459371309801222e-01 5.416830405449030161e-01 7.176361068699255163e-01 6.731887199241597397e-01 4.534811160726947010e-01 5.182113893774501490e-01 4.903096419311083198e-01 5.537319862921813440e-01 3.669228247145209926e-02 5.910675379987354594e-01 4.816042714595035745e-01 5.007754109807294185e-01 6.923445608246779626e-03 1.393545300159466427e+00 4.852724668748364389e-01 6.138094237468989522e-01 7.848591465671279632e-01 5.241900887341019999e-01 1.340752211140134875e+00 4.943306486303108982e-01 1.657396068353411966e-01 1.143179118760075053e+00 4.354723430811609508e-01 6.054918781470928213e-01 7.552995934070050321e-01 8.388729053669630176e-01 5.045042600251161691e-01 3.505264134179499891e-01 5.712284926998913992e-01 2.364514846985162067e-01 1.850025646319477524e+00 5.324274535331136038e-01 -8.912961799620838788e-02 5.883451445567140503e-01 5.127488483531528196e-01 4.944686470491856389e-01 4.467708351489434460e-01 2.040114555272382613e-01 7.606336800479757132e-01 1.337394453149969076e+00 6.269026742900143390e-01 5.330663077838753150e-01 1.027697512226550147e+00 6.009914172623774808e-01 -1.622242404234375268e+00 -1.027190857909864752e+00 5.666224172861982211e-01 4.953073262019196399e-01 9.656155833438714309e-01 5.176521889941310128e-01 4.995147244682121013e-01 4.326856540141649776e-01 4.869372079070427572e-01 4.868830003242417548e-01 6.475648377607399198e-01 4.032729813547342723e-01 6.562826816928475360e-01 4.807216654302356451e-01 5.615604944982000024e-01 1.211973297137510341e+00 4.499191266008597534e-01 4.568091776343562449e-01 1.993779167980050948e-01 5.585200036424305958e-01 1.764911554019524376e+00 5.284497466036379709e-01 4.374572234151998806e-01 4.147643074617948233e-01 5.188580774379336624e-01 4.882722194747691757e-01 5.054776332350978674e-01 3.913416728812017520e-01 7.993842094684767974e-02 3.882683531408832600e-01 -9.914555328718627214e-02 4.356453281529770183e-01 8.125783758794909856e-03 9.372062601660957615e-01 4.928669278699283063e-01 5.336218971193921190e-01 7.937087475137545312e-01 4.835344281573345504e-01 4.637968681856451947e-01 5.170924906561561452e-01 -3.803138353186043957e-03 4.580582201766055239e-01 4.921960639210650190e-01 4.992910863065335714e-01 -6.764920567603210921e-01 7.540858152536897840e-01 -2.671553832283365404e-01 6.127903308635913593e-01 4.941913390531483818e-01 7.528963873475776891e-01 5.175728358379677596e-01 1.406889310774182444e+00 2.536772322425662751e-01 8.016007392802787512e-01 7.460469369900613046e-01 4.982581146261451099e-01 6.527726854402939871e-01 5.010453146751082665e-01 5.175879458308746406e-01 1.134276026649167823e+00 -4.041580922704268025e-02 7.779365868723583377e-01 4.747933718970699934e-01 5.575555212653747761e-01 5.836928821066408313e-01 3.849914686097020144e-01 4.646957557127935901e-01 6.127796746998848132e-01 5.265768757141785494e-01 4.167765855257973828e-01 2.999881063926133559e-02 1.320199376251194878e-01 3.349540720122627657e-02 6.801392252193406707e-01 1.111655514700291114e+00 7.003626821523279977e-01 4.938879064006054809e-01 -2.264754795404686216e-01 3.585288361822454029e-01 4.819929458530617938e-01 5.151572529456879268e-01 5.257071387619288716e-01 5.203844546639145863e-01 2.323806447301346445e+00 7.225234897465820927e-01 4.996261264605402208e-01 -6.528045903813131101e-01 5.238970476562043732e-01 5.368374558836922494e-01 1.307132311953333459e-01 5.167981342627496755e-01 8.652745327848777590e-01 5.140765371033522158e-01 7.266021435821409247e-01 4.977138627664022819e-01 3.172205412073123565e-01 4.287701249922347135e-01 1.084281714810283015e+00 5.868156017795517210e-01 5.431345318462357241e-01 7.266021754689845347e-01 5.444244467002464782e-01 1.205737821056892534e+00 5.214311627189448517e-01 4.703357042936778809e-01 4.697591733867390595e-01 1.851883317034336285e-02 5.001513191397275460e-01 2.279387808242155089e-01 5.224132266380894229e-01 5.108464227974233163e-01 5.259102221460596471e-01 4.953191276844627899e-01 4.818288427675001540e-01 5.209786811792666006e-01 4.638301167453870999e-01 2.695544446841339759e-01 -5.844249355553562397e-01 4.001837327423484747e-01 2.004646972925938631e-01 5.781174579510762745e-01 5.768817278216568090e-01 1.057883738234837612e+00 8.792146252504441373e-01 6.770568736200544002e-01 -1.101464187696021280e-01 9.811893303995650184e-01 5.205708890844751302e-01 5.494435005724432886e-01 5.576087106119269332e-02 4.531549626885278959e-01 5.205885768687990023e-01 3.017348895570216016e-01 -8.518196046193979298e-02 -1.975991512094384950e-01 2.529533982700608585e-01 5.086077970396887249e-01 -3.552703800871763462e-02 4.500176055114300522e-01 5.069825263204338350e-01 8.678597671786584256e-01 -1.207814987482185298e-01 6.276265108027490047e-01 -1.702494962558871672e+00 5.635328457407136060e-01 -1.666722159357537092e-01 5.722339031416218136e-01 5.439992346863005146e-01 7.176365364991571516e-01 5.383868246009928527e-01 4.925945228111414664e-01 4.412833194486364685e-01 4.690712560454972646e-01 5.920302591273843840e-01 1.599003002739102897e+00 5.795404379572780540e-01 6.348647230204381708e-01 5.134333306726743817e-01 7.671009915785775846e-01 8.507069632670274384e-01 3.488407873256726410e-01 2.276123274356577131e+00 5.389698726406781937e-01 3.074043055331026064e-01 5.006380413179081224e-01 5.339438274649659366e-01 8.572113795121155677e-01 5.364784275053977591e-01 4.993336965309176367e-01 5.203383101326758409e-01 7.687441180859926337e-01 4.473258841442539491e-01 8.855890813483323631e-01 8.448023412613202554e-01 9.225770015976358582e-03 6.426705056090118440e-01 4.589006023735564543e-01 4.796231675176646503e-01 -5.497184144601138245e-01 3.601654163655242935e-01 8.727876371879921269e-01 6.138205974421376832e-01 5.083579226884481495e-01 6.475648147360949514e-01 6.186182003212641334e-01 5.082397302613799184e-01 -2.934190439337481249e-01 4.242834809903923143e-01 5.123722708998686981e-01 -2.938763058471643985e-02 5.160826033904968302e-01 1.762139186958988857e+00 6.043549247873146735e-01 5.172025822590780031e-01 4.992480613997328232e-01 -2.840552917439246094e+00 4.963844376198019992e-01 1.993693852383065401e+00 4.657710216702459771e-01 5.303003740469124372e-01 -5.906619200258321767e-01 5.201652915363215168e-01 5.089228850533970006e-01 7.907164445682270948e-01 4.689618688635712740e-01 5.595144505997926565e-01 5.928989064424294853e-01 3.205995194567918261e-01 4.826513856353356058e-01 5.100571990112783283e-01 5.391685358967218678e-01 5.154206921649427953e-01 4.650163664789313533e-01 5.207422250835628263e-01 1.109189153543463258e+00 6.497988596835070629e-03 2.072425056314920244e+00 2.337072481461132334e+00 3.079039558632592488e-01 -7.548851512635845751e-02 4.919004058325511797e-01 4.772410082794945052e-01 6.433815379281819791e-01 1.246684375213424012e+00 5.572319966628755950e-01 1.057520437271092018e+00 5.117406860686614101e-01 1.987310293629635238e-01 1.202909317781004184e+00 6.782583641884705195e-01 5.144591470618297135e-01 5.596928784123397227e-01 4.001095924115650182e-01 -2.912633917267952288e+00 1.462193062594655535e+00 4.830388081664311883e-01 6.517626822384127161e-01 5.364368203264993085e-01 1.390308770391626592e+00 3.605229904488578829e-01 4.348151688552985283e-01 2.746402834849953067e-01 6.329143732987441151e-01 1.395449168191280842e+00 7.405906935030436289e-01 7.266021292761616346e-01 4.500204636553614690e-01 5.868156037370572120e-01 6.700171378060207905e-01 5.022921663207864373e-01 8.034375975042512552e-01 5.270683046195669963e-01 5.902968781117261532e-01 6.597853901250102515e-01 4.901544235752410272e-01 5.219102594021792774e-01 4.870400290330740845e-01 4.348155795174786786e-01 4.046375707305731040e-01 5.198801759357818408e-01 6.177607803299866029e-01 1.092923238338802117e+00 9.931003921429972792e-01 5.069380408500374635e-01 4.703120255850588016e-01 8.513390036980849063e-01 -1.119064049218382872e-01 9.099318474179362015e-01 5.866484436435953631e-01 8.451749789760737430e-03 5.639527372307088227e-01 1.141538850904419755e+00 4.664729086865355145e-01 6.220365868330516301e-01 2.242851066547258965e-01 -2.865035578853506459e-01 -2.072184371893434740e+00 4.787319569681230402e-01 5.868155972742628013e-01 5.868156046116704827e-01 5.064244059212148485e-01 6.860185138374866876e-01 -9.973135750713067738e-02 5.274846257953003104e-01 5.230874220813767073e-01 2.231344930514138625e-01 5.265060378676936770e-01 1.136499969925665932e+00 7.266021778347938609e-01 5.080630728214535763e-01 5.023563780668711676e-01 4.532566920948493117e-01 5.726146931222330094e-01 5.239952023324316865e-01 5.548198196022671169e-01 4.027889426744670209e-01 2.559247517591585752e-01 -1.352244372512854086e-02 5.868156046119638036e-01 6.325398901977435928e-01 5.236498606247448340e-01 7.979047481043394230e-01 8.370246407716874781e-01 5.714591220801418237e-01 5.575492828416067637e-01 1.460810543471158240e+00 4.971941827833814553e-01 -2.278172956667420479e+00 4.647202369302060321e-01 1.365545572796736717e+00 4.650882102869446921e-01 -7.919111601722530480e-01 4.794617133419110111e-01 5.380975967146554018e-01 4.232491494020241274e-01 5.289969860420616898e-01 2.977001174376545101e-01 4.843506205467443815e-01 1.018933120292955907e+00 5.853599343513923303e-01 -3.595723827308659748e-02 4.999173651385157569e-01 4.856093569001840304e-01 7.195568117216782911e-01 4.978151898986359347e-01 7.280882635486723986e-01 -3.173601172864103925e-01 4.630864750754851711e-01 5.267060506356610050e-01 4.991529742439572148e-01 4.963030919997377111e-01 7.438870973873636938e-01 5.301767274278634812e-01 4.000505591644645254e-01 9.577468276192149244e-01 4.768435802947215696e-01 5.547640559517421632e-01 1.266707364816891668e-01 1.512086544552989631e-01 8.911299307815186976e-01 5.075155714642898275e-01 2.815949470312602010e+00 6.255538173941284086e-01 3.462881641780775621e-01 5.926710654094783370e-01 7.659920777288868887e-01 -8.274510264253496367e-03 5.236664222584822559e-01 4.353774294927340582e-01 4.496820267311669728e-01 1.151430974461264301e+00 7.435244591364519318e-01 5.301264599501908092e-01 4.835085454689072582e-01 1.058617458054408100e+00 5.350203943097951997e-01 4.921534290743908580e-01 5.108505274294343756e-01 4.733956222992817819e-01 5.159195010134369763e-01 8.206943101649968320e-01 4.780481969501725326e-01 5.163771939247238096e-01 3.564208242638668839e-03 5.331933205782287688e-01 1.484642274545710378e-02 5.445872924032426621e-01 4.997342961236496128e-01 5.348349219466642657e-01 7.401902020173338759e-01 5.196210060291198696e-01 5.659849772860525707e-01 -1.693347822070769698e-02 5.049070866872200636e-01 5.294684987899305195e-01 4.049027332756789388e-01 1.540866938189549076e-02 5.197813345859135792e-01 4.934242493995024126e-01 5.255417980773460229e-01 6.326146245616020014e-01 1.118831186765435248e+00 6.793075056062827244e-01 5.005432740007069725e-01 5.328990553373715855e-01 3.579457716570130232e-01 4.400250321585864599e-01 9.300245732772899343e-01 3.405074890796362941e-01 4.516597495289788600e-01 6.207558000009009147e-01 1.761681190271826347e+00 6.429699563322908151e-01 5.250657273023766614e-01 5.001145183367060598e-01 4.247666951220447351e-01 5.121900941381625216e-01 6.574360711330541340e-01 -4.794803322482478203e-01 4.745815264372406639e-01 5.379863110913833957e-01 5.980940950676535417e-01 6.507705443405691348e-01 -4.358601888504463062e-01 4.072597945381023488e-01 5.225485375387498577e-01 6.154049373937771072e-01 6.340992940550004286e-01 9.211484800424896147e-01 5.095796193754504877e-01 5.584517883987619724e-01 -4.813144568984045746e-01 4.816189874456335285e-01 1.042729387858912116e+00 5.254857082976764904e-01 1.506092496656975255e-01 4.854752196198960368e-01 -6.825679464061520374e-01 4.865206427923009502e-01 5.876568397796239074e-01 1.029848966208595895e+00 8.200302881225690621e-01 5.387514948876078735e-01 4.463818199952358512e-01 2.445277701371157131e-01 4.648953031179037243e-01 6.004531377996863428e-01 6.149198861402130900e-01 -6.734380025705883482e-03 4.927819964913205952e-01 3.127490150396796120e-01 7.023201377518849542e-01 6.450093080790535449e-01 5.716424924477363501e-01 8.647084735377914555e-01 -1.375909233501832474e-01 -1.627121739924749233e-01 5.518584158401313999e-01 4.392996741772892122e-01 4.376843203585639719e-01 5.015888916306450174e-01 -6.483840711483773722e-01 2.761593307013165521e+00 2.855152440571843697e-01 4.315674153121558110e-01 8.251876078259590130e-01 5.206672994407699484e-01 5.337512480095012446e-01 5.025356027343834686e-01 4.961865635912264816e-01 4.701881749138989708e-01 5.228090614131680747e-01 4.578184688010272785e-01 5.561362188097768167e-01 5.309998545771694722e-01 5.709329482366305442e-01 4.103117516280531119e-01 4.827818864781824870e-01 5.029077412175552153e-01 5.142963917163280163e-01 9.021033161846386816e-01 2.094316720042292967e+00 5.196977234381744415e-01 4.807964939353294720e-01 5.755790099481873368e-01 5.102433212289511077e-01 6.006060550445079249e-01 5.272406817817090197e-01 5.357528048033040058e-01 2.590577341426867353e-01 4.765288261895024857e-01 4.888534875434165095e-01 4.650430021601269504e-01 5.513451614985684923e-01 6.622359285453158773e-01 8.496024646264289659e-01 8.124161030416280349e-01 1.918955655002577421e-01 8.507009574137407437e-01 4.872905577259416532e-01 4.350860169458236060e-01 1.851138607113187451e+00 2.379753551998818883e-01 4.798936948833073535e-01 5.454024601469702471e-01 4.505835810346651288e-02 5.135726683598261788e-01 1.371481909972423141e+00 5.296520488225762158e-01 9.360367284284459855e-01 5.193882384331166557e-01 5.070737025439447931e-01 4.481413917327070062e-01 5.836948831513866232e-01 5.402251618825103519e-01 5.160544049297245417e-01 3.822620313723447683e-01 3.435882800089096190e-01 -6.201607832195252801e-01 4.693523210656871947e-01 5.032397891217494923e-01 4.669604229888453806e-01 4.992487232766327776e-01 8.507010755312710559e-01 4.193387427368033271e-01 3.468043557124453891e-01 1.098010006871339428e+00 -3.705115938527430153e-01 5.179894535447450155e-01 9.613824952916533162e-01 1.185271185608677058e+00 5.438351300972255054e-01 5.207562091009643179e-01 2.364200563219810355e-02 -1.368266978138025891e+00 3.328143090084067501e-01 4.984379563672368119e-01 4.964900131550126772e-01 5.194681914128983502e-01 5.027954597356134592e-01 5.136333652749529577e-01 -2.630427608581570875e-01 7.677016800965444920e-01 6.475647966154213231e-01 6.406343817239439353e-01 5.031365798270548417e-01 -9.754183496833243594e-02 -1.909282131659060244e-01 1.481544459664882130e+00 4.398036640968705502e-01 5.534102016924707934e-01 5.159493255967014802e-01 3.711364989172423745e-01 3.765567212254206653e-01 4.217450238775196647e-01 1.103293616739550176e-01 5.280695091195862778e-01 6.029680763790651321e-01 5.494897375341210033e-01 5.245207130325126865e-01 4.758136485749753231e-01 4.924521425442428546e-01 5.549249581968193068e-01 4.637299954672379765e-01 9.601450314410530096e-01 6.077880764562891835e-01 4.833095328767368359e-01 6.010171096048827488e-01 4.337755205907896650e-01 5.271208770867752413e-01 4.988849027868673576e-03 4.348157498065733928e-01 7.737308928250942186e-01 4.871325082448015875e-01 4.029330438523501257e-01 1.175363288170859111e+00 6.574522707531094134e-01 -2.121228460320601084e-01 4.826536213397756847e-01 5.117981433829527083e-01 5.102620994385833608e-01 4.421718793146376947e-01 7.104863853833432996e-01 4.938787436254280516e-01 5.279802340501109637e-01 2.736767880917052032e-01 -6.366636005872152726e-01 1.924729227682516974e+00 5.023686693844580109e-01 8.289617131083915069e-01 7.516365854723817685e-01 5.188434563644154229e-01 2.821865924539830317e-01 1.474227352628879884e-01 5.412708160476741304e-01 5.053368946979782672e-01 -1.534529734351338173e-04 5.199803661641693164e-01 5.611955969787530973e-01 5.331092271414314965e-01 1.029156365808142182e+00 5.279376676606937213e-01 4.415990405744726344e-01 2.792835525050075818e-01 5.165948120636422169e-01 1.449861733517940898e-01 5.172993813129914686e-01 6.567271793143897307e-01 5.030433853000030320e-01 -4.010567991701319279e-01 4.733781153991841184e-01 6.235001599339824452e-01 4.810878670383929023e-01 4.639173566309442998e-01 8.505344541144924664e-01 7.540297078386432039e-01 -4.588725891627415954e-01 1.020437758378327953e+00 1.390308717460718047e+00 4.869145933398373316e-01 4.643117398988766964e-01 1.001230230817429234e+00 4.951006170936842476e-01 4.645098011503605573e-01 5.219379597109905511e-01 1.443292782452586964e+00 5.203711212863267876e-01 4.500210243327239512e-01 1.201373776899568258e+00 1.369017136700738553e-02 5.901703428470076451e-01 -7.299821432925431008e-02 -7.553703759881746915e-01 -1.905597239977420976e-01 7.280132871533694372e-01 4.866058942336275450e-01 5.997126784208958172e-01 -3.519794320229408524e-01 5.689463296195431674e-01 4.514538666232095765e-02 -8.736214387992607966e-02 5.141616530076145164e-01 5.178203050400965735e-01 5.131821748931670868e-01 5.606740033310830817e-01 4.542562101736256630e-01 8.430309388317522856e-01 -1.667711833544189837e-01 5.279175820033314981e-01 5.016486807410710513e-01 6.531552853599761344e-01 1.098824808576973400e+00 5.947926563968982672e-01 4.691407423125869558e-01 5.453299935947190091e-01 2.644582601591965315e-02 2.974477692321860212e-01 4.884012163060782452e-01 5.501361667691051505e-01 4.732203065262609032e-01 4.378036796602958192e-01 4.500499916088558372e-01 5.254389356786717258e-01 5.267256237138228103e-01 2.360589607867011885e-01 3.735009277882032075e-01 8.162737370676762527e-01 2.248956552706022904e+00 -1.805471077574035410e-01 6.690024935178389143e-01 5.065976668621976486e-01 3.992355295955669625e-01 7.366154027990560182e-01 1.530996579529099975e-02 -1.117999942924461365e+00 5.647247701987201385e-01 2.308052335080192918e+00 5.757768117190290580e-01 1.253922425267367802e-01 2.679432143742277450e-01 6.475648372257609697e-01 5.735953216691859202e-01 1.359141589421499763e+00 5.884664966189850910e-01 1.122896127092669616e-01 6.511720874883699661e-01 1.380185867221884299e+00 5.403599597790026410e-01 4.894915887039817948e-01 5.163539458351551481e-01 7.996642991684799195e-01 4.492247734770921097e-01 5.256680475733181979e-01 -1.911664334537341997e-02 5.197969479365269763e-01 5.044948110643683314e-01 -4.778297850082076637e-01 3.089095586826409168e-01 1.102491806670462093e+00 2.301678897311192629e-01 5.102669290619646913e-01 5.397897213416854578e-01 5.084082964280818295e-01 1.855925484405163139e+00 6.331142244621928983e-01 -6.085868583401066526e-03 3.681126325653628628e-01 5.201726256571509444e-01 8.913984538484579501e-01 5.121102027535521239e-01 6.342617370654950182e-02 5.279433128593667979e-01 -6.462399746023583802e-02 5.219284335915522766e-01 5.488602651909879615e-01 1.274009707567884397e-02 -1.289991658481726977e-01 6.232626546725689165e-01 5.179812620923035515e-01 5.295294616336211346e-01 6.043565257995994200e-01 4.721808056421440414e-01 5.790604170589019883e-01 5.561623595967002398e-01 6.368425793436385263e-01 5.186108383957068746e-01 7.479920251416629640e-01 9.836017970908594865e-01 2.778240827958904813e+00 3.653253755705230810e-01 5.001963546258701987e-01 5.352510098740692612e-01 1.854277674807384424e-01 5.130662159831228530e-01 7.028839440828967833e-01 4.708276467546380628e-01 1.301278565815821908e+00 6.634020549735818451e-01 -4.618114715971191608e-01 3.239738464599375978e-02 4.820966876855662386e-01 5.947585554914996964e-01 5.260250891573196030e-01 5.069241003657095623e-01 -7.521842615543518004e-03 5.266929181636850199e-01 5.912997005034689169e-01 -2.608651179225219163e+00 4.999696129537576361e-01 4.940826537686822673e-01 1.041812009676712947e+00 5.605152134794040286e-01 4.137765208446380072e-01 7.497905772466518792e-01 -6.868693059470006856e-01 -5.003594971748038800e-01 6.954570564564786783e-02 4.573028447305713673e-01 5.343139544361882320e-01 4.731924205836054442e-01 5.190362191760707899e-01 -2.575641438821538176e-01 8.442155223563543309e-01 5.748319270080574084e-01 6.780524723711691681e-01 5.116350111373966225e-01 5.282773025775897580e-01 2.323670670018808115e-01 -5.466018998799605511e-01 3.058052688147409048e-01 5.090646178281569290e-01 2.097597946211119668e-01 5.179478715687267920e-01 4.900733326312093907e-01 5.231206641189550810e-01 5.711467104244338788e-01 5.244488610398871931e-01 4.892086572845895098e-01 4.732294603472796957e-01 1.390308731023566446e+00 4.507521355347990921e-01 5.093972584854342678e-01 2.379864773026915681e-03 4.821476331680839000e-01 5.842066383607821267e-01 5.166719618368594835e-01 5.516575933602311244e-01 4.634458502845731354e-01 7.386953767221761114e-01 8.549229140839973429e-01 5.553315141536583344e-01 4.825263470046237124e-01 5.753592352526895048e-01 5.142328529726406527e-01 5.506647676728748664e-01 5.218878477038606523e-01 1.020356939268477259e+00 6.706215136011305367e-01 -3.789871602444504495e-01 3.833270427233023692e-01 9.085809029638809431e-01 5.013231571359058059e-01 1.176290551943811186e-01 4.961408246340762718e-01 3.120501262121462283e-01 -1.159186271870457086e-01 6.797884654973344043e-01 3.120192420313435688e-01 5.499613076429488157e-01 5.642137267029158076e-01 5.361940886378955273e-01 3.604514279725393733e-01 1.312878388315193545e+00 6.242920604946743390e-01 5.240584000087108452e-01 -2.725440583349457158e-01 5.656196421633509219e-01 1.053756154324868133e+00 4.577930603792437769e-01 5.492328635613372700e-01 6.560958504602580899e-01 -1.729173547238999631e-01 4.281016274831924706e-01 1.332961674488629455e+00 -7.734550919669294089e-01 5.034924082545646495e-01 5.187065615628397852e-01 -2.860499526317215047e-01 5.747040276989779928e-01 6.464733432125499002e-01 5.508698196774649558e-01 4.910733685713054020e-01 4.822127043311159600e-01 2.774843454398142617e-01 5.765493732800418547e-01 5.071997707979456482e-01 5.245779996949985202e-01 1.680944807429649371e-02 5.354308601544610635e-01 5.145170352178159989e-01 1.021136479553248710e+00 2.811767332351842730e-01 -4.787168404052548620e-01 5.946646540520983404e-01 5.137255732973902145e-01 3.480662060531400370e-01 1.661108463851683828e-02 4.832083767118333650e-01 5.277896348067415699e-01 5.151040072195989250e-01 5.073956782366807472e-01 4.214586420357829474e-03 4.701662464173249067e-01 4.169026327100917029e-01 4.744398590001271399e-01 1.911988300665121931e+00 2.102663215069624780e-01 3.582958779673877103e-01 5.344418455837427473e-01 1.646262857000405200e+00 2.675693700183404133e-01 5.106207999286208610e-01 1.362664427757066532e-01 4.348158911264884408e-01 5.177742771706069780e-01 4.529409172944058870e-01 5.205030235449236153e-01 5.472647164121127172e-01 4.979488955234308567e-01 6.098305987084624569e-01 -3.052657346083789136e-01 4.926138625460886322e-01 5.469790167647576862e-01 5.310007763781386947e-01 3.604106175557280634e-01 5.210571171494138287e-01 -1.789844558964320265e-01 7.445211077245257325e-01 -8.940829371404963588e-01 -3.678098412715785082e-01 5.014840850952261286e-01 5.172369776893159798e-01 6.196216902184097375e-01 4.981598918086593830e-01 2.671587389196458662e-01 6.533499149662820304e-01 4.348153008365523431e-01 5.088644600269762730e-01 4.986762585571254958e-01 4.092864089757033974e-01 5.168589191350188017e-01 5.370208404943165315e-01 4.981084454978165765e-01 5.311101800397628470e-01 2.392650368935991256e-01 5.171719874877985790e-01 5.396871940115959276e-01 5.026095185494396933e-01 4.800050143755065779e-01 5.055135604082002798e-01 4.584100374701373659e-01 4.288648714593918942e-01 5.338009454879162341e-01 5.702991711205447345e-01 1.541012061445823922e-01 6.431783968296982401e-01 1.988781916652559989e+00 5.236387782404307023e-01 3.586839348693398599e-01 6.998357005610812420e-01 4.890756261928367321e-01 1.055473117088353785e+00 4.793573299607387650e-01 7.708154024501502333e-01 5.199864116350271237e-01
8.020043538542357409e-01 3.609499735001879261e-01 2.549485126779034716e-01 3.973106957041705467e-01 3.113986308330529695e-01 1.621623976759309638e-01 4.392082744013591777e-01 5.316664626323605036e-01 3.615922437960782942e-01 3.114488791779692622e-01 1.833940895288703299e+00 1.560226738309987482e+00 -1.196109680042419576e+00 2.772833858407368623e-01 3.034691577353156866e-01 2.482191946616437994e-01 1.533805583897529523e-01 3.804738280858869781e-01 2.799489388133097889e-01 3.236214247937791999e-01 2.096300478617293406e-01 1.836412350511689162e+00 2.537370991462586933e-01 3.115401834795160640e-01 4.497693270985820280e-01 -4.628826716908879813e-01 4.785686383690188617e-01 1.963060827127734442e-01 2.693283390547654976e-01 -5.295193634976450570e-01 2.515475962564165946e-01 4.314088201728285554e-01 3.166318339483895627e-01 2.810744528556792243e-01 -3.908638950026926406e-01 2.190583539450266792e-01 3.951399915704473242e-01 -1.026661142846218705e-01 -2.732337589516204091e+00 3.092453327844632005e-01 8.001239416799967863e-01 1.232982526095801751e-01 -1.304324507920644194e-01 7.591572040213478978e-01 8.354424945793569313e-01 1.639726258510448564e-01 3.985396931248816887e-01 3.084462106540730719e-01 4.641293799333955361e-01 7.716215710550536899e-01 7.801064201385217167e-01 1.756956183426892915e-01 -5.516139977813893092e-01 4.294342809582211706e-01 2.722351875250575426e-01 7.199062710116022057e-01 3.676825601518342035e-01 5.000220558557049166e-01 3.597215867244391019e-01 3.099686560985231432e-01 3.850425519096711269e-01 4.274942630318128711e-01 2.548228643320531450e-01 2.537370837755624220e-01 -2.435555435438855054e-01 4.568641434186987427e-01 2.986561697301772789e-01 3.834007296949871191e-01 1.440333828788584458e-01 7.326327054021711804e-01 3.649933879044044982e-01 3.387571330360273913e-01 3.570188990955379116e-01 7.155418614111741515e-01 1.704320228173376695e+00 4.183684241041766283e-01 4.289809496951269008e-01 4.450059608229632313e-01 2.823272369091154310e-01 -1.157513222893821858e+00 3.591472564556517644e-01 8.575373955373450929e-01 1.755492492321320430e+00 5.158367646441106569e-01 2.533329936752747868e-01 -5.989581111445581030e-01 3.678133345433149543e-02 3.321064912021249871e-01 -5.030440060260010782e-01 -6.877509597774387196e-01 8.370910521986448805e-01 1.314456304714345825e+00 2.574765007582657805e-01 7.997633157149391936e-01 2.263803309555304788e-01 3.707983589530093327e-01 3.918046002631608293e-01 4.636013429520494111e-01 7.592769248154714878e-01 -4.588916892909105649e-01 -9.166662388265817141e-02 1.123026093467525965e-01 2.900237847787379142e-01 2.502981770729905686e-01 3.445007581514168971e-01 2.606939115206293955e+00 -2.178854439230012985e-01 -3.682594891475162724e-01 3.151399927207705898e-01 7.671509653321167965e-01 3.378524192658319825e-01 3.928473796740826196e-01 3.168064466398737844e-01 3.515258439639279975e-01 -5.427720456660629633e-01 2.380223571280837003e-01 5.700740179520707995e-01 2.551731268303651379e-01 1.056297213465056811e-01 3.246729511946161439e-01 -1.261609671042303482e+00 3.714773108353139897e-01 3.741972612545789167e-01 6.637083629351899772e-01 2.517983183447963791e-01 1.884843615734731248e+00 3.860323715866750827e-01 2.773459347444937606e-01 3.104316060761780349e-01 2.829221289486905100e-01 3.346753411919811683e-01 3.066945529260848291e-01 5.340078872098794616e-01 2.354872297257900315e-01 2.864234372509449345e-01 8.997314044023614343e-01 3.880833570306372327e-01 7.361093444634669858e-01 -2.822654555976753521e-01 3.512176295872697085e-01 3.026118875316867185e-01 3.189012025700400099e-01 2.525732503103721438e-01 3.375544839328969426e-01 2.989703196749585734e-01 7.790760200826034598e-01 4.217444423872772630e-01 3.330817820630350146e-01 6.249422889496881323e-02 3.662035325527809859e-01 -4.714132347968906234e-01 2.289303409144326923e-02 1.639533211059227280e-01 3.428594841602071175e-01 5.023533265363337996e-01 3.307721032219954616e-01 -1.349910902339354291e+00 3.692291886674562429e-01 -5.090497355828215165e-01 -4.637085129718264143e-01 2.545087539220923789e-01 3.290318432821859318e-01 3.388850052368922450e-01 3.010385921258161290e-01 4.768045444526888138e-02 -6.980817189919796828e-02 3.419345640989207014e-01 2.354560990782732788e-01 2.143086386802075805e-01 2.173322378817532929e-01 5.630462541131785459e-01 3.979661383453639290e-01 1.640810932810798373e-01 3.091811182431997707e-01 -2.186923777852206374e+00 6.737002517865881002e-01 7.676970383462270453e-01 1.056245168156859204e+00 -4.070080065101339128e-01 1.124314681130212268e+00 9.849972127022550705e-03 4.478873951560564670e-01 1.133670987290203547e+00 4.211544024620058613e-01 3.463195455564490044e-01 2.855217059398183488e-01 3.009405288261279288e-01 2.992098493016221439e-01 -3.044876374433993504e-01 2.184216107917167915e-01 2.571239442091826088e-01 7.135522882402318690e-01 2.938596939197367641e-01 2.637044043375332270e-01 1.424281611154027682e-01 3.199870790297576484e-01 -1.300377372706506218e+00 3.135888077063336832e-01 3.512269399512340379e-02 3.204803955801817095e-01 4.687691799554093985e-01 2.913861185982722368e-01 2.923312226456612484e-01 6.993444150558555950e-02 -9.051381925947159512e-01 3.512271063992235265e-02 3.002898536727718337e-01 -4.263651111892202139e-01 3.060670479653460618e-01 3.392935784869000604e-01 3.084907412536838089e-01 -2.737074360097171422e+00 3.332780859103194881e-01 9.405120387495645717e-01 3.040754915785486290e-01 3.457186008863586402e-01 2.861309710278129859e-01 3.307484581382351130e-01 3.738387756520236693e-01 3.064621795316863073e-01 3.664653252670735939e-01 2.937250491558330845e-01 5.997053525453999168e-01 5.274667399576329352e-01 4.805531300916362492e-01 2.641342668795406134e-01 2.809114524683032355e-01 -3.523749700450480304e-01 1.888098858124957813e+00 4.672158249492427973e-02 1.138020537742559180e+00 -1.279542409763452904e+00 2.942206392252854630e-01 3.112782015957554771e-01 2.922477783631586834e-01 8.846408388064287420e-01 -1.074150713397621915e-01 6.427545163010455198e-01 2.446278240930867820e-01 6.417175162063520899e-01 5.852717674308137719e-01 3.089150843408974279e-01 -9.976672202153081814e-01 3.632501640611660587e-01 3.161914015765201480e-01 9.461302378209329733e-02 1.028948411175052868e+00 -9.641804974883842749e-02 2.548749987355559909e+00 2.784383265178367872e-01 8.770620725283339025e-01 2.859590149727076480e-01 3.112959454902164413e-01 2.537370440274722139e-01 2.344646498802084311e-01 3.374721958201590821e-01 1.985900410033819008e-01 4.088199620707984594e-01 4.219997892309452214e-01 5.479338674775433571e-01 4.062710131415365189e-01 1.750442606508051113e-01 1.371340590993319342e-01 2.540025348918104053e-01 3.850364979506568641e-01 3.593603389382363233e-01 2.670325828244407784e+00 3.019463797391461202e-01 6.673878714891361419e-01 1.215413632541259420e-01 2.799322905946872164e-01 3.797906288205245562e-01 2.694947438352085500e-01 3.429781279727019405e-01 2.972570466022737001e-01 -7.911217895862387994e-02 4.031315672503487657e-01 2.851352614103699334e-01 4.178551069520413525e-02 1.097781544604599507e-01 1.361029997479612730e+00 3.284684792566993639e-01 1.442678190238930735e-01 1.851632615085769373e+00 4.229150188008145017e-01 6.271592973150853512e-01 1.402694142612557482e-01 2.887377793335789700e-01 2.380223945360229743e-01 -1.880042897437452787e+00 3.270015538744391326e-01 1.020749374865040249e+00 3.913311943864757891e-01 -2.276651761256208994e-01 7.985342259499070838e-01 3.112950511072045678e-01 -6.255160159862537261e-01 2.274684510247059754e-01 3.089320241707663173e-01 6.253840833115964504e-02 -2.861071280092861158e-01 3.359814653765204606e-01 -1.303313156503220993e+00 3.975151774192490217e-01 2.635961001718922225e-01 6.338215961679141142e-01 2.994535410691249178e-01 3.176515087425232919e-01 2.081683729299895758e-01 3.596963861436155430e-01 -1.326587730935262499e-01 -6.608849667899917568e-01 4.100782479470973380e-02 4.932973004047475629e-01 3.205696315002729002e-01 2.736684298023339124e-01 2.980634073661300731e-01 3.985298539558700393e-01 3.134032012209257978e-01 2.119429497769983239e+00 7.515597137212485235e-01 2.442131438438585322e-01 -9.458293974462497200e-01 4.840971887285496211e-01 3.845226129687202565e+00 3.784199501964300993e-01 2.833784245145674063e-01 5.473759662474869669e-01 -4.682911125188188528e+00 3.887032979021915469e-01 1.295510582006895950e+00 3.166024846914449742e-01 5.803321829841985302e-01 -4.010858967098239192e-01 2.644806369503210908e-01 1.679759462721456265e-01 3.132757449068728772e-01 3.080055017762220460e-01 2.414893538969749009e+00 -2.904344031816314398e-01 3.502421784732581145e-01 -1.731968707398829688e+00 3.342301074911349645e-01 -1.026661263436230570e-01 6.568134708489853368e-01 4.818270079646683191e-01 4.707413938410176524e-01 3.224348756524096915e-01 1.334369448538742731e+00 1.833339880615396100e-01 3.512267991238257614e-02 3.632484231418688370e-01 6.993442449475192890e-02 1.321997398684027769e-01 4.166029518738159076e-01 -5.208799674134716451e-01 2.822404495505301258e-01 2.489523191890969656e-01 3.253330696651098308e-01 4.930457376999158314e-01 3.016273045979542822e-01 6.812208928029531152e-02 4.818262637407920712e-01 1.686319092404668374e-01 2.979887751036325860e-01 3.277901777128600647e-01 6.384712940521919400e-01 2.610675420274491731e+00 3.139728968519775454e-01 4.095825386171060289e-01 3.849615002334716984e-01 9.394626968770747322e-01 4.195604453479553908e-01 -4.830908008122343500e-02 7.607888266372632158e-01 2.765122495272773762e-01 1.178331079999810488e-01 2.890378817897220620e-01 3.687721710967702404e-01 8.251538932114597102e-01 6.870466026590809072e-01 7.518139785694645250e-01 2.873260026648654653e-01 6.993444063301539060e-02 6.993443286733153075e-02 3.567263208771220828e-01 3.365656965146362478e-01 1.114572372985735527e+00 4.325108705818191818e-02 2.724122463344630929e-01 4.780031773970648268e-01 2.843322507493707407e-01 8.700917539801634737e-01 3.512271764855701833e-02 2.899376493043363534e-01 3.273320422331530422e-01 5.212396714823950283e-01 -5.425077645480091970e-01 3.133163660291417574e-01 2.658658769740758765e-01 2.432903018649375249e-01 6.310091033246345571e-01 7.619009914079503121e-01 6.993443286691500282e-02 -1.936982939598558551e-01 2.992691815664858535e-01 -1.994283756809418773e-02 -5.375080975149911788e-01 4.604611261648863252e-01 -2.963219676983773088e+00 1.478321004635986258e+00 1.776886289830633958e-01 -2.864112177773443513e-01 3.987943605638000211e-01 1.772745313377600329e+00 4.080492301019849610e-01 5.599154797861521926e-01 6.963488325251170341e-01 4.337865745553131647e-01 5.102665878452594672e-01 3.012740495650211292e-01 8.658706067986926547e-02 3.534574227840545646e-01 1.784807581258295084e+00 4.187870227885246432e-01 -1.577509507272075451e-01 4.188584076025033132e-01 4.164027984371043711e-01 -1.290265266929873533e+00 3.807930572742836417e-01 2.105423289549517366e-02 3.983677122712192542e-01 3.219953149717522112e-01 2.996029019367144608e-01 4.164111908580264143e-01 3.086026325841131346e-01 -1.509070361570251928e-01 2.969481960048896418e-01 5.275534262108564354e-01 3.674660500475773195e-01 3.526281860800825063e-01 5.435079402719468211e-01 6.198077907571063472e-01 8.162538241675407757e-01 -1.105845618127693442e+00 2.054737156567119638e-01 -5.494409748421890533e-02 -1.904913629855706780e-01 5.032650086322674188e-01 3.819113291995483439e-01 3.468309974598224321e-01 7.253803753212997307e-01 3.776434317047149825e-01 1.751249310890564681e-01 4.128910246210840684e-01 9.190230772387723845e-02 -1.503572210656393682e-01 3.097882824604193397e-01 2.908241983585783119e-01 4.626478651656215635e-01 2.850207436328404675e-01 3.537301134907648859e-01 3.135629942662213621e-01 4.102594355360306144e-01 3.099397897236279009e-01 5.203510894242240337e-01 3.574814412647636663e-01 3.037511591247679110e-01 7.599391992850769162e-01 2.952051643732931385e-01 7.210650618612322038e-01 3.055435795079423644e-01 3.339226075453043396e-01 2.604976399766968931e-01 -1.271638004983197234e+00 3.129223297780704405e-01 1.881928535227205823e-01 4.944402662304351326e-01 4.370886439904249632e-01 2.897034908179337842e-01 5.856026078504225074e-01 7.659843434316008226e-01 2.758709312907114963e-01 1.714680126910766433e-01 2.820398908032256124e-01 4.907827880596467296e-02 3.535179425470200143e-01 4.732514798483564156e-01 3.830296965390798114e-01 4.772955757689452683e-01 3.928772197145996015e-01 2.879126530414746754e-02 1.396437910691791906e+00 5.439998378724296701e-01 3.116152573023643901e-01 3.197919026392199715e-01 -6.673080244595386290e-01 2.842964922983323706e-01 3.461664135762518302e-01 5.472244568805595399e-01 3.908873359805361547e-01 1.436380335333335978e-01 8.061535642688452130e-01 8.502478299164274445e-01 1.356744994951584182e-01 3.252038266338364014e-01 5.273100037066700413e-02 2.361183012639501699e-01 8.066484019889482715e-01 2.609460839348013206e+00 2.903240063758853462e-01 2.885565988292137507e-01 6.073914230923705970e-01 1.143450327101815100e-01 3.104810221533181314e-01 2.363978410162615174e-01 9.170436540206731157e-01 3.994895148561454779e-01 -1.753093929056450395e-01 3.066151128803235038e-01 5.722913468269582443e-02 6.145820521332137076e-01 1.095173118249512356e+00 3.434615050265423242e-01 2.754098850618206806e-01 1.529215276027334536e+00 4.700481106010047094e-01 2.974695013299513136e-01 1.300700649648306451e-01 4.644141979295396405e-01 3.972528377893349560e-01 1.737348047890871494e-01 2.069749231632915243e-01 7.269213627189901050e-01 2.367747546987247764e-01 2.636803837934393324e-01 3.054525349714436455e-01 1.461087770413161124e-01 3.860788186245954767e-01 2.330067608931665479e-01 9.886811269322484108e-01 4.467220551882058466e-01 3.415571388751439397e-01 4.112666241381508492e-01 3.127219093415033457e-01 4.081976309654354873e-01 5.517352904374626110e-01 6.774957347034294974e-01 2.499689130880405064e-01 3.462510554598247081e-01 2.650965271365582354e-01 3.069264911319108946e-01 6.980597584959616908e-01 3.469676207255119049e-01 3.023514503409560072e-01 -2.087736355588898363e-01 3.024683274168240010e-01 2.778837788155487099e-01 3.995153766300683085e-01 1.969036737263503700e-01 2.606763666577565086e-01 1.470950233052445544e+00 5.453299848803274674e-01 3.330421662826755780e-01 2.090130985625961446e-01 1.273854712765454922e+00 1.045110296816023077e+00 4.206408441146402000e-01 -4.246435198053858939e-01 -1.430365640823466067e-01 1.012333531844325646e-01 2.652018634804431674e-01 2.999161734615063413e-01 2.699873742721508596e-01 4.735865448436491487e-01 3.641745701612684738e-01 3.208296009700944973e-01 3.973882467256979467e-01 3.317957096801957828e-01 2.153659758905502597e-01 6.741484419586695198e-01 5.796817617029964564e-02 7.671168308736940888e-01 3.850387620481621753e-01 3.475102882352500977e-01 5.372337168432973487e-01 4.744931842452924653e-01 8.379813968496803156e-01 1.369610153923703499e-01 6.388556938469114321e-01 1.362880718918533463e+00 2.923457923009309956e-01 1.773640806288403260e+00 4.846958294206258344e-01 9.899452051198359692e-02 2.932068546706178003e-01 3.274951016928285275e-01 3.674573971868225208e-01 2.173170250454353747e-01 3.038976460252847955e-01 3.086682716194658616e-01 3.009229936342772693e-01 3.685464594422641071e-01 -3.190415870366576645e-02 3.485404263853564277e-01 2.488146985678959255e-01 3.495268873044246050e-01 6.256304053278714805e-02 3.850387151523100848e-01 1.764356615055721611e-01 4.209907614002764142e-01 -7.972792746736733216e-01 1.710965904764519596e+00 2.993608737887128446e-01 -4.292268638553103921e-01 3.024859738014712418e-01 3.043054632796358683e-01 3.125665942611434711e-01 -4.022606786462486816e+00 3.054862838329300168e+00 5.643969348027741972e-01 4.237758444789950230e-01 4.656917867121523891e-01 2.934986668435450308e-01 4.628752453460607819e-01 2.252819531813720744e+00 5.579824516047034999e-01 3.420206222674156971e-01 2.380224178033399640e-01 4.358559096042192715e-01 3.473103448809713445e-01 9.254545363385677792e-01 -3.773480372900281377e-01 -8.191766053338700448e-01 -9.669739249147910609e-01 3.188205032577579034e-01 2.975608996307300136e-01 5.827222917023380244e-01 4.117764250203919119e-01 4.455817460636020133e-01 3.626481658601040103e-01 2.995148575671034985e-01 2.028050324994448983e-01 2.665535061150980933e-01 2.667548887604607177e-01 3.519817613682644786e-01 6.122627125074119325e-01 2.627593540937978589e-01 1.627081736414991986e-01 1.582395117366101056e-01 1.369319726339869314e-01 3.507091420457755793e-01 1.932213014428665332e-01 3.463247042568717848e-01 3.427503289012202581e-01 7.546250699214125390e-01 4.818260199352787376e-01 5.103129090708804494e-01 3.626473894288536615e-01 3.618870537110168706e-01 2.091746964693397826e-01 8.061155430212135764e-01 1.432619096072509590e+00 3.540307255064935599e-01 3.469722863988423112e-01 3.025478806643418506e-01 4.334252753820912463e-01 3.223663154156291566e-01 3.662315423277044402e-01 2.856668219583382018e-01 3.121296826130909863e-01 7.131132518146039434e-01 7.520501876492173832e-01 5.484942506723667899e-01 1.628282525497274147e+00 1.804169405757552747e-01 3.816789519029434863e-01 -1.482498631746027029e-01 -3.729290526033202102e-01 2.859622355514371828e-01 3.315271925363483807e-01 7.404954451184890818e-01 2.836302683516372936e-01 2.488500145187957924e-01 2.886064771064940082e-01 3.392957289739892968e-01 2.876429498580564403e-01 5.236055663698583329e-01 9.469357867845501486e-01 2.781858585888757895e-01 5.996295726646363455e-01 3.030695224091467521e-01 -3.366207941904794665e-02 3.123343492004598820e-01 3.609332578925144586e-01 -2.297101556112595977e-01 2.277655505683333359e-01 3.368119376902574125e-01 3.979313415272858201e-01 3.851279003021897407e-01 1.165492211978323311e+00 8.422587657373062919e-01 -7.592477757689937157e-01 -1.026661150168159675e-01 3.216472220430387496e-01 -2.813674688783269318e+00 1.449700677703102292e+00 3.355284188209242124e-01 3.970361458741589744e-01 2.997775235152314033e-01 7.392780691118694403e-01 3.063892004779315004e-01 3.632480946036156233e-01 -3.696989443628986294e-01 6.886466188379523068e-01 2.098878819805713725e-01 9.191612981014175565e-01 1.857938295411328822e+00 -3.774293270256970922e-01 -1.287753125647679964e+00 3.377316485101951038e-01 1.583454958407189972e-01 8.685520707527996098e-01 2.659532415724329968e-01 7.899985013853829674e-01 4.619381353049155647e-01 2.621483775151256523e-01 3.101467448012452666e-01 2.981511183621949890e-01 2.669116107613080380e-01 4.482039592809036188e-01 1.168412041135388657e+00 1.291721495090049077e+00 2.727507064782876967e-01 2.725676934392151640e-01 -2.132270809850633497e-01 -1.516758332905471240e-01 2.543094226531489865e-01 4.091531559350433667e-01 2.670451556727606035e-01 7.155354677429670573e-01 8.797845060125303318e-02 3.417283512936569179e-01 2.971979147194537263e-01 4.027566369877186303e-01 2.771375255922104985e-01 5.369465577436657311e-01 3.014921457423426765e-01 2.959317067363432252e-01 -8.501187407771124138e-02 4.476234681757919609e-01 4.654883443593434422e-01 9.857126428920602867e-01 1.041479870554282261e+00 9.009420531665006671e-01 2.910351308627079359e-01 4.738003340001359920e-01 1.546341975710649984e-02 2.894585710586589089e-01 -1.611415420985670144e+00 3.118596356104039180e-01 6.072276498919456644e-01 2.456176285361475753e-01 9.016168455658587488e-01 1.238294182248623310e+00 2.380223524032966387e-01 8.150095529507234149e-02 3.574662208852361078e-01 1.549260107007993659e-01 6.114693642918478389e-01 1.490920620544941566e-01 -4.805664624568330434e-01 4.820401249987755210e-01 4.494589376502515221e-01 2.739998510716546432e-01 3.453239669237521126e-01 4.922099938593799684e-01 3.887640158792420864e-01 3.107058703315894177e-01 2.949619749740605146e-01 3.533054805607933613e-01 8.508131071091357134e-01 3.626447997382826194e-01 -1.656773061056265595e-01 8.354541275284713686e-01 3.708611443730084334e-01 2.137376954273563501e-01 3.279525521785483511e-01 1.182734885179634210e+00 1.906282941733603853e-01 7.230021919253595275e-01 2.976167197824856059e-01 2.820362562395024031e-01 -1.970678741042111992e-01 1.617617531415465604e-01 6.727681288790985370e-01 3.009366173188664506e-01 7.663907143008934497e-01 2.812242871742876016e-01 2.438533439592252272e-01 7.436586542564479485e-01 1.883904340935024443e-02 -1.819243220982179610e+00 2.054909151568121983e-01 2.848919903165195167e-01 1.530831039162089402e-01 2.148579318392871695e-01 2.135066494134959247e-01 2.291894642550566241e-01 2.348489739379918118e-01 3.006699651411495755e-01 -4.374315661101797065e-02 -1.498411064047916907e+00 7.046376914763743393e-01 3.512941281943419702e-01 3.344126159290561340e-01 2.474713924413402544e-01 7.936811827892663596e-01 3.020548073410325718e-01 2.564160091424898605e-02 3.735461282242065195e-01 1.062082936960344615e+00 3.861383004066489821e-01 4.080390915398256491e-01 1.079977144355810381e+00 4.141345880595834195e-01 2.217653558208909637e+00 2.943988764165516581e-01 3.123320643030180199e-01 8.117172489151153192e-01 3.044375781833559280e-01 2.852854888870455241e-01 -1.473356181773240570e+00 2.884608363912535833e-01 3.343342380540997305e-01 4.851972715325434393e-01 2.806374759270809927e-01 4.706995343384887676e-01 -4.781439417465458974e-01 1.787102632113481970e+00 -5.023446154420928567e-01 6.968764055847395111e-01 2.983192837328720315e-01 1.849533954159334193e-01 2.867429844150480300e-01 3.054246172191156239e-01 1.177908730914690061e+00 -1.431533765538278886e-02 1.597091078304961886e-01 -7.970407281999634108e-01 2.230308435617859852e-01 4.780709358468388515e-01 -2.946370250812264668e+00 2.500951898228916725e+00 4.071801937594849985e-01 2.942028400867742199e-01 -1.269274098317163313e+00 2.927982509804230582e-01 -3.850832958159797897e-02 2.975981888386090568e-01 1.137909460519604399e-01 6.126031083635242735e-01 5.238624895483116051e-01 5.299907160606280865e-01 -1.026661193328977234e-01 -9.338501289794874649e-02 3.260897430175654366e-01 -1.054093992385913614e+00 3.524782126993690756e-01 -5.686429651750952718e-01 2.956677446823035016e-01 5.107326668949778714e-01 7.374425622381236556e-02 3.125392660710820669e-01 3.021118508558588989e-01 -1.516456118282583365e-01 3.473939515380775611e-01 3.600813479252394922e-01 3.626269545262373883e-01 2.974707209276702402e-01 2.888162914695250327e-01 -7.592685063718460636e-01 6.447427004594588063e-01 1.429529578039099968e+00 7.921302296828022088e-03 2.625423391747516155e-01 3.259741307232819074e-01 1.230999888293826228e+00 3.336013899556452555e-01 2.892812045321871972e-01 9.107015229537575030e-01 2.040962861292887620e-01 1.589559319736259191e+00 3.095873102760598461e-01 4.531439416832851452e-01 2.694509830952501184e-01 6.980413864025372117e-01 1.276701583048809319e+00 3.389353445038836843e-01 1.400165942149834142e-01 7.379948943638575676e-01 8.093833403759284617e-02 1.253512083237380559e-02 -1.113527572492357814e-01 2.953212988352971191e-01 2.663306704488557775e-01 1.437700781939867944e-01 5.062107295391931050e-01 -2.027559072431487086e-01 1.281584493318522533e+00 3.279676809703876428e-01 2.690847395346427917e-01 -2.499960502402760465e+00 1.855811094158005548e-01 2.596178442048456270e-01 2.544375858769625243e-01 -3.964292526332449662e-02 3.609574962279968879e-01 -7.054621279693324976e-01 2.307887341502125045e-01 3.347318003504153316e-01 2.710887573195477906e-01 1.122057865709397362e+00 3.179182027774052899e-01 2.946722677751890673e-01 -1.238822335863172253e+00 5.074082315578841706e-01 8.507750598530691155e-01 3.820123218053546599e-01 3.003408254170145120e-01 -4.957185770603292352e-02 7.973805609214731360e-01 -6.506510629412644298e-02 2.977387188779351823e-01 3.037127329035340662e-01 1.357964588883208701e-01 7.542420136690874966e-01 3.339917648972676179e-01 7.660685514796827800e-01 4.641069737314414967e-01 6.511598124599372595e-01 4.719711364078314070e-03 -1.434814498844842356e+00 2.655129070181907469e-01 9.748190342361510996e-03 3.685948414328802381e-01 4.026934056441214271e-01 1.429383526393232240e-01 4.818260789466763394e-01 2.971269075292813366e-01 1.972143706770166649e-01 3.100801639874603000e-01 2.791391555399345692e-01 2.293250264324815380e-01 2.515672132595216381e-01 -5.766755221823939292e-01 3.475796395792116744e-01 3.019685729119904183e-01 3.050296997375615549e-01 4.029884087507495383e-01 2.958895125893631906e-01 6.245671553260223607e-01 -1.137847264126116975e-02 9.169534092048930995e-01 5.355497729979903365e-01 3.346819476856431885e-01 2.981864321447865174e-01 -1.821514070153535059e+00 3.577055451471358727e-01 2.581434697437394177e-01 2.120725882924179850e-01 4.818268815121488635e-01 3.164154826134216725e-01 4.763597629435179504e-01 4.415971199188427065e-01 2.841440700460829416e-01 3.021754022764310266e-01 4.081956837399669524e-01 2.796316752093480629e-01 3.800428976540159987e-01 3.012007372119945847e-01 3.178959984456514176e-01 3.309167965105970222e-01 -6.244851678889416779e-02 3.266954933002116368e-01 1.613051165725463143e-01 4.112499008274800860e-01 2.851257199325896163e-01 1.902498307602815131e-02 -1.596372048013110223e-02 -1.620590185200593003e-01 3.505147165082399763e+00 2.967239867400189302e-01 4.823603866584246780e-01 1.525922285601277184e-01 3.828049421233495897e-01 1.376547130760585214e+00 3.699991155150671451e-01 7.271889884948535832e-01 2.956943917210993478e-01
