# 
#                 ----------------------------------------------------
#                 Data from a 3D direct N-body simulation. 
# 
#                 rows are i-particle; 
#                 coumns are :mass, tag, x ,y, z, vx, vy, vz, ax, ay, az
# 
#                 NTHU, Computational Physics 
# 
#                 ----------------------------------------------------
#                 Time = 0.0
0.000000000000000000e+00 1.000000000000000000e+00 2.000000000000000000e+00 3.000000000000000000e+00 4.000000000000000000e+00 5.000000000000000000e+00 6.000000000000000000e+00 7.000000000000000000e+00 8.000000000000000000e+00 9.000000000000000000e+00 1.000000000000000000e+01 1.100000000000000000e+01 1.200000000000000000e+01 1.300000000000000000e+01 1.400000000000000000e+01 1.500000000000000000e+01 1.600000000000000000e+01 1.700000000000000000e+01 1.800000000000000000e+01 1.900000000000000000e+01 2.000000000000000000e+01 2.100000000000000000e+01 2.200000000000000000e+01 2.300000000000000000e+01 2.400000000000000000e+01 2.500000000000000000e+01 2.600000000000000000e+01 2.700000000000000000e+01 2.800000000000000000e+01 2.900000000000000000e+01 3.000000000000000000e+01 3.100000000000000000e+01 3.200000000000000000e+01 3.300000000000000000e+01 3.400000000000000000e+01 3.500000000000000000e+01 3.600000000000000000e+01 3.700000000000000000e+01 3.800000000000000000e+01 3.900000000000000000e+01 4.000000000000000000e+01 4.100000000000000000e+01 4.200000000000000000e+01 4.300000000000000000e+01 4.400000000000000000e+01 4.500000000000000000e+01 4.600000000000000000e+01 4.700000000000000000e+01 4.800000000000000000e+01 4.900000000000000000e+01 5.000000000000000000e+01 5.100000000000000000e+01 5.200000000000000000e+01 5.300000000000000000e+01 5.400000000000000000e+01 5.500000000000000000e+01 5.600000000000000000e+01 5.700000000000000000e+01 5.800000000000000000e+01 5.900000000000000000e+01 6.000000000000000000e+01 6.100000000000000000e+01 6.200000000000000000e+01 6.300000000000000000e+01 6.400000000000000000e+01 6.500000000000000000e+01 6.600000000000000000e+01 6.700000000000000000e+01 6.800000000000000000e+01 6.900000000000000000e+01 7.000000000000000000e+01 7.100000000000000000e+01 7.200000000000000000e+01 7.300000000000000000e+01 7.400000000000000000e+01 7.500000000000000000e+01 7.600000000000000000e+01 7.700000000000000000e+01 7.800000000000000000e+01 7.900000000000000000e+01 8.000000000000000000e+01 8.100000000000000000e+01 8.200000000000000000e+01 8.300000000000000000e+01 8.400000000000000000e+01 8.500000000000000000e+01 8.600000000000000000e+01 8.700000000000000000e+01 8.800000000000000000e+01 8.900000000000000000e+01 9.000000000000000000e+01 9.100000000000000000e+01 9.200000000000000000e+01 9.300000000000000000e+01 9.400000000000000000e+01 9.500000000000000000e+01 9.600000000000000000e+01 9.700000000000000000e+01 9.800000000000000000e+01 9.900000000000000000e+01 1.000000000000000000e+02 1.010000000000000000e+02 1.020000000000000000e+02 1.030000000000000000e+02 1.040000000000000000e+02 1.050000000000000000e+02 1.060000000000000000e+02 1.070000000000000000e+02 1.080000000000000000e+02 1.090000000000000000e+02 1.100000000000000000e+02 1.110000000000000000e+02 1.120000000000000000e+02 1.130000000000000000e+02 1.140000000000000000e+02 1.150000000000000000e+02 1.160000000000000000e+02 1.170000000000000000e+02 1.180000000000000000e+02 1.190000000000000000e+02 1.200000000000000000e+02 1.210000000000000000e+02 1.220000000000000000e+02 1.230000000000000000e+02 1.240000000000000000e+02 1.250000000000000000e+02 1.260000000000000000e+02 1.270000000000000000e+02 1.280000000000000000e+02 1.290000000000000000e+02 1.300000000000000000e+02 1.310000000000000000e+02 1.320000000000000000e+02 1.330000000000000000e+02 1.340000000000000000e+02 1.350000000000000000e+02 1.360000000000000000e+02 1.370000000000000000e+02 1.380000000000000000e+02 1.390000000000000000e+02 1.400000000000000000e+02 1.410000000000000000e+02 1.420000000000000000e+02 1.430000000000000000e+02 1.440000000000000000e+02 1.450000000000000000e+02 1.460000000000000000e+02 1.470000000000000000e+02 1.480000000000000000e+02 1.490000000000000000e+02 1.500000000000000000e+02 1.510000000000000000e+02 1.520000000000000000e+02 1.530000000000000000e+02 1.540000000000000000e+02 1.550000000000000000e+02 1.560000000000000000e+02 1.570000000000000000e+02 1.580000000000000000e+02 1.590000000000000000e+02 1.600000000000000000e+02 1.610000000000000000e+02 1.620000000000000000e+02 1.630000000000000000e+02 1.640000000000000000e+02 1.650000000000000000e+02 1.660000000000000000e+02 1.670000000000000000e+02 1.680000000000000000e+02 1.690000000000000000e+02 1.700000000000000000e+02 1.710000000000000000e+02 1.720000000000000000e+02 1.730000000000000000e+02 1.740000000000000000e+02 1.750000000000000000e+02 1.760000000000000000e+02 1.770000000000000000e+02 1.780000000000000000e+02 1.790000000000000000e+02 1.800000000000000000e+02 1.810000000000000000e+02 1.820000000000000000e+02 1.830000000000000000e+02 1.840000000000000000e+02 1.850000000000000000e+02 1.860000000000000000e+02 1.870000000000000000e+02 1.880000000000000000e+02 1.890000000000000000e+02 1.900000000000000000e+02 1.910000000000000000e+02 1.920000000000000000e+02 1.930000000000000000e+02 1.940000000000000000e+02 1.950000000000000000e+02 1.960000000000000000e+02 1.970000000000000000e+02 1.980000000000000000e+02 1.990000000000000000e+02 2.000000000000000000e+02 2.010000000000000000e+02 2.020000000000000000e+02 2.030000000000000000e+02 2.040000000000000000e+02 2.050000000000000000e+02 2.060000000000000000e+02 2.070000000000000000e+02 2.080000000000000000e+02 2.090000000000000000e+02 2.100000000000000000e+02 2.110000000000000000e+02 2.120000000000000000e+02 2.130000000000000000e+02 2.140000000000000000e+02 2.150000000000000000e+02 2.160000000000000000e+02 2.170000000000000000e+02 2.180000000000000000e+02 2.190000000000000000e+02 2.200000000000000000e+02 2.210000000000000000e+02 2.220000000000000000e+02 2.230000000000000000e+02 2.240000000000000000e+02 2.250000000000000000e+02 2.260000000000000000e+02 2.270000000000000000e+02 2.280000000000000000e+02 2.290000000000000000e+02 2.300000000000000000e+02 2.310000000000000000e+02 2.320000000000000000e+02 2.330000000000000000e+02 2.340000000000000000e+02 2.350000000000000000e+02 2.360000000000000000e+02 2.370000000000000000e+02 2.380000000000000000e+02 2.390000000000000000e+02 2.400000000000000000e+02 2.410000000000000000e+02 2.420000000000000000e+02 2.430000000000000000e+02 2.440000000000000000e+02 2.450000000000000000e+02 2.460000000000000000e+02 2.470000000000000000e+02 2.480000000000000000e+02 2.490000000000000000e+02 2.500000000000000000e+02 2.510000000000000000e+02 2.520000000000000000e+02 2.530000000000000000e+02 2.540000000000000000e+02 2.550000000000000000e+02 2.560000000000000000e+02 2.570000000000000000e+02 2.580000000000000000e+02 2.590000000000000000e+02 2.600000000000000000e+02 2.610000000000000000e+02 2.620000000000000000e+02 2.630000000000000000e+02 2.640000000000000000e+02 2.650000000000000000e+02 2.660000000000000000e+02 2.670000000000000000e+02 2.680000000000000000e+02 2.690000000000000000e+02 2.700000000000000000e+02 2.710000000000000000e+02 2.720000000000000000e+02 2.730000000000000000e+02 2.740000000000000000e+02 2.750000000000000000e+02 2.760000000000000000e+02 2.770000000000000000e+02 2.780000000000000000e+02 2.790000000000000000e+02 2.800000000000000000e+02 2.810000000000000000e+02 2.820000000000000000e+02 2.830000000000000000e+02 2.840000000000000000e+02 2.850000000000000000e+02 2.860000000000000000e+02 2.870000000000000000e+02 2.880000000000000000e+02 2.890000000000000000e+02 2.900000000000000000e+02 2.910000000000000000e+02 2.920000000000000000e+02 2.930000000000000000e+02 2.940000000000000000e+02 2.950000000000000000e+02 2.960000000000000000e+02 2.970000000000000000e+02 2.980000000000000000e+02 2.990000000000000000e+02 3.000000000000000000e+02 3.010000000000000000e+02 3.020000000000000000e+02 3.030000000000000000e+02 3.040000000000000000e+02 3.050000000000000000e+02 3.060000000000000000e+02 3.070000000000000000e+02 3.080000000000000000e+02 3.090000000000000000e+02 3.100000000000000000e+02 3.110000000000000000e+02 3.120000000000000000e+02 3.130000000000000000e+02 3.140000000000000000e+02 3.150000000000000000e+02 3.160000000000000000e+02 3.170000000000000000e+02 3.180000000000000000e+02 3.190000000000000000e+02 3.200000000000000000e+02 3.210000000000000000e+02 3.220000000000000000e+02 3.230000000000000000e+02 3.240000000000000000e+02 3.250000000000000000e+02 3.260000000000000000e+02 3.270000000000000000e+02 3.280000000000000000e+02 3.290000000000000000e+02 3.300000000000000000e+02 3.310000000000000000e+02 3.320000000000000000e+02 3.330000000000000000e+02 3.340000000000000000e+02 3.350000000000000000e+02 3.360000000000000000e+02 3.370000000000000000e+02 3.380000000000000000e+02 3.390000000000000000e+02 3.400000000000000000e+02 3.410000000000000000e+02 3.420000000000000000e+02 3.430000000000000000e+02 3.440000000000000000e+02 3.450000000000000000e+02 3.460000000000000000e+02 3.470000000000000000e+02 3.480000000000000000e+02 3.490000000000000000e+02 3.500000000000000000e+02 3.510000000000000000e+02 3.520000000000000000e+02 3.530000000000000000e+02 3.540000000000000000e+02 3.550000000000000000e+02 3.560000000000000000e+02 3.570000000000000000e+02 3.580000000000000000e+02 3.590000000000000000e+02 3.600000000000000000e+02 3.610000000000000000e+02 3.620000000000000000e+02 3.630000000000000000e+02 3.640000000000000000e+02 3.650000000000000000e+02 3.660000000000000000e+02 3.670000000000000000e+02 3.680000000000000000e+02 3.690000000000000000e+02 3.700000000000000000e+02 3.710000000000000000e+02 3.720000000000000000e+02 3.730000000000000000e+02 3.740000000000000000e+02 3.750000000000000000e+02 3.760000000000000000e+02 3.770000000000000000e+02 3.780000000000000000e+02 3.790000000000000000e+02 3.800000000000000000e+02 3.810000000000000000e+02 3.820000000000000000e+02 3.830000000000000000e+02 3.840000000000000000e+02 3.850000000000000000e+02 3.860000000000000000e+02 3.870000000000000000e+02 3.880000000000000000e+02 3.890000000000000000e+02 3.900000000000000000e+02 3.910000000000000000e+02 3.920000000000000000e+02 3.930000000000000000e+02 3.940000000000000000e+02 3.950000000000000000e+02 3.960000000000000000e+02 3.970000000000000000e+02 3.980000000000000000e+02 3.990000000000000000e+02 4.000000000000000000e+02 4.010000000000000000e+02 4.020000000000000000e+02 4.030000000000000000e+02 4.040000000000000000e+02 4.050000000000000000e+02 4.060000000000000000e+02 4.070000000000000000e+02 4.080000000000000000e+02 4.090000000000000000e+02 4.100000000000000000e+02 4.110000000000000000e+02 4.120000000000000000e+02 4.130000000000000000e+02 4.140000000000000000e+02 4.150000000000000000e+02 4.160000000000000000e+02 4.170000000000000000e+02 4.180000000000000000e+02 4.190000000000000000e+02 4.200000000000000000e+02 4.210000000000000000e+02 4.220000000000000000e+02 4.230000000000000000e+02 4.240000000000000000e+02 4.250000000000000000e+02 4.260000000000000000e+02 4.270000000000000000e+02 4.280000000000000000e+02 4.290000000000000000e+02 4.300000000000000000e+02 4.310000000000000000e+02 4.320000000000000000e+02 4.330000000000000000e+02 4.340000000000000000e+02 4.350000000000000000e+02 4.360000000000000000e+02 4.370000000000000000e+02 4.380000000000000000e+02 4.390000000000000000e+02 4.400000000000000000e+02 4.410000000000000000e+02 4.420000000000000000e+02 4.430000000000000000e+02 4.440000000000000000e+02 4.450000000000000000e+02 4.460000000000000000e+02 4.470000000000000000e+02 4.480000000000000000e+02 4.490000000000000000e+02 4.500000000000000000e+02 4.510000000000000000e+02 4.520000000000000000e+02 4.530000000000000000e+02 4.540000000000000000e+02 4.550000000000000000e+02 4.560000000000000000e+02 4.570000000000000000e+02 4.580000000000000000e+02 4.590000000000000000e+02 4.600000000000000000e+02 4.610000000000000000e+02 4.620000000000000000e+02 4.630000000000000000e+02 4.640000000000000000e+02 4.650000000000000000e+02 4.660000000000000000e+02 4.670000000000000000e+02 4.680000000000000000e+02 4.690000000000000000e+02 4.700000000000000000e+02 4.710000000000000000e+02 4.720000000000000000e+02 4.730000000000000000e+02 4.740000000000000000e+02 4.750000000000000000e+02 4.760000000000000000e+02 4.770000000000000000e+02 4.780000000000000000e+02 4.790000000000000000e+02 4.800000000000000000e+02 4.810000000000000000e+02 4.820000000000000000e+02 4.830000000000000000e+02 4.840000000000000000e+02 4.850000000000000000e+02 4.860000000000000000e+02 4.870000000000000000e+02 4.880000000000000000e+02 4.890000000000000000e+02 4.900000000000000000e+02 4.910000000000000000e+02 4.920000000000000000e+02 4.930000000000000000e+02 4.940000000000000000e+02 4.950000000000000000e+02 4.960000000000000000e+02 4.970000000000000000e+02 4.980000000000000000e+02 4.990000000000000000e+02 5.000000000000000000e+02 5.010000000000000000e+02 5.020000000000000000e+02 5.030000000000000000e+02 5.040000000000000000e+02 5.050000000000000000e+02 5.060000000000000000e+02 5.070000000000000000e+02 5.080000000000000000e+02 5.090000000000000000e+02 5.100000000000000000e+02 5.110000000000000000e+02 5.120000000000000000e+02 5.130000000000000000e+02 5.140000000000000000e+02 5.150000000000000000e+02 5.160000000000000000e+02 5.170000000000000000e+02 5.180000000000000000e+02 5.190000000000000000e+02 5.200000000000000000e+02 5.210000000000000000e+02 5.220000000000000000e+02 5.230000000000000000e+02 5.240000000000000000e+02 5.250000000000000000e+02 5.260000000000000000e+02 5.270000000000000000e+02 5.280000000000000000e+02 5.290000000000000000e+02 5.300000000000000000e+02 5.310000000000000000e+02 5.320000000000000000e+02 5.330000000000000000e+02 5.340000000000000000e+02 5.350000000000000000e+02 5.360000000000000000e+02 5.370000000000000000e+02 5.380000000000000000e+02 5.390000000000000000e+02 5.400000000000000000e+02 5.410000000000000000e+02 5.420000000000000000e+02 5.430000000000000000e+02 5.440000000000000000e+02 5.450000000000000000e+02 5.460000000000000000e+02 5.470000000000000000e+02 5.480000000000000000e+02 5.490000000000000000e+02 5.500000000000000000e+02 5.510000000000000000e+02 5.520000000000000000e+02 5.530000000000000000e+02 5.540000000000000000e+02 5.550000000000000000e+02 5.560000000000000000e+02 5.570000000000000000e+02 5.580000000000000000e+02 5.590000000000000000e+02 5.600000000000000000e+02 5.610000000000000000e+02 5.620000000000000000e+02 5.630000000000000000e+02 5.640000000000000000e+02 5.650000000000000000e+02 5.660000000000000000e+02 5.670000000000000000e+02 5.680000000000000000e+02 5.690000000000000000e+02 5.700000000000000000e+02 5.710000000000000000e+02 5.720000000000000000e+02 5.730000000000000000e+02 5.740000000000000000e+02 5.750000000000000000e+02 5.760000000000000000e+02 5.770000000000000000e+02 5.780000000000000000e+02 5.790000000000000000e+02 5.800000000000000000e+02 5.810000000000000000e+02 5.820000000000000000e+02 5.830000000000000000e+02 5.840000000000000000e+02 5.850000000000000000e+02 5.860000000000000000e+02 5.870000000000000000e+02 5.880000000000000000e+02 5.890000000000000000e+02 5.900000000000000000e+02 5.910000000000000000e+02 5.920000000000000000e+02 5.930000000000000000e+02 5.940000000000000000e+02 5.950000000000000000e+02 5.960000000000000000e+02 5.970000000000000000e+02 5.980000000000000000e+02 5.990000000000000000e+02 6.000000000000000000e+02 6.010000000000000000e+02 6.020000000000000000e+02 6.030000000000000000e+02 6.040000000000000000e+02 6.050000000000000000e+02 6.060000000000000000e+02 6.070000000000000000e+02 6.080000000000000000e+02 6.090000000000000000e+02 6.100000000000000000e+02 6.110000000000000000e+02 6.120000000000000000e+02 6.130000000000000000e+02 6.140000000000000000e+02 6.150000000000000000e+02 6.160000000000000000e+02 6.170000000000000000e+02 6.180000000000000000e+02 6.190000000000000000e+02 6.200000000000000000e+02 6.210000000000000000e+02 6.220000000000000000e+02 6.230000000000000000e+02 6.240000000000000000e+02 6.250000000000000000e+02 6.260000000000000000e+02 6.270000000000000000e+02 6.280000000000000000e+02 6.290000000000000000e+02 6.300000000000000000e+02 6.310000000000000000e+02 6.320000000000000000e+02 6.330000000000000000e+02 6.340000000000000000e+02 6.350000000000000000e+02 6.360000000000000000e+02 6.370000000000000000e+02 6.380000000000000000e+02 6.390000000000000000e+02 6.400000000000000000e+02 6.410000000000000000e+02 6.420000000000000000e+02 6.430000000000000000e+02 6.440000000000000000e+02 6.450000000000000000e+02 6.460000000000000000e+02 6.470000000000000000e+02 6.480000000000000000e+02 6.490000000000000000e+02 6.500000000000000000e+02 6.510000000000000000e+02 6.520000000000000000e+02 6.530000000000000000e+02 6.540000000000000000e+02 6.550000000000000000e+02 6.560000000000000000e+02 6.570000000000000000e+02 6.580000000000000000e+02 6.590000000000000000e+02 6.600000000000000000e+02 6.610000000000000000e+02 6.620000000000000000e+02 6.630000000000000000e+02 6.640000000000000000e+02 6.650000000000000000e+02 6.660000000000000000e+02 6.670000000000000000e+02 6.680000000000000000e+02 6.690000000000000000e+02 6.700000000000000000e+02 6.710000000000000000e+02 6.720000000000000000e+02 6.730000000000000000e+02 6.740000000000000000e+02 6.750000000000000000e+02 6.760000000000000000e+02 6.770000000000000000e+02 6.780000000000000000e+02 6.790000000000000000e+02 6.800000000000000000e+02 6.810000000000000000e+02 6.820000000000000000e+02 6.830000000000000000e+02 6.840000000000000000e+02 6.850000000000000000e+02 6.860000000000000000e+02 6.870000000000000000e+02 6.880000000000000000e+02 6.890000000000000000e+02 6.900000000000000000e+02 6.910000000000000000e+02 6.920000000000000000e+02 6.930000000000000000e+02 6.940000000000000000e+02 6.950000000000000000e+02 6.960000000000000000e+02 6.970000000000000000e+02 6.980000000000000000e+02 6.990000000000000000e+02 7.000000000000000000e+02 7.010000000000000000e+02 7.020000000000000000e+02 7.030000000000000000e+02 7.040000000000000000e+02 7.050000000000000000e+02 7.060000000000000000e+02 7.070000000000000000e+02 7.080000000000000000e+02 7.090000000000000000e+02 7.100000000000000000e+02 7.110000000000000000e+02 7.120000000000000000e+02 7.130000000000000000e+02 7.140000000000000000e+02 7.150000000000000000e+02 7.160000000000000000e+02 7.170000000000000000e+02 7.180000000000000000e+02 7.190000000000000000e+02 7.200000000000000000e+02 7.210000000000000000e+02 7.220000000000000000e+02 7.230000000000000000e+02 7.240000000000000000e+02 7.250000000000000000e+02 7.260000000000000000e+02 7.270000000000000000e+02 7.280000000000000000e+02 7.290000000000000000e+02 7.300000000000000000e+02 7.310000000000000000e+02 7.320000000000000000e+02 7.330000000000000000e+02 7.340000000000000000e+02 7.350000000000000000e+02 7.360000000000000000e+02 7.370000000000000000e+02 7.380000000000000000e+02 7.390000000000000000e+02 7.400000000000000000e+02 7.410000000000000000e+02 7.420000000000000000e+02 7.430000000000000000e+02 7.440000000000000000e+02 7.450000000000000000e+02 7.460000000000000000e+02 7.470000000000000000e+02 7.480000000000000000e+02 7.490000000000000000e+02 7.500000000000000000e+02 7.510000000000000000e+02 7.520000000000000000e+02 7.530000000000000000e+02 7.540000000000000000e+02 7.550000000000000000e+02 7.560000000000000000e+02 7.570000000000000000e+02 7.580000000000000000e+02 7.590000000000000000e+02 7.600000000000000000e+02 7.610000000000000000e+02 7.620000000000000000e+02 7.630000000000000000e+02 7.640000000000000000e+02 7.650000000000000000e+02 7.660000000000000000e+02 7.670000000000000000e+02 7.680000000000000000e+02 7.690000000000000000e+02 7.700000000000000000e+02 7.710000000000000000e+02 7.720000000000000000e+02 7.730000000000000000e+02 7.740000000000000000e+02 7.750000000000000000e+02 7.760000000000000000e+02 7.770000000000000000e+02 7.780000000000000000e+02 7.790000000000000000e+02 7.800000000000000000e+02 7.810000000000000000e+02 7.820000000000000000e+02 7.830000000000000000e+02 7.840000000000000000e+02 7.850000000000000000e+02 7.860000000000000000e+02 7.870000000000000000e+02 7.880000000000000000e+02 7.890000000000000000e+02 7.900000000000000000e+02 7.910000000000000000e+02 7.920000000000000000e+02 7.930000000000000000e+02 7.940000000000000000e+02 7.950000000000000000e+02 7.960000000000000000e+02 7.970000000000000000e+02 7.980000000000000000e+02 7.990000000000000000e+02 8.000000000000000000e+02 8.010000000000000000e+02 8.020000000000000000e+02 8.030000000000000000e+02 8.040000000000000000e+02 8.050000000000000000e+02 8.060000000000000000e+02 8.070000000000000000e+02 8.080000000000000000e+02 8.090000000000000000e+02 8.100000000000000000e+02 8.110000000000000000e+02 8.120000000000000000e+02 8.130000000000000000e+02 8.140000000000000000e+02 8.150000000000000000e+02 8.160000000000000000e+02 8.170000000000000000e+02 8.180000000000000000e+02 8.190000000000000000e+02 8.200000000000000000e+02 8.210000000000000000e+02 8.220000000000000000e+02 8.230000000000000000e+02 8.240000000000000000e+02 8.250000000000000000e+02 8.260000000000000000e+02 8.270000000000000000e+02 8.280000000000000000e+02 8.290000000000000000e+02 8.300000000000000000e+02 8.310000000000000000e+02 8.320000000000000000e+02 8.330000000000000000e+02 8.340000000000000000e+02 8.350000000000000000e+02 8.360000000000000000e+02 8.370000000000000000e+02 8.380000000000000000e+02 8.390000000000000000e+02 8.400000000000000000e+02 8.410000000000000000e+02 8.420000000000000000e+02 8.430000000000000000e+02 8.440000000000000000e+02 8.450000000000000000e+02 8.460000000000000000e+02 8.470000000000000000e+02 8.480000000000000000e+02 8.490000000000000000e+02 8.500000000000000000e+02 8.510000000000000000e+02 8.520000000000000000e+02 8.530000000000000000e+02 8.540000000000000000e+02 8.550000000000000000e+02 8.560000000000000000e+02 8.570000000000000000e+02 8.580000000000000000e+02 8.590000000000000000e+02 8.600000000000000000e+02 8.610000000000000000e+02 8.620000000000000000e+02 8.630000000000000000e+02 8.640000000000000000e+02 8.650000000000000000e+02 8.660000000000000000e+02 8.670000000000000000e+02 8.680000000000000000e+02 8.690000000000000000e+02 8.700000000000000000e+02 8.710000000000000000e+02 8.720000000000000000e+02 8.730000000000000000e+02 8.740000000000000000e+02 8.750000000000000000e+02 8.760000000000000000e+02 8.770000000000000000e+02 8.780000000000000000e+02 8.790000000000000000e+02 8.800000000000000000e+02 8.810000000000000000e+02 8.820000000000000000e+02 8.830000000000000000e+02 8.840000000000000000e+02 8.850000000000000000e+02 8.860000000000000000e+02 8.870000000000000000e+02 8.880000000000000000e+02 8.890000000000000000e+02 8.900000000000000000e+02 8.910000000000000000e+02 8.920000000000000000e+02 8.930000000000000000e+02 8.940000000000000000e+02 8.950000000000000000e+02 8.960000000000000000e+02 8.970000000000000000e+02 8.980000000000000000e+02 8.990000000000000000e+02 9.000000000000000000e+02 9.010000000000000000e+02 9.020000000000000000e+02 9.030000000000000000e+02 9.040000000000000000e+02 9.050000000000000000e+02 9.060000000000000000e+02 9.070000000000000000e+02 9.080000000000000000e+02 9.090000000000000000e+02 9.100000000000000000e+02 9.110000000000000000e+02 9.120000000000000000e+02 9.130000000000000000e+02 9.140000000000000000e+02 9.150000000000000000e+02 9.160000000000000000e+02 9.170000000000000000e+02 9.180000000000000000e+02 9.190000000000000000e+02 9.200000000000000000e+02 9.210000000000000000e+02 9.220000000000000000e+02 9.230000000000000000e+02 9.240000000000000000e+02 9.250000000000000000e+02 9.260000000000000000e+02 9.270000000000000000e+02 9.280000000000000000e+02 9.290000000000000000e+02 9.300000000000000000e+02 9.310000000000000000e+02 9.320000000000000000e+02 9.330000000000000000e+02 9.340000000000000000e+02 9.350000000000000000e+02 9.360000000000000000e+02 9.370000000000000000e+02 9.380000000000000000e+02 9.390000000000000000e+02 9.400000000000000000e+02 9.410000000000000000e+02 9.420000000000000000e+02 9.430000000000000000e+02 9.440000000000000000e+02 9.450000000000000000e+02 9.460000000000000000e+02 9.470000000000000000e+02 9.480000000000000000e+02 9.490000000000000000e+02 9.500000000000000000e+02 9.510000000000000000e+02 9.520000000000000000e+02 9.530000000000000000e+02 9.540000000000000000e+02 9.550000000000000000e+02 9.560000000000000000e+02 9.570000000000000000e+02 9.580000000000000000e+02 9.590000000000000000e+02 9.600000000000000000e+02 9.610000000000000000e+02 9.620000000000000000e+02 9.630000000000000000e+02 9.640000000000000000e+02 9.650000000000000000e+02 9.660000000000000000e+02 9.670000000000000000e+02 9.680000000000000000e+02 9.690000000000000000e+02 9.700000000000000000e+02 9.710000000000000000e+02 9.720000000000000000e+02 9.730000000000000000e+02 9.740000000000000000e+02 9.750000000000000000e+02 9.760000000000000000e+02 9.770000000000000000e+02 9.780000000000000000e+02 9.790000000000000000e+02 9.800000000000000000e+02 9.810000000000000000e+02 9.820000000000000000e+02 9.830000000000000000e+02 9.840000000000000000e+02 9.850000000000000000e+02 9.860000000000000000e+02 9.870000000000000000e+02 9.880000000000000000e+02 9.890000000000000000e+02 9.900000000000000000e+02 9.910000000000000000e+02 9.920000000000000000e+02 9.930000000000000000e+02 9.940000000000000000e+02 9.950000000000000000e+02 9.960000000000000000e+02 9.970000000000000000e+02 9.980000000000000000e+02 9.990000000000000000e+02
1.000000000000000000e+00 1.000000000000000000e+00 1.000000000000000000e+00 1.000000000000000000e+00 1.000000000000000000e+00 1.000000000000000000e+00 1.000000000000000000e+00 1.000000000000000000e+00 1.000000000000000000e+00 1.000000000000000000e+00 1.000000000000000000e+00 1.000000000000000000e+00 1.000000000000000000e+00 1.000000000000000000e+00 1.000000000000000000e+00 1.000000000000000000e+00 1.000000000000000000e+00 1.000000000000000000e+00 1.000000000000000000e+00 1.000000000000000000e+00 1.000000000000000000e+00 1.000000000000000000e+00 1.000000000000000000e+00 1.000000000000000000e+00 1.000000000000000000e+00 1.000000000000000000e+00 1.000000000000000000e+00 1.000000000000000000e+00 1.000000000000000000e+00 1.000000000000000000e+00 1.000000000000000000e+00 1.000000000000000000e+00 1.000000000000000000e+00 1.000000000000000000e+00 1.000000000000000000e+00 1.000000000000000000e+00 1.000000000000000000e+00 1.000000000000000000e+00 1.000000000000000000e+00 1.000000000000000000e+00 1.000000000000000000e+00 1.000000000000000000e+00 1.000000000000000000e+00 1.000000000000000000e+00 1.000000000000000000e+00 1.000000000000000000e+00 1.000000000000000000e+00 1.000000000000000000e+00 1.000000000000000000e+00 1.000000000000000000e+00 1.000000000000000000e+00 1.000000000000000000e+00 1.000000000000000000e+00 1.000000000000000000e+00 1.000000000000000000e+00 1.000000000000000000e+00 1.000000000000000000e+00 1.000000000000000000e+00 1.000000000000000000e+00 1.000000000000000000e+00 1.000000000000000000e+00 1.000000000000000000e+00 1.000000000000000000e+00 1.000000000000000000e+00 1.000000000000000000e+00 1.000000000000000000e+00 1.000000000000000000e+00 1.000000000000000000e+00 1.000000000000000000e+00 1.000000000000000000e+00 1.000000000000000000e+00 1.000000000000000000e+00 1.000000000000000000e+00 1.000000000000000000e+00 1.000000000000000000e+00 1.000000000000000000e+00 1.000000000000000000e+00 1.000000000000000000e+00 1.000000000000000000e+00 1.000000000000000000e+00 1.000000000000000000e+00 1.000000000000000000e+00 1.000000000000000000e+00 1.000000000000000000e+00 1.000000000000000000e+00 1.000000000000000000e+00 1.000000000000000000e+00 1.000000000000000000e+00 1.000000000000000000e+00 1.000000000000000000e+00 1.000000000000000000e+00 1.000000000000000000e+00 1.000000000000000000e+00 1.000000000000000000e+00 1.000000000000000000e+00 1.000000000000000000e+00 1.000000000000000000e+00 1.000000000000000000e+00 1.000000000000000000e+00 1.000000000000000000e+00 1.000000000000000000e+00 1.000000000000000000e+00 1.000000000000000000e+00 1.000000000000000000e+00 1.000000000000000000e+00 1.000000000000000000e+00 1.000000000000000000e+00 1.000000000000000000e+00 1.000000000000000000e+00 1.000000000000000000e+00 1.000000000000000000e+00 1.000000000000000000e+00 1.000000000000000000e+00 1.000000000000000000e+00 1.000000000000000000e+00 1.000000000000000000e+00 1.000000000000000000e+00 1.000000000000000000e+00 1.000000000000000000e+00 1.000000000000000000e+00 1.000000000000000000e+00 1.000000000000000000e+00 1.000000000000000000e+00 1.000000000000000000e+00 1.000000000000000000e+00 1.000000000000000000e+00 1.000000000000000000e+00 1.000000000000000000e+00 1.000000000000000000e+00 1.000000000000000000e+00 1.000000000000000000e+00 1.000000000000000000e+00 1.000000000000000000e+00 1.000000000000000000e+00 1.000000000000000000e+00 1.000000000000000000e+00 1.000000000000000000e+00 1.000000000000000000e+00 1.000000000000000000e+00 1.000000000000000000e+00 1.000000000000000000e+00 1.000000000000000000e+00 1.000000000000000000e+00 1.000000000000000000e+00 1.000000000000000000e+00 1.000000000000000000e+00 1.000000000000000000e+00 1.000000000000000000e+00 1.000000000000000000e+00 1.000000000000000000e+00 1.000000000000000000e+00 1.000000000000000000e+00 1.000000000000000000e+00 1.000000000000000000e+00 1.000000000000000000e+00 1.000000000000000000e+00 1.000000000000000000e+00 1.000000000000000000e+00 1.000000000000000000e+00 1.000000000000000000e+00 1.000000000000000000e+00 1.000000000000000000e+00 1.000000000000000000e+00 1.000000000000000000e+00 1.000000000000000000e+00 1.000000000000000000e+00 1.000000000000000000e+00 1.000000000000000000e+00 1.000000000000000000e+00 1.000000000000000000e+00 1.000000000000000000e+00 1.000000000000000000e+00 1.000000000000000000e+00 1.000000000000000000e+00 1.000000000000000000e+00 1.000000000000000000e+00 1.000000000000000000e+00 1.000000000000000000e+00 1.000000000000000000e+00 1.000000000000000000e+00 1.000000000000000000e+00 1.000000000000000000e+00 1.000000000000000000e+00 1.000000000000000000e+00 1.000000000000000000e+00 1.000000000000000000e+00 1.000000000000000000e+00 1.000000000000000000e+00 1.000000000000000000e+00 1.000000000000000000e+00 1.000000000000000000e+00 1.000000000000000000e+00 1.000000000000000000e+00 1.000000000000000000e+00 1.000000000000000000e+00 1.000000000000000000e+00 1.000000000000000000e+00 1.000000000000000000e+00 1.000000000000000000e+00 1.000000000000000000e+00 1.000000000000000000e+00 1.000000000000000000e+00 1.000000000000000000e+00 1.000000000000000000e+00 1.000000000000000000e+00 1.000000000000000000e+00 1.000000000000000000e+00 1.000000000000000000e+00 1.000000000000000000e+00 1.000000000000000000e+00 1.000000000000000000e+00 1.000000000000000000e+00 1.000000000000000000e+00 1.000000000000000000e+00 1.000000000000000000e+00 1.000000000000000000e+00 1.000000000000000000e+00 1.000000000000000000e+00 1.000000000000000000e+00 1.000000000000000000e+00 1.000000000000000000e+00 1.000000000000000000e+00 1.000000000000000000e+00 1.000000000000000000e+00 1.000000000000000000e+00 1.000000000000000000e+00 1.000000000000000000e+00 1.000000000000000000e+00 1.000000000000000000e+00 1.000000000000000000e+00 1.000000000000000000e+00 1.000000000000000000e+00 1.000000000000000000e+00 1.000000000000000000e+00 1.000000000000000000e+00 1.000000000000000000e+00 1.000000000000000000e+00 1.000000000000000000e+00 1.000000000000000000e+00 1.000000000000000000e+00 1.000000000000000000e+00 1.000000000000000000e+00 1.000000000000000000e+00 1.000000000000000000e+00 1.000000000000000000e+00 1.000000000000000000e+00 1.000000000000000000e+00 1.000000000000000000e+00 1.000000000000000000e+00 1.000000000000000000e+00 1.000000000000000000e+00 1.000000000000000000e+00 1.000000000000000000e+00 1.000000000000000000e+00 1.000000000000000000e+00 1.000000000000000000e+00 1.000000000000000000e+00 1.000000000000000000e+00 1.000000000000000000e+00 1.000000000000000000e+00 1.000000000000000000e+00 1.000000000000000000e+00 1.000000000000000000e+00 1.000000000000000000e+00 1.000000000000000000e+00 1.000000000000000000e+00 1.000000000000000000e+00 1.000000000000000000e+00 1.000000000000000000e+00 1.000000000000000000e+00 1.000000000000000000e+00 1.000000000000000000e+00 1.000000000000000000e+00 1.000000000000000000e+00 1.000000000000000000e+00 1.000000000000000000e+00 1.000000000000000000e+00 1.000000000000000000e+00 1.000000000000000000e+00 1.000000000000000000e+00 1.000000000000000000e+00 1.000000000000000000e+00 1.000000000000000000e+00 1.000000000000000000e+00 1.000000000000000000e+00 1.000000000000000000e+00 1.000000000000000000e+00 1.000000000000000000e+00 1.000000000000000000e+00 1.000000000000000000e+00 1.000000000000000000e+00 1.000000000000000000e+00 1.000000000000000000e+00 1.000000000000000000e+00 1.000000000000000000e+00 1.000000000000000000e+00 1.000000000000000000e+00 1.000000000000000000e+00 1.000000000000000000e+00 1.000000000000000000e+00 1.000000000000000000e+00 1.000000000000000000e+00 1.000000000000000000e+00 1.000000000000000000e+00 1.000000000000000000e+00 1.000000000000000000e+00 1.000000000000000000e+00 1.000000000000000000e+00 1.000000000000000000e+00 1.000000000000000000e+00 1.000000000000000000e+00 1.000000000000000000e+00 1.000000000000000000e+00 1.000000000000000000e+00 1.000000000000000000e+00 1.000000000000000000e+00 1.000000000000000000e+00 1.000000000000000000e+00 1.000000000000000000e+00 1.000000000000000000e+00 1.000000000000000000e+00 1.000000000000000000e+00 1.000000000000000000e+00 1.000000000000000000e+00 1.000000000000000000e+00 1.000000000000000000e+00 1.000000000000000000e+00 1.000000000000000000e+00 1.000000000000000000e+00 1.000000000000000000e+00 1.000000000000000000e+00 1.000000000000000000e+00 1.000000000000000000e+00 1.000000000000000000e+00 1.000000000000000000e+00 1.000000000000000000e+00 1.000000000000000000e+00 1.000000000000000000e+00 1.000000000000000000e+00 1.000000000000000000e+00 1.000000000000000000e+00 1.000000000000000000e+00 1.000000000000000000e+00 1.000000000000000000e+00 1.000000000000000000e+00 1.000000000000000000e+00 1.000000000000000000e+00 1.000000000000000000e+00 1.000000000000000000e+00 1.000000000000000000e+00 1.000000000000000000e+00 1.000000000000000000e+00 1.000000000000000000e+00 1.000000000000000000e+00 1.000000000000000000e+00 1.000000000000000000e+00 1.000000000000000000e+00 1.000000000000000000e+00 1.000000000000000000e+00 1.000000000000000000e+00 1.000000000000000000e+00 1.000000000000000000e+00 1.000000000000000000e+00 1.000000000000000000e+00 1.000000000000000000e+00 1.000000000000000000e+00 1.000000000000000000e+00 1.000000000000000000e+00 1.000000000000000000e+00 1.000000000000000000e+00 1.000000000000000000e+00 1.000000000000000000e+00 1.000000000000000000e+00 1.000000000000000000e+00 1.000000000000000000e+00 1.000000000000000000e+00 1.000000000000000000e+00 1.000000000000000000e+00 1.000000000000000000e+00 1.000000000000000000e+00 1.000000000000000000e+00 1.000000000000000000e+00 1.000000000000000000e+00 1.000000000000000000e+00 1.000000000000000000e+00 1.000000000000000000e+00 1.000000000000000000e+00 1.000000000000000000e+00 1.000000000000000000e+00 1.000000000000000000e+00 1.000000000000000000e+00 1.000000000000000000e+00 1.000000000000000000e+00 1.000000000000000000e+00 1.000000000000000000e+00 1.000000000000000000e+00 1.000000000000000000e+00 1.000000000000000000e+00 1.000000000000000000e+00 1.000000000000000000e+00 1.000000000000000000e+00 1.000000000000000000e+00 1.000000000000000000e+00 1.000000000000000000e+00 1.000000000000000000e+00 1.000000000000000000e+00 1.000000000000000000e+00 1.000000000000000000e+00 1.000000000000000000e+00 1.000000000000000000e+00 1.000000000000000000e+00 1.000000000000000000e+00 1.000000000000000000e+00 1.000000000000000000e+00 1.000000000000000000e+00 1.000000000000000000e+00 1.000000000000000000e+00 1.000000000000000000e+00 1.000000000000000000e+00 1.000000000000000000e+00 1.000000000000000000e+00 1.000000000000000000e+00 1.000000000000000000e+00 1.000000000000000000e+00 1.000000000000000000e+00 1.000000000000000000e+00 1.000000000000000000e+00 1.000000000000000000e+00 1.000000000000000000e+00 1.000000000000000000e+00 1.000000000000000000e+00 1.000000000000000000e+00 1.000000000000000000e+00 1.000000000000000000e+00 1.000000000000000000e+00 1.000000000000000000e+00 1.000000000000000000e+00 1.000000000000000000e+00 1.000000000000000000e+00 1.000000000000000000e+00 1.000000000000000000e+00 1.000000000000000000e+00 1.000000000000000000e+00 1.000000000000000000e+00 1.000000000000000000e+00 1.000000000000000000e+00 1.000000000000000000e+00 1.000000000000000000e+00 1.000000000000000000e+00 1.000000000000000000e+00 1.000000000000000000e+00 1.000000000000000000e+00 1.000000000000000000e+00 1.000000000000000000e+00 1.000000000000000000e+00 1.000000000000000000e+00 1.000000000000000000e+00 1.000000000000000000e+00 1.000000000000000000e+00 1.000000000000000000e+00 1.000000000000000000e+00 1.000000000000000000e+00 1.000000000000000000e+00 1.000000000000000000e+00 1.000000000000000000e+00 1.000000000000000000e+00 1.000000000000000000e+00 1.000000000000000000e+00 1.000000000000000000e+00 1.000000000000000000e+00 1.000000000000000000e+00 1.000000000000000000e+00 1.000000000000000000e+00 1.000000000000000000e+00 1.000000000000000000e+00 1.000000000000000000e+00 1.000000000000000000e+00 1.000000000000000000e+00 1.000000000000000000e+00 1.000000000000000000e+00 1.000000000000000000e+00 1.000000000000000000e+00 1.000000000000000000e+00 1.000000000000000000e+00 1.000000000000000000e+00 1.000000000000000000e+00 1.000000000000000000e+00 1.000000000000000000e+00 1.000000000000000000e+00 1.000000000000000000e+00 1.000000000000000000e+00 1.000000000000000000e+00 1.000000000000000000e+00 1.000000000000000000e+00 1.000000000000000000e+00 1.000000000000000000e+00 1.000000000000000000e+00 1.000000000000000000e+00 1.000000000000000000e+00 1.000000000000000000e+00 1.000000000000000000e+00 1.000000000000000000e+00 1.000000000000000000e+00 1.000000000000000000e+00 1.000000000000000000e+00 1.000000000000000000e+00 1.000000000000000000e+00 1.000000000000000000e+00 1.000000000000000000e+00 1.000000000000000000e+00 1.000000000000000000e+00 1.000000000000000000e+00 1.000000000000000000e+00 1.000000000000000000e+00 1.000000000000000000e+00 1.000000000000000000e+00 1.000000000000000000e+00 1.000000000000000000e+00 1.000000000000000000e+00 1.000000000000000000e+00 1.000000000000000000e+00 1.000000000000000000e+00 1.000000000000000000e+00 1.000000000000000000e+00 1.000000000000000000e+00 1.000000000000000000e+00 1.000000000000000000e+00 1.000000000000000000e+00 1.000000000000000000e+00 1.000000000000000000e+00 1.000000000000000000e+00 1.000000000000000000e+00 1.000000000000000000e+00 1.000000000000000000e+00 1.000000000000000000e+00 1.000000000000000000e+00 1.000000000000000000e+00 1.000000000000000000e+00 1.000000000000000000e+00 1.000000000000000000e+00 1.000000000000000000e+00 1.000000000000000000e+00 1.000000000000000000e+00 1.000000000000000000e+00 1.000000000000000000e+00 1.000000000000000000e+00 1.000000000000000000e+00 1.000000000000000000e+00 1.000000000000000000e+00 1.000000000000000000e+00 1.000000000000000000e+00 1.000000000000000000e+00 1.000000000000000000e+00 1.000000000000000000e+00 1.000000000000000000e+00 1.000000000000000000e+00 1.000000000000000000e+00 1.000000000000000000e+00 1.000000000000000000e+00 1.000000000000000000e+00 1.000000000000000000e+00 1.000000000000000000e+00 1.000000000000000000e+00 1.000000000000000000e+00 1.000000000000000000e+00 1.000000000000000000e+00 1.000000000000000000e+00 1.000000000000000000e+00 1.000000000000000000e+00 1.000000000000000000e+00 1.000000000000000000e+00 1.000000000000000000e+00 1.000000000000000000e+00 1.000000000000000000e+00 1.000000000000000000e+00 1.000000000000000000e+00 1.000000000000000000e+00 1.000000000000000000e+00 1.000000000000000000e+00 1.000000000000000000e+00 1.000000000000000000e+00 1.000000000000000000e+00 1.000000000000000000e+00 1.000000000000000000e+00 1.000000000000000000e+00 1.000000000000000000e+00 1.000000000000000000e+00 1.000000000000000000e+00 1.000000000000000000e+00 1.000000000000000000e+00 1.000000000000000000e+00 1.000000000000000000e+00 1.000000000000000000e+00 1.000000000000000000e+00 1.000000000000000000e+00 1.000000000000000000e+00 1.000000000000000000e+00 1.000000000000000000e+00 1.000000000000000000e+00 1.000000000000000000e+00 1.000000000000000000e+00 1.000000000000000000e+00 1.000000000000000000e+00 1.000000000000000000e+00 1.000000000000000000e+00 1.000000000000000000e+00 1.000000000000000000e+00 1.000000000000000000e+00 1.000000000000000000e+00 1.000000000000000000e+00 1.000000000000000000e+00 1.000000000000000000e+00 1.000000000000000000e+00 1.000000000000000000e+00 1.000000000000000000e+00 1.000000000000000000e+00 1.000000000000000000e+00 1.000000000000000000e+00 1.000000000000000000e+00 1.000000000000000000e+00 1.000000000000000000e+00 1.000000000000000000e+00 1.000000000000000000e+00 1.000000000000000000e+00 1.000000000000000000e+00 1.000000000000000000e+00 1.000000000000000000e+00 1.000000000000000000e+00 1.000000000000000000e+00 1.000000000000000000e+00 1.000000000000000000e+00 1.000000000000000000e+00 1.000000000000000000e+00 1.000000000000000000e+00 1.000000000000000000e+00 1.000000000000000000e+00 1.000000000000000000e+00 1.000000000000000000e+00 1.000000000000000000e+00 1.000000000000000000e+00 1.000000000000000000e+00 1.000000000000000000e+00 1.000000000000000000e+00 1.000000000000000000e+00 1.000000000000000000e+00 1.000000000000000000e+00 1.000000000000000000e+00 1.000000000000000000e+00 1.000000000000000000e+00 1.000000000000000000e+00 1.000000000000000000e+00 1.000000000000000000e+00 1.000000000000000000e+00 1.000000000000000000e+00 1.000000000000000000e+00 1.000000000000000000e+00 1.000000000000000000e+00 1.000000000000000000e+00 1.000000000000000000e+00 1.000000000000000000e+00 1.000000000000000000e+00 1.000000000000000000e+00 1.000000000000000000e+00 1.000000000000000000e+00 1.000000000000000000e+00 1.000000000000000000e+00 1.000000000000000000e+00 1.000000000000000000e+00 1.000000000000000000e+00 1.000000000000000000e+00 1.000000000000000000e+00 1.000000000000000000e+00 1.000000000000000000e+00 1.000000000000000000e+00 1.000000000000000000e+00 1.000000000000000000e+00 1.000000000000000000e+00 1.000000000000000000e+00 1.000000000000000000e+00 1.000000000000000000e+00 1.000000000000000000e+00 1.000000000000000000e+00 1.000000000000000000e+00 1.000000000000000000e+00 1.000000000000000000e+00 1.000000000000000000e+00 1.000000000000000000e+00 1.000000000000000000e+00 1.000000000000000000e+00 1.000000000000000000e+00 1.000000000000000000e+00 1.000000000000000000e+00 1.000000000000000000e+00 1.000000000000000000e+00 1.000000000000000000e+00 1.000000000000000000e+00 1.000000000000000000e+00 1.000000000000000000e+00 1.000000000000000000e+00 1.000000000000000000e+00 1.000000000000000000e+00 1.000000000000000000e+00 1.000000000000000000e+00 1.000000000000000000e+00 1.000000000000000000e+00 1.000000000000000000e+00 1.000000000000000000e+00 1.000000000000000000e+00 1.000000000000000000e+00 1.000000000000000000e+00 1.000000000000000000e+00 1.000000000000000000e+00 1.000000000000000000e+00 1.000000000000000000e+00 1.000000000000000000e+00 1.000000000000000000e+00 1.000000000000000000e+00 1.000000000000000000e+00 1.000000000000000000e+00 1.000000000000000000e+00 1.000000000000000000e+00 1.000000000000000000e+00 1.000000000000000000e+00 1.000000000000000000e+00 1.000000000000000000e+00 1.000000000000000000e+00 1.000000000000000000e+00 1.000000000000000000e+00 1.000000000000000000e+00 1.000000000000000000e+00 1.000000000000000000e+00 1.000000000000000000e+00 1.000000000000000000e+00 1.000000000000000000e+00 1.000000000000000000e+00 1.000000000000000000e+00 1.000000000000000000e+00 1.000000000000000000e+00 1.000000000000000000e+00 1.000000000000000000e+00 1.000000000000000000e+00 1.000000000000000000e+00 1.000000000000000000e+00 1.000000000000000000e+00 1.000000000000000000e+00 1.000000000000000000e+00 1.000000000000000000e+00 1.000000000000000000e+00 1.000000000000000000e+00 1.000000000000000000e+00 1.000000000000000000e+00 1.000000000000000000e+00 1.000000000000000000e+00 1.000000000000000000e+00 1.000000000000000000e+00 1.000000000000000000e+00 1.000000000000000000e+00 1.000000000000000000e+00 1.000000000000000000e+00 1.000000000000000000e+00 1.000000000000000000e+00 1.000000000000000000e+00 1.000000000000000000e+00 1.000000000000000000e+00 1.000000000000000000e+00 1.000000000000000000e+00 1.000000000000000000e+00 1.000000000000000000e+00 1.000000000000000000e+00 1.000000000000000000e+00 1.000000000000000000e+00 1.000000000000000000e+00 1.000000000000000000e+00 1.000000000000000000e+00 1.000000000000000000e+00 1.000000000000000000e+00 1.000000000000000000e+00 1.000000000000000000e+00 1.000000000000000000e+00 1.000000000000000000e+00 1.000000000000000000e+00 1.000000000000000000e+00 1.000000000000000000e+00 1.000000000000000000e+00 1.000000000000000000e+00 1.000000000000000000e+00 1.000000000000000000e+00 1.000000000000000000e+00 1.000000000000000000e+00 1.000000000000000000e+00 1.000000000000000000e+00 1.000000000000000000e+00 1.000000000000000000e+00 1.000000000000000000e+00 1.000000000000000000e+00 1.000000000000000000e+00 1.000000000000000000e+00 1.000000000000000000e+00 1.000000000000000000e+00 1.000000000000000000e+00 1.000000000000000000e+00 1.000000000000000000e+00 1.000000000000000000e+00 1.000000000000000000e+00 1.000000000000000000e+00 1.000000000000000000e+00 1.000000000000000000e+00 1.000000000000000000e+00 1.000000000000000000e+00 1.000000000000000000e+00 1.000000000000000000e+00 1.000000000000000000e+00 1.000000000000000000e+00 1.000000000000000000e+00 1.000000000000000000e+00 1.000000000000000000e+00 1.000000000000000000e+00 1.000000000000000000e+00 1.000000000000000000e+00 1.000000000000000000e+00 1.000000000000000000e+00 1.000000000000000000e+00 1.000000000000000000e+00 1.000000000000000000e+00 1.000000000000000000e+00 1.000000000000000000e+00 1.000000000000000000e+00 1.000000000000000000e+00 1.000000000000000000e+00 1.000000000000000000e+00 1.000000000000000000e+00 1.000000000000000000e+00 1.000000000000000000e+00 1.000000000000000000e+00 1.000000000000000000e+00 1.000000000000000000e+00 1.000000000000000000e+00 1.000000000000000000e+00 1.000000000000000000e+00 1.000000000000000000e+00 1.000000000000000000e+00 1.000000000000000000e+00 1.000000000000000000e+00 1.000000000000000000e+00 1.000000000000000000e+00 1.000000000000000000e+00 1.000000000000000000e+00 1.000000000000000000e+00 1.000000000000000000e+00 1.000000000000000000e+00 1.000000000000000000e+00 1.000000000000000000e+00 1.000000000000000000e+00 1.000000000000000000e+00 1.000000000000000000e+00 1.000000000000000000e+00 1.000000000000000000e+00 1.000000000000000000e+00 1.000000000000000000e+00 1.000000000000000000e+00 1.000000000000000000e+00 1.000000000000000000e+00 1.000000000000000000e+00 1.000000000000000000e+00 1.000000000000000000e+00 1.000000000000000000e+00 1.000000000000000000e+00 1.000000000000000000e+00 1.000000000000000000e+00 1.000000000000000000e+00 1.000000000000000000e+00 1.000000000000000000e+00 1.000000000000000000e+00 1.000000000000000000e+00 1.000000000000000000e+00 1.000000000000000000e+00 1.000000000000000000e+00 1.000000000000000000e+00 1.000000000000000000e+00 1.000000000000000000e+00 1.000000000000000000e+00 1.000000000000000000e+00 1.000000000000000000e+00 1.000000000000000000e+00 1.000000000000000000e+00 1.000000000000000000e+00 1.000000000000000000e+00 1.000000000000000000e+00 1.000000000000000000e+00 1.000000000000000000e+00 1.000000000000000000e+00 1.000000000000000000e+00 1.000000000000000000e+00 1.000000000000000000e+00 1.000000000000000000e+00 1.000000000000000000e+00 1.000000000000000000e+00 1.000000000000000000e+00 1.000000000000000000e+00 1.000000000000000000e+00 1.000000000000000000e+00 1.000000000000000000e+00 1.000000000000000000e+00 1.000000000000000000e+00 1.000000000000000000e+00 1.000000000000000000e+00 1.000000000000000000e+00 1.000000000000000000e+00 1.000000000000000000e+00 1.000000000000000000e+00 1.000000000000000000e+00 1.000000000000000000e+00 1.000000000000000000e+00 1.000000000000000000e+00 1.000000000000000000e+00 1.000000000000000000e+00 1.000000000000000000e+00 1.000000000000000000e+00 1.000000000000000000e+00 1.000000000000000000e+00 1.000000000000000000e+00 1.000000000000000000e+00 1.000000000000000000e+00 1.000000000000000000e+00 1.000000000000000000e+00 1.000000000000000000e+00 1.000000000000000000e+00 1.000000000000000000e+00 1.000000000000000000e+00 1.000000000000000000e+00 1.000000000000000000e+00 1.000000000000000000e+00 1.000000000000000000e+00 1.000000000000000000e+00 1.000000000000000000e+00 1.000000000000000000e+00 1.000000000000000000e+00 1.000000000000000000e+00 1.000000000000000000e+00 1.000000000000000000e+00 1.000000000000000000e+00 1.000000000000000000e+00 1.000000000000000000e+00 1.000000000000000000e+00 1.000000000000000000e+00 1.000000000000000000e+00 1.000000000000000000e+00 1.000000000000000000e+00 1.000000000000000000e+00 1.000000000000000000e+00 1.000000000000000000e+00 1.000000000000000000e+00 1.000000000000000000e+00 1.000000000000000000e+00 1.000000000000000000e+00 1.000000000000000000e+00 1.000000000000000000e+00 1.000000000000000000e+00 1.000000000000000000e+00 1.000000000000000000e+00 1.000000000000000000e+00 1.000000000000000000e+00 1.000000000000000000e+00 1.000000000000000000e+00 1.000000000000000000e+00 1.000000000000000000e+00 1.000000000000000000e+00 1.000000000000000000e+00 1.000000000000000000e+00 1.000000000000000000e+00 1.000000000000000000e+00 1.000000000000000000e+00 1.000000000000000000e+00 1.000000000000000000e+00 1.000000000000000000e+00 1.000000000000000000e+00 1.000000000000000000e+00 1.000000000000000000e+00 1.000000000000000000e+00 1.000000000000000000e+00 1.000000000000000000e+00 1.000000000000000000e+00 1.000000000000000000e+00 1.000000000000000000e+00 1.000000000000000000e+00 1.000000000000000000e+00 1.000000000000000000e+00 1.000000000000000000e+00 1.000000000000000000e+00 1.000000000000000000e+00 1.000000000000000000e+00 1.000000000000000000e+00 1.000000000000000000e+00 1.000000000000000000e+00 1.000000000000000000e+00 1.000000000000000000e+00 1.000000000000000000e+00 1.000000000000000000e+00 1.000000000000000000e+00 1.000000000000000000e+00
-6.342359901445463084e-03 5.497885333136557362e-01 -1.833944751262658879e-01 7.119278767607946090e-01 5.154593956738868776e-01 5.915100786376437103e-01 6.504853024568476583e-01 2.466062234537537978e-01 5.191228912427805486e-01 5.078858713105883771e-01 1.074746514658263763e+00 -6.606015288074658098e-01 1.385296886262845417e+00 4.434739524830920709e-01 5.085972771506347412e-01 4.102534525709334856e-01 9.202193071828388415e-01 9.672560874209966686e-01 6.391731086787638683e-01 5.193271867778781470e-01 4.511171682663646099e-01 9.731510275105109686e-01 5.153808814936142735e-01 4.676976415003462617e-01 1.231487679222260517e-01 6.880718113448496265e-01 3.571293794801559396e-01 5.427069182816112169e-01 5.272291038974235011e-01 1.523183379334862142e+00 5.379872703833986636e-01 6.137612241771169819e-01 7.216359693576179790e-01 4.913223247964035867e-01 7.171784628346904444e-01 4.562935250104638851e-01 5.697925217147700172e-01 1.719967411738124730e+00 -6.029359774797109911e-02 4.933406308195553147e-01 -1.225032920522626384e-01 -5.576887226673178377e-01 7.516585897152229245e-01 2.220723704290041567e-01 2.585913388697700932e-01 5.178752396040396944e-01 7.122036056962202100e-01 5.233732397370980394e-01 5.345227748350175334e-01 2.770739632139487471e-02 1.400686950309502216e-02 8.516230053780033948e-01 6.664040031995223101e-01 4.919032305187374110e-01 4.495530275124110520e-01 1.291454938220210590e-02 4.979806185857445500e-01 5.490108253042098596e-01 1.833751770529967462e-01 4.958065964769940992e-01 9.061399046422996539e-01 5.572032327136029473e-01 4.618125278882577178e-01 5.153809197326305602e-01 6.836056765422419135e-01 5.029828795156615628e-01 5.108773925858114406e-01 2.793699192324439196e-01 5.266747528981806648e-01 -1.202452611930642998e-02 4.065653100408728737e-01 4.573412564368206645e-01 5.239664653626252555e-01 4.373884450597386592e-02 1.486901711860671993e+00 5.602946935012541596e-01 6.309998969971859495e-01 7.461744894355427649e-01 5.131495553533799159e-01 1.377242142093833888e+00 5.427437197001975244e-01 2.767536497219319491e-01 1.356916399356256964e+00 6.535829720455769154e-01 4.885885834871531164e-01 7.583017458728963378e-01 8.179824534797093261e-01 5.350783855568620462e-01 4.008256156785507396e-01 5.752104001413487211e-01 2.592803721452372478e-01 2.119626421459882337e+00 6.967742029265837633e-01 -6.281524321487728935e-02 5.487266155943991697e-01 6.024547862547118271e-01 5.123245287042418328e-01 4.699959397173036901e-01 1.896021502664465286e-01 6.956352892735154780e-01 1.564799162655250209e+00 6.858107665029228306e-01 5.350799662118286282e-01 7.948706989426358449e-01 8.569068135230525352e-01 -1.986976979371730456e+00 -1.183593410044909255e+00 5.503100353343489681e-01 5.402070724116777578e-01 9.734025120533600361e-01 5.141321192928417494e-01 4.897410973402963053e-01 1.679718218768488924e-01 4.660060128116549905e-01 5.157376963556112859e-01 5.199392488334100282e-01 5.244352596781701736e-01 5.468461940298041668e-01 8.483998554347627064e-01 5.172886945603347719e-01 1.287125402774794924e+00 5.661766055594671387e-01 5.202878619730861853e-01 -3.272965300642076691e-01 5.106646703663593190e-01 1.913684135038428158e+00 5.491288882947060745e-01 4.643114063316192697e-01 6.860123171878993453e-01 5.019831749473792071e-01 5.639295046254017008e-01 5.160971463221111222e-01 4.075445387365119188e-01 2.429999054094426902e-01 -1.898436012087520441e-01 -1.502736502852429490e-01 6.095688983920261039e-01 3.402433190185691347e-02 9.885410911805218026e-01 6.881008660850240766e-01 4.873261150203845316e-01 8.535747851152073462e-01 6.562825134724881160e-01 5.892726603300071364e-01 5.071979340877847964e-01 1.552160886898560840e-02 8.511711149393971221e-01 1.468329247120093162e-01 4.873547077204609668e-01 -8.505834364608946263e-01 7.815745825535591607e-01 -3.000005348406267758e-01 5.178752280531674357e-01 5.204578685247371883e-01 5.137833384390538827e-01 5.203483236863820638e-01 1.849401451267457031e+00 -4.205323400839632020e-02 8.059889231687471511e-01 6.997172269158439262e-01 5.080726247241317273e-01 4.338449012916553160e-01 5.033408393395768510e-01 5.082884605224322616e-01 1.093714523121819271e+00 1.353085377382744758e-01 8.422978067026698490e-01 4.630277435718567203e-01 6.112224226435577501e-01 5.867813215437689411e-01 4.164487533002184105e-01 7.107932913729334556e-01 5.178644977371001934e-01 5.062705536675863316e-01 4.068468224857322846e-01 1.441041024702744561e-02 1.724112351959178058e-01 7.284350839683685630e-02 7.357101679046543774e-01 1.139057484596380121e+00 7.211876968906213436e-01 5.025932491975223515e-01 -1.886704877847882045e-01 4.748705993725671481e-01 6.805805253064470817e-01 5.210154133140277866e-01 5.262328565313580953e-01 5.077459078862150976e-01 2.708106346144106169e+00 5.212025903733153998e-01 5.031125264708982137e-01 -8.523429354401416136e-01 5.144529373663909722e-01 5.706947036152778541e-01 1.752645854262590563e-01 5.080682837582513045e-01 9.227783070811653721e-01 5.205831821602592280e-01 6.981090526098677751e-01 4.278405447158750152e-01 6.092897312151550615e-01 5.467642437849081771e-01 9.761175665451495842e-01 5.990406184987009386e-01 5.432592850466164691e-01 6.981090515363663762e-01 3.018409901816793139e-01 1.273990841242130356e+00 5.213526009492299718e-01 3.487802715222170225e-01 4.506302226243892317e-01 -5.845370327240476810e-02 4.685315721235341901e-01 1.657256456609199347e-01 5.254362454905334712e-01 5.104441068337631782e-01 5.146497187468133117e-01 5.261180326818443165e-01 5.099532439977439990e-01 5.058556861528697990e-01 4.581585390597830432e-01 6.138473565034240353e-01 -6.892765573759652709e-01 5.540068297068828640e-01 3.020438463158382492e-01 4.086805622301948326e-01 1.790359238178131918e-01 1.264820392255143755e+00 9.447267934934227007e-01 5.035533452534869392e-01 -1.049760286632995532e-01 1.042435427594256891e+00 5.131165079547147512e-01 4.588903485489337908e-01 4.417511445299386330e-01 4.192813695058901224e-01 4.472091777187342521e-01 2.057035771196049911e-01 -1.418782440765650188e-01 -1.284099951337570600e-01 2.945800512440411856e-01 5.089385405650881378e-01 -9.477114696401084393e-02 4.943414574593163469e-01 5.188877952978897534e-01 4.457860821446280597e-01 -1.061734405398550990e-01 7.396326116518080473e-01 -2.173685483173329658e+00 5.789941222487446915e-01 -5.252209711601345532e-01 4.960449795800872530e-01 5.136639906943635259e-01 5.153810204857592892e-01 4.765757675839378260e-01 5.206995096765807407e-01 5.103627710280519425e-01 7.225394348938178890e-01 5.319700747165243548e-01 1.677698746749362702e+00 6.690355436763620878e-01 6.982002495374993734e-01 5.203355992474021363e-01 3.539027693792869411e-01 9.061399121672837342e-01 3.675639740036540926e-01 2.603747943347916483e+00 5.715445850083841206e-01 2.463892064190123243e-01 6.619539217153802557e-01 4.995189387815284765e-01 9.057103141127299528e-01 5.059687867242521619e-01 5.226690347358700084e-01 5.113695867536780515e-01 1.041999303647043851e+00 7.565523394634671162e-01 8.686583473039795056e-01 8.128253140519061670e-01 3.176922024337669459e-01 6.724023721297597289e-01 5.667737234224335952e-01 4.006626864139857247e-01 -6.900850183762725631e-01 3.802342126360078733e-01 7.143144326936465838e-01 5.413194492103327038e-01 5.102688158928631035e-01 5.199392486243381573e-01 6.059732905801794578e-01 5.320494222494953629e-01 -7.399704409983400843e-01 6.738845314447046153e-01 5.124648829232598679e-01 5.996948403898277880e-02 5.299127350270993464e-01 1.836899981169062279e+00 4.906240743294290607e-01 5.076733562813604550e-01 4.873561172195888802e-01 -3.307464803566251277e+00 5.109640814341419590e-01 2.660487312144575345e+00 7.110553388734990321e-01 4.999746650131541847e-01 -5.833260713491320582e-01 5.123717689892971494e-01 5.126501101074948386e-01 4.318333065088054701e-01 4.689781250315859240e-01 3.928520150649556508e-01 6.328328851748823425e-01 3.151316442515607052e-01 5.157575352677492564e-01 5.224922712802105851e-01 3.786907456322547993e-01 4.981172858512386004e-01 7.112319999862837250e-01 5.075753130948833514e-01 1.182596155042185293e+00 1.668834115236804069e-02 2.193130257590688359e+00 2.583252415329011065e+00 5.644015799781760823e-01 -1.879181016103350366e-01 4.997427888149896247e-01 4.070426443637428782e-01 7.173165887063851498e-01 1.352379235840906135e+00 5.400127839610310287e-01 1.113612221499692412e+00 5.080214178535638059e-01 1.318552274664506196e-01 1.239199694560091380e+00 3.775214159165506400e-01 4.957500856490510976e-01 5.474872636314143115e-01 8.585877537670391080e-01 -3.566216095842734468e+00 1.600877805515508179e+00 5.475232262789234694e-01 6.405744054553891287e-01 5.051384927319292339e-01 1.719967403666508687e+00 3.135747989428176452e-01 5.295102984678961011e-01 4.732724191939002845e-01 4.287379498917249232e-01 1.384630660549516223e+00 6.378630345977676086e-01 6.981090528767471826e-01 4.943399871065483064e-01 5.990406186278740552e-01 6.734077244679360641e-01 5.569711227346717530e-01 8.853408724418515563e-01 5.097326915189346330e-01 4.020339470175370855e-01 2.557161548950635521e-01 6.311419900141314043e-01 5.163340753808531858e-01 5.010912717489047763e-01 5.295103015198853180e-01 6.564665171003090105e-01 5.049823967654162304e-01 9.775964505887820843e-01 1.013013115007272313e+00 1.110240740252131264e+00 5.281069594159563119e-01 2.539113463553167582e-01 9.061403075550865660e-01 -1.085051245385958013e-01 9.326448804408363769e-01 6.257758402403384990e-01 1.577129594959997966e-02 5.369746648587674365e-01 1.014972048223223400e+00 3.945985484385837738e-01 5.398165646690088471e-01 2.605715492003196632e-01 -3.266590380166449759e-01 -2.391394928144706000e+00 4.629381289237133879e-01 5.990406184319435612e-01 5.990405868205687101e-01 5.204971135425835449e-01 4.842777666292626404e-01 -1.980052834813857687e-01 3.535170664990931466e-01 4.990513293229666414e-01 6.146924693406358164e-01 5.083732002110565862e-01 1.069028371987610360e+00 6.981089263888130558e-01 5.131649087601229953e-01 4.666698241719504092e-01 2.660589776727630418e-01 6.428420859927281850e-01 5.297044225221920755e-01 5.179471619918298853e-01 5.637532629602638456e-01 2.627687679167265977e-01 2.904392853865789617e-02 5.990406186551894274e-01 6.536234358732757599e-01 5.079841766876362907e-01 4.678004192684986906e-01 8.561716837495720878e-01 6.210826588081128641e-01 5.626112047807138028e-01 1.783083437538326654e+00 5.303473096665093367e-01 -2.921991191933340115e+00 7.123717902529580481e-01 1.489733276877185819e+00 5.313767889878756590e-01 -1.019152740022838399e+00 6.712152750791369193e-01 4.854744481485960272e-01 5.105422812164351898e-01 5.432232059055014384e-01 -2.319958100979881976e-01 5.161257603489999291e-01 1.060435659710872391e+00 6.412426766275668433e-01 -3.004538416658455446e-01 5.262131670321048560e-01 5.022591847627194683e-01 7.595949681363499684e-01 5.204705852902827834e-01 5.016696073721005344e-01 -4.918669480051124920e-01 5.615122159272716296e-01 5.155105597310543075e-01 7.257374171893200554e-01 5.154704813918459250e-01 7.626733519066577482e-01 5.046830976989594708e-01 5.540920548275809487e-01 7.560982517741032805e-01 5.507844507133279333e-01 3.654436268219775075e-01 2.528271446738030725e-01 3.001380962936885943e-01 9.487912272620726561e-01 5.421646801520985104e-01 3.126543818733026558e+00 6.606018516044850353e-01 5.815047742156995714e-01 5.631231969842300789e-01 6.473512901825299037e-01 2.685884050572296886e-02 4.814378336406978098e-01 6.046060479020527456e-01 5.162223175203360936e-01 1.166579534450728595e+00 7.627874596343342528e-01 5.226835366669558836e-01 4.574065624106916084e-01 1.112138509707107259e+00 5.179837916052855151e-01 5.194926796535860314e-01 5.156697640111270742e-01 6.777833714161769496e-01 5.130663123516796542e-01 9.111410406399093054e-01 4.700857815150740748e-01 5.094255054017583495e-01 1.555066974222861498e-02 5.383483428926458814e-01 4.513857416860853067e-02 3.821599634045997895e-01 4.255659538141088882e-01 5.377027605364261831e-01 7.670586369267369253e-01 4.964236587274766244e-01 4.073796200356985531e-01 3.456433775704897265e-02 5.795562334986384956e-01 5.317461781139231070e-01 5.307503126588708486e-01 3.934858102150060044e-02 5.156787660195580880e-01 2.506013349303311544e-01 5.131270233342657416e-01 4.435620649098723778e-01 1.244855878354476975e+00 7.948619812843734644e-01 5.056406982224818103e-01 2.874814093739420651e-01 5.797574350015687328e-01 4.149854049782369936e-01 9.819021878318117125e-01 5.654476248261344207e-01 5.014100952009767909e-01 6.786281829257375664e-01 1.949462256395127380e+00 4.537203321132318723e-01 3.970129795038643272e-01 5.137437088814196251e-01 6.735584021911927843e-01 4.362315117738240211e-01 8.111223535630874837e-01 -5.565682858846536796e-01 3.081089672301756122e-01 5.568620076805002039e-01 4.505516845119332814e-01 3.828400403726535672e-01 -5.873276234218015590e-01 3.917057212731433480e-01 5.150641191130268526e-01 7.385128106830119998e-01 6.622357141327378516e-01 1.385614885576483379e+00 5.096984671060053040e-01 5.215436117890711598e-01 -6.664331028503579502e-01 4.891958298330036370e-01 1.185657385855274137e+00 6.846115482298954502e-01 2.435739318687396293e-01 2.971682599663807989e-01 -1.499400912182337731e+00 4.913602374140018103e-01 1.999923962775870256e-01 1.087178949473643241e+00 8.097310437330313970e-01 5.169690277216963947e-01 5.061069974249714498e-01 6.014838437682785699e-01 7.122451909456458674e-01 4.876216227174773321e-01 5.679850639377778121e-01 2.650560288867774214e-02 5.395819770711247632e-01 6.148617349848070068e-01 6.751240591492758680e-01 4.921071468249549330e-01 5.978453106187728849e-01 1.169603497488377553e+00 -1.126860940439584624e-01 -2.217875700015187745e-01 4.759525979522093442e-01 5.414674956721062804e-01 5.652160402405642659e-01 5.224542436751636876e-01 -8.161442609766010881e-01 3.091275618451678753e+00 5.897935950454387122e-01 4.662149637325126994e-01 4.171888431242858908e-01 5.135721770898855620e-01 5.185573503491147651e-01 6.526046488559331671e-01 3.293135532126841847e-01 5.690061155132983828e-01 5.157543037674268138e-01 6.670135491248859738e-01 3.877555398222987115e-01 5.797477255568145305e-01 5.213588850442998357e-01 4.065543392158929015e-01 4.547362218997476613e-01 5.352767173312868998e-01 6.338741660412052781e-01 9.924377199398408678e-01 2.275360616363740984e+00 5.931805952853336228e-01 4.924903848963436137e-01 5.676027161811190158e-01 5.471153343733518026e-01 3.655962360791873422e-01 5.074236201252607659e-01 5.138682550168383045e-01 5.627211370064957308e-01 5.040355372093443531e-01 5.004592127795579604e-01 7.117764546625705568e-01 3.724611510844651474e-01 6.086596650089125538e-01 5.564054015727284419e-01 5.987918688076002693e-01 1.309019447195913510e-01 9.061399046703962901e-01 5.363266768682749541e-01 1.627743201663401362e-01 1.904596455819334455e+00 2.589213323825772517e-01 4.892588617825773256e-01 5.816286086722516346e-01 5.914155874493828152e-02 5.527106042281565434e-01 1.488480650513172909e+00 7.323977696489205602e-01 8.053728249256354443e-01 5.135742529444514703e-01 5.321162863360798800e-01 5.215971148230388321e-01 5.867838870042816346e-01 5.223225685129150309e-01 5.132633503969923350e-01 -1.293009477868189983e-01 6.076067747829155818e-01 -1.313417698121177368e+00 5.368786276988057882e-01 4.862189279918461837e-01 5.465807377706072279e-01 4.873642386630496759e-01 9.061399045838393063e-01 2.325478320937458543e-01 5.662460288424574495e-01 1.294900148987158106e+00 -5.201774900691777948e-01 5.051648623076225864e-01 1.105790206439135615e+00 1.454385727822110175e+00 3.685644648640144516e-01 5.046254523666260372e-01 -3.945524110447370947e-02 -1.618217464485107948e+00 2.872494616831609004e-01 6.959342292091403870e-01 5.271942619922971307e-01 5.130439217626014958e-01 4.565414940131636845e-01 4.902218674664474696e-01 -3.791502464270684603e-01 8.039906270762494644e-01 5.199392553680672879e-01 3.514388294932072054e-01 5.295435157310944829e-01 -2.890654122729003836e-02 -1.781465950995184400e-01 1.732276083973276037e+00 4.185148185937053178e-01 4.221133458061501198e-01 5.067162802161568891e-01 3.352483655590854372e-01 6.287334143840689338e-01 1.272719816511460461e-02 -9.162982425352785842e-01 5.115701878958794913e-01 5.109861503695171114e-01 4.624582595246816696e-01 5.609576313779816026e-01 5.472295538879166088e-01 5.393342052218410565e-01 5.163436441864929227e-01 5.842807128117591953e-01 1.019774391861064666e+00 7.289716364695334461e-01 5.474189047408632991e-01 5.260941803697329888e-01 5.009977324574014235e-01 4.386479562136739174e-01 -4.926962375702146485e-03 5.295103013922938251e-01 5.829669920496173274e-01 4.635641380476908657e-01 7.317709269791506932e-01 9.934707867379299895e-01 8.111063064437166181e-01 -4.473279261422518638e-01 5.470584260385515929e-01 5.551106346235686884e-01 5.053172712406813760e-01 5.616946098847073188e-01 8.899272295879341321e-01 5.395698266733873760e-01 4.981294908716296654e-01 -1.760326954937959099e-01 -8.229848305681609633e-01 2.225191761695079595e+00 5.288939679322044451e-01 8.828079611325284626e-01 5.096657478143948872e-01 5.620059079588030082e-01 3.526930332330397988e-01 1.482090810597439523e-01 5.120319268736340801e-01 5.333318925967752699e-01 8.780148680864956201e-03 5.115881881934750686e-01 4.269415243395365822e-01 5.208307516438740459e-01 7.831932108256939307e-01 4.952618600178446684e-01 5.753091681329345342e-01 3.781947073493930889e-01 5.719423737318746204e-01 3.244689723805791459e-01 5.138918954837483621e-01 4.794870662782522164e-01 5.052039019348546489e-01 -3.028710622206384206e-01 5.038608509095506838e-01 6.430699273846678388e-01 5.225241841428694967e-01 7.120091787788073168e-01 9.061396450940271130e-01 7.371978290138631040e-01 -5.705019692444353030e-01 9.964281976799388429e-01 1.719967411747244546e+00 4.686246802987238946e-01 4.639079865399794445e-01 1.063046421040273692e+00 5.202631946381726102e-01 7.120729970567457601e-01 5.096895480960828007e-01 1.756735363767516711e+00 5.059286002015996875e-01 4.943418635353947210e-01 1.234428275085322380e+00 -4.629236950633158765e-02 5.254008747456003769e-01 -1.691338862598606441e-01 -9.202736035741413412e-01 -1.783027651137774339e-01 7.806172720008215382e-01 5.210252407313246126e-01 5.878490584971660660e-01 -3.381997468093073667e-01 4.929718344200307856e-01 -5.126718202793138779e-03 -3.305370657091212805e-01 4.472479013438040440e-01 5.087730987904666158e-01 5.112336409594548936e-01 5.686028639403531981e-01 5.638481052831583185e-01 8.968212724716689843e-01 -3.636965752187560352e-01 5.150225021386711788e-01 5.530730577784167545e-01 6.336402908383266253e-01 1.153228468429052356e+00 5.271040683214925915e-01 5.903122405140729390e-01 5.141985377212949793e-01 1.324396768281981863e-02 -2.322549219094050821e-01 4.942527707387269764e-01 5.222092993291355123e-01 6.475948942140099529e-01 4.904661756150165419e-01 3.326224005232726322e-01 5.090097143956761050e-01 5.041860508198739987e-01 3.209791595182056589e-01 5.056998918382844543e-01 8.358860365957119232e-01 2.496068244454674012e+00 -2.315152547240369452e-01 6.698883098607235631e-01 3.526968374957764607e-01 2.302128522700424840e-01 6.921179944693328645e-01 -5.530404305993916192e-02 -1.453556597471073353e+00 5.186159199177772239e-01 2.556361029998957868e+00 5.165600092800249898e-01 1.416068917366642144e-01 1.875618468094391589e-01 5.199392489079666113e-01 5.397062700318966399e-01 1.522451115652621256e+00 4.880883254997857024e-01 1.252580374363294058e-01 4.528783436721150468e-01 1.641606038278807578e+00 5.561502993283776730e-01 6.813984653161395677e-01 4.861516370380802310e-01 7.440450564476531747e-01 4.504455788605090105e-01 5.595647058650170536e-01 7.041117758209614400e-03 5.161888280437867405e-01 5.857923704323187986e-01 -5.562570632445906771e-01 -1.061510426126546780e-02 1.163699834986994919e+00 2.338197968117641801e-01 4.973014537736683005e-01 6.564028323010128174e-01 5.326793132163953892e-01 1.975721441568221604e+00 7.132331817171299049e-01 2.532890264138666636e-02 2.439355353817445060e-01 4.143055521554375176e-01 1.080902838598412741e+00 5.563582962343657234e-01 -1.577193734566938871e-02 4.929164477376068443e-01 -2.768764133691237195e-02 5.225336949698292655e-01 5.152870801821395341e-01 1.477689130081101879e-02 -8.031225982298545452e-02 6.623351566495064846e-01 6.149150186679157581e-01 5.143115713575289183e-01 3.354189537996477011e-01 5.586663234711364279e-01 4.783209686388561477e-01 5.609335956622854003e-01 5.419122939364444669e-01 4.839766761582646182e-01 6.531700934013727755e-01 1.010758834991406951e+00 3.056062152951459332e+00 8.687940030945037195e-01 5.207454838727587632e-01 6.599012531681507365e-01 2.089415179189264282e-01 5.025978502045261864e-01 8.274387735557571233e-01 4.773612664507857484e-01 1.315253268664067665e+00 5.616374656401449394e-01 -5.552154706889457225e-01 -7.257977250014932026e-03 4.302282010621406028e-01 6.095544191271039525e-01 5.695824888184292112e-01 5.058170520124231073e-01 -1.384269024387240615e-02 4.689133796298950441e-01 3.964251274381854206e-01 -3.471899168640018463e+00 4.991665480037353886e-01 5.358596701636920701e-01 1.111380939353750597e+00 5.121433074974914845e-01 6.038257904681695321e-01 6.798292291288060563e-01 -8.461837554185921428e-01 -5.080084489490842570e-01 6.226487193737394871e-02 5.056777292768344090e-01 4.015824032088169404e-01 2.307256458051754611e-01 4.865299845015103597e-01 -3.252344166824625571e-01 6.751306917886428227e-01 5.745414423266888004e-01 6.923522265949104693e-01 5.307720367155701613e-01 4.801360625137524596e-01 1.710460297136177088e-01 -7.146164485380210873e-01 6.433862697244723261e-01 5.515989598077488676e-01 1.696205422090235060e-01 5.076439286552689722e-01 5.848999466512352363e-01 4.979431626946144718e-01 6.656400627823533256e-01 5.627437889967383811e-01 5.331181298168927718e-01 4.960511282567175995e-01 1.719967411163771720e+00 3.775632955920062428e-01 5.529281318107052146e-01 -9.594895333259492731e-02 5.249812308042127729e-01 6.152574771412500088e-01 5.207047073248184388e-01 5.071788264281860137e-01 3.467851867070885774e-01 8.780287982337255936e-01 1.161438486663889380e+00 5.576621695564700776e-01 5.397820673688360493e-01 5.943964201427592853e-01 4.837498591254547065e-01 5.101070232848510244e-01 5.089793360911677444e-01 9.964846677908044681e-01 7.364818012707754491e-01 -4.429724036057614556e-01 4.379750077720710455e-01 9.227984608771595543e-01 4.791094477774588967e-01 8.226202093227323597e-03 5.397654135592887537e-01 1.108095931007628820e+00 -1.379615131961493268e-01 5.074482300696491199e-01 2.573019143499451489e-01 5.359526066772961617e-01 7.923045733187435991e-01 5.109004239092386213e-01 3.650114268169376563e-01 1.383496979198695520e+00 5.476689597655785002e-01 5.146447997001942776e-01 -5.870356934196323540e-01 4.673703110162593100e-01 1.045175841702242758e+00 5.730871121095387766e-01 1.210055260382013748e-01 9.303043860629488515e-01 -7.412530953310855764e-02 4.944414611136844218e-01 1.565190347974559248e+00 -8.438559185053156053e-01 5.209524966136848123e-01 5.130950710725988850e-01 -4.227402907222894690e-01 3.563661658073687399e-01 5.332411962448889708e-01 4.578648997524091269e-01 5.369173343433539802e-01 3.395657608772921221e-01 2.646745944841557008e-01 3.508570981436667235e-01 5.189343654020273089e-01 5.073124357981162458e-01 1.870606729461590442e-03 -2.917834569327065752e-02 5.160186667079443845e-01 1.055478259688478859e+00 3.698238410452509006e-01 -5.566285576817385783e-01 5.393863244787953093e-01 5.043106817239075834e-01 4.580341903960036820e-01 1.695453573264001437e-02 3.491456102088966729e-01 5.136209962921228778e-01 5.000048764619076103e-01 4.582187726021129670e-01 5.191860709786477734e-02 4.474826158586956981e-01 4.970653384557791599e-01 6.690633239337528959e-01 2.051916495285147413e+00 3.653588811438012590e-02 3.794441186747417039e-01 4.855125294271728231e-01 1.795796654737971343e+00 4.746121391003759182e-01 5.406836533702191749e-01 1.452530599578884599e-02 5.295102977981694936e-01 5.026342185310636035e-01 4.670381491649241990e-01 3.852366512485798644e-01 5.126122472283843878e-01 5.803441344392979984e-01 5.184214090614479575e-01 -4.897939938062838561e-01 5.097159567423839022e-01 5.043143870329007683e-01 5.333485972125807661e-01 8.885815152741829426e-01 5.198370085299779397e-01 -2.358193101285225302e-01 1.020898609076392738e+00 -1.192428947143733264e+00 -4.917140013288647804e-01 4.960883954495799997e-01 5.072699357905361417e-01 6.468724272977027789e-01 5.239025157736485472e-01 3.407975598208071166e-01 6.395119546952284795e-01 5.295103032981105518e-01 5.076684514444126384e-01 6.214737103843220867e-01 5.640232689891389040e-01 5.073573984854005126e-01 2.772870560956819386e-01 4.862421940411859600e-01 4.363175444657432789e-01 3.509338850046432867e-01 5.233917625526480766e-01 5.156115576177827675e-01 5.354169012215497236e-01 6.254849658783607769e-01 5.053661229978002600e-01 6.325397996361901143e-01 4.660247125326999473e-01 4.908867574371125198e-01 5.488281950516710195e-01 3.126977487799887934e-01 4.786137234192734402e-01 2.330865447389527390e+00 5.998325418158194644e-01 5.455202157858106693e-01 3.407786545539904788e-01 5.685490164983780792e-01 1.100569975113759869e+00 6.004385170533437233e-01 7.201640927941140857e-01 5.125248924594797417e-01
6.839562591538407288e-01 2.404954414564586251e-01 3.969708669601506590e-01 7.110149067029987446e-02 3.077412815574429028e-01 2.767429235322059755e-01 5.225048886598263609e-01 4.647574930072607691e-01 2.130917566434557542e-01 2.944132759522884446e-01 2.008772769762293908e+00 1.684585666236327439e+00 -1.396128806057916893e+00 6.188545614011452534e-01 3.160564158718802696e-01 3.549359204450428518e-01 1.279513952530465237e-01 4.158390709021174692e-01 4.491331849302461210e-01 2.823274575341083725e-01 4.710153262709148581e-01 2.059307792797478331e+00 4.064163671989611260e-01 3.408115443069864581e-01 6.917220509617398871e-01 -2.837168248788606850e-01 4.775711649322714192e-01 2.869813555555780216e-01 2.904235537564331948e-01 -8.114455985529642756e-01 2.152753280584612239e-01 -7.856987705080828444e-02 2.899384621912915461e-01 2.671291976417254355e-01 -4.309602709691160438e-01 3.879888445566272992e-01 3.124339916548546925e-01 -3.079112729402523896e-01 -3.137343595188007761e+00 2.872917632505909147e-01 1.085105765365381059e+00 1.370895947065178810e-01 -1.613350131729112402e-01 7.910336183378704478e-01 6.748867325010885487e-01 2.758738926325770557e-01 7.083245092815973476e-02 2.998021288840606591e-01 3.053926285070096003e-01 7.373350111546652652e-01 7.079211389679721522e-01 4.348695575202293773e-01 -3.066070846372006553e-01 1.950218660449258845e-01 6.035848103190314395e-01 7.130254459875187134e-01 3.025510414002586801e-01 2.964992503244579525e-01 3.488100685018267200e-01 3.189305717418817188e-01 4.206029784132996330e-01 3.017539451457850186e-01 3.362016894488253360e-01 4.064163661043782017e-01 -3.441986278365596896e-01 2.571699308069633205e-01 2.948876898270973990e-01 3.482368493503474327e-01 3.053017874321350966e-01 7.287569155341934168e-01 1.227183532755995038e-01 3.507136534693035546e-01 2.885258910989824677e-01 7.015557701656616185e-01 1.875209740804963721e+00 5.293581167321865788e-01 4.635173061337893863e-01 4.770396922176035615e-01 3.155642423039737299e-01 -1.303780766070076869e+00 2.675463421985270207e-01 6.648312128346040017e-01 2.210748992719125727e+00 1.518028832061585898e-01 2.924604627380107402e-01 -4.466030846969365475e-01 1.125848725868294625e-01 2.965115545035069688e-01 -5.646578352691989933e-01 -8.498001613213425065e-01 6.743873726376332645e-01 1.525242708577024375e+00 1.279001362997850832e-01 7.152525627537927866e-01 3.205952048278335464e-01 2.828727537345528398e-01 2.974091222256464162e-01 7.067089912599132662e-01 7.395170141002871400e-01 -2.803823556755156154e-01 -1.603932531253267901e-01 5.823275043785657717e-02 2.874036073717020634e-01 2.187669891330216720e-01 3.683723373510761068e-02 3.003572980363308886e+00 -2.724723593822601653e-01 1.914696118291969729e-02 2.586411621047610132e-01 8.046730676352709111e-01 2.247374956886498687e-01 3.360939951721740315e-01 1.759201843852655212e-01 4.932158743925169619e-01 -4.988781234556353694e-01 2.178507731281199844e-01 3.976715677965190765e-01 3.323201842578252796e-01 9.043299560900400769e-01 3.126602404629304499e-01 -1.413865008672555268e+00 3.027925245804006793e-01 2.963062646277256906e-01 1.243303276931405410e+00 3.185076403382293142e-01 2.110392922193590870e+00 1.497924425579328644e-01 3.883120108158063521e-01 2.879187907964715354e-01 3.253439185078248475e-01 2.326866680054754943e-01 3.168769015785177223e-01 6.674808589627772015e-01 3.895183612682945329e-01 1.908130797224863173e-01 8.929704988057901582e-01 6.828697978406507163e-01 7.270065835452504954e-01 -3.244083081527038281e-01 1.943038238968559928e-01 2.755581087585382005e-01 3.211072122772765103e-01 1.972353951636952318e-01 3.477626432749358898e-01 3.129977559046220881e-01 7.028112719160543032e-01 -9.240405848800788136e-02 3.180333161581673229e-01 4.378444549715991840e-01 3.923386807624992811e-01 -3.069590065651474631e-01 1.880149658624447051e-02 2.758729374423386504e-01 3.052477954351407452e-01 3.893258202783937971e-01 2.996876070326476293e-01 -2.157075015754704950e+00 4.374161378916249787e-01 -5.761437120702325165e-01 -2.789265958861266714e-01 4.078533264725427987e-01 1.600041365574043362e-01 2.799933215787070440e-01 3.153742449412297866e-01 1.022379406845757427e-01 4.355309731230549986e-02 3.131750848908648188e-01 3.666909588537608511e-01 2.293374900651629911e-01 3.784060582911586423e-01 2.055104583387861727e-01 6.963215205196460200e-02 2.758902856601153641e-01 3.172795505170752928e-01 -2.436857707458409017e+00 7.211166013037051403e-01 6.506284519361998919e-01 9.927177405551022016e-01 -4.491822756312196518e-01 1.165554316511403066e+00 -3.226110111173648848e-02 3.528770035884321032e-01 1.219310170096616019e+00 2.377284050822240369e-01 3.016263302034538629e-01 2.584159062669132978e-01 2.637949046533263897e-01 3.185648872068522763e-01 -4.430915200199347925e-01 3.962418006699424677e-01 1.729836789321715085e-01 7.944961188005523756e-01 3.245620128168442142e-01 2.047075083387314420e-01 2.140313512946803443e-01 3.078458635418919176e-01 -1.583132595607497750e+00 2.936528773017691996e-01 1.545599504555337234e-01 3.417054057250011323e-01 1.580747804111654609e-01 3.188631287237160272e-01 3.702252796137081581e-01 1.211289209274782341e-01 -8.154170353022783813e-01 1.545599490923219577e-01 4.331043893753960816e-01 -4.958004850995028079e-01 2.814666579290541759e-01 1.502855138537323998e-01 2.760402125962963527e-01 -3.137639165192022794e+00 4.172070040536001168e-01 9.427211755510617186e-01 3.209354895060632096e-01 3.059451589675932781e-01 3.053780848451657093e-01 2.948037586821864453e-01 3.182598341373974460e-01 3.198285329310095459e-01 3.056576524233899916e-01 2.390685155241462911e-01 6.523015033776348170e-01 1.773565870613741102e-01 5.357477668315775432e-01 4.181984409493221255e-01 3.724411599531917139e-01 -6.101056283096373267e-01 2.202291566283666846e+00 3.675799592090399082e-01 1.218976065379096863e+00 -1.368241387007055554e+00 3.170715485902351749e-01 1.987020883107142311e-01 3.421784173578378829e-01 1.125401173114570330e+00 4.456042324783344721e-01 7.771765466415437862e-01 2.748496848485266209e-01 6.704220047310573971e-01 3.693622272141573459e-01 3.486757930133833061e-01 -1.129340165161893283e+00 3.018512492053588847e-01 3.007618226277540274e-01 4.417112574564334149e-01 9.290087115665449646e-01 -3.209095682073504485e-01 3.023065454101488747e+00 4.311633273125740073e-01 1.183734159407292097e+00 -2.974253825873632989e-02 2.949057152834827500e-01 4.064163762390120005e-01 2.947426456134010220e-01 3.121159923127057589e-01 3.274097506864921403e-01 -5.936995063174052567e-02 1.867306682793569150e-01 5.598210563836621967e-01 3.009940293001382994e-01 9.051301391799118634e-02 2.944550663372628163e-01 2.790490427256263617e-01 4.206029596263474168e-01 2.767564286180694832e-01 3.112651257707081953e+00 3.823520562974120907e-01 6.573096721636180195e-01 5.436401360901464974e-01 3.748823909952464506e-01 4.209699031921504964e-01 3.178380180422860080e-01 2.898567474854781834e-01 3.149334865657460458e-01 -4.661472606710789779e-01 4.886244975213677177e-01 2.855856053222098345e-01 1.079703476746474711e-01 2.192612223510361502e-01 1.497214392556705409e+00 2.155816556964119668e-01 2.660620454444819760e-01 1.965932014615888734e+00 4.843535824860879524e-01 3.815476960086209846e-01 2.866038186629876194e-01 3.298446213405145655e-01 2.178507749011439065e-01 -2.029458449517708374e+00 2.894996096939606023e-01 1.427109540980580071e+00 3.924743446640982514e-02 1.762143268555823594e-01 7.200886880126906586e-01 2.436965118016127529e-01 -7.040724609525490507e-01 4.549444532241733175e-01 3.095662280417937340e-01 4.378494407369035724e-01 -3.684680975127245239e-01 3.139610856023946073e-01 -2.038609198666022859e+00 6.992419377817107873e-02 3.336087696359572585e-01 6.097031783757067558e-01 3.208519956525985317e-01 3.081531367324472637e-01 4.198526587973172020e-01 2.413443158262685295e-01 -1.348616304776324160e-01 -7.429983464728164844e-01 9.018476799134075850e-03 6.744150035301502699e-01 2.968938310476569309e-01 4.633288807887410155e-01 3.143548949904577117e-01 7.026146310030495501e-02 3.210334796383477185e-01 2.371225630131196471e+00 6.929788493762049084e-01 2.463098296536845588e-01 -1.113138223168872010e+00 2.322078585440998100e-01 4.501885415395584289e+00 3.014384758222660166e-01 -7.952579610529718346e-02 5.668294238734278290e-01 -5.386219217924798741e+00 4.901615229919508709e-01 1.491971509705372068e+00 3.220271578449287464e-01 5.473016628746337764e-01 -4.245157251498127837e-01 3.143765612992955316e-01 2.667989495831508684e-01 3.705210003987184364e-01 2.660575692249195767e-01 2.817693216624293395e+00 -3.549202580341900282e-01 2.422057385908056304e-01 -1.875079637065229843e+00 2.840399923968983109e-01 -3.079112695866527138e-01 7.325523468032677510e-01 5.645363442250133090e-01 3.824830362626999158e-01 3.640319968889271229e-01 1.292941251623588750e+00 1.317423014102089840e-01 1.545599513560934335e-01 3.018535145469654624e-01 1.211289207079164210e-01 2.284895510684674114e-01 4.009166947600134590e-01 -5.882245049657843783e-01 3.154513499779427188e-01 5.174130224872186545e-01 3.560043643092971610e-01 1.823317304921850679e-01 3.026517637952123585e-01 4.095593677538927890e-01 5.645363299015296876e-01 3.074225054174911098e-01 3.179408649958366251e-01 2.177611662631836198e-01 4.747045109689337350e-01 3.242491190077369634e+00 2.734362537746662380e-01 1.889899343800898190e-01 4.206022109693878241e-01 8.598070576538988652e-01 4.602611808481482658e-01 -1.855803632391695157e-01 7.029933179739704663e-01 2.120379957220172584e-01 1.096632952302662861e-01 3.781496589500096817e-01 6.370257329523661971e-01 6.803414435799560733e-01 7.638511184929206443e-01 8.011221599995308473e-01 3.900703785863802731e-01 1.211289210332683886e-01 1.211289704519821209e-01 3.809293735457504604e-01 9.255660366085489976e-02 1.119988897225904445e+00 4.214257479662511519e-01 2.999272199921461102e-01 4.039878247331810668e-01 3.159563924183346750e-01 7.960143705626470112e-01 1.545603149740794602e-01 3.144077112110045258e-01 4.234747142472454207e-01 3.329697546249063556e-01 -6.257574754742714074e-01 2.967819620513952317e-01 2.952000050153323896e-01 3.404582481991793030e-01 7.082471770384460852e-01 7.522686298561321872e-01 1.211289206557274734e-01 1.664904967318138820e-02 3.174047001165284376e-01 3.689826918102932507e-01 -5.873774067428967349e-01 2.354357719577930552e-01 -3.392243848294864250e+00 1.859716384853408178e+00 6.078987627007619299e-01 -4.232470564454978712e-01 7.120990576716984544e-02 2.003531907822087899e+00 3.192533034906934186e-01 6.234582798658079295e-01 9.405659448183636973e-02 2.516916086424010879e-01 4.736618787581166057e-01 3.209663375941390617e-01 -3.680178029907513748e-01 3.150137258342757818e-01 1.998617659444408057e+00 3.375094977613090630e-01 -3.727252823622554390e-01 2.228763496456163395e-01 3.358960146108350142e-01 -1.425348871045585941e+00 2.614607168596546627e-01 2.348943838615091539e-01 4.024099109238818972e-01 2.629176492848756541e-01 3.170937183646782009e-01 2.556377132419849763e-01 3.241409618709246154e-01 -1.593969990236887568e-01 3.157775464079175531e-01 1.773015570904829530e-01 3.474522613145646366e-01 2.519907862753349437e-01 3.902503534605644003e-02 4.643169990427282179e-01 6.576434040510362733e-01 -1.325927507746000211e+00 -4.297373847688448212e-01 -9.952910236156496671e-02 1.985256881708482440e-02 3.527029075030563288e-01 4.205366138885637262e-01 3.619616314466720941e-01 7.041950317924562386e-01 -7.790080912336273811e-02 3.272132609943108061e-01 2.997990898863145404e-01 9.096172147156977861e-02 -1.597011193524468797e-01 3.357899936321926404e-01 4.136289688051933977e-01 4.778682131102963138e-01 3.234541311449814494e-01 3.065608214168786816e-01 3.011969532120408743e-01 2.651203786751208380e-01 3.051229277308056265e-01 5.198189609018896151e-01 4.185293800328176994e-01 3.152113208337803396e-01 7.039633841721245622e-01 2.726450667606389877e-01 6.970213092302475211e-01 1.463213197811182587e-01 4.508212220926713365e-01 2.137519778093961709e-01 -1.418628992402339417e+00 3.340300388038509039e-01 6.346706606807117623e-01 4.018304152618908387e-01 2.492862607070347458e-01 2.785142677429713332e-01 3.685667781647129493e-01 7.203177942039259429e-01 2.999581137429662148e-01 3.423454520967060821e-01 3.182127502126920193e-01 3.044728561462407002e-01 2.335451609212409185e-01 5.351557966389447474e-01 3.089266725388619683e-01 3.049861033603052940e-01 2.588010112572622368e-01 2.876266330288870798e-02 1.586051920039168728e+00 3.731820044749605270e-01 3.758970798826582471e-01 3.676980357332271243e-01 -8.052565470555883564e-01 4.520953837600540370e-01 3.758258864331225912e-01 5.603141644088872608e-01 3.938973650861406217e-02 3.422092324444139799e-01 1.434750629989406834e+00 8.827006803616478381e-01 3.590429769932610982e-01 2.634688362388489802e-01 4.070826426864808667e-01 3.116689805756098219e-01 8.988653059667163214e-01 2.943443273329805709e+00 3.019943504973289783e-01 7.892318026345085391e-02 5.981951590490305337e-01 -1.396974324412008639e-01 3.052613280575522947e-01 3.212900431927860900e-01 1.040447155665731538e+00 3.512787488601681885e-01 -2.935334502966704950e-01 3.621892691116549989e-01 1.072810353221133328e-01 6.715855429296719858e-01 1.624200161734798975e+00 3.845076495295955410e-01 2.252587312634551919e-01 1.632523065287474040e+00 4.219939240548625792e-01 2.774767119485814781e-01 3.248896222222579233e-01 4.050359039225384095e-01 7.055421543026522968e-02 3.753260519957142827e-01 2.314727459781410479e-01 7.035504060219595068e-01 3.763598585998312873e-01 3.719006092546562892e-01 2.960838121955055025e-01 4.531235023672639528e-01 2.571703039629965604e-01 2.487377000415969264e-01 9.345836776317385519e-01 4.959148935341419207e-01 3.335022279588001348e-01 2.908098658356303989e-01 3.275123039204486664e-01 3.397892666621768476e-01 5.797902326580416377e-01 7.592513923221456684e-01 2.779193285099614275e-01 2.649035069642719509e-01 3.405163193515420850e-01 3.201886185875753577e-01 7.523468072287325947e-01 2.019214209613449940e-01 4.233838068949168365e-01 -3.168012170135730554e-01 3.120021193759500155e-01 2.032723657007720341e-01 3.915955924420048695e-01 3.396752383000755660e-01 2.384905372385874023e-01 1.716608225245090491e+00 1.838188658741246595e-01 2.941309241693764731e-01 -1.214750083079896154e-01 1.567169683655738277e+00 1.128170325029707488e+00 1.032015068365539495e-01 -4.670833235710480924e-01 2.425546710781680271e-01 2.864602994386601931e-01 5.088690865842874222e-01 3.156386718256987689e-01 3.168187437664132244e-01 2.199481188163091849e-01 3.035888063483192512e-01 3.299077770873850568e-01 7.104679686473221178e-02 -1.460889839759537401e-01 3.835778191949194005e-01 4.038265471952542929e-01 1.779445203832552003e-01 8.472486406284687188e-01 4.206029703197414760e-01 2.133446710926627798e-01 8.078132611906257976e-01 4.764446507969647970e-01 6.748576337611750242e-01 3.969960291006119912e-01 6.805302093280826137e-01 1.448638973662290663e+00 3.019205722519464619e-01 2.002264650699778326e+00 -3.497000128556207454e-03 1.267894643228784091e-01 3.082154207019273118e-01 2.855130092394657648e-01 2.974314644944427988e-01 3.784327502215998340e-01 3.090309863371691890e-01 3.082414356880321948e-01 3.475037771538000975e-01 1.823682769923603009e-01 -2.549993817979605004e-01 3.398886316256641837e-01 -7.524990252416470515e-02 2.445632849532589081e-01 4.378520995045028785e-01 4.206029703317089030e-01 1.901105760620513396e-01 2.953785309626490996e-01 -1.148879832136713741e+00 1.901939285664404400e+00 3.144105611937361155e-01 -6.678613455138930899e-01 2.984164761721636028e-01 3.196083697131616996e-01 3.198652399083230513e-01 -4.600922944563042627e+00 3.422636024102726271e+00 6.130580686624903519e-01 1.424099992402969583e-01 3.567146995118403163e-01 3.151928299444515247e-01 3.540040165600790156e-01 2.533300820968494182e+00 6.084908018595289736e-01 3.214725107263940451e-01 2.178507711287154536e-01 2.247804986000255523e-01 2.965214205609620346e-01 8.806110148704479057e-01 -3.806276786405750068e-01 -1.105525042601004593e+00 -1.163304217685428466e+00 3.262602321798958593e-01 3.103351809203361289e-01 6.921086083712784109e-01 3.095942861993340456e-01 1.194368589189762409e+00 4.520701608806451111e-01 3.208285705084784611e-01 3.442337706345048876e-01 2.857673322167353924e-01 2.631755626804856973e-01 2.422315615009178469e-01 6.547116371194057205e-01 2.966979219803932422e-01 6.187206131096293360e-01 2.092181670482553824e-01 1.298004804037994342e-02 2.423593382886375658e-01 2.474690004364298312e-01 3.066610481280657163e-01 3.861494232222956735e-01 7.309624310295648186e-01 5.645363294235888896e-01 5.074859995290560422e-01 3.948554597762654050e-01 3.234032405528846632e-01 2.480245985852413404e-01 1.434770246039233976e+00 1.782544390189375605e+00 2.424454091968840652e-01 3.044516782875917871e-01 3.290745991028967699e-01 2.085484809909972925e-01 2.446973292955697821e-01 1.745885488689823406e-01 3.401122023264386285e-01 3.180463515050463985e-01 7.803460670768919138e-01 8.527620938257463035e-01 2.792740109550471139e-01 1.810997955519336067e+00 1.472543714991714769e-01 -1.063426312975915555e-01 -2.672301554363847864e-01 -3.299590018665926050e-01 3.082833989015925091e-01 2.889175074550345279e-01 7.018765630417858059e-01 3.057045209376225703e-01 4.370087754838126171e-01 3.242869328557975162e-01 3.805110683589730813e-01 4.004751005366242733e-01 8.620949284589715655e-02 1.023294236614842534e+00 3.072999539135399250e-01 5.167525193146447204e-01 3.068088963839114558e-01 3.555298065681157804e-01 3.251059946930352496e-01 3.833665114850998146e-01 -1.323119759797141415e-01 2.240769403022395967e-01 3.126428446354795332e-01 7.090439536659499942e-02 4.206032763213047865e-01 1.126921407492667004e+00 9.317586492109311003e-01 -7.434172420953079063e-01 -3.079112729109340640e-01 6.270316053892186492e-01 -3.203801967181043153e+00 1.541929112319907258e+00 3.062607191660491335e-01 7.159110644303509630e-02 3.068659451431815510e-01 8.555591137670809365e-01 3.184884135106026415e-01 3.018515845787108631e-01 -4.342101248436531225e-01 8.299686345471314342e-01 2.818426065015341431e-01 8.914563358897651391e-01 2.035270386982316992e+00 -3.805107831681900366e-01 -1.409370789948546587e+00 3.027167976792266013e-01 2.155420230316708041e-01 7.890126618081357845e-01 3.188348511870977564e-01 6.961639175764597898e-01 4.688259622504118429e-01 1.151432782637629160e-01 3.305528232180272585e-01 3.355833733150968556e-01 2.305931006957356311e-01 3.805795974878452559e-01 1.353178802754681165e+00 1.553436439728491658e+00 3.121865784801000077e-01 2.727135819049287813e-01 -1.596250811253056151e-02 -2.278575372655259057e-01 1.915611284410773385e-01 4.613643955300894550e-02 3.117493104434514439e-01 6.991663060469671676e-01 -3.681822100030852640e-01 3.330549901571318028e-01 3.101398779751670665e-01 1.681347764627527941e-01 3.270869879458223051e-01 3.055992824001877994e-01 3.181917677962178836e-01 3.161253306054814249e-01 -4.746659567252446005e-02 2.330495365603282021e-01 4.446651260754302948e-01 1.089377177116914064e+00 1.091144542411985219e+00 9.441733744648677096e-01 2.016604160311864513e-01 7.532157942776698256e-01 1.101482112300952859e-01 4.380383019870365824e-01 -2.006707006079529343e+00 3.156221136694313811e-01 6.455729165939514402e-01 3.254279604829192207e-01 9.594070862185019033e-01 1.342699916277530159e+00 2.178507733200209517e-01 3.185979833581608078e-01 3.706017442755044078e-01 1.678327373920164567e-01 5.605131451049488733e-01 7.440884899061754876e-01 -7.192489591481443512e-01 1.408853765182306317e-01 1.687394739574972491e-01 3.321586692454463474e-01 3.448724547148445674e-01 7.635516951052516710e-01 -1.092284884603825501e-01 3.792215361813838781e-01 3.052789859567685560e-01 2.443741403695655900e-01 8.826876059901943572e-01 4.172844305782348329e-01 -1.980722466594603548e-01 8.589421264139982526e-01 -3.818176202162722188e-02 5.691784789413691925e-01 2.892227871088783320e-01 1.262993811633412511e+00 5.136973466664276344e-01 7.046244659634488539e-01 4.298379779902377074e-01 4.673990133747027986e-01 -4.843729215425927048e-01 3.025558296132054292e-01 7.607115870323836182e-01 2.928700744552412694e-01 6.577351325596686449e-01 3.572770657910386838e-01 3.051889504087701432e-01 7.327996339607620868e-01 1.094544666350274198e-01 -1.992613410283817110e+00 3.503700927666719145e-01 3.024303141563512987e-01 6.683086909611888338e-01 3.484319166440643656e-01 3.682041899964786369e-01 2.286791705430757937e-01 2.384380523409977415e-01 3.500322825947053129e-01 5.505636147435733277e-03 -1.595745517468401875e+00 7.354545615962436722e-01 2.741644455443810191e-01 2.946578569788353419e-01 1.801711703552234256e-01 8.239989504336044934e-01 3.206302064664217633e-01 -1.170367983079377838e-01 3.051100711154504652e-01 1.109217902451201443e+00 3.244901253730881341e-01 4.138108424686541276e-01 1.070415053815013007e+00 2.778789741594395180e-01 2.654169204508241897e+00 2.642483904326915489e-01 3.257960772529840399e-01 6.951029576535759924e-01 3.141241904495249426e-01 2.728952358213307394e-01 -1.958422866239356797e+00 3.292421306326970831e-01 2.791556332237933868e-01 5.091901412980553987e-01 3.150407530120271082e-01 3.907329609044889462e-01 -2.800997717248389640e-01 1.992159707483260211e+00 -5.204744969386168041e-01 8.241659182577077969e-01 3.177064026481709602e-01 4.177248799930349255e-01 7.204610921958455316e-01 3.274335740238143444e-01 1.301695115353992627e+00 1.395988451107475770e-01 2.784259955250078522e-01 -8.723143190683347870e-01 -1.197265176191013164e-01 -1.541349107700079046e-01 -3.721631433565943503e+00 2.850414114160673584e+00 1.085735647360527578e-01 2.606299145620925573e-01 -1.549939322787419194e+00 3.211548023759268067e-01 1.402817718601147012e-01 3.301022233209877088e-01 1.226997182274215947e-01 6.354172992026327904e-01 5.866557061313710797e-01 9.419158192949497188e-01 -3.079112727365019841e-01 -2.032583060226144378e-01 2.109663484979771853e-01 -1.161632015012032726e+00 2.857386013767181376e-01 -6.180022328415714084e-01 3.357218229163516643e-01 4.913040890138797301e-01 2.751572923056787995e-02 4.000558063366156936e-01 2.772950632331265264e-01 -1.292103088990939064e-01 2.143014161795735451e-01 3.108591837871954588e-01 3.300549827806406600e-01 3.097175583339953353e-01 3.134114057848040868e-01 -7.434913987587837836e-01 6.004181240406042397e-01 1.516783403385079554e+00 4.825563598097182966e-02 2.443831380955134303e-01 4.056607059573434926e-01 1.217648455486291414e+00 2.725021419904807840e-01 1.846086987824787640e-01 8.986933567064923079e-01 3.488939110252769482e-01 1.805007419408193092e+00 4.126375458301553278e-01 1.118384777175708056e+00 3.191175671406172865e-01 7.364975439606846752e-01 1.334567102381542414e+00 3.268243452589624787e-01 3.841741514214008224e-01 8.891277522315417237e-01 -1.786863341364106628e-01 -4.212555625961565686e-02 1.229286459443322821e-01 2.925431583972114002e-01 3.375529454051898193e-01 1.404405431349444178e-01 2.992691350574777642e-01 -3.332621691704096278e-01 1.292230419932565599e+00 2.989743562940151422e-01 3.071708875618244794e-01 -3.027424069920244154e+00 4.452731123458122942e-01 4.045794916436555311e-01 4.802132951025101515e-01 4.325310112478626401e-01 5.124354648548495872e-01 -1.004568122251878526e+00 5.706436291734598987e-01 2.987316998202537710e-01 3.198900501754642356e-01 1.053845866047519841e+00 4.347756622823082395e-01 2.932402530020492559e-01 -1.366281430137677333e+00 4.800710142089943955e-01 8.825834550700303316e-01 2.849481588068467630e-01 3.186811742558852689e-01 2.584287828397658915e-01 6.946068949834968143e-01 -9.394639676695210051e-02 3.094696541412481072e-01 3.285977714458366283e-01 6.215598717742626400e-02 7.321241320726166180e-01 3.530972375873069335e-01 7.516546374890321625e-01 1.869502992836883926e-01 6.811617824455759029e-01 -1.905740971506869885e-01 -1.495133388170445166e+00 3.311209894479362759e-01 -1.225336025315121140e-02 3.026471913196592811e-01 2.608334271627108514e-01 5.882946562445821176e-02 5.645363325832969403e-01 3.216937914014045830e-01 9.137616193729287961e-02 4.564077867316172488e-01 3.686294346717188808e-01 2.684435138007342792e-01 2.812754088846642353e-01 -7.815897950662362703e-01 3.094983124226599047e-01 2.696289202993821799e-01 3.611755107991523883e-01 -8.249659236809606111e-03 3.045110736339735613e-01 7.765430504799750722e-01 -4.426001409171959611e-01 1.070197809746863848e+00 5.943196405812991578e-01 3.709519504952772939e-01 3.194471372028727663e-01 -1.998031723620808053e+00 2.906589852293288700e-01 1.760635616714671392e-01 2.140485034775222450e-01 5.645363284511450974e-01 3.219020757405289812e-01 2.635377127361568927e-01 1.586467053551964268e-01 3.117618800901845177e-01 4.333035164302532771e-01 4.278656550755583488e-01 4.065666969122585517e-01 3.108046717396795167e-01 3.196917008562242257e-01 2.985832081137879124e-01 2.946705991828157956e-01 -1.417988682485691807e-02 3.189986724048702316e-01 5.590035716773505969e-01 2.480325796052789689e-01 2.687739140954900074e-01 -1.084883130327095324e-01 1.052585714802569128e-01 4.203653050008105962e-01 4.246072733668714072e+00 2.383693440837455768e-01 1.702492424421231110e-01 4.860100419681042672e-01 2.430966665361958268e-01 1.513721114316821437e+00 2.701213134777945002e-01 6.702335151297946769e-01 3.194861754448978242e-01
