# 
#                 ----------------------------------------------------
#                 Data from a 3D direct N-body simulation. 
# 
#                 rows are i-particle; 
#                 coumns are :mass, tag, x ,y, z, vx, vy, vz, ax, ay, az
# 
#                 NTHU, Computational Physics 
# 
#                 ----------------------------------------------------
#                 Time = 0.0
0.000000000000000000e+00 1.000000000000000000e+00 2.000000000000000000e+00 3.000000000000000000e+00 4.000000000000000000e+00 5.000000000000000000e+00 6.000000000000000000e+00 7.000000000000000000e+00 8.000000000000000000e+00 9.000000000000000000e+00 1.000000000000000000e+01 1.100000000000000000e+01 1.200000000000000000e+01 1.300000000000000000e+01 1.400000000000000000e+01 1.500000000000000000e+01 1.600000000000000000e+01 1.700000000000000000e+01 1.800000000000000000e+01 1.900000000000000000e+01 2.000000000000000000e+01 2.100000000000000000e+01 2.200000000000000000e+01 2.300000000000000000e+01 2.400000000000000000e+01 2.500000000000000000e+01 2.600000000000000000e+01 2.700000000000000000e+01 2.800000000000000000e+01 2.900000000000000000e+01 3.000000000000000000e+01 3.100000000000000000e+01 3.200000000000000000e+01 3.300000000000000000e+01 3.400000000000000000e+01 3.500000000000000000e+01 3.600000000000000000e+01 3.700000000000000000e+01 3.800000000000000000e+01 3.900000000000000000e+01 4.000000000000000000e+01 4.100000000000000000e+01 4.200000000000000000e+01 4.300000000000000000e+01 4.400000000000000000e+01 4.500000000000000000e+01 4.600000000000000000e+01 4.700000000000000000e+01 4.800000000000000000e+01 4.900000000000000000e+01 5.000000000000000000e+01 5.100000000000000000e+01 5.200000000000000000e+01 5.300000000000000000e+01 5.400000000000000000e+01 5.500000000000000000e+01 5.600000000000000000e+01 5.700000000000000000e+01 5.800000000000000000e+01 5.900000000000000000e+01 6.000000000000000000e+01 6.100000000000000000e+01 6.200000000000000000e+01 6.300000000000000000e+01 6.400000000000000000e+01 6.500000000000000000e+01 6.600000000000000000e+01 6.700000000000000000e+01 6.800000000000000000e+01 6.900000000000000000e+01 7.000000000000000000e+01 7.100000000000000000e+01 7.200000000000000000e+01 7.300000000000000000e+01 7.400000000000000000e+01 7.500000000000000000e+01 7.600000000000000000e+01 7.700000000000000000e+01 7.800000000000000000e+01 7.900000000000000000e+01 8.000000000000000000e+01 8.100000000000000000e+01 8.200000000000000000e+01 8.300000000000000000e+01 8.400000000000000000e+01 8.500000000000000000e+01 8.600000000000000000e+01 8.700000000000000000e+01 8.800000000000000000e+01 8.900000000000000000e+01 9.000000000000000000e+01 9.100000000000000000e+01 9.200000000000000000e+01 9.300000000000000000e+01 9.400000000000000000e+01 9.500000000000000000e+01 9.600000000000000000e+01 9.700000000000000000e+01 9.800000000000000000e+01 9.900000000000000000e+01 1.000000000000000000e+02 1.010000000000000000e+02 1.020000000000000000e+02 1.030000000000000000e+02 1.040000000000000000e+02 1.050000000000000000e+02 1.060000000000000000e+02 1.070000000000000000e+02 1.080000000000000000e+02 1.090000000000000000e+02 1.100000000000000000e+02 1.110000000000000000e+02 1.120000000000000000e+02 1.130000000000000000e+02 1.140000000000000000e+02 1.150000000000000000e+02 1.160000000000000000e+02 1.170000000000000000e+02 1.180000000000000000e+02 1.190000000000000000e+02 1.200000000000000000e+02 1.210000000000000000e+02 1.220000000000000000e+02 1.230000000000000000e+02 1.240000000000000000e+02 1.250000000000000000e+02 1.260000000000000000e+02 1.270000000000000000e+02 1.280000000000000000e+02 1.290000000000000000e+02 1.300000000000000000e+02 1.310000000000000000e+02 1.320000000000000000e+02 1.330000000000000000e+02 1.340000000000000000e+02 1.350000000000000000e+02 1.360000000000000000e+02 1.370000000000000000e+02 1.380000000000000000e+02 1.390000000000000000e+02 1.400000000000000000e+02 1.410000000000000000e+02 1.420000000000000000e+02 1.430000000000000000e+02 1.440000000000000000e+02 1.450000000000000000e+02 1.460000000000000000e+02 1.470000000000000000e+02 1.480000000000000000e+02 1.490000000000000000e+02 1.500000000000000000e+02 1.510000000000000000e+02 1.520000000000000000e+02 1.530000000000000000e+02 1.540000000000000000e+02 1.550000000000000000e+02 1.560000000000000000e+02 1.570000000000000000e+02 1.580000000000000000e+02 1.590000000000000000e+02 1.600000000000000000e+02 1.610000000000000000e+02 1.620000000000000000e+02 1.630000000000000000e+02 1.640000000000000000e+02 1.650000000000000000e+02 1.660000000000000000e+02 1.670000000000000000e+02 1.680000000000000000e+02 1.690000000000000000e+02 1.700000000000000000e+02 1.710000000000000000e+02 1.720000000000000000e+02 1.730000000000000000e+02 1.740000000000000000e+02 1.750000000000000000e+02 1.760000000000000000e+02 1.770000000000000000e+02 1.780000000000000000e+02 1.790000000000000000e+02 1.800000000000000000e+02 1.810000000000000000e+02 1.820000000000000000e+02 1.830000000000000000e+02 1.840000000000000000e+02 1.850000000000000000e+02 1.860000000000000000e+02 1.870000000000000000e+02 1.880000000000000000e+02 1.890000000000000000e+02 1.900000000000000000e+02 1.910000000000000000e+02 1.920000000000000000e+02 1.930000000000000000e+02 1.940000000000000000e+02 1.950000000000000000e+02 1.960000000000000000e+02 1.970000000000000000e+02 1.980000000000000000e+02 1.990000000000000000e+02 2.000000000000000000e+02 2.010000000000000000e+02 2.020000000000000000e+02 2.030000000000000000e+02 2.040000000000000000e+02 2.050000000000000000e+02 2.060000000000000000e+02 2.070000000000000000e+02 2.080000000000000000e+02 2.090000000000000000e+02 2.100000000000000000e+02 2.110000000000000000e+02 2.120000000000000000e+02 2.130000000000000000e+02 2.140000000000000000e+02 2.150000000000000000e+02 2.160000000000000000e+02 2.170000000000000000e+02 2.180000000000000000e+02 2.190000000000000000e+02 2.200000000000000000e+02 2.210000000000000000e+02 2.220000000000000000e+02 2.230000000000000000e+02 2.240000000000000000e+02 2.250000000000000000e+02 2.260000000000000000e+02 2.270000000000000000e+02 2.280000000000000000e+02 2.290000000000000000e+02 2.300000000000000000e+02 2.310000000000000000e+02 2.320000000000000000e+02 2.330000000000000000e+02 2.340000000000000000e+02 2.350000000000000000e+02 2.360000000000000000e+02 2.370000000000000000e+02 2.380000000000000000e+02 2.390000000000000000e+02 2.400000000000000000e+02 2.410000000000000000e+02 2.420000000000000000e+02 2.430000000000000000e+02 2.440000000000000000e+02 2.450000000000000000e+02 2.460000000000000000e+02 2.470000000000000000e+02 2.480000000000000000e+02 2.490000000000000000e+02 2.500000000000000000e+02 2.510000000000000000e+02 2.520000000000000000e+02 2.530000000000000000e+02 2.540000000000000000e+02 2.550000000000000000e+02 2.560000000000000000e+02 2.570000000000000000e+02 2.580000000000000000e+02 2.590000000000000000e+02 2.600000000000000000e+02 2.610000000000000000e+02 2.620000000000000000e+02 2.630000000000000000e+02 2.640000000000000000e+02 2.650000000000000000e+02 2.660000000000000000e+02 2.670000000000000000e+02 2.680000000000000000e+02 2.690000000000000000e+02 2.700000000000000000e+02 2.710000000000000000e+02 2.720000000000000000e+02 2.730000000000000000e+02 2.740000000000000000e+02 2.750000000000000000e+02 2.760000000000000000e+02 2.770000000000000000e+02 2.780000000000000000e+02 2.790000000000000000e+02 2.800000000000000000e+02 2.810000000000000000e+02 2.820000000000000000e+02 2.830000000000000000e+02 2.840000000000000000e+02 2.850000000000000000e+02 2.860000000000000000e+02 2.870000000000000000e+02 2.880000000000000000e+02 2.890000000000000000e+02 2.900000000000000000e+02 2.910000000000000000e+02 2.920000000000000000e+02 2.930000000000000000e+02 2.940000000000000000e+02 2.950000000000000000e+02 2.960000000000000000e+02 2.970000000000000000e+02 2.980000000000000000e+02 2.990000000000000000e+02 3.000000000000000000e+02 3.010000000000000000e+02 3.020000000000000000e+02 3.030000000000000000e+02 3.040000000000000000e+02 3.050000000000000000e+02 3.060000000000000000e+02 3.070000000000000000e+02 3.080000000000000000e+02 3.090000000000000000e+02 3.100000000000000000e+02 3.110000000000000000e+02 3.120000000000000000e+02 3.130000000000000000e+02 3.140000000000000000e+02 3.150000000000000000e+02 3.160000000000000000e+02 3.170000000000000000e+02 3.180000000000000000e+02 3.190000000000000000e+02 3.200000000000000000e+02 3.210000000000000000e+02 3.220000000000000000e+02 3.230000000000000000e+02 3.240000000000000000e+02 3.250000000000000000e+02 3.260000000000000000e+02 3.270000000000000000e+02 3.280000000000000000e+02 3.290000000000000000e+02 3.300000000000000000e+02 3.310000000000000000e+02 3.320000000000000000e+02 3.330000000000000000e+02 3.340000000000000000e+02 3.350000000000000000e+02 3.360000000000000000e+02 3.370000000000000000e+02 3.380000000000000000e+02 3.390000000000000000e+02 3.400000000000000000e+02 3.410000000000000000e+02 3.420000000000000000e+02 3.430000000000000000e+02 3.440000000000000000e+02 3.450000000000000000e+02 3.460000000000000000e+02 3.470000000000000000e+02 3.480000000000000000e+02 3.490000000000000000e+02 3.500000000000000000e+02 3.510000000000000000e+02 3.520000000000000000e+02 3.530000000000000000e+02 3.540000000000000000e+02 3.550000000000000000e+02 3.560000000000000000e+02 3.570000000000000000e+02 3.580000000000000000e+02 3.590000000000000000e+02 3.600000000000000000e+02 3.610000000000000000e+02 3.620000000000000000e+02 3.630000000000000000e+02 3.640000000000000000e+02 3.650000000000000000e+02 3.660000000000000000e+02 3.670000000000000000e+02 3.680000000000000000e+02 3.690000000000000000e+02 3.700000000000000000e+02 3.710000000000000000e+02 3.720000000000000000e+02 3.730000000000000000e+02 3.740000000000000000e+02 3.750000000000000000e+02 3.760000000000000000e+02 3.770000000000000000e+02 3.780000000000000000e+02 3.790000000000000000e+02 3.800000000000000000e+02 3.810000000000000000e+02 3.820000000000000000e+02 3.830000000000000000e+02 3.840000000000000000e+02 3.850000000000000000e+02 3.860000000000000000e+02 3.870000000000000000e+02 3.880000000000000000e+02 3.890000000000000000e+02 3.900000000000000000e+02 3.910000000000000000e+02 3.920000000000000000e+02 3.930000000000000000e+02 3.940000000000000000e+02 3.950000000000000000e+02 3.960000000000000000e+02 3.970000000000000000e+02 3.980000000000000000e+02 3.990000000000000000e+02 4.000000000000000000e+02 4.010000000000000000e+02 4.020000000000000000e+02 4.030000000000000000e+02 4.040000000000000000e+02 4.050000000000000000e+02 4.060000000000000000e+02 4.070000000000000000e+02 4.080000000000000000e+02 4.090000000000000000e+02 4.100000000000000000e+02 4.110000000000000000e+02 4.120000000000000000e+02 4.130000000000000000e+02 4.140000000000000000e+02 4.150000000000000000e+02 4.160000000000000000e+02 4.170000000000000000e+02 4.180000000000000000e+02 4.190000000000000000e+02 4.200000000000000000e+02 4.210000000000000000e+02 4.220000000000000000e+02 4.230000000000000000e+02 4.240000000000000000e+02 4.250000000000000000e+02 4.260000000000000000e+02 4.270000000000000000e+02 4.280000000000000000e+02 4.290000000000000000e+02 4.300000000000000000e+02 4.310000000000000000e+02 4.320000000000000000e+02 4.330000000000000000e+02 4.340000000000000000e+02 4.350000000000000000e+02 4.360000000000000000e+02 4.370000000000000000e+02 4.380000000000000000e+02 4.390000000000000000e+02 4.400000000000000000e+02 4.410000000000000000e+02 4.420000000000000000e+02 4.430000000000000000e+02 4.440000000000000000e+02 4.450000000000000000e+02 4.460000000000000000e+02 4.470000000000000000e+02 4.480000000000000000e+02 4.490000000000000000e+02 4.500000000000000000e+02 4.510000000000000000e+02 4.520000000000000000e+02 4.530000000000000000e+02 4.540000000000000000e+02 4.550000000000000000e+02 4.560000000000000000e+02 4.570000000000000000e+02 4.580000000000000000e+02 4.590000000000000000e+02 4.600000000000000000e+02 4.610000000000000000e+02 4.620000000000000000e+02 4.630000000000000000e+02 4.640000000000000000e+02 4.650000000000000000e+02 4.660000000000000000e+02 4.670000000000000000e+02 4.680000000000000000e+02 4.690000000000000000e+02 4.700000000000000000e+02 4.710000000000000000e+02 4.720000000000000000e+02 4.730000000000000000e+02 4.740000000000000000e+02 4.750000000000000000e+02 4.760000000000000000e+02 4.770000000000000000e+02 4.780000000000000000e+02 4.790000000000000000e+02 4.800000000000000000e+02 4.810000000000000000e+02 4.820000000000000000e+02 4.830000000000000000e+02 4.840000000000000000e+02 4.850000000000000000e+02 4.860000000000000000e+02 4.870000000000000000e+02 4.880000000000000000e+02 4.890000000000000000e+02 4.900000000000000000e+02 4.910000000000000000e+02 4.920000000000000000e+02 4.930000000000000000e+02 4.940000000000000000e+02 4.950000000000000000e+02 4.960000000000000000e+02 4.970000000000000000e+02 4.980000000000000000e+02 4.990000000000000000e+02 5.000000000000000000e+02 5.010000000000000000e+02 5.020000000000000000e+02 5.030000000000000000e+02 5.040000000000000000e+02 5.050000000000000000e+02 5.060000000000000000e+02 5.070000000000000000e+02 5.080000000000000000e+02 5.090000000000000000e+02 5.100000000000000000e+02 5.110000000000000000e+02 5.120000000000000000e+02 5.130000000000000000e+02 5.140000000000000000e+02 5.150000000000000000e+02 5.160000000000000000e+02 5.170000000000000000e+02 5.180000000000000000e+02 5.190000000000000000e+02 5.200000000000000000e+02 5.210000000000000000e+02 5.220000000000000000e+02 5.230000000000000000e+02 5.240000000000000000e+02 5.250000000000000000e+02 5.260000000000000000e+02 5.270000000000000000e+02 5.280000000000000000e+02 5.290000000000000000e+02 5.300000000000000000e+02 5.310000000000000000e+02 5.320000000000000000e+02 5.330000000000000000e+02 5.340000000000000000e+02 5.350000000000000000e+02 5.360000000000000000e+02 5.370000000000000000e+02 5.380000000000000000e+02 5.390000000000000000e+02 5.400000000000000000e+02 5.410000000000000000e+02 5.420000000000000000e+02 5.430000000000000000e+02 5.440000000000000000e+02 5.450000000000000000e+02 5.460000000000000000e+02 5.470000000000000000e+02 5.480000000000000000e+02 5.490000000000000000e+02 5.500000000000000000e+02 5.510000000000000000e+02 5.520000000000000000e+02 5.530000000000000000e+02 5.540000000000000000e+02 5.550000000000000000e+02 5.560000000000000000e+02 5.570000000000000000e+02 5.580000000000000000e+02 5.590000000000000000e+02 5.600000000000000000e+02 5.610000000000000000e+02 5.620000000000000000e+02 5.630000000000000000e+02 5.640000000000000000e+02 5.650000000000000000e+02 5.660000000000000000e+02 5.670000000000000000e+02 5.680000000000000000e+02 5.690000000000000000e+02 5.700000000000000000e+02 5.710000000000000000e+02 5.720000000000000000e+02 5.730000000000000000e+02 5.740000000000000000e+02 5.750000000000000000e+02 5.760000000000000000e+02 5.770000000000000000e+02 5.780000000000000000e+02 5.790000000000000000e+02 5.800000000000000000e+02 5.810000000000000000e+02 5.820000000000000000e+02 5.830000000000000000e+02 5.840000000000000000e+02 5.850000000000000000e+02 5.860000000000000000e+02 5.870000000000000000e+02 5.880000000000000000e+02 5.890000000000000000e+02 5.900000000000000000e+02 5.910000000000000000e+02 5.920000000000000000e+02 5.930000000000000000e+02 5.940000000000000000e+02 5.950000000000000000e+02 5.960000000000000000e+02 5.970000000000000000e+02 5.980000000000000000e+02 5.990000000000000000e+02 6.000000000000000000e+02 6.010000000000000000e+02 6.020000000000000000e+02 6.030000000000000000e+02 6.040000000000000000e+02 6.050000000000000000e+02 6.060000000000000000e+02 6.070000000000000000e+02 6.080000000000000000e+02 6.090000000000000000e+02 6.100000000000000000e+02 6.110000000000000000e+02 6.120000000000000000e+02 6.130000000000000000e+02 6.140000000000000000e+02 6.150000000000000000e+02 6.160000000000000000e+02 6.170000000000000000e+02 6.180000000000000000e+02 6.190000000000000000e+02 6.200000000000000000e+02 6.210000000000000000e+02 6.220000000000000000e+02 6.230000000000000000e+02 6.240000000000000000e+02 6.250000000000000000e+02 6.260000000000000000e+02 6.270000000000000000e+02 6.280000000000000000e+02 6.290000000000000000e+02 6.300000000000000000e+02 6.310000000000000000e+02 6.320000000000000000e+02 6.330000000000000000e+02 6.340000000000000000e+02 6.350000000000000000e+02 6.360000000000000000e+02 6.370000000000000000e+02 6.380000000000000000e+02 6.390000000000000000e+02 6.400000000000000000e+02 6.410000000000000000e+02 6.420000000000000000e+02 6.430000000000000000e+02 6.440000000000000000e+02 6.450000000000000000e+02 6.460000000000000000e+02 6.470000000000000000e+02 6.480000000000000000e+02 6.490000000000000000e+02 6.500000000000000000e+02 6.510000000000000000e+02 6.520000000000000000e+02 6.530000000000000000e+02 6.540000000000000000e+02 6.550000000000000000e+02 6.560000000000000000e+02 6.570000000000000000e+02 6.580000000000000000e+02 6.590000000000000000e+02 6.600000000000000000e+02 6.610000000000000000e+02 6.620000000000000000e+02 6.630000000000000000e+02 6.640000000000000000e+02 6.650000000000000000e+02 6.660000000000000000e+02 6.670000000000000000e+02 6.680000000000000000e+02 6.690000000000000000e+02 6.700000000000000000e+02 6.710000000000000000e+02 6.720000000000000000e+02 6.730000000000000000e+02 6.740000000000000000e+02 6.750000000000000000e+02 6.760000000000000000e+02 6.770000000000000000e+02 6.780000000000000000e+02 6.790000000000000000e+02 6.800000000000000000e+02 6.810000000000000000e+02 6.820000000000000000e+02 6.830000000000000000e+02 6.840000000000000000e+02 6.850000000000000000e+02 6.860000000000000000e+02 6.870000000000000000e+02 6.880000000000000000e+02 6.890000000000000000e+02 6.900000000000000000e+02 6.910000000000000000e+02 6.920000000000000000e+02 6.930000000000000000e+02 6.940000000000000000e+02 6.950000000000000000e+02 6.960000000000000000e+02 6.970000000000000000e+02 6.980000000000000000e+02 6.990000000000000000e+02 7.000000000000000000e+02 7.010000000000000000e+02 7.020000000000000000e+02 7.030000000000000000e+02 7.040000000000000000e+02 7.050000000000000000e+02 7.060000000000000000e+02 7.070000000000000000e+02 7.080000000000000000e+02 7.090000000000000000e+02 7.100000000000000000e+02 7.110000000000000000e+02 7.120000000000000000e+02 7.130000000000000000e+02 7.140000000000000000e+02 7.150000000000000000e+02 7.160000000000000000e+02 7.170000000000000000e+02 7.180000000000000000e+02 7.190000000000000000e+02 7.200000000000000000e+02 7.210000000000000000e+02 7.220000000000000000e+02 7.230000000000000000e+02 7.240000000000000000e+02 7.250000000000000000e+02 7.260000000000000000e+02 7.270000000000000000e+02 7.280000000000000000e+02 7.290000000000000000e+02 7.300000000000000000e+02 7.310000000000000000e+02 7.320000000000000000e+02 7.330000000000000000e+02 7.340000000000000000e+02 7.350000000000000000e+02 7.360000000000000000e+02 7.370000000000000000e+02 7.380000000000000000e+02 7.390000000000000000e+02 7.400000000000000000e+02 7.410000000000000000e+02 7.420000000000000000e+02 7.430000000000000000e+02 7.440000000000000000e+02 7.450000000000000000e+02 7.460000000000000000e+02 7.470000000000000000e+02 7.480000000000000000e+02 7.490000000000000000e+02 7.500000000000000000e+02 7.510000000000000000e+02 7.520000000000000000e+02 7.530000000000000000e+02 7.540000000000000000e+02 7.550000000000000000e+02 7.560000000000000000e+02 7.570000000000000000e+02 7.580000000000000000e+02 7.590000000000000000e+02 7.600000000000000000e+02 7.610000000000000000e+02 7.620000000000000000e+02 7.630000000000000000e+02 7.640000000000000000e+02 7.650000000000000000e+02 7.660000000000000000e+02 7.670000000000000000e+02 7.680000000000000000e+02 7.690000000000000000e+02 7.700000000000000000e+02 7.710000000000000000e+02 7.720000000000000000e+02 7.730000000000000000e+02 7.740000000000000000e+02 7.750000000000000000e+02 7.760000000000000000e+02 7.770000000000000000e+02 7.780000000000000000e+02 7.790000000000000000e+02 7.800000000000000000e+02 7.810000000000000000e+02 7.820000000000000000e+02 7.830000000000000000e+02 7.840000000000000000e+02 7.850000000000000000e+02 7.860000000000000000e+02 7.870000000000000000e+02 7.880000000000000000e+02 7.890000000000000000e+02 7.900000000000000000e+02 7.910000000000000000e+02 7.920000000000000000e+02 7.930000000000000000e+02 7.940000000000000000e+02 7.950000000000000000e+02 7.960000000000000000e+02 7.970000000000000000e+02 7.980000000000000000e+02 7.990000000000000000e+02 8.000000000000000000e+02 8.010000000000000000e+02 8.020000000000000000e+02 8.030000000000000000e+02 8.040000000000000000e+02 8.050000000000000000e+02 8.060000000000000000e+02 8.070000000000000000e+02 8.080000000000000000e+02 8.090000000000000000e+02 8.100000000000000000e+02 8.110000000000000000e+02 8.120000000000000000e+02 8.130000000000000000e+02 8.140000000000000000e+02 8.150000000000000000e+02 8.160000000000000000e+02 8.170000000000000000e+02 8.180000000000000000e+02 8.190000000000000000e+02 8.200000000000000000e+02 8.210000000000000000e+02 8.220000000000000000e+02 8.230000000000000000e+02 8.240000000000000000e+02 8.250000000000000000e+02 8.260000000000000000e+02 8.270000000000000000e+02 8.280000000000000000e+02 8.290000000000000000e+02 8.300000000000000000e+02 8.310000000000000000e+02 8.320000000000000000e+02 8.330000000000000000e+02 8.340000000000000000e+02 8.350000000000000000e+02 8.360000000000000000e+02 8.370000000000000000e+02 8.380000000000000000e+02 8.390000000000000000e+02 8.400000000000000000e+02 8.410000000000000000e+02 8.420000000000000000e+02 8.430000000000000000e+02 8.440000000000000000e+02 8.450000000000000000e+02 8.460000000000000000e+02 8.470000000000000000e+02 8.480000000000000000e+02 8.490000000000000000e+02 8.500000000000000000e+02 8.510000000000000000e+02 8.520000000000000000e+02 8.530000000000000000e+02 8.540000000000000000e+02 8.550000000000000000e+02 8.560000000000000000e+02 8.570000000000000000e+02 8.580000000000000000e+02 8.590000000000000000e+02 8.600000000000000000e+02 8.610000000000000000e+02 8.620000000000000000e+02 8.630000000000000000e+02 8.640000000000000000e+02 8.650000000000000000e+02 8.660000000000000000e+02 8.670000000000000000e+02 8.680000000000000000e+02 8.690000000000000000e+02 8.700000000000000000e+02 8.710000000000000000e+02 8.720000000000000000e+02 8.730000000000000000e+02 8.740000000000000000e+02 8.750000000000000000e+02 8.760000000000000000e+02 8.770000000000000000e+02 8.780000000000000000e+02 8.790000000000000000e+02 8.800000000000000000e+02 8.810000000000000000e+02 8.820000000000000000e+02 8.830000000000000000e+02 8.840000000000000000e+02 8.850000000000000000e+02 8.860000000000000000e+02 8.870000000000000000e+02 8.880000000000000000e+02 8.890000000000000000e+02 8.900000000000000000e+02 8.910000000000000000e+02 8.920000000000000000e+02 8.930000000000000000e+02 8.940000000000000000e+02 8.950000000000000000e+02 8.960000000000000000e+02 8.970000000000000000e+02 8.980000000000000000e+02 8.990000000000000000e+02 9.000000000000000000e+02 9.010000000000000000e+02 9.020000000000000000e+02 9.030000000000000000e+02 9.040000000000000000e+02 9.050000000000000000e+02 9.060000000000000000e+02 9.070000000000000000e+02 9.080000000000000000e+02 9.090000000000000000e+02 9.100000000000000000e+02 9.110000000000000000e+02 9.120000000000000000e+02 9.130000000000000000e+02 9.140000000000000000e+02 9.150000000000000000e+02 9.160000000000000000e+02 9.170000000000000000e+02 9.180000000000000000e+02 9.190000000000000000e+02 9.200000000000000000e+02 9.210000000000000000e+02 9.220000000000000000e+02 9.230000000000000000e+02 9.240000000000000000e+02 9.250000000000000000e+02 9.260000000000000000e+02 9.270000000000000000e+02 9.280000000000000000e+02 9.290000000000000000e+02 9.300000000000000000e+02 9.310000000000000000e+02 9.320000000000000000e+02 9.330000000000000000e+02 9.340000000000000000e+02 9.350000000000000000e+02 9.360000000000000000e+02 9.370000000000000000e+02 9.380000000000000000e+02 9.390000000000000000e+02 9.400000000000000000e+02 9.410000000000000000e+02 9.420000000000000000e+02 9.430000000000000000e+02 9.440000000000000000e+02 9.450000000000000000e+02 9.460000000000000000e+02 9.470000000000000000e+02 9.480000000000000000e+02 9.490000000000000000e+02 9.500000000000000000e+02 9.510000000000000000e+02 9.520000000000000000e+02 9.530000000000000000e+02 9.540000000000000000e+02 9.550000000000000000e+02 9.560000000000000000e+02 9.570000000000000000e+02 9.580000000000000000e+02 9.590000000000000000e+02 9.600000000000000000e+02 9.610000000000000000e+02 9.620000000000000000e+02 9.630000000000000000e+02 9.640000000000000000e+02 9.650000000000000000e+02 9.660000000000000000e+02 9.670000000000000000e+02 9.680000000000000000e+02 9.690000000000000000e+02 9.700000000000000000e+02 9.710000000000000000e+02 9.720000000000000000e+02 9.730000000000000000e+02 9.740000000000000000e+02 9.750000000000000000e+02 9.760000000000000000e+02 9.770000000000000000e+02 9.780000000000000000e+02 9.790000000000000000e+02 9.800000000000000000e+02 9.810000000000000000e+02 9.820000000000000000e+02 9.830000000000000000e+02 9.840000000000000000e+02 9.850000000000000000e+02 9.860000000000000000e+02 9.870000000000000000e+02 9.880000000000000000e+02 9.890000000000000000e+02 9.900000000000000000e+02 9.910000000000000000e+02 9.920000000000000000e+02 9.930000000000000000e+02 9.940000000000000000e+02 9.950000000000000000e+02 9.960000000000000000e+02 9.970000000000000000e+02 9.980000000000000000e+02 9.990000000000000000e+02
1.000000000000000000e+00 1.000000000000000000e+00 1.000000000000000000e+00 1.000000000000000000e+00 1.000000000000000000e+00 1.000000000000000000e+00 1.000000000000000000e+00 1.000000000000000000e+00 1.000000000000000000e+00 1.000000000000000000e+00 1.000000000000000000e+00 1.000000000000000000e+00 1.000000000000000000e+00 1.000000000000000000e+00 1.000000000000000000e+00 1.000000000000000000e+00 1.000000000000000000e+00 1.000000000000000000e+00 1.000000000000000000e+00 1.000000000000000000e+00 1.000000000000000000e+00 1.000000000000000000e+00 1.000000000000000000e+00 1.000000000000000000e+00 1.000000000000000000e+00 1.000000000000000000e+00 1.000000000000000000e+00 1.000000000000000000e+00 1.000000000000000000e+00 1.000000000000000000e+00 1.000000000000000000e+00 1.000000000000000000e+00 1.000000000000000000e+00 1.000000000000000000e+00 1.000000000000000000e+00 1.000000000000000000e+00 1.000000000000000000e+00 1.000000000000000000e+00 1.000000000000000000e+00 1.000000000000000000e+00 1.000000000000000000e+00 1.000000000000000000e+00 1.000000000000000000e+00 1.000000000000000000e+00 1.000000000000000000e+00 1.000000000000000000e+00 1.000000000000000000e+00 1.000000000000000000e+00 1.000000000000000000e+00 1.000000000000000000e+00 1.000000000000000000e+00 1.000000000000000000e+00 1.000000000000000000e+00 1.000000000000000000e+00 1.000000000000000000e+00 1.000000000000000000e+00 1.000000000000000000e+00 1.000000000000000000e+00 1.000000000000000000e+00 1.000000000000000000e+00 1.000000000000000000e+00 1.000000000000000000e+00 1.000000000000000000e+00 1.000000000000000000e+00 1.000000000000000000e+00 1.000000000000000000e+00 1.000000000000000000e+00 1.000000000000000000e+00 1.000000000000000000e+00 1.000000000000000000e+00 1.000000000000000000e+00 1.000000000000000000e+00 1.000000000000000000e+00 1.000000000000000000e+00 1.000000000000000000e+00 1.000000000000000000e+00 1.000000000000000000e+00 1.000000000000000000e+00 1.000000000000000000e+00 1.000000000000000000e+00 1.000000000000000000e+00 1.000000000000000000e+00 1.000000000000000000e+00 1.000000000000000000e+00 1.000000000000000000e+00 1.000000000000000000e+00 1.000000000000000000e+00 1.000000000000000000e+00 1.000000000000000000e+00 1.000000000000000000e+00 1.000000000000000000e+00 1.000000000000000000e+00 1.000000000000000000e+00 1.000000000000000000e+00 1.000000000000000000e+00 1.000000000000000000e+00 1.000000000000000000e+00 1.000000000000000000e+00 1.000000000000000000e+00 1.000000000000000000e+00 1.000000000000000000e+00 1.000000000000000000e+00 1.000000000000000000e+00 1.000000000000000000e+00 1.000000000000000000e+00 1.000000000000000000e+00 1.000000000000000000e+00 1.000000000000000000e+00 1.000000000000000000e+00 1.000000000000000000e+00 1.000000000000000000e+00 1.000000000000000000e+00 1.000000000000000000e+00 1.000000000000000000e+00 1.000000000000000000e+00 1.000000000000000000e+00 1.000000000000000000e+00 1.000000000000000000e+00 1.000000000000000000e+00 1.000000000000000000e+00 1.000000000000000000e+00 1.000000000000000000e+00 1.000000000000000000e+00 1.000000000000000000e+00 1.000000000000000000e+00 1.000000000000000000e+00 1.000000000000000000e+00 1.000000000000000000e+00 1.000000000000000000e+00 1.000000000000000000e+00 1.000000000000000000e+00 1.000000000000000000e+00 1.000000000000000000e+00 1.000000000000000000e+00 1.000000000000000000e+00 1.000000000000000000e+00 1.000000000000000000e+00 1.000000000000000000e+00 1.000000000000000000e+00 1.000000000000000000e+00 1.000000000000000000e+00 1.000000000000000000e+00 1.000000000000000000e+00 1.000000000000000000e+00 1.000000000000000000e+00 1.000000000000000000e+00 1.000000000000000000e+00 1.000000000000000000e+00 1.000000000000000000e+00 1.000000000000000000e+00 1.000000000000000000e+00 1.000000000000000000e+00 1.000000000000000000e+00 1.000000000000000000e+00 1.000000000000000000e+00 1.000000000000000000e+00 1.000000000000000000e+00 1.000000000000000000e+00 1.000000000000000000e+00 1.000000000000000000e+00 1.000000000000000000e+00 1.000000000000000000e+00 1.000000000000000000e+00 1.000000000000000000e+00 1.000000000000000000e+00 1.000000000000000000e+00 1.000000000000000000e+00 1.000000000000000000e+00 1.000000000000000000e+00 1.000000000000000000e+00 1.000000000000000000e+00 1.000000000000000000e+00 1.000000000000000000e+00 1.000000000000000000e+00 1.000000000000000000e+00 1.000000000000000000e+00 1.000000000000000000e+00 1.000000000000000000e+00 1.000000000000000000e+00 1.000000000000000000e+00 1.000000000000000000e+00 1.000000000000000000e+00 1.000000000000000000e+00 1.000000000000000000e+00 1.000000000000000000e+00 1.000000000000000000e+00 1.000000000000000000e+00 1.000000000000000000e+00 1.000000000000000000e+00 1.000000000000000000e+00 1.000000000000000000e+00 1.000000000000000000e+00 1.000000000000000000e+00 1.000000000000000000e+00 1.000000000000000000e+00 1.000000000000000000e+00 1.000000000000000000e+00 1.000000000000000000e+00 1.000000000000000000e+00 1.000000000000000000e+00 1.000000000000000000e+00 1.000000000000000000e+00 1.000000000000000000e+00 1.000000000000000000e+00 1.000000000000000000e+00 1.000000000000000000e+00 1.000000000000000000e+00 1.000000000000000000e+00 1.000000000000000000e+00 1.000000000000000000e+00 1.000000000000000000e+00 1.000000000000000000e+00 1.000000000000000000e+00 1.000000000000000000e+00 1.000000000000000000e+00 1.000000000000000000e+00 1.000000000000000000e+00 1.000000000000000000e+00 1.000000000000000000e+00 1.000000000000000000e+00 1.000000000000000000e+00 1.000000000000000000e+00 1.000000000000000000e+00 1.000000000000000000e+00 1.000000000000000000e+00 1.000000000000000000e+00 1.000000000000000000e+00 1.000000000000000000e+00 1.000000000000000000e+00 1.000000000000000000e+00 1.000000000000000000e+00 1.000000000000000000e+00 1.000000000000000000e+00 1.000000000000000000e+00 1.000000000000000000e+00 1.000000000000000000e+00 1.000000000000000000e+00 1.000000000000000000e+00 1.000000000000000000e+00 1.000000000000000000e+00 1.000000000000000000e+00 1.000000000000000000e+00 1.000000000000000000e+00 1.000000000000000000e+00 1.000000000000000000e+00 1.000000000000000000e+00 1.000000000000000000e+00 1.000000000000000000e+00 1.000000000000000000e+00 1.000000000000000000e+00 1.000000000000000000e+00 1.000000000000000000e+00 1.000000000000000000e+00 1.000000000000000000e+00 1.000000000000000000e+00 1.000000000000000000e+00 1.000000000000000000e+00 1.000000000000000000e+00 1.000000000000000000e+00 1.000000000000000000e+00 1.000000000000000000e+00 1.000000000000000000e+00 1.000000000000000000e+00 1.000000000000000000e+00 1.000000000000000000e+00 1.000000000000000000e+00 1.000000000000000000e+00 1.000000000000000000e+00 1.000000000000000000e+00 1.000000000000000000e+00 1.000000000000000000e+00 1.000000000000000000e+00 1.000000000000000000e+00 1.000000000000000000e+00 1.000000000000000000e+00 1.000000000000000000e+00 1.000000000000000000e+00 1.000000000000000000e+00 1.000000000000000000e+00 1.000000000000000000e+00 1.000000000000000000e+00 1.000000000000000000e+00 1.000000000000000000e+00 1.000000000000000000e+00 1.000000000000000000e+00 1.000000000000000000e+00 1.000000000000000000e+00 1.000000000000000000e+00 1.000000000000000000e+00 1.000000000000000000e+00 1.000000000000000000e+00 1.000000000000000000e+00 1.000000000000000000e+00 1.000000000000000000e+00 1.000000000000000000e+00 1.000000000000000000e+00 1.000000000000000000e+00 1.000000000000000000e+00 1.000000000000000000e+00 1.000000000000000000e+00 1.000000000000000000e+00 1.000000000000000000e+00 1.000000000000000000e+00 1.000000000000000000e+00 1.000000000000000000e+00 1.000000000000000000e+00 1.000000000000000000e+00 1.000000000000000000e+00 1.000000000000000000e+00 1.000000000000000000e+00 1.000000000000000000e+00 1.000000000000000000e+00 1.000000000000000000e+00 1.000000000000000000e+00 1.000000000000000000e+00 1.000000000000000000e+00 1.000000000000000000e+00 1.000000000000000000e+00 1.000000000000000000e+00 1.000000000000000000e+00 1.000000000000000000e+00 1.000000000000000000e+00 1.000000000000000000e+00 1.000000000000000000e+00 1.000000000000000000e+00 1.000000000000000000e+00 1.000000000000000000e+00 1.000000000000000000e+00 1.000000000000000000e+00 1.000000000000000000e+00 1.000000000000000000e+00 1.000000000000000000e+00 1.000000000000000000e+00 1.000000000000000000e+00 1.000000000000000000e+00 1.000000000000000000e+00 1.000000000000000000e+00 1.000000000000000000e+00 1.000000000000000000e+00 1.000000000000000000e+00 1.000000000000000000e+00 1.000000000000000000e+00 1.000000000000000000e+00 1.000000000000000000e+00 1.000000000000000000e+00 1.000000000000000000e+00 1.000000000000000000e+00 1.000000000000000000e+00 1.000000000000000000e+00 1.000000000000000000e+00 1.000000000000000000e+00 1.000000000000000000e+00 1.000000000000000000e+00 1.000000000000000000e+00 1.000000000000000000e+00 1.000000000000000000e+00 1.000000000000000000e+00 1.000000000000000000e+00 1.000000000000000000e+00 1.000000000000000000e+00 1.000000000000000000e+00 1.000000000000000000e+00 1.000000000000000000e+00 1.000000000000000000e+00 1.000000000000000000e+00 1.000000000000000000e+00 1.000000000000000000e+00 1.000000000000000000e+00 1.000000000000000000e+00 1.000000000000000000e+00 1.000000000000000000e+00 1.000000000000000000e+00 1.000000000000000000e+00 1.000000000000000000e+00 1.000000000000000000e+00 1.000000000000000000e+00 1.000000000000000000e+00 1.000000000000000000e+00 1.000000000000000000e+00 1.000000000000000000e+00 1.000000000000000000e+00 1.000000000000000000e+00 1.000000000000000000e+00 1.000000000000000000e+00 1.000000000000000000e+00 1.000000000000000000e+00 1.000000000000000000e+00 1.000000000000000000e+00 1.000000000000000000e+00 1.000000000000000000e+00 1.000000000000000000e+00 1.000000000000000000e+00 1.000000000000000000e+00 1.000000000000000000e+00 1.000000000000000000e+00 1.000000000000000000e+00 1.000000000000000000e+00 1.000000000000000000e+00 1.000000000000000000e+00 1.000000000000000000e+00 1.000000000000000000e+00 1.000000000000000000e+00 1.000000000000000000e+00 1.000000000000000000e+00 1.000000000000000000e+00 1.000000000000000000e+00 1.000000000000000000e+00 1.000000000000000000e+00 1.000000000000000000e+00 1.000000000000000000e+00 1.000000000000000000e+00 1.000000000000000000e+00 1.000000000000000000e+00 1.000000000000000000e+00 1.000000000000000000e+00 1.000000000000000000e+00 1.000000000000000000e+00 1.000000000000000000e+00 1.000000000000000000e+00 1.000000000000000000e+00 1.000000000000000000e+00 1.000000000000000000e+00 1.000000000000000000e+00 1.000000000000000000e+00 1.000000000000000000e+00 1.000000000000000000e+00 1.000000000000000000e+00 1.000000000000000000e+00 1.000000000000000000e+00 1.000000000000000000e+00 1.000000000000000000e+00 1.000000000000000000e+00 1.000000000000000000e+00 1.000000000000000000e+00 1.000000000000000000e+00 1.000000000000000000e+00 1.000000000000000000e+00 1.000000000000000000e+00 1.000000000000000000e+00 1.000000000000000000e+00 1.000000000000000000e+00 1.000000000000000000e+00 1.000000000000000000e+00 1.000000000000000000e+00 1.000000000000000000e+00 1.000000000000000000e+00 1.000000000000000000e+00 1.000000000000000000e+00 1.000000000000000000e+00 1.000000000000000000e+00 1.000000000000000000e+00 1.000000000000000000e+00 1.000000000000000000e+00 1.000000000000000000e+00 1.000000000000000000e+00 1.000000000000000000e+00 1.000000000000000000e+00 1.000000000000000000e+00 1.000000000000000000e+00 1.000000000000000000e+00 1.000000000000000000e+00 1.000000000000000000e+00 1.000000000000000000e+00 1.000000000000000000e+00 1.000000000000000000e+00 1.000000000000000000e+00 1.000000000000000000e+00 1.000000000000000000e+00 1.000000000000000000e+00 1.000000000000000000e+00 1.000000000000000000e+00 1.000000000000000000e+00 1.000000000000000000e+00 1.000000000000000000e+00 1.000000000000000000e+00 1.000000000000000000e+00 1.000000000000000000e+00 1.000000000000000000e+00 1.000000000000000000e+00 1.000000000000000000e+00 1.000000000000000000e+00 1.000000000000000000e+00 1.000000000000000000e+00 1.000000000000000000e+00 1.000000000000000000e+00 1.000000000000000000e+00 1.000000000000000000e+00 1.000000000000000000e+00 1.000000000000000000e+00 1.000000000000000000e+00 1.000000000000000000e+00 1.000000000000000000e+00 1.000000000000000000e+00 1.000000000000000000e+00 1.000000000000000000e+00 1.000000000000000000e+00 1.000000000000000000e+00 1.000000000000000000e+00 1.000000000000000000e+00 1.000000000000000000e+00 1.000000000000000000e+00 1.000000000000000000e+00 1.000000000000000000e+00 1.000000000000000000e+00 1.000000000000000000e+00 1.000000000000000000e+00 1.000000000000000000e+00 1.000000000000000000e+00 1.000000000000000000e+00 1.000000000000000000e+00 1.000000000000000000e+00 1.000000000000000000e+00 1.000000000000000000e+00 1.000000000000000000e+00 1.000000000000000000e+00 1.000000000000000000e+00 1.000000000000000000e+00 1.000000000000000000e+00 1.000000000000000000e+00 1.000000000000000000e+00 1.000000000000000000e+00 1.000000000000000000e+00 1.000000000000000000e+00 1.000000000000000000e+00 1.000000000000000000e+00 1.000000000000000000e+00 1.000000000000000000e+00 1.000000000000000000e+00 1.000000000000000000e+00 1.000000000000000000e+00 1.000000000000000000e+00 1.000000000000000000e+00 1.000000000000000000e+00 1.000000000000000000e+00 1.000000000000000000e+00 1.000000000000000000e+00 1.000000000000000000e+00 1.000000000000000000e+00 1.000000000000000000e+00 1.000000000000000000e+00 1.000000000000000000e+00 1.000000000000000000e+00 1.000000000000000000e+00 1.000000000000000000e+00 1.000000000000000000e+00 1.000000000000000000e+00 1.000000000000000000e+00 1.000000000000000000e+00 1.000000000000000000e+00 1.000000000000000000e+00 1.000000000000000000e+00 1.000000000000000000e+00 1.000000000000000000e+00 1.000000000000000000e+00 1.000000000000000000e+00 1.000000000000000000e+00 1.000000000000000000e+00 1.000000000000000000e+00 1.000000000000000000e+00 1.000000000000000000e+00 1.000000000000000000e+00 1.000000000000000000e+00 1.000000000000000000e+00 1.000000000000000000e+00 1.000000000000000000e+00 1.000000000000000000e+00 1.000000000000000000e+00 1.000000000000000000e+00 1.000000000000000000e+00 1.000000000000000000e+00 1.000000000000000000e+00 1.000000000000000000e+00 1.000000000000000000e+00 1.000000000000000000e+00 1.000000000000000000e+00 1.000000000000000000e+00 1.000000000000000000e+00 1.000000000000000000e+00 1.000000000000000000e+00 1.000000000000000000e+00 1.000000000000000000e+00 1.000000000000000000e+00 1.000000000000000000e+00 1.000000000000000000e+00 1.000000000000000000e+00 1.000000000000000000e+00 1.000000000000000000e+00 1.000000000000000000e+00 1.000000000000000000e+00 1.000000000000000000e+00 1.000000000000000000e+00 1.000000000000000000e+00 1.000000000000000000e+00 1.000000000000000000e+00 1.000000000000000000e+00 1.000000000000000000e+00 1.000000000000000000e+00 1.000000000000000000e+00 1.000000000000000000e+00 1.000000000000000000e+00 1.000000000000000000e+00 1.000000000000000000e+00 1.000000000000000000e+00 1.000000000000000000e+00 1.000000000000000000e+00 1.000000000000000000e+00 1.000000000000000000e+00 1.000000000000000000e+00 1.000000000000000000e+00 1.000000000000000000e+00 1.000000000000000000e+00 1.000000000000000000e+00 1.000000000000000000e+00 1.000000000000000000e+00 1.000000000000000000e+00 1.000000000000000000e+00 1.000000000000000000e+00 1.000000000000000000e+00 1.000000000000000000e+00 1.000000000000000000e+00 1.000000000000000000e+00 1.000000000000000000e+00 1.000000000000000000e+00 1.000000000000000000e+00 1.000000000000000000e+00 1.000000000000000000e+00 1.000000000000000000e+00 1.000000000000000000e+00 1.000000000000000000e+00 1.000000000000000000e+00 1.000000000000000000e+00 1.000000000000000000e+00 1.000000000000000000e+00 1.000000000000000000e+00 1.000000000000000000e+00 1.000000000000000000e+00 1.000000000000000000e+00 1.000000000000000000e+00 1.000000000000000000e+00 1.000000000000000000e+00 1.000000000000000000e+00 1.000000000000000000e+00 1.000000000000000000e+00 1.000000000000000000e+00 1.000000000000000000e+00 1.000000000000000000e+00 1.000000000000000000e+00 1.000000000000000000e+00 1.000000000000000000e+00 1.000000000000000000e+00 1.000000000000000000e+00 1.000000000000000000e+00 1.000000000000000000e+00 1.000000000000000000e+00 1.000000000000000000e+00 1.000000000000000000e+00 1.000000000000000000e+00 1.000000000000000000e+00 1.000000000000000000e+00 1.000000000000000000e+00 1.000000000000000000e+00 1.000000000000000000e+00 1.000000000000000000e+00 1.000000000000000000e+00 1.000000000000000000e+00 1.000000000000000000e+00 1.000000000000000000e+00 1.000000000000000000e+00 1.000000000000000000e+00 1.000000000000000000e+00 1.000000000000000000e+00 1.000000000000000000e+00 1.000000000000000000e+00 1.000000000000000000e+00 1.000000000000000000e+00 1.000000000000000000e+00 1.000000000000000000e+00 1.000000000000000000e+00 1.000000000000000000e+00 1.000000000000000000e+00 1.000000000000000000e+00 1.000000000000000000e+00 1.000000000000000000e+00 1.000000000000000000e+00 1.000000000000000000e+00 1.000000000000000000e+00 1.000000000000000000e+00 1.000000000000000000e+00 1.000000000000000000e+00 1.000000000000000000e+00 1.000000000000000000e+00 1.000000000000000000e+00 1.000000000000000000e+00 1.000000000000000000e+00 1.000000000000000000e+00 1.000000000000000000e+00 1.000000000000000000e+00 1.000000000000000000e+00 1.000000000000000000e+00 1.000000000000000000e+00 1.000000000000000000e+00 1.000000000000000000e+00 1.000000000000000000e+00 1.000000000000000000e+00 1.000000000000000000e+00 1.000000000000000000e+00 1.000000000000000000e+00 1.000000000000000000e+00 1.000000000000000000e+00 1.000000000000000000e+00 1.000000000000000000e+00 1.000000000000000000e+00 1.000000000000000000e+00 1.000000000000000000e+00 1.000000000000000000e+00 1.000000000000000000e+00 1.000000000000000000e+00 1.000000000000000000e+00 1.000000000000000000e+00 1.000000000000000000e+00 1.000000000000000000e+00 1.000000000000000000e+00 1.000000000000000000e+00 1.000000000000000000e+00 1.000000000000000000e+00 1.000000000000000000e+00 1.000000000000000000e+00 1.000000000000000000e+00 1.000000000000000000e+00 1.000000000000000000e+00 1.000000000000000000e+00 1.000000000000000000e+00 1.000000000000000000e+00 1.000000000000000000e+00 1.000000000000000000e+00 1.000000000000000000e+00 1.000000000000000000e+00 1.000000000000000000e+00 1.000000000000000000e+00 1.000000000000000000e+00 1.000000000000000000e+00 1.000000000000000000e+00 1.000000000000000000e+00 1.000000000000000000e+00 1.000000000000000000e+00 1.000000000000000000e+00 1.000000000000000000e+00 1.000000000000000000e+00 1.000000000000000000e+00 1.000000000000000000e+00 1.000000000000000000e+00 1.000000000000000000e+00 1.000000000000000000e+00 1.000000000000000000e+00 1.000000000000000000e+00 1.000000000000000000e+00 1.000000000000000000e+00 1.000000000000000000e+00 1.000000000000000000e+00 1.000000000000000000e+00 1.000000000000000000e+00 1.000000000000000000e+00 1.000000000000000000e+00 1.000000000000000000e+00 1.000000000000000000e+00 1.000000000000000000e+00 1.000000000000000000e+00 1.000000000000000000e+00 1.000000000000000000e+00 1.000000000000000000e+00 1.000000000000000000e+00 1.000000000000000000e+00 1.000000000000000000e+00 1.000000000000000000e+00 1.000000000000000000e+00 1.000000000000000000e+00 1.000000000000000000e+00 1.000000000000000000e+00 1.000000000000000000e+00 1.000000000000000000e+00 1.000000000000000000e+00 1.000000000000000000e+00 1.000000000000000000e+00 1.000000000000000000e+00 1.000000000000000000e+00 1.000000000000000000e+00 1.000000000000000000e+00 1.000000000000000000e+00 1.000000000000000000e+00 1.000000000000000000e+00 1.000000000000000000e+00 1.000000000000000000e+00 1.000000000000000000e+00 1.000000000000000000e+00 1.000000000000000000e+00 1.000000000000000000e+00 1.000000000000000000e+00 1.000000000000000000e+00 1.000000000000000000e+00 1.000000000000000000e+00 1.000000000000000000e+00 1.000000000000000000e+00 1.000000000000000000e+00 1.000000000000000000e+00 1.000000000000000000e+00 1.000000000000000000e+00 1.000000000000000000e+00 1.000000000000000000e+00 1.000000000000000000e+00 1.000000000000000000e+00 1.000000000000000000e+00 1.000000000000000000e+00 1.000000000000000000e+00 1.000000000000000000e+00 1.000000000000000000e+00 1.000000000000000000e+00 1.000000000000000000e+00 1.000000000000000000e+00 1.000000000000000000e+00 1.000000000000000000e+00 1.000000000000000000e+00 1.000000000000000000e+00 1.000000000000000000e+00 1.000000000000000000e+00 1.000000000000000000e+00 1.000000000000000000e+00 1.000000000000000000e+00 1.000000000000000000e+00 1.000000000000000000e+00 1.000000000000000000e+00 1.000000000000000000e+00 1.000000000000000000e+00 1.000000000000000000e+00 1.000000000000000000e+00 1.000000000000000000e+00 1.000000000000000000e+00 1.000000000000000000e+00 1.000000000000000000e+00 1.000000000000000000e+00 1.000000000000000000e+00 1.000000000000000000e+00 1.000000000000000000e+00 1.000000000000000000e+00 1.000000000000000000e+00 1.000000000000000000e+00 1.000000000000000000e+00 1.000000000000000000e+00 1.000000000000000000e+00 1.000000000000000000e+00 1.000000000000000000e+00 1.000000000000000000e+00 1.000000000000000000e+00 1.000000000000000000e+00 1.000000000000000000e+00 1.000000000000000000e+00 1.000000000000000000e+00 1.000000000000000000e+00 1.000000000000000000e+00 1.000000000000000000e+00 1.000000000000000000e+00 1.000000000000000000e+00 1.000000000000000000e+00 1.000000000000000000e+00 1.000000000000000000e+00 1.000000000000000000e+00 1.000000000000000000e+00 1.000000000000000000e+00 1.000000000000000000e+00 1.000000000000000000e+00 1.000000000000000000e+00 1.000000000000000000e+00 1.000000000000000000e+00 1.000000000000000000e+00 1.000000000000000000e+00 1.000000000000000000e+00 1.000000000000000000e+00 1.000000000000000000e+00 1.000000000000000000e+00 1.000000000000000000e+00 1.000000000000000000e+00 1.000000000000000000e+00 1.000000000000000000e+00 1.000000000000000000e+00 1.000000000000000000e+00 1.000000000000000000e+00 1.000000000000000000e+00 1.000000000000000000e+00 1.000000000000000000e+00 1.000000000000000000e+00 1.000000000000000000e+00 1.000000000000000000e+00 1.000000000000000000e+00 1.000000000000000000e+00 1.000000000000000000e+00 1.000000000000000000e+00 1.000000000000000000e+00 1.000000000000000000e+00 1.000000000000000000e+00 1.000000000000000000e+00 1.000000000000000000e+00 1.000000000000000000e+00 1.000000000000000000e+00 1.000000000000000000e+00 1.000000000000000000e+00 1.000000000000000000e+00 1.000000000000000000e+00 1.000000000000000000e+00 1.000000000000000000e+00 1.000000000000000000e+00 1.000000000000000000e+00 1.000000000000000000e+00 1.000000000000000000e+00 1.000000000000000000e+00 1.000000000000000000e+00 1.000000000000000000e+00 1.000000000000000000e+00 1.000000000000000000e+00 1.000000000000000000e+00 1.000000000000000000e+00 1.000000000000000000e+00 1.000000000000000000e+00 1.000000000000000000e+00 1.000000000000000000e+00 1.000000000000000000e+00 1.000000000000000000e+00 1.000000000000000000e+00 1.000000000000000000e+00 1.000000000000000000e+00 1.000000000000000000e+00 1.000000000000000000e+00 1.000000000000000000e+00 1.000000000000000000e+00 1.000000000000000000e+00 1.000000000000000000e+00 1.000000000000000000e+00 1.000000000000000000e+00 1.000000000000000000e+00 1.000000000000000000e+00 1.000000000000000000e+00 1.000000000000000000e+00 1.000000000000000000e+00 1.000000000000000000e+00 1.000000000000000000e+00 1.000000000000000000e+00 1.000000000000000000e+00 1.000000000000000000e+00 1.000000000000000000e+00 1.000000000000000000e+00 1.000000000000000000e+00 1.000000000000000000e+00 1.000000000000000000e+00 1.000000000000000000e+00 1.000000000000000000e+00 1.000000000000000000e+00 1.000000000000000000e+00 1.000000000000000000e+00 1.000000000000000000e+00 1.000000000000000000e+00 1.000000000000000000e+00 1.000000000000000000e+00 1.000000000000000000e+00 1.000000000000000000e+00 1.000000000000000000e+00 1.000000000000000000e+00 1.000000000000000000e+00 1.000000000000000000e+00 1.000000000000000000e+00 1.000000000000000000e+00 1.000000000000000000e+00 1.000000000000000000e+00 1.000000000000000000e+00 1.000000000000000000e+00 1.000000000000000000e+00 1.000000000000000000e+00 1.000000000000000000e+00 1.000000000000000000e+00 1.000000000000000000e+00 1.000000000000000000e+00 1.000000000000000000e+00 1.000000000000000000e+00 1.000000000000000000e+00 1.000000000000000000e+00 1.000000000000000000e+00 1.000000000000000000e+00 1.000000000000000000e+00 1.000000000000000000e+00 1.000000000000000000e+00 1.000000000000000000e+00 1.000000000000000000e+00 1.000000000000000000e+00 1.000000000000000000e+00 1.000000000000000000e+00 1.000000000000000000e+00 1.000000000000000000e+00 1.000000000000000000e+00 1.000000000000000000e+00 1.000000000000000000e+00 1.000000000000000000e+00 1.000000000000000000e+00 1.000000000000000000e+00
4.468363802038041732e-02 5.025679877725951483e-01 -2.617664585446842218e-01 7.642879172897421025e-01 5.184929476530761860e-01 5.157062131746261713e-01 5.941120232198621176e-01 3.357087180153754957e-01 5.519361452299099691e-01 5.254869763996304899e-01 1.083445351597647210e+00 -7.130848962888824971e-01 1.413610736315389360e+00 4.608228025145284512e-01 5.199446413726411809e-01 4.046391004481047493e-01 8.634788405370057429e-01 9.792176727139613179e-01 7.321169859804751434e-01 5.145372323850507801e-01 3.756235362158535374e-01 9.888601742568838837e-01 3.782861123059744757e-01 5.240455321346200179e-01 7.979029274438226293e-02 6.681774028456742842e-01 3.918197201068361335e-01 6.926857970085854577e-01 5.471251627881409396e-01 1.604259274905073474e+00 4.997104301212338395e-01 6.075127853808747203e-01 7.187962168941182117e-01 5.253772473403605092e-01 6.982350395702248136e-01 4.556209438974998527e-01 5.344472613687136775e-01 1.823611179601565713e+00 -8.044584844343102836e-02 5.143137824625090282e-01 -1.967059401412212249e-01 -5.619928732698679097e-01 7.477403229958998754e-01 2.287083515993123817e-01 3.040370619314161638e-01 4.952855144137183752e-01 7.640920637123951309e-01 5.172438801522405427e-01 6.492827905061131499e-01 1.211061005520052032e-02 2.632959260548824870e-02 7.923809535783395974e-01 6.796910943018779072e-01 4.285920838877226302e-01 4.608886784681148763e-01 1.894525920366341154e-02 5.314345971183097594e-01 5.170588415140667804e-01 1.955011040960265567e-01 5.033071389687487907e-01 9.211758366316387114e-01 4.901016914019103998e-01 5.182303652193392951e-01 3.782861535271279108e-01 6.782977923360283823e-01 6.209117497427778520e-01 5.091315031823224757e-01 3.592188168201174148e-01 5.660742262772683331e-01 2.471296830784883852e-02 4.390759510941414367e-01 5.890832677298994957e-01 5.228332028311502011e-01 9.250166157116284163e-03 1.516816656264025287e+00 5.446038849164045459e-01 6.366638695041291207e-01 7.250273590146861791e-01 5.164059801987738174e-01 1.386120009418246202e+00 5.389979536532483184e-01 3.354062282471235168e-01 1.425393264743118893e+00 7.434529458730041451e-01 5.061754165747360812e-01 7.537964493440858504e-01 8.000353776787308968e-01 5.466319218011742587e-01 4.189452409400074018e-01 5.763163906687421845e-01 3.008289193887642710e-01 2.206341637815548484e+00 7.685142213511763076e-01 1.942292101050923508e-02 4.832905883281218840e-01 4.821915816627406759e-01 5.640907743414178555e-01 4.806618802888880659e-01 1.897802807041109041e-01 6.585231614702080627e-01 1.625452235666971390e+00 6.890687884554023146e-01 5.439364298305484624e-01 6.505762686148238716e-01 8.582939570795434792e-01 -2.105713472510842621e+00 -1.233856048747149270e+00 5.334168961073378901e-01 6.094549329391386605e-01 9.698164977955661126e-01 5.805098355463451654e-01 4.282077150278609801e-01 1.736881788437073526e-01 4.989734817615861240e-01 5.250128425135421883e-01 4.957968679248913046e-01 4.684727321744546757e-01 5.185571936976750562e-01 9.623636804660865574e-01 5.102027111808269400e-01 1.310668285171633585e+00 5.447564537682507702e-01 6.171186293794295175e-01 -4.915008148022157464e-01 5.240553697385011978e-01 1.962100062452266203e+00 5.411356924888524045e-01 5.454113327799241517e-01 6.802003639738225527e-01 5.318429686717879301e-01 5.511477488800665681e-01 5.230995694919163830e-01 4.295758598910031090e-01 4.097063509376701607e-01 -3.352350081417356797e-01 -1.704836904337813930e-01 6.589381196840435884e-01 5.385008986240419349e-02 1.005316963849876455e+00 5.935687163388576604e-01 5.050464266117018486e-01 8.698403991166527849e-01 5.485198400368281879e-01 5.303693969798372043e-01 5.177942647450850533e-01 4.555742222603585689e-02 9.469939488858541976e-01 -8.834583037580455434e-02 4.342862397711856892e-01 -9.073305240855001896e-01 7.618589690525510161e-01 -2.900034573338324817e-01 4.953008436676374360e-01 5.599499938692100720e-01 4.700987087726228308e-01 5.230648098551226033e-01 1.992526670377981146e+00 -1.357626655866282783e-01 8.201584685053169288e-01 6.749601030406987556e-01 5.452959270230517408e-01 4.243970875798188103e-01 5.094112622138493585e-01 5.179448220663984692e-01 1.073694806515821165e+00 2.194660289166074918e-01 8.516512109291952681e-01 3.351490645431944304e-01 4.322460788111336938e-01 6.582373053943509911e-01 5.580616366768658132e-01 7.661449924188775684e-01 4.952533456298294778e-01 5.162167212223793822e-01 4.037952820912249496e-01 4.730394408735207751e-02 2.061188672305528657e-01 9.946990303664232647e-02 7.521149533104153351e-01 1.143240614199900751e+00 6.844222490240314816e-01 5.224488315671438343e-01 -1.722735546128283668e-01 4.377255400408101571e-01 5.651565751582776631e-01 5.552585249034382997e-01 5.140766314682625460e-01 5.236582348562492939e-01 2.830060031978814727e+00 5.140874942302837702e-01 5.542457333838231026e-01 -9.078478300758014985e-01 5.458055748314348810e-01 5.265504170194551525e-01 1.946198550864296495e-01 5.199823985105920254e-01 9.404130418224420085e-01 5.269380991484220456e-01 5.341316050278602789e-01 4.843275600756773991e-01 6.316151392321421865e-01 4.948918342565957751e-01 8.875915979438655512e-01 6.017443799790144210e-01 5.432167718814087110e-01 5.341316502030047930e-01 2.195416811980980543e-01 1.294846713901436130e+00 5.612825617154779678e-01 4.324565112789826582e-01 4.262713069634448404e-01 -9.030613891191320575e-02 4.899162372341980265e-01 1.562169370994053452e-01 5.290859122635012124e-01 5.217699140605475128e-01 5.170736635105869228e-01 5.189149568539120905e-01 5.146469780194562471e-01 5.161949893444489623e-01 4.374383027914620636e-01 5.764536412067718940e-01 -7.146265325211759167e-01 6.138506630309014112e-01 4.216462250364659825e-01 3.641671804485805963e-01 5.091218508296081052e-02 1.322565510294739122e+00 9.657777209818927400e-01 4.936049398327297943e-01 -1.027687164181009943e-01 1.061526207110566000e+00 5.177452503445623133e-01 4.535272497950853521e-01 6.286392970542270531e-01 4.097212756626310015e-01 2.896570848043718005e-01 1.746862374519210226e-01 -1.598571466528134477e-01 -8.266894948450677350e-02 4.412805506589565496e-01 5.273841967381588391e-01 -1.129271759251147950e-01 4.298612802127160792e-01 5.169273491085898398e-01 5.012815355945785534e-01 -9.665056544364819535e-02 7.578723443642262358e-01 -2.326631485734158122e+00 6.162365635582086609e-01 -6.346333577733979103e-01 4.984273354109752252e-01 5.169075972893393267e-01 3.782875279401842761e-01 4.783599058807774806e-01 5.654568972588565057e-01 5.401953546832571895e-01 7.739278102648506907e-01 5.627450169731945673e-01 1.696664103089625675e+00 6.814861063254625817e-01 6.860394894221892859e-01 4.638635601049432844e-01 3.739784690268574963e-01 9.211758217395136228e-01 4.386521544669509942e-01 2.709996960022007073e+00 4.755103868526662225e-01 2.266043822441261013e-01 7.488486022164961842e-01 5.044640922557558360e-01 9.216578360602204478e-01 5.198250035886144982e-01 5.743888839114599243e-01 5.176318255160030635e-01 1.125328777399715596e+00 7.695707396220899943e-01 8.597251144371508280e-01 8.057811204516881487e-01 5.403630293180513577e-01 6.820800586187636405e-01 5.140202811073099065e-01 3.791838066080727154e-01 -7.343444961430036777e-01 3.882608718872786469e-01 5.254609891651167430e-01 5.629767809919374866e-01 5.421447968454030653e-01 4.957968745792826759e-01 6.094494121475022563e-01 5.468488807602379653e-01 -8.801022951753713075e-01 7.426534004831059077e-01 5.412265484485034861e-01 -2.219931368505225974e-03 5.129864137750320685e-01 1.854951643438391473e+00 5.063758387054010379e-01 5.209064069020197252e-01 4.342881123644139474e-01 -3.458642216108742673e+00 5.161133719416604038e-01 2.877095185549496836e+00 7.654275855985127608e-01 5.011149931035887573e-01 -5.739259513430177151e-01 5.184655968323169661e-01 5.177578069747845735e-01 4.456666522213142412e-01 4.502524657315652434e-01 3.497184867745950498e-01 6.466934093236568204e-01 3.140898649468087389e-01 5.226279302755167944e-01 5.195870657964822836e-01 3.510960197135764016e-01 5.087981681253125332e-01 7.649122634221584560e-01 5.161377989399528188e-01 1.206362469774704627e+00 2.117872284264603680e-02 2.229536200841308879e+00 2.660755747845565899e+00 4.988019675661004015e-01 -2.245080631200295218e-01 3.977284990932928310e-01 4.004915452892581218e-01 7.366931469096733576e-01 1.386920892816123629e+00 5.334641903899314253e-01 1.130971709476926712e+00 5.182267426015110257e-01 1.212039832374585957e-01 1.257508038822012564e+00 5.023428189817451539e-01 5.513841784011668246e-01 5.132278549219938535e-01 9.038006019063908880e-01 -3.779110541200841666e+00 1.646004004888080186e+00 5.105953933834581626e-01 6.364983119650274856e-01 5.182970335053156408e-01 1.823611175515789551e+00 2.999555886062190146e-01 5.578984515027225477e-01 5.086891496308606486e-01 5.308682209732973334e-01 1.374378866347096384e+00 5.550905169326277866e-01 5.341317807499240677e-01 4.298605600230707702e-01 6.017443769056948222e-01 4.950841089623033708e-01 5.696761768035535356e-01 9.001877630879825398e-01 5.196579400455938469e-01 3.829992677847734450e-01 1.646975690385336089e-01 6.614120664073058764e-01 5.167992419600460074e-01 3.291285156550038948e-01 5.578984528639867602e-01 6.451401413545588825e-01 5.220324441317228947e-01 1.033859194335270848e+00 9.570293625725045938e-01 1.147987941610691065e+00 5.231861066582443875e-01 2.198294723977728404e-01 9.211753264280424514e-01 -1.095616821776840555e-01 9.336152163932420756e-01 6.299605891042604489e-01 2.161922081275505919e-02 5.357829836933629686e-01 9.283456108293415276e-01 3.860224455903437657e-01 4.959836680143979160e-01 2.969098011425145289e-01 -3.376973171880343627e-01 -2.494550579420232062e+00 5.032128363945965743e-01 6.017443758976082080e-01 6.017443383823339875e-01 5.011304987756521889e-01 3.830398778396582604e-01 -2.288640150694042086e-01 2.957881803760025741e-01 5.182907502944608114e-01 7.067863360293331620e-01 5.174287185978994064e-01 1.035297533772081335e+00 5.341313302814786335e-01 5.175845382568883268e-01 4.894496187818498933e-01 2.797833294204155608e-01 6.587462803502154296e-01 5.065262364562638231e-01 5.211865957145183081e-01 5.177761924321445663e-01 3.007017338452834809e-01 1.618262850569691588e-02 6.017443759398979353e-01 6.622463071265031198e-01 5.188410703016447245e-01 3.990571315850223733e-01 8.595862607142825684e-01 7.426102940110506090e-01 5.641492175989896163e-01 1.887375641994771813e+00 5.000068691085521877e-01 -3.131149651917621846e+00 7.644549154224005161e-01 1.533597673924546489e+00 5.837618164615584471e-01 -1.091409652361275517e+00 8.077606114024790118e-01 4.415208436070477416e-01 5.282630430376125119e-01 5.085850204384531059e-01 -3.885080662291739428e-01 5.140587292181933998e-01 1.073919915497921540e+00 4.756356255549867296e-01 -3.814232145487805314e-01 5.133909637597329212e-01 5.176826938485710183e-01 7.893066891458155876e-01 4.896026832002769447e-01 5.838305248832935668e-01 -5.351507297967021959e-01 5.610498503857085373e-01 5.220322378928734519e-01 6.045777905737423907e-01 5.061623633329522809e-01 7.688656132567354140e-01 5.196560016618354538e-01 6.139001975363367336e-01 5.401660401260313105e-01 5.070614093965009062e-01 2.637883775109357010e-01 3.117092238043952523e-01 3.468367155353702658e-01 9.674904454146147081e-01 5.545111069106886115e-01 3.227582574187929598e+00 6.578047412680285699e-01 6.511865432913128693e-01 5.495218331836129178e-01 5.747279313666557865e-01 2.340185995840072045e-02 4.903162278155918097e-01 4.970441819751228452e-01 5.219763649150962470e-01 1.159834020804608734e+00 7.686203584369429853e-01 5.250720325644245845e-01 4.403486810025904474e-01 1.118700627416759241e+00 5.370974280828456626e-01 5.707294604509496327e-01 5.051786766949402097e-01 8.182286064902531963e-01 5.147907488730988357e-01 9.389689312260471876e-01 5.287745083644098676e-01 5.174702377868730663e-01 2.199009485710619327e-02 5.310504688024004771e-01 7.642076542971665276e-03 3.093961874625779651e-01 4.034335137833861551e-01 5.783479326499931794e-01 7.843072680643912165e-01 5.055247571933862982e-01 3.866346930914552615e-01 9.575453190533345094e-02 5.059528266490018744e-01 5.418306073978974569e-01 4.494061715059659567e-01 2.423706559844640215e-02 5.189084965072461308e-01 2.527684000165011935e-01 5.156749911646948403e-01 4.118003210658400248e-01 1.260950516499130147e+00 7.683197078192297580e-01 5.240808078150577254e-01 2.530267142367452204e-01 7.585101282595354544e-01 4.372786770866082806e-01 9.981624491948164479e-01 5.969416419618386316e-01 6.119527638330884978e-01 7.006602495857943147e-01 2.010775854599759604e+00 4.742316402162761735e-01 5.041071316300637095e-01 5.110450593762575489e-01 7.425029332903533286e-01 5.821896699390798346e-01 8.559802582682083383e-01 -5.789679990995861836e-01 3.728405752344696178e-01 5.151442450142950102e-01 4.296276224606347949e-01 3.972671480976454061e-01 -6.275472472416016023e-01 3.866516527800634151e-01 5.183261347746159764e-01 7.314484658728896971e-01 6.683830626721950496e-01 1.515411903531152849e+00 5.212494818092409110e-01 5.149573031031816628e-01 -7.178889435028350530e-01 5.185235782575008390e-01 1.231476041874872474e+00 7.168987820214111073e-01 2.793545810444189037e-01 2.464760124764280302e-01 -1.762816279595924351e+00 5.469985139020038245e-01 1.867281101064904858e-01 1.104667824152952171e+00 8.221627980501190480e-01 5.236478388296832431e-01 5.376188667313587244e-01 5.992355772888541265e-01 7.647304725029637762e-01 4.312372227816569925e-01 5.566446129357373040e-01 2.469370711229137288e-02 5.505790702924854285e-01 5.712565296756820787e-01 4.673066990117007435e-01 5.110022757086305489e-01 4.625845006323567876e-01 1.223548356530036907e+00 -1.004653961988241639e-01 -2.405109716238832129e-01 4.141170920855600235e-01 5.487416945289563808e-01 5.345576577378879923e-01 5.237627944318113959e-01 -8.709044092395887837e-01 3.192272193615400599e+00 5.121144827112242837e-01 4.423526912592881111e-01 4.368675575089908669e-01 5.183684265863763851e-01 5.088800288494850221e-01 5.309290369658533626e-01 3.263007534275767507e-01 6.030864168263670999e-01 5.162398833351083960e-01 5.310512999532164269e-01 3.335436561212179463e-01 4.053009988631139371e-01 5.666517116054163861e-01 4.054604243061414870e-01 5.249465181043257989e-01 5.468444336166941033e-01 6.706077575795857948e-01 1.018133288775653567e+00 2.331243605819060427e+00 5.181309209267735971e-01 4.987056819062274382e-01 3.880839547196777706e-01 4.793899940734889786e-01 3.739122989272666286e-01 5.193007487881592388e-01 5.254852499598302584e-01 5.054126246379287979e-01 5.584198059367317946e-01 4.865160052165856674e-01 7.647071439955133165e-01 3.648318826502742751e-01 4.228060105961343740e-01 4.248399645959867743e-01 5.142149280252551469e-01 1.114305855658851430e-01 9.211758324230123751e-01 5.695103683030486863e-01 1.033135672923381626e-01 1.912827238281615827e+00 3.002966887566335674e-01 4.127463207458870187e-01 5.935034197702029335e-01 6.439184374305623182e-02 5.437143636241490441e-01 1.523344389077334382e+00 7.918628174638562278e-01 7.234460818939730808e-01 5.191401980877358158e-01 5.468202450980262919e-01 4.466433660441158082e-01 6.582485497549735998e-01 5.503711267300738230e-01 5.187643294924840776e-01 -2.406715954388142231e-01 5.094015776688822772e-01 -1.538350790201039153e+00 4.806088888738010434e-01 5.126711163759346546e-01 5.116788090747868001e-01 4.342969018843395590e-01 9.211758325181840235e-01 2.207204472001400020e-01 5.246097607821902375e-01 1.355141017856474450e+00 -5.687573469715279106e-01 5.138046736567375428e-01 1.146183951557257608e+00 1.537878707198188311e+00 5.447514018244188350e-01 5.144879698428396209e-01 -6.000897637861882933e-02 -1.699109979465619258e+00 2.725174429164932133e-01 8.178924212465952248e-01 5.198966463515680703e-01 5.179824292384278550e-01 6.105623491227821775e-01 4.825598008619890189e-01 -4.164729683530376536e-01 8.265790302038282800e-01 4.957964291813584112e-01 3.278117691139791345e-01 5.422319497626961748e-01 -5.433997404671193562e-03 -1.682630398556989315e-01 1.810936307385731858e+00 4.124575148850738726e-01 5.402851983168746042e-01 5.195592616419947296e-01 3.236125891011896738e-01 5.486768996888128358e-01 -1.054964336677407799e-01 -1.237453475789795254e+00 5.181643227153087672e-01 5.445378811125081153e-01 4.910783662122031323e-01 6.006061771600735844e-01 5.117084792131524340e-01 5.461902494714399037e-01 5.445102955510719989e-01 5.667717891392503038e-01 1.035897194603489391e+00 7.188983938712196764e-01 5.112064948069269255e-01 6.111318174377944334e-01 4.809648178837646060e-01 4.746992351535364030e-01 4.588643826770474193e-02 5.578984955833556914e-01 4.504897721678787770e-01 5.369220131115249872e-01 7.578550413967625188e-01 8.819924332332861328e-01 8.559607284168524455e-01 -5.234565468225224061e-01 5.130394947139702566e-01 4.494382300444454414e-01 5.151141112286381496e-01 5.924299478053205448e-01 9.112437850022677699e-01 5.420824836682207604e-01 5.292365437173683906e-01 -2.784873023016303240e-01 -8.838168248293436502e-01 2.318792069681046897e+00 5.046753809326042228e-01 9.003514049743538417e-01 4.188262109187985693e-01 5.748176470843847641e-01 3.886538610863710108e-01 1.513163366846528579e-01 5.196113961323937103e-01 5.460370999339183573e-01 -5.559105563100099484e-03 5.193674500173794950e-01 4.390660856412689217e-01 5.201184130657994231e-01 5.849114505322597912e-01 5.217322527475581895e-01 6.230325726342268444e-01 4.163260009021702568e-01 5.480109227472823585e-01 4.602223514611155641e-01 5.239545330168368098e-01 4.128534367729975174e-01 5.275168599069870456e-01 -2.620869298031501260e-01 5.142867789591952787e-01 6.421921396210634736e-01 5.288164634251898422e-01 7.640450636683838725e-01 9.211761152350338433e-01 7.284033348552668707e-01 -6.064819475569768192e-01 9.831582786656958284e-01 1.823611179630563628e+00 4.996216117218851283e-01 4.637871785162617222e-01 1.082904599779837662e+00 5.687004526612384758e-01 7.638263225187460481e-01 5.205939158817437518e-01 1.855529252203205859e+00 5.154759744766251872e-01 4.298617614798226350e-01 1.235141349660340504e+00 -6.450185826417750845e-02 5.215066949334710156e-01 -1.576987420160594899e-01 -9.734112918161562655e-01 -1.681054521251912348e-01 7.728208466564696622e-01 5.747033803702261689e-01 5.118952337661795138e-01 -3.237642895255608000e-01 5.108506357889672778e-01 5.482506229128572550e-02 -3.953718162907596256e-01 5.185153155804634872e-01 5.210926360469404495e-01 5.296758427667872526e-01 5.368986408200604465e-01 4.946713205482010101e-01 9.140156268615390323e-01 -4.262434826721649417e-01 5.192837874204905280e-01 5.129391725151082326e-01 6.016551012133514176e-01 1.171327295491920495e+00 4.907411080110505308e-01 6.676381204453429863e-01 5.201550997637363061e-01 4.770789950265160589e-02 -3.892518866514059761e-01 5.507731034489578015e-01 5.646486818532794327e-01 6.845533056728637655e-01 5.302724083097051233e-01 3.573891922067417570e-01 5.152632726089202420e-01 5.214404451833379861e-01 3.870877080621917266e-01 5.281445419198572688e-01 8.401509734614227565e-01 2.575106067009993893e+00 -2.466541391962929486e-01 6.605586916099133177e-01 3.336747195218139894e-01 2.050306448946055404e-01 6.628992909822812862e-01 -5.675251538521638994e-02 -1.561945406632808453e+00 5.056930288690577591e-01 2.637141902802471183e+00 5.598915374996672467e-01 1.621243156240337324e-01 1.623763125058430012e-01 4.957968678610088498e-01 5.863229856632726777e-01 1.572120096610738926e+00 5.052486315348173607e-01 1.261039753983853873e-01 4.230219008376839840e-01 1.720186759235059926e+00 6.027224678457139273e-01 7.747323844417370875e-01 5.088545048781719649e-01 7.385831337179439293e-01 4.617291371945945189e-01 5.752228271760410072e-01 2.139331238544791083e-02 5.133880082672933609e-01 5.335876245595547740e-01 -5.786692680286150692e-01 -8.372354640582559127e-02 1.178995792192712333e+00 2.385118749809005956e-01 4.820849082937267438e-01 7.102893686225630887e-01 5.445200504030638378e-01 2.013081717186168351e+00 6.778749261568733919e-01 2.110080342553482396e-02 3.295892574740159620e-01 3.953843145931090208e-01 1.130152582871543743e+00 5.034483294889775529e-01 -2.750348655407962306e-02 5.287268929990458499e-01 -1.208743316783452565e-02 5.369798840596997636e-01 5.206550206098389255e-01 1.202838385569843325e-03 -3.949423082976948052e-02 6.654874625043303293e-01 5.546838418421677908e-01 5.851586663297290158e-01 2.235893461516423875e-01 4.267929109551600875e-01 5.127360153073922122e-01 4.940719514961418035e-01 5.221089941836111192e-01 4.792312684265900846e-01 5.994137436303473843e-01 1.018902526020956101e+00 3.152802325489425073e+00 9.473381372663663980e-01 5.153887252006468245e-01 6.090352115572866820e-01 2.161831719737569435e-01 5.219726231811866457e-01 8.533026459356694016e-01 5.026434624563567155e-01 1.316957700089889549e+00 4.562078547424925357e-01 -5.848076801204969977e-01 -1.909425673306767296e-02 4.123442065578464821e-01 6.143782656599600100e-01 5.517705991125032572e-01 5.160118874524370902e-01 5.273371321198382089e-02 5.065277623787560746e-01 4.460354015441072018e-01 -3.753332321166165997e+00 4.794385709547427932e-01 5.203671444410563618e-01 1.133450075420667114e+00 5.180598747350173561e-01 4.706458500135496381e-01 6.803295519431906690e-01 -8.979421068531739936e-01 -5.017600416636059935e-01 3.415504936951276743e-02 5.206336335876361465e-01 4.910042501216718147e-01 2.141081088564078250e-01 5.206712104044510792e-01 -3.420189343222321265e-01 5.851340436536140999e-01 5.252626486132159211e-01 6.957888451382714390e-01 5.484612705685095735e-01 4.697612450701575404e-01 1.510960196536834943e-01 -7.687502149447150712e-01 6.557541197339531447e-01 5.470905819904834377e-01 1.582221324679000951e-01 5.211473720394889098e-01 5.493252579491764154e-01 5.306777789627602493e-01 6.705972209186921162e-01 5.764525830578244303e-01 5.462753038198304711e-01 5.023826540704081633e-01 1.823611176167684311e+00 3.565568755732819728e-01 5.417182046599954282e-01 -1.281343665028801815e-01 5.436075053525303291e-01 6.336960382655416613e-01 5.108274188656213299e-01 4.890574646531918868e-01 3.597369936851778638e-01 9.462208819219591893e-01 1.214176806757996774e+00 5.557695157476587600e-01 5.859785768384889737e-01 5.967211807724732697e-01 4.801530559729076941e-01 5.411740872527364132e-01 5.182690167723981167e-01 9.831848320462006630e-01 7.041192703804450836e-01 -4.602614004388821400e-01 4.584929473653334142e-01 9.088904163593776175e-01 5.233772074926617002e-01 -2.668460848174530539e-02 5.296631955355993737e-01 1.406668855809154906e+00 -1.388579510600806977e-01 6.214349617217994615e-01 2.402632195521561820e-01 4.826303631417693252e-01 8.519304806088924265e-01 5.203137400250061884e-01 3.714511788382845459e-01 1.405199359251929181e+00 4.700722205725337277e-01 5.267240567454912759e-01 -6.808809811113796240e-01 4.464860017937670733e-01 1.040862259369628839e+00 6.130208142027445684e-01 7.443587211971458562e-02 9.796194077926717592e-01 -3.249060859318241706e-02 6.867024892954524118e-01 1.635837516433808148e+00 -8.623800122792564249e-01 5.823293976107604131e-01 5.186023233332380800e-01 -4.668274471427638073e-01 3.063174305024587984e-01 6.014467588023822975e-01 4.956468603588857214e-01 4.962960476142251331e-01 3.937445668496836193e-01 2.630321688029370053e-01 3.452185765903135750e-01 5.785822326765033274e-01 5.151787257160216349e-01 7.815609444469443293e-03 -1.288883176928809771e-01 5.077341222650388897e-01 1.065742091888408849e+00 4.940137398059585294e-01 -5.790642385738528075e-01 4.961249608110614995e-01 5.174118991789596889e-01 5.523815195837553649e-01 4.415644082280240079e-02 3.279935664527739436e-01 5.180878805046104096e-01 5.049505878826555660e-01 4.517714663633596306e-01 -1.291837921865838764e-03 5.555004905665922310e-01 5.242082001212750031e-01 6.098592476311907040e-01 2.095825479419747506e+00 -1.908434019271868474e-03 3.868607179265393103e-01 5.572573538071731170e-01 1.842533294683514011e+00 5.529848386125684190e-01 5.231780021932531666e-01 2.041496936845234311e-02 5.578984399242324921e-01 5.156294535720300498e-01 4.770259550384765013e-01 3.871813890607205821e-01 5.016427486951974268e-01 4.388576934902406190e-01 5.286072971892906702e-01 -5.448674756013274223e-01 5.194822730804671274e-01 5.287511794563334311e-01 5.376446112338746364e-01 1.167087097637170556e+00 5.108384860297171537e-01 -2.465383880141577833e-01 1.102595533379082227e+00 -1.288909935799209094e+00 -5.319659722641819632e-01 5.305193207243749098e-01 5.172720315674151914e-01 6.574806578548910707e-01 5.220269519997313701e-01 4.459739565296982344e-01 5.624680420383093571e-01 5.578984386896191916e-01 5.197324354460337581e-01 4.820818182506513283e-01 5.944015968065015088e-01 5.204255191517631607e-01 3.059586480653913587e-01 5.075008138858667639e-01 5.382518999987029318e-01 3.934817897046010149e-01 5.096248381691603768e-01 5.148841687143885792e-01 5.460519717553439234e-01 6.522632017168266128e-01 5.169210623485563927e-01 7.032234943872543997e-01 5.013912407541025740e-01 5.083725699890266903e-01 5.402799673700054983e-01 3.912646745558783223e-01 3.852138068392387260e-01 2.442482990818449995e+00 4.753619213922065101e-01 6.094116017974325894e-01 2.995758431803478006e-01 5.819412294870665026e-01 1.116065773039362385e+00 4.273370248214263256e-01 6.979654004076668583e-01 5.178547138720495102e-01
7.100897677849791201e-01 3.155858141497242531e-01 4.375992714510891779e-01 -1.299884263091068484e-02 3.115536851349968162e-01 3.479438186000726740e-01 5.358532172769797652e-01 4.156152610764073940e-01 3.255823682631964200e-01 3.260329305029251445e-01 2.065037082519390665e+00 1.724495479507087925e+00 -1.456821491097528343e+00 6.077637067176122621e-01 3.067147716368684995e-01 4.469893909983481683e-01 1.324661103967080256e-01 4.401172485348596175e-01 4.255712513917007667e-01 3.100571909053407293e-01 4.425687541431049810e-01 2.131821628322931872e+00 3.729016678715626476e-01 3.601911520216123930e-01 7.398963491319400232e-01 -1.952043868506402879e-01 4.295799027305767792e-01 2.037531250647459102e-01 2.750016214218737320e-01 -9.015487348621350483e-01 4.073660747014643535e-01 -1.457653648746022323e-01 2.890078265483106978e-01 3.423801948946967322e-01 -4.180020686380208628e-01 4.899971771067340720e-01 3.303015640778464990e-01 -3.732935105700252998e-01 -3.266295808289216840e+00 2.791871667350905306e-01 1.172616703623516221e+00 1.439460043106361165e-01 -1.676079694122056263e-01 7.917635621204409668e-01 5.914046896048547053e-01 3.283746563501239168e-01 -1.267103223343907584e-02 3.208616477664690270e-01 1.762401850127219838e-01 6.556517679746435290e-01 6.818722585005554393e-01 4.921546985539372310e-01 -1.922318770114581632e-01 2.253998356116940771e-01 5.989863482829316244e-01 6.523188916630359158e-01 3.316428644917856494e-01 2.423082203860158490e-01 3.458861246524850275e-01 3.540018202829298688e-01 4.294610416249151075e-01 4.307446099959856833e-01 3.231924619671794896e-01 3.729016577412109235e-01 -3.449483021589324072e-01 1.399465469987837829e-01 3.293413841606839809e-01 3.176933946420091304e-01 2.109149825265005385e-01 7.163482724144432101e-01 1.358999354453201969e-01 2.466252507699347174e-01 3.307103398056276955e-01 7.281605128861756704e-01 1.930385178035624927e+00 4.538612716958699833e-01 4.747717095161953504e-01 4.818445023378176151e-01 3.099305260533741779e-01 -1.346332509419194690e+00 3.184741247571219458e-01 5.738152587000692195e-01 2.356580310842312453e+00 8.208373920831220361e-02 2.600972457340795518e-01 -3.772158503402393004e-01 1.328315120432600471e-01 2.654619538255471589e-01 -5.801962999986197689e-01 -8.978897696523457927e-01 5.916716245763566917e-01 1.592970939527172503e+00 6.439915988757545506e-02 6.834608053817116113e-01 3.324415643200867021e-01 3.327032304929957163e-01 2.658191260988264637e-01 7.677701927906647184e-01 7.372928034580540357e-01 -1.975818405317534832e-01 -1.773544643442798441e-01 5.493689363987463992e-02 2.673489078845235345e-01 2.145559989380595722e-01 -3.783271758307679006e-02 3.132717003464443373e+00 -2.899865465659313135e-01 2.412563643509886557e-01 1.034326323436508821e-01 8.108299285366253883e-01 2.553354497845727322e-01 5.003221485907670685e-01 1.627537850305820488e-01 4.129520266811127494e-01 -4.795934263146395815e-01 2.330360128389428465e-01 1.431848635437548978e-01 4.330737302258536592e-01 1.115793841926399743e+00 3.304317370357075512e-01 -1.461953535828244721e+00 1.694394368892578606e-01 1.089825671747813446e-01 1.423629063400536632e+00 3.132668623845545897e-01 2.183956308408097957e+00 3.171316531421228269e-01 2.339473650033249141e-01 3.063926159012900219e-01 3.046301776731196176e-01 3.404950432976531771e-01 3.127682505265264590e-01 6.751735697623962862e-01 4.208721135524139956e-01 1.674371087906079969e-01 8.614853824302722840e-01 7.196853775852404267e-01 7.156278068263721703e-01 -3.368952742004437395e-01 2.089123191063995966e-01 3.105717427572166067e-01 3.218825446132699275e-01 3.296699183735287697e-01 2.433632545332608810e-01 3.092968768949043157e-01 6.978539210591989672e-01 -1.628969825189275633e-01 3.191159171460326571e-01 4.372759198439070127e-01 4.009440370564009148e-01 -2.264667807014067447e-01 2.546640740501429981e-02 3.283610833358342473e-01 2.702030391575028223e-01 2.998026271042947277e-01 3.111981229330003651e-01 -2.418263864356800852e+00 4.616458272273994967e-01 -6.015019016527541895e-01 -2.032348448164278121e-01 1.826455327382832394e-01 3.189408801067098453e-01 3.173763918811264295e-01 3.111231559000762203e-01 1.231831626016090669e-01 9.859335921825716775e-02 3.176019419984193459e-01 4.670193498840087276e-01 4.086872827049733981e-01 3.088730025891765485e-01 1.959203143283795023e-01 -1.073101490190607986e-02 3.284753255469498034e-01 3.100715581745847049e-01 -2.515379294080367423e+00 6.805011222572836527e-01 5.942687453444726042e-01 9.505772850346553282e-01 -4.583370654877377826e-01 1.173068343055559737e+00 1.951856017021920062e-02 3.068335367859546525e-01 1.240733026854163423e+00 3.263119828936393296e-01 3.096356991969289596e-01 2.770990650654335807e-01 3.680079534841641520e-01 2.874871696976156743e-01 -4.872654681281383127e-01 2.844250717889017510e-01 2.900483557789654832e-01 8.179722982244534979e-01 2.854566992328379516e-01 3.324433236390518798e-01 2.406419394759012897e-01 3.139707839228141339e-01 -1.669892531054261164e+00 3.091740816068471731e-01 3.046711527900413663e-01 3.403424642376738918e-01 5.564470760089273993e-02 3.491870089816803135e-01 3.870106645045425786e-01 1.436727034325970542e-01 -7.727953881659990198e-01 3.046711325866118814e-01 4.796027524109871543e-01 -5.176937869736668585e-01 3.577067244803407431e-01 1.880505877326952013e-01 2.415160940990498939e-01 -3.271321411984779548e+00 4.450982582787106345e-01 9.220977873167306438e-01 3.024474740580707643e-01 3.096848833865895601e-01 3.109683451661193754e-01 3.016246393552648453e-01 3.123082969725345936e-01 3.132563567499844215e-01 3.586648831479244404e-01 1.077389874956671406e-01 6.676971260237938299e-01 1.064007764093999192e-01 4.833089529835315479e-01 5.012184117649868265e-01 4.003616051069820991e-01 -6.834235380747095689e-01 2.303627591387027884e+00 3.999169768975401329e-01 1.244659658247136980e+00 -1.394461123390210444e+00 3.068462660258478025e-01 2.405998479870321005e-01 3.535465715502495443e-01 1.179138748431061812e+00 5.164408483666204086e-01 8.206356632618161395e-01 2.851991112998677469e-01 6.685287023959685104e-01 2.594762917746850639e-01 3.230224093950383457e-01 -1.177080047261306994e+00 4.141282278651959303e-01 3.123781436724034632e-01 4.966859169962446474e-01 8.892458729322240130e-01 -3.690869621514462628e-01 3.177034619257081527e+00 4.989653422614809264e-01 1.277264735529958450e+00 -2.319765041640554637e-01 2.992015586943155836e-01 3.729039749294869588e-01 3.364494900371469144e-01 2.382563199125072306e-01 3.692377344588231858e-01 -1.379089042733498416e-01 1.102550149426042153e-01 5.621505475668873153e-01 2.547102692139115998e-01 9.710276379714166683e-02 2.428758361498030982e-01 4.396554930200303746e-01 4.294610670158437449e-01 2.578969479977059054e-01 3.256155314201141238e+00 3.618962283032305383e-01 6.526476864596485461e-01 5.328001416363830067e-01 2.208779352048210742e-01 4.290333254239079852e-01 3.125774457031584297e-01 2.971403841296963999e-01 3.106438361688923511e-01 -5.837002970398197377e-01 4.379824470463503094e-01 2.852867574843998000e-01 1.380058303724039648e-01 3.108678809391932640e-01 1.540963407248320927e+00 3.474464988475381988e-01 3.068613033518337585e-01 2.000951024764770825e+00 5.043745306395857053e-01 2.664868016259028805e-01 2.645006913595839282e-01 3.397399859812894607e-01 2.330361392092502038e-01 -2.065281936652648032e+00 2.662931921643683086e-01 1.554663730761982832e+00 -5.558951823672873133e-02 3.592741265581043675e-01 6.817488631608196181e-01 3.153475976821278337e-01 -7.253520854933531714e-01 3.964307181319066120e-01 3.201642955476506902e-01 4.372778730594646390e-01 -3.951250317985813276e-01 3.248362466307992413e-01 -2.277568232369908685e+00 -1.150402252610840947e-02 3.317069783114017789e-01 6.006019095828584176e-01 3.136700902974937089e-01 3.099722082457321837e-01 4.860175520915335223e-01 1.842900924161822995e-01 -9.802826327159881725e-02 -7.680378171586903502e-01 -5.985011914749418941e-04 6.876980524981419762e-01 3.059332777267975145e-01 5.018199181899962724e-01 3.234903819236137346e-01 -1.221922248155228249e-02 3.144891575264742722e-01 2.452946597228251591e+00 6.851255768749491271e-01 2.469779284620533810e-01 -1.165938813715613920e+00 2.293006195321145579e-01 4.715465465044835547e+00 3.789553940921145947e-01 -1.640659400459431316e-01 5.708763426466835211e-01 -5.616060196069487809e+00 5.215447339337863086e-01 1.558084973955322861e+00 3.122779606272871322e-01 5.308223524420103701e-01 -4.474636200170358791e-01 4.313823124378828311e-01 2.971116802537625001e-01 2.962060522258151973e-01 2.277673018197990673e-01 2.948919068182158654e+00 -3.758249992538527096e-01 3.075017647426427914e-01 -1.922069918386541509e+00 3.083998712515827467e-01 -3.732935108768828947e-01 7.524962541222212087e-01 5.204430540773330449e-01 2.659434963503254923e-01 2.859704061390476171e-01 1.272214526128652379e+00 1.476056362045188863e-01 3.046709437087687933e-01 4.141300543132171441e-01 1.436727013327608882e-01 3.249112293066585000e-01 3.909570246496674728e-01 -6.153175814490224882e-01 3.077939735664126930e-01 5.556928993280286777e-01 3.925820788755255975e-01 1.696631309628846562e-01 3.097310052460059415e-01 4.931479131309067232e-01 5.204429818586805423e-01 4.598548859681096945e-01 3.086672640349488739e-01 1.795277363324275233e-01 4.075035563753185430e-01 3.446631885683340890e+00 3.090794062513667617e-01 1.268979224831493224e-01 4.294619689624816772e-01 8.434878568848528380e-01 4.680578643351264168e-01 -1.943515811606422727e-01 6.828701664177169173e-01 3.443685248788241338e-01 1.205447428780222208e-01 4.108417700844989584e-01 6.732320823364134066e-01 5.808837825887045447e-01 7.882567574976855340e-01 8.170683030199614727e-01 3.480532133610731438e-01 1.436727033796477426e-01 1.436727654112576191e-01 2.281239204929391418e-01 1.734709859947122512e-01 1.119910086925708370e+00 3.980648290917441212e-01 3.066052889374365487e-01 3.113867223184768052e-01 3.128441980408509515e-01 7.615597175348218784e-01 3.046715629053958208e-01 3.087889864237674531e-01 4.392235750539540406e-01 2.384692166711803174e-01 -6.369383683967083654e-01 3.264750825327434325e-01 3.075477632479858281e-01 3.829712409708663778e-01 6.853839229674766331e-01 6.997303366210860798e-01 1.436727021254864400e-01 9.911562309828161887e-02 3.038512077884685247e-01 4.955639858678955179e-01 -5.928800318420823778e-01 1.842103522706522167e-01 -3.532070099639531335e+00 1.983210785620652672e+00 6.353807510523447055e-01 -4.676795360061011264e-01 -1.309109371441828477e-02 2.063029207662300912e+00 3.151083361693119977e-01 6.440628330618554109e-01 -2.315116601662729409e-02 3.591154902657360815e-01 4.219288807528625562e-01 3.238840860568552027e-01 -5.032554848520560675e-01 3.528192485435476811e-01 2.068346307990911903e+00 2.928091057762560734e-01 -4.381852191349255299e-01 3.133730942451939949e-01 3.184834139216706217e-01 -1.457397349834176126e+00 2.902955301775084762e-01 3.660504908804133040e-01 4.032532587091783305e-01 1.420162284391585372e-01 3.051140339610569074e-01 2.088513000861601243e-01 3.000420726803157412e-01 -1.610871348880953957e-01 3.004498446110549503e-01 1.064173477731378548e-01 3.109892550238435582e-01 3.101109701184547318e-01 1.323792712598257856e-02 4.015755675376496137e-01 5.529837816244991267e-01 -1.397316570145039627e+00 -6.033024069278395407e-01 -1.139668501904290698e-01 1.087116437025547333e-01 2.141284081923193472e-01 4.317279529799880056e-01 3.616014406372089485e-01 7.278932690769520653e-01 -1.307511165332812253e-01 3.166867937506913089e-01 3.290165373813651595e-01 9.412948845471223736e-02 -1.610598063408328340e-01 3.288563548288134242e-01 4.607839820728086844e-01 4.796985697384425484e-01 2.890601459914638460e-01 2.732659142901836535e-01 3.073065274828479243e-01 2.507033925972407262e-01 3.137440880902984675e-01 4.988442760385221053e-01 3.730991038278442806e-01 3.112211709549118632e-01 6.835425365959174604e-01 3.338401491619747419e-01 7.357947098969167543e-01 2.386158416165207186e-02 5.441560656972630472e-01 2.603946407884996095e-01 -1.456949679055179692e+00 3.095270269376567129e-01 6.423303778109616946e-01 3.643517520056855363e-01 3.341010002171195259e-01 2.509929457310335899e-01 1.916818458459376151e-01 6.849041962857304044e-01 3.079761817506401766e-01 4.054424537893676628e-01 3.100875673777269692e-01 2.787606448662488523e-01 1.940817071169339547e-01 4.985379652339695378e-01 3.088922539998966155e-01 2.056837348250655506e-01 9.079274228935875490e-02 7.529966093117418380e-02 1.646328228173921104e+00 2.064980972042599616e-01 3.588078490175786173e-01 3.842330716434640414e-01 -8.502849590256084111e-01 3.649198868440855503e-01 2.624241055462433470e-01 4.068117122199954028e-01 -5.605788618911512061e-02 2.906347453851395590e-01 1.623128299457167634e+00 8.919560030266265871e-01 4.468739655994164450e-01 3.306065756380099918e-01 3.428799266569098614e-01 3.421243950075323892e-01 9.247466156598952436e-01 3.052526168525500072e+00 3.078585432078743134e-01 2.720408479239262711e-02 5.892716436963868487e-01 -2.124904306003598531e-01 3.139128043820773595e-01 3.016603941569325209e-01 1.075233885661544653e+00 3.092673798309825695e-01 -3.312619507102110838e-01 3.829847771053340733e-01 1.293241797383363478e-01 6.364885180866249881e-01 1.794827658196711750e+00 2.603447590125397837e-01 2.641242921046700332e-01 1.662883486206536254e+00 3.989753884695216302e-01 2.766120847330127419e-01 1.784584830499595098e-01 2.358247541509425338e-01 -1.302225500032088042e-02 5.058517588648842045e-01 2.413541383647488381e-01 7.269237972730421271e-01 2.697085779800878491e-01 2.401599294904317172e-01 3.149450718344767308e-01 4.246632694829651777e-01 3.791912357638334008e-01 2.595700538852611650e-01 8.967074363419125227e-01 5.116828482177362414e-01 4.774151618632574423e-01 2.661065188588503383e-01 2.585205124090020345e-01 3.184233808564698176e-01 5.893908049873075594e-01 7.746513125008793743e-01 3.636918838173746060e-01 3.067051538635312546e-01 5.358167540557943198e-01 3.128495440138394090e-01 7.177709135397212226e-01 2.687040142306306167e-01 4.653732570897528564e-01 -3.121717164448741810e-01 3.105727249885361085e-01 3.226803531327090413e-01 4.358375196331106260e-01 2.557893537925447491e-01 3.068657302200747394e-01 1.795880380096088080e+00 4.773310275036222322e-02 2.675331741844513833e-01 -1.938748445441871304e-01 1.653993688045847232e+00 1.153809450995419095e+00 4.127851257383875760e-02 -4.512109237395652839e-01 4.240757488253746876e-01 3.240221663057476498e-01 5.063026092256186494e-01 3.088678945063608738e-01 3.095866680292914674e-01 2.074266008012821128e-01 3.400182099316716999e-01 3.531973710177509496e-01 -1.335041614760145920e-02 -2.139502140237102001e-01 3.489738006748852595e-01 2.715707858864866986e-01 2.281263128315924038e-01 8.727465277427566281e-01 4.294610534125565260e-01 2.681822193661161369e-01 8.475526510027623361e-01 4.757164964163472232e-01 5.921062468382266575e-01 4.631909376008022661e-01 6.941786671437825129e-01 1.474496702496370437e+00 3.659036810058606815e-01 2.092806177628915965e+00 -2.412401326971771662e-02 1.473798046469393108e-01 3.107301249917358010e-01 2.689695493785936309e-01 3.587182340967458027e-01 3.088839549838430787e-01 3.201754203661570930e-01 3.117087756711249269e-01 3.638392702102221654e-01 2.005672908967518486e-01 -3.273449945143008244e-01 2.490076715664411300e-01 -7.010848586753548606e-02 3.058928624475015234e-01 4.372761528669054099e-01 4.294610533940895203e-01 2.179235900818978777e-01 2.006888705167110820e-01 -1.256448981006256238e+00 1.963760605760849653e+00 3.123075985271556165e-01 -7.339122402820851265e-01 2.972579002168552753e-01 3.133949968343210934e-01 3.095740617208735390e-01 -4.789414652492412827e+00 3.541604145652299973e+00 6.287358751550471414e-01 5.131160602982551971e-02 3.240686740694102008e-01 3.078412958640260877e-01 2.773119649153865107e-01 2.624935413634589931e+00 6.248674402688326746e-01 3.193527178763523877e-01 2.330361165073252527e-01 2.821507761822543703e-01 2.783962209847911651e-01 8.630120498462960921e-01 -3.757535422329533192e-01 -1.195594150833611424e+00 -1.218695424744266287e+00 3.135341575586107488e-01 3.103730485511331239e-01 7.267309227116485193e-01 3.707796199004717019e-01 1.411696879477195132e+00 4.801987125913837473e-01 3.142064875435864324e-01 2.984255510444978610e-01 3.298249822689432453e-01 3.204220757522264762e-01 3.069065750631408407e-01 6.454073444390746594e-01 2.673547930374352011e-01 6.590687286853286198e-01 2.270401040560926786e-01 4.376308073380152236e-02 3.071654215811986943e-01 1.842148471622791217e-01 3.507226123355282055e-01 2.622901016579558542e-01 6.479938581642834539e-01 5.204430230476240204e-01 3.672693585339941169e-01 2.848950672788025384e-01 3.099560656758567623e-01 2.671869205470538411e-01 1.623121976755013351e+00 1.895858777296148157e+00 3.063362529296367320e-01 3.609643109090250324e-01 3.123104332254029170e-01 1.621255673276316700e-01 2.279025228639431355e-01 3.349249292072867812e-01 3.013740490917449222e-01 3.251573236671669864e-01 8.018380198898811262e-01 8.841322474163125777e-01 2.394190827174813851e-01 1.870456538524855716e+00 2.864120817362570404e-01 -2.299122365360484477e-01 -2.729330365115901214e-01 -3.115728576957281226e-01 3.131146682722976693e-01 2.666485463315557136e-01 7.103061504177610175e-01 3.119185061520750035e-01 4.577568930322615248e-01 3.215332152694015400e-01 3.587421734979470145e-01 3.488396426316569543e-01 -2.448344800087649820e-02 1.016458346843486238e+00 3.352570994605986177e-01 4.115456013796558454e-01 3.064402660961821900e-01 3.568639863794441092e-01 2.953198565109205753e-01 3.928815350288052399e-01 -9.528459521180490666e-02 2.226446241562463346e-01 3.116981469384240699e-01 -1.243700766555720476e-02 4.294607233865401774e-01 1.105490688161495205e+00 9.607046193353356855e-01 -7.274917236334415005e-01 -3.732935105604451298e-01 6.565374638393419726e-01 -3.330631484905169692e+00 1.571967083206636362e+00 2.721244998205966104e-01 -1.313259786431594106e-02 3.106535317404222063e-01 8.919042109094815762e-01 3.085613375989640361e-01 4.141284463568170038e-01 -4.370979371459647878e-01 8.225135284514107914e-01 3.128022063243403039e-01 8.739216513854121127e-01 2.092269878762140767e+00 -3.755648911454005368e-01 -1.464839986665509741e+00 2.369844528930468430e-01 3.180406461934303097e-01 7.606366674038333997e-01 3.207855800038359462e-01 7.044075760375129169e-01 4.691263623321428322e-01 2.369159380418137117e-01 3.152217007335698651e-01 3.144860937971443171e-01 2.468334138958153123e-01 3.040436751035764384e-01 1.412842581062282665e+00 1.636107150251650655e+00 3.155269435913738985e-01 3.175215675458600839e-01 1.433984577045820386e-01 -2.444452328363786731e-01 2.156688797008272651e-01 -3.176934463544961451e-02 3.104313244116354564e-01 7.043799505303076636e-01 -5.021057864112871139e-01 2.743076851336658795e-01 2.836707709759941909e-01 1.528975511938886200e-01 2.997443210559226356e-01 2.176550130065128819e-01 3.133159735895393871e-01 3.112607333576948299e-01 1.787842961083481452e-02 2.788430172727688894e-01 4.364081013960037225e-01 1.122601179490326562e+00 1.105596787792146429e+00 9.248706058844307076e-01 1.999469001558835390e-01 7.851236470312251692e-01 1.452832692399401437e-01 4.850846191083445502e-01 -2.134415493766807614e+00 3.142155462171320468e-01 6.580894634591989423e-01 2.850085829117655067e-01 9.521964816859508351e-01 1.371220722999187291e+00 2.330360123213032209e-01 2.594192772293759663e-01 3.745001306884649384e-01 3.455277143325891087e-01 5.507212204512618170e-01 9.021250122659397741e-01 -7.914409313098219600e-01 1.974809011290729888e-01 6.126043191600340221e-02 3.284891389800804196e-01 3.417024909162336144e-01 7.691367690931405487e-01 -2.275450410227788656e-01 4.020134882048567171e-01 3.173395046622736193e-01 3.567408655572059661e-01 8.919154526161119367e-01 4.293663102511856011e-01 -2.149714901299360770e-01 8.590079894000232086e-01 -4.404511542762791498e-02 5.690910661444587015e-01 2.665765518176225757e-01 1.288252942433768089e+00 5.832154784289864669e-01 7.284144743146027112e-01 4.382597789368123942e-01 4.869637018464763045e-01 -5.615241337990566350e-01 2.399773373669671361e-01 7.600072885411488510e-01 3.125925442895791662e-01 6.221223772171029509e-01 2.710969450249496315e-01 3.090698059023940791e-01 7.236287776003605954e-01 1.484066804837811393e-01 -2.052600944462800392e+00 2.094567098401874383e-01 2.595126420139340917e-01 8.600102112081949857e-01 3.748182286428030641e-01 3.963040393555074536e-01 3.673030584601651993e-01 3.145686063667501586e-01 3.897082589982700518e-01 7.327835770951988958e-02 -1.624084647233834833e+00 7.566539555045143084e-01 2.499458310794941962e-01 3.035137810192424235e-01 2.125010864980204361e-01 8.218456867009558131e-01 3.121892981854013649e-01 -1.469851871804489230e-01 3.363236176914630726e-01 1.121825470818416770e+00 2.651295503442754886e-01 4.157691612202550902e-01 1.050715502720950267e+00 3.907483139181176512e-01 2.795866762090734703e+00 3.390188959580856531e-01 3.119448575246669408e-01 7.007990759319245866e-01 3.407984740460119899e-01 3.274927102311651628e-01 -2.116545762771197214e+00 4.348907420711297656e-01 3.326834390689047960e-01 5.167017384036105554e-01 3.083355989140388886e-01 2.088779982093154075e-01 -2.005169037435476642e-01 2.058802310059524299e+00 -5.193870058824427982e-01 8.279426431280841880e-01 3.099781072490581102e-01 2.979331404211435497e-01 8.177818920825395965e-01 3.408328400581309148e-01 1.335365262444440759e+00 2.010814960438694898e-01 3.639890432993408420e-01 -8.844400869177158064e-01 -1.331774325863844255e-01 -4.761452320162238294e-01 -3.974130862701524602e+00 2.962934872938522535e+00 3.352418367485252015e-02 2.998182538245371953e-01 -1.635706613317795322e+00 3.164202236593033901e-01 3.578956569268800236e-01 2.924551645362820085e-01 1.654297725153275889e-01 6.410935744731439678e-01 5.999463691467452620e-01 1.055944006759649278e+00 -3.732935099851131810e-01 -2.288863586869790967e-01 2.268870573302657345e-01 -1.189204115308218235e+00 2.594608901912780485e-01 -6.483823257019942776e-01 3.315532073596544338e-01 4.577284567672334492e-01 8.304718737995114841e-02 4.487483353147767029e-01 2.663396775738200439e-01 -5.350210762983053508e-02 2.237363738926721746e-01 2.906576145281936085e-01 3.633443770233980019e-01 3.233195283225956951e-01 3.145224901574088516e-01 -7.277323935515916942e-01 5.133820057891405053e-01 1.540197735736662965e+00 6.840035697528948355e-02 2.378568135566483110e-01 3.081398720958302695e-01 1.207828481358126371e+00 3.298659025397523425e-01 1.160889504193601401e-01 8.903420080312003382e-01 2.683148921833734546e-01 1.867644665764968792e+00 2.702124854349235439e-01 1.299163139426461111e+00 3.024786630204905902e-01 7.358465639504105926e-01 1.352099600023235260e+00 3.604573455619049516e-01 3.596307093205539651e-01 9.341676834390227890e-01 -1.877195225332075335e-01 -6.057755299440872182e-02 2.142993513819332341e-01 3.020959998164035043e-01 3.572315428897876455e-01 1.437846373841723535e-01 1.524313776845193924e-01 -3.727385473160593210e-01 1.292486639981626606e+00 2.900054665597212589e-01 3.140812898966547362e-01 -3.197979448554469695e+00 5.388523736553217924e-01 2.785530442713203270e-01 4.004991024241232878e-01 4.008333459251023356e-01 4.659397859776996387e-01 -1.092671089061898249e+00 6.227222270454865205e-01 2.863667280572262386e-01 3.138029050560793287e-01 1.028654448741096683e+00 4.601913743992300798e-01 3.166682742974888387e-01 -1.405680744507601387e+00 3.941813205745349769e-01 8.918010021544467980e-01 3.129406796185660311e-01 3.054139678807770708e-01 3.423766694172117875e-01 7.120657376974548480e-01 -6.217515268111638987e-02 3.117043669835981579e-01 3.303051481356796271e-01 8.673146424632099949e-02 6.714058150485883170e-01 2.829022824138214265e-01 7.093879417995641035e-01 1.728341804004714377e-01 6.904986843255509488e-01 -2.343328438264810354e-01 -1.508394117001998547e+00 3.006771729052474806e-01 -1.884686303617558525e-02 3.344646586180867187e-01 3.781855488322179437e-01 5.460168693005286455e-02 5.204429929733300764e-01 3.176041922706848153e-01 8.341171548646053591e-02 4.439212705958507921e-01 2.660260230889002764e-01 3.082013257834483877e-01 2.709482273031328381e-01 -8.428866909767710469e-01 3.109588402086952974e-01 2.995992044345330285e-01 3.289053341728827573e-01 -2.464885350001638498e-01 3.145246149513197254e-01 8.223888381782198387e-01 -5.712518844653274863e-01 1.119934894034513073e+00 6.135067552396992197e-01 2.581684862552205417e-01 3.120896654318861541e-01 -2.048735966398117725e+00 3.306978129392119659e-01 2.069398796040066713e-01 2.728733556713472397e-01 5.204430865646350046e-01 3.080747608133344029e-01 3.075839177806827807e-01 7.342973688423197476e-02 3.136420536709155216e-01 4.354276300147895129e-01 3.610236581330056316e-01 2.611106739974335955e-01 2.897775696120921674e-01 3.130199538712022944e-01 3.108696050705809233e-01 2.660196712469081182e-01 8.303858872684605208e-02 3.054273609373005516e-01 6.182509276423309164e-01 1.823861522962539339e-01 3.131067323502301769e-01 -1.393675679853396965e-01 1.701012582179579624e-01 5.953090826089597609e-01 4.487853348996491576e+00 3.457321674829579861e-01 8.632226571691617445e-02 5.575595875632379794e-01 1.867637091094395962e-01 1.556512123133756864e+00 3.499372020924830795e-01 6.434775165921550188e-01 3.121109519101914476e-01
