# 
#                 ----------------------------------------------------
#                 Data from a 3D direct N-body simulation. 
# 
#                 rows are i-particle; 
#                 coumns are :mass, tag, x ,y, z, vx, vy, vz, ax, ay, az
# 
#                 NTHU, Computational Physics 
# 
#                 ----------------------------------------------------
#                 Time = 0.0
0.000000000000000000e+00 1.000000000000000000e+00 2.000000000000000000e+00 3.000000000000000000e+00 4.000000000000000000e+00 5.000000000000000000e+00 6.000000000000000000e+00 7.000000000000000000e+00 8.000000000000000000e+00 9.000000000000000000e+00 1.000000000000000000e+01 1.100000000000000000e+01 1.200000000000000000e+01 1.300000000000000000e+01 1.400000000000000000e+01 1.500000000000000000e+01 1.600000000000000000e+01 1.700000000000000000e+01 1.800000000000000000e+01 1.900000000000000000e+01 2.000000000000000000e+01 2.100000000000000000e+01 2.200000000000000000e+01 2.300000000000000000e+01 2.400000000000000000e+01 2.500000000000000000e+01 2.600000000000000000e+01 2.700000000000000000e+01 2.800000000000000000e+01 2.900000000000000000e+01 3.000000000000000000e+01 3.100000000000000000e+01 3.200000000000000000e+01 3.300000000000000000e+01 3.400000000000000000e+01 3.500000000000000000e+01 3.600000000000000000e+01 3.700000000000000000e+01 3.800000000000000000e+01 3.900000000000000000e+01 4.000000000000000000e+01 4.100000000000000000e+01 4.200000000000000000e+01 4.300000000000000000e+01 4.400000000000000000e+01 4.500000000000000000e+01 4.600000000000000000e+01 4.700000000000000000e+01 4.800000000000000000e+01 4.900000000000000000e+01 5.000000000000000000e+01 5.100000000000000000e+01 5.200000000000000000e+01 5.300000000000000000e+01 5.400000000000000000e+01 5.500000000000000000e+01 5.600000000000000000e+01 5.700000000000000000e+01 5.800000000000000000e+01 5.900000000000000000e+01 6.000000000000000000e+01 6.100000000000000000e+01 6.200000000000000000e+01 6.300000000000000000e+01 6.400000000000000000e+01 6.500000000000000000e+01 6.600000000000000000e+01 6.700000000000000000e+01 6.800000000000000000e+01 6.900000000000000000e+01 7.000000000000000000e+01 7.100000000000000000e+01 7.200000000000000000e+01 7.300000000000000000e+01 7.400000000000000000e+01 7.500000000000000000e+01 7.600000000000000000e+01 7.700000000000000000e+01 7.800000000000000000e+01 7.900000000000000000e+01 8.000000000000000000e+01 8.100000000000000000e+01 8.200000000000000000e+01 8.300000000000000000e+01 8.400000000000000000e+01 8.500000000000000000e+01 8.600000000000000000e+01 8.700000000000000000e+01 8.800000000000000000e+01 8.900000000000000000e+01 9.000000000000000000e+01 9.100000000000000000e+01 9.200000000000000000e+01 9.300000000000000000e+01 9.400000000000000000e+01 9.500000000000000000e+01 9.600000000000000000e+01 9.700000000000000000e+01 9.800000000000000000e+01 9.900000000000000000e+01 1.000000000000000000e+02 1.010000000000000000e+02 1.020000000000000000e+02 1.030000000000000000e+02 1.040000000000000000e+02 1.050000000000000000e+02 1.060000000000000000e+02 1.070000000000000000e+02 1.080000000000000000e+02 1.090000000000000000e+02 1.100000000000000000e+02 1.110000000000000000e+02 1.120000000000000000e+02 1.130000000000000000e+02 1.140000000000000000e+02 1.150000000000000000e+02 1.160000000000000000e+02 1.170000000000000000e+02 1.180000000000000000e+02 1.190000000000000000e+02 1.200000000000000000e+02 1.210000000000000000e+02 1.220000000000000000e+02 1.230000000000000000e+02 1.240000000000000000e+02 1.250000000000000000e+02 1.260000000000000000e+02 1.270000000000000000e+02 1.280000000000000000e+02 1.290000000000000000e+02 1.300000000000000000e+02 1.310000000000000000e+02 1.320000000000000000e+02 1.330000000000000000e+02 1.340000000000000000e+02 1.350000000000000000e+02 1.360000000000000000e+02 1.370000000000000000e+02 1.380000000000000000e+02 1.390000000000000000e+02 1.400000000000000000e+02 1.410000000000000000e+02 1.420000000000000000e+02 1.430000000000000000e+02 1.440000000000000000e+02 1.450000000000000000e+02 1.460000000000000000e+02 1.470000000000000000e+02 1.480000000000000000e+02 1.490000000000000000e+02 1.500000000000000000e+02 1.510000000000000000e+02 1.520000000000000000e+02 1.530000000000000000e+02 1.540000000000000000e+02 1.550000000000000000e+02 1.560000000000000000e+02 1.570000000000000000e+02 1.580000000000000000e+02 1.590000000000000000e+02 1.600000000000000000e+02 1.610000000000000000e+02 1.620000000000000000e+02 1.630000000000000000e+02 1.640000000000000000e+02 1.650000000000000000e+02 1.660000000000000000e+02 1.670000000000000000e+02 1.680000000000000000e+02 1.690000000000000000e+02 1.700000000000000000e+02 1.710000000000000000e+02 1.720000000000000000e+02 1.730000000000000000e+02 1.740000000000000000e+02 1.750000000000000000e+02 1.760000000000000000e+02 1.770000000000000000e+02 1.780000000000000000e+02 1.790000000000000000e+02 1.800000000000000000e+02 1.810000000000000000e+02 1.820000000000000000e+02 1.830000000000000000e+02 1.840000000000000000e+02 1.850000000000000000e+02 1.860000000000000000e+02 1.870000000000000000e+02 1.880000000000000000e+02 1.890000000000000000e+02 1.900000000000000000e+02 1.910000000000000000e+02 1.920000000000000000e+02 1.930000000000000000e+02 1.940000000000000000e+02 1.950000000000000000e+02 1.960000000000000000e+02 1.970000000000000000e+02 1.980000000000000000e+02 1.990000000000000000e+02 2.000000000000000000e+02 2.010000000000000000e+02 2.020000000000000000e+02 2.030000000000000000e+02 2.040000000000000000e+02 2.050000000000000000e+02 2.060000000000000000e+02 2.070000000000000000e+02 2.080000000000000000e+02 2.090000000000000000e+02 2.100000000000000000e+02 2.110000000000000000e+02 2.120000000000000000e+02 2.130000000000000000e+02 2.140000000000000000e+02 2.150000000000000000e+02 2.160000000000000000e+02 2.170000000000000000e+02 2.180000000000000000e+02 2.190000000000000000e+02 2.200000000000000000e+02 2.210000000000000000e+02 2.220000000000000000e+02 2.230000000000000000e+02 2.240000000000000000e+02 2.250000000000000000e+02 2.260000000000000000e+02 2.270000000000000000e+02 2.280000000000000000e+02 2.290000000000000000e+02 2.300000000000000000e+02 2.310000000000000000e+02 2.320000000000000000e+02 2.330000000000000000e+02 2.340000000000000000e+02 2.350000000000000000e+02 2.360000000000000000e+02 2.370000000000000000e+02 2.380000000000000000e+02 2.390000000000000000e+02 2.400000000000000000e+02 2.410000000000000000e+02 2.420000000000000000e+02 2.430000000000000000e+02 2.440000000000000000e+02 2.450000000000000000e+02 2.460000000000000000e+02 2.470000000000000000e+02 2.480000000000000000e+02 2.490000000000000000e+02 2.500000000000000000e+02 2.510000000000000000e+02 2.520000000000000000e+02 2.530000000000000000e+02 2.540000000000000000e+02 2.550000000000000000e+02 2.560000000000000000e+02 2.570000000000000000e+02 2.580000000000000000e+02 2.590000000000000000e+02 2.600000000000000000e+02 2.610000000000000000e+02 2.620000000000000000e+02 2.630000000000000000e+02 2.640000000000000000e+02 2.650000000000000000e+02 2.660000000000000000e+02 2.670000000000000000e+02 2.680000000000000000e+02 2.690000000000000000e+02 2.700000000000000000e+02 2.710000000000000000e+02 2.720000000000000000e+02 2.730000000000000000e+02 2.740000000000000000e+02 2.750000000000000000e+02 2.760000000000000000e+02 2.770000000000000000e+02 2.780000000000000000e+02 2.790000000000000000e+02 2.800000000000000000e+02 2.810000000000000000e+02 2.820000000000000000e+02 2.830000000000000000e+02 2.840000000000000000e+02 2.850000000000000000e+02 2.860000000000000000e+02 2.870000000000000000e+02 2.880000000000000000e+02 2.890000000000000000e+02 2.900000000000000000e+02 2.910000000000000000e+02 2.920000000000000000e+02 2.930000000000000000e+02 2.940000000000000000e+02 2.950000000000000000e+02 2.960000000000000000e+02 2.970000000000000000e+02 2.980000000000000000e+02 2.990000000000000000e+02 3.000000000000000000e+02 3.010000000000000000e+02 3.020000000000000000e+02 3.030000000000000000e+02 3.040000000000000000e+02 3.050000000000000000e+02 3.060000000000000000e+02 3.070000000000000000e+02 3.080000000000000000e+02 3.090000000000000000e+02 3.100000000000000000e+02 3.110000000000000000e+02 3.120000000000000000e+02 3.130000000000000000e+02 3.140000000000000000e+02 3.150000000000000000e+02 3.160000000000000000e+02 3.170000000000000000e+02 3.180000000000000000e+02 3.190000000000000000e+02 3.200000000000000000e+02 3.210000000000000000e+02 3.220000000000000000e+02 3.230000000000000000e+02 3.240000000000000000e+02 3.250000000000000000e+02 3.260000000000000000e+02 3.270000000000000000e+02 3.280000000000000000e+02 3.290000000000000000e+02 3.300000000000000000e+02 3.310000000000000000e+02 3.320000000000000000e+02 3.330000000000000000e+02 3.340000000000000000e+02 3.350000000000000000e+02 3.360000000000000000e+02 3.370000000000000000e+02 3.380000000000000000e+02 3.390000000000000000e+02 3.400000000000000000e+02 3.410000000000000000e+02 3.420000000000000000e+02 3.430000000000000000e+02 3.440000000000000000e+02 3.450000000000000000e+02 3.460000000000000000e+02 3.470000000000000000e+02 3.480000000000000000e+02 3.490000000000000000e+02 3.500000000000000000e+02 3.510000000000000000e+02 3.520000000000000000e+02 3.530000000000000000e+02 3.540000000000000000e+02 3.550000000000000000e+02 3.560000000000000000e+02 3.570000000000000000e+02 3.580000000000000000e+02 3.590000000000000000e+02 3.600000000000000000e+02 3.610000000000000000e+02 3.620000000000000000e+02 3.630000000000000000e+02 3.640000000000000000e+02 3.650000000000000000e+02 3.660000000000000000e+02 3.670000000000000000e+02 3.680000000000000000e+02 3.690000000000000000e+02 3.700000000000000000e+02 3.710000000000000000e+02 3.720000000000000000e+02 3.730000000000000000e+02 3.740000000000000000e+02 3.750000000000000000e+02 3.760000000000000000e+02 3.770000000000000000e+02 3.780000000000000000e+02 3.790000000000000000e+02 3.800000000000000000e+02 3.810000000000000000e+02 3.820000000000000000e+02 3.830000000000000000e+02 3.840000000000000000e+02 3.850000000000000000e+02 3.860000000000000000e+02 3.870000000000000000e+02 3.880000000000000000e+02 3.890000000000000000e+02 3.900000000000000000e+02 3.910000000000000000e+02 3.920000000000000000e+02 3.930000000000000000e+02 3.940000000000000000e+02 3.950000000000000000e+02 3.960000000000000000e+02 3.970000000000000000e+02 3.980000000000000000e+02 3.990000000000000000e+02 4.000000000000000000e+02 4.010000000000000000e+02 4.020000000000000000e+02 4.030000000000000000e+02 4.040000000000000000e+02 4.050000000000000000e+02 4.060000000000000000e+02 4.070000000000000000e+02 4.080000000000000000e+02 4.090000000000000000e+02 4.100000000000000000e+02 4.110000000000000000e+02 4.120000000000000000e+02 4.130000000000000000e+02 4.140000000000000000e+02 4.150000000000000000e+02 4.160000000000000000e+02 4.170000000000000000e+02 4.180000000000000000e+02 4.190000000000000000e+02 4.200000000000000000e+02 4.210000000000000000e+02 4.220000000000000000e+02 4.230000000000000000e+02 4.240000000000000000e+02 4.250000000000000000e+02 4.260000000000000000e+02 4.270000000000000000e+02 4.280000000000000000e+02 4.290000000000000000e+02 4.300000000000000000e+02 4.310000000000000000e+02 4.320000000000000000e+02 4.330000000000000000e+02 4.340000000000000000e+02 4.350000000000000000e+02 4.360000000000000000e+02 4.370000000000000000e+02 4.380000000000000000e+02 4.390000000000000000e+02 4.400000000000000000e+02 4.410000000000000000e+02 4.420000000000000000e+02 4.430000000000000000e+02 4.440000000000000000e+02 4.450000000000000000e+02 4.460000000000000000e+02 4.470000000000000000e+02 4.480000000000000000e+02 4.490000000000000000e+02 4.500000000000000000e+02 4.510000000000000000e+02 4.520000000000000000e+02 4.530000000000000000e+02 4.540000000000000000e+02 4.550000000000000000e+02 4.560000000000000000e+02 4.570000000000000000e+02 4.580000000000000000e+02 4.590000000000000000e+02 4.600000000000000000e+02 4.610000000000000000e+02 4.620000000000000000e+02 4.630000000000000000e+02 4.640000000000000000e+02 4.650000000000000000e+02 4.660000000000000000e+02 4.670000000000000000e+02 4.680000000000000000e+02 4.690000000000000000e+02 4.700000000000000000e+02 4.710000000000000000e+02 4.720000000000000000e+02 4.730000000000000000e+02 4.740000000000000000e+02 4.750000000000000000e+02 4.760000000000000000e+02 4.770000000000000000e+02 4.780000000000000000e+02 4.790000000000000000e+02 4.800000000000000000e+02 4.810000000000000000e+02 4.820000000000000000e+02 4.830000000000000000e+02 4.840000000000000000e+02 4.850000000000000000e+02 4.860000000000000000e+02 4.870000000000000000e+02 4.880000000000000000e+02 4.890000000000000000e+02 4.900000000000000000e+02 4.910000000000000000e+02 4.920000000000000000e+02 4.930000000000000000e+02 4.940000000000000000e+02 4.950000000000000000e+02 4.960000000000000000e+02 4.970000000000000000e+02 4.980000000000000000e+02 4.990000000000000000e+02 5.000000000000000000e+02 5.010000000000000000e+02 5.020000000000000000e+02 5.030000000000000000e+02 5.040000000000000000e+02 5.050000000000000000e+02 5.060000000000000000e+02 5.070000000000000000e+02 5.080000000000000000e+02 5.090000000000000000e+02 5.100000000000000000e+02 5.110000000000000000e+02 5.120000000000000000e+02 5.130000000000000000e+02 5.140000000000000000e+02 5.150000000000000000e+02 5.160000000000000000e+02 5.170000000000000000e+02 5.180000000000000000e+02 5.190000000000000000e+02 5.200000000000000000e+02 5.210000000000000000e+02 5.220000000000000000e+02 5.230000000000000000e+02 5.240000000000000000e+02 5.250000000000000000e+02 5.260000000000000000e+02 5.270000000000000000e+02 5.280000000000000000e+02 5.290000000000000000e+02 5.300000000000000000e+02 5.310000000000000000e+02 5.320000000000000000e+02 5.330000000000000000e+02 5.340000000000000000e+02 5.350000000000000000e+02 5.360000000000000000e+02 5.370000000000000000e+02 5.380000000000000000e+02 5.390000000000000000e+02 5.400000000000000000e+02 5.410000000000000000e+02 5.420000000000000000e+02 5.430000000000000000e+02 5.440000000000000000e+02 5.450000000000000000e+02 5.460000000000000000e+02 5.470000000000000000e+02 5.480000000000000000e+02 5.490000000000000000e+02 5.500000000000000000e+02 5.510000000000000000e+02 5.520000000000000000e+02 5.530000000000000000e+02 5.540000000000000000e+02 5.550000000000000000e+02 5.560000000000000000e+02 5.570000000000000000e+02 5.580000000000000000e+02 5.590000000000000000e+02 5.600000000000000000e+02 5.610000000000000000e+02 5.620000000000000000e+02 5.630000000000000000e+02 5.640000000000000000e+02 5.650000000000000000e+02 5.660000000000000000e+02 5.670000000000000000e+02 5.680000000000000000e+02 5.690000000000000000e+02 5.700000000000000000e+02 5.710000000000000000e+02 5.720000000000000000e+02 5.730000000000000000e+02 5.740000000000000000e+02 5.750000000000000000e+02 5.760000000000000000e+02 5.770000000000000000e+02 5.780000000000000000e+02 5.790000000000000000e+02 5.800000000000000000e+02 5.810000000000000000e+02 5.820000000000000000e+02 5.830000000000000000e+02 5.840000000000000000e+02 5.850000000000000000e+02 5.860000000000000000e+02 5.870000000000000000e+02 5.880000000000000000e+02 5.890000000000000000e+02 5.900000000000000000e+02 5.910000000000000000e+02 5.920000000000000000e+02 5.930000000000000000e+02 5.940000000000000000e+02 5.950000000000000000e+02 5.960000000000000000e+02 5.970000000000000000e+02 5.980000000000000000e+02 5.990000000000000000e+02 6.000000000000000000e+02 6.010000000000000000e+02 6.020000000000000000e+02 6.030000000000000000e+02 6.040000000000000000e+02 6.050000000000000000e+02 6.060000000000000000e+02 6.070000000000000000e+02 6.080000000000000000e+02 6.090000000000000000e+02 6.100000000000000000e+02 6.110000000000000000e+02 6.120000000000000000e+02 6.130000000000000000e+02 6.140000000000000000e+02 6.150000000000000000e+02 6.160000000000000000e+02 6.170000000000000000e+02 6.180000000000000000e+02 6.190000000000000000e+02 6.200000000000000000e+02 6.210000000000000000e+02 6.220000000000000000e+02 6.230000000000000000e+02 6.240000000000000000e+02 6.250000000000000000e+02 6.260000000000000000e+02 6.270000000000000000e+02 6.280000000000000000e+02 6.290000000000000000e+02 6.300000000000000000e+02 6.310000000000000000e+02 6.320000000000000000e+02 6.330000000000000000e+02 6.340000000000000000e+02 6.350000000000000000e+02 6.360000000000000000e+02 6.370000000000000000e+02 6.380000000000000000e+02 6.390000000000000000e+02 6.400000000000000000e+02 6.410000000000000000e+02 6.420000000000000000e+02 6.430000000000000000e+02 6.440000000000000000e+02 6.450000000000000000e+02 6.460000000000000000e+02 6.470000000000000000e+02 6.480000000000000000e+02 6.490000000000000000e+02 6.500000000000000000e+02 6.510000000000000000e+02 6.520000000000000000e+02 6.530000000000000000e+02 6.540000000000000000e+02 6.550000000000000000e+02 6.560000000000000000e+02 6.570000000000000000e+02 6.580000000000000000e+02 6.590000000000000000e+02 6.600000000000000000e+02 6.610000000000000000e+02 6.620000000000000000e+02 6.630000000000000000e+02 6.640000000000000000e+02 6.650000000000000000e+02 6.660000000000000000e+02 6.670000000000000000e+02 6.680000000000000000e+02 6.690000000000000000e+02 6.700000000000000000e+02 6.710000000000000000e+02 6.720000000000000000e+02 6.730000000000000000e+02 6.740000000000000000e+02 6.750000000000000000e+02 6.760000000000000000e+02 6.770000000000000000e+02 6.780000000000000000e+02 6.790000000000000000e+02 6.800000000000000000e+02 6.810000000000000000e+02 6.820000000000000000e+02 6.830000000000000000e+02 6.840000000000000000e+02 6.850000000000000000e+02 6.860000000000000000e+02 6.870000000000000000e+02 6.880000000000000000e+02 6.890000000000000000e+02 6.900000000000000000e+02 6.910000000000000000e+02 6.920000000000000000e+02 6.930000000000000000e+02 6.940000000000000000e+02 6.950000000000000000e+02 6.960000000000000000e+02 6.970000000000000000e+02 6.980000000000000000e+02 6.990000000000000000e+02 7.000000000000000000e+02 7.010000000000000000e+02 7.020000000000000000e+02 7.030000000000000000e+02 7.040000000000000000e+02 7.050000000000000000e+02 7.060000000000000000e+02 7.070000000000000000e+02 7.080000000000000000e+02 7.090000000000000000e+02 7.100000000000000000e+02 7.110000000000000000e+02 7.120000000000000000e+02 7.130000000000000000e+02 7.140000000000000000e+02 7.150000000000000000e+02 7.160000000000000000e+02 7.170000000000000000e+02 7.180000000000000000e+02 7.190000000000000000e+02 7.200000000000000000e+02 7.210000000000000000e+02 7.220000000000000000e+02 7.230000000000000000e+02 7.240000000000000000e+02 7.250000000000000000e+02 7.260000000000000000e+02 7.270000000000000000e+02 7.280000000000000000e+02 7.290000000000000000e+02 7.300000000000000000e+02 7.310000000000000000e+02 7.320000000000000000e+02 7.330000000000000000e+02 7.340000000000000000e+02 7.350000000000000000e+02 7.360000000000000000e+02 7.370000000000000000e+02 7.380000000000000000e+02 7.390000000000000000e+02 7.400000000000000000e+02 7.410000000000000000e+02 7.420000000000000000e+02 7.430000000000000000e+02 7.440000000000000000e+02 7.450000000000000000e+02 7.460000000000000000e+02 7.470000000000000000e+02 7.480000000000000000e+02 7.490000000000000000e+02 7.500000000000000000e+02 7.510000000000000000e+02 7.520000000000000000e+02 7.530000000000000000e+02 7.540000000000000000e+02 7.550000000000000000e+02 7.560000000000000000e+02 7.570000000000000000e+02 7.580000000000000000e+02 7.590000000000000000e+02 7.600000000000000000e+02 7.610000000000000000e+02 7.620000000000000000e+02 7.630000000000000000e+02 7.640000000000000000e+02 7.650000000000000000e+02 7.660000000000000000e+02 7.670000000000000000e+02 7.680000000000000000e+02 7.690000000000000000e+02 7.700000000000000000e+02 7.710000000000000000e+02 7.720000000000000000e+02 7.730000000000000000e+02 7.740000000000000000e+02 7.750000000000000000e+02 7.760000000000000000e+02 7.770000000000000000e+02 7.780000000000000000e+02 7.790000000000000000e+02 7.800000000000000000e+02 7.810000000000000000e+02 7.820000000000000000e+02 7.830000000000000000e+02 7.840000000000000000e+02 7.850000000000000000e+02 7.860000000000000000e+02 7.870000000000000000e+02 7.880000000000000000e+02 7.890000000000000000e+02 7.900000000000000000e+02 7.910000000000000000e+02 7.920000000000000000e+02 7.930000000000000000e+02 7.940000000000000000e+02 7.950000000000000000e+02 7.960000000000000000e+02 7.970000000000000000e+02 7.980000000000000000e+02 7.990000000000000000e+02 8.000000000000000000e+02 8.010000000000000000e+02 8.020000000000000000e+02 8.030000000000000000e+02 8.040000000000000000e+02 8.050000000000000000e+02 8.060000000000000000e+02 8.070000000000000000e+02 8.080000000000000000e+02 8.090000000000000000e+02 8.100000000000000000e+02 8.110000000000000000e+02 8.120000000000000000e+02 8.130000000000000000e+02 8.140000000000000000e+02 8.150000000000000000e+02 8.160000000000000000e+02 8.170000000000000000e+02 8.180000000000000000e+02 8.190000000000000000e+02 8.200000000000000000e+02 8.210000000000000000e+02 8.220000000000000000e+02 8.230000000000000000e+02 8.240000000000000000e+02 8.250000000000000000e+02 8.260000000000000000e+02 8.270000000000000000e+02 8.280000000000000000e+02 8.290000000000000000e+02 8.300000000000000000e+02 8.310000000000000000e+02 8.320000000000000000e+02 8.330000000000000000e+02 8.340000000000000000e+02 8.350000000000000000e+02 8.360000000000000000e+02 8.370000000000000000e+02 8.380000000000000000e+02 8.390000000000000000e+02 8.400000000000000000e+02 8.410000000000000000e+02 8.420000000000000000e+02 8.430000000000000000e+02 8.440000000000000000e+02 8.450000000000000000e+02 8.460000000000000000e+02 8.470000000000000000e+02 8.480000000000000000e+02 8.490000000000000000e+02 8.500000000000000000e+02 8.510000000000000000e+02 8.520000000000000000e+02 8.530000000000000000e+02 8.540000000000000000e+02 8.550000000000000000e+02 8.560000000000000000e+02 8.570000000000000000e+02 8.580000000000000000e+02 8.590000000000000000e+02 8.600000000000000000e+02 8.610000000000000000e+02 8.620000000000000000e+02 8.630000000000000000e+02 8.640000000000000000e+02 8.650000000000000000e+02 8.660000000000000000e+02 8.670000000000000000e+02 8.680000000000000000e+02 8.690000000000000000e+02 8.700000000000000000e+02 8.710000000000000000e+02 8.720000000000000000e+02 8.730000000000000000e+02 8.740000000000000000e+02 8.750000000000000000e+02 8.760000000000000000e+02 8.770000000000000000e+02 8.780000000000000000e+02 8.790000000000000000e+02 8.800000000000000000e+02 8.810000000000000000e+02 8.820000000000000000e+02 8.830000000000000000e+02 8.840000000000000000e+02 8.850000000000000000e+02 8.860000000000000000e+02 8.870000000000000000e+02 8.880000000000000000e+02 8.890000000000000000e+02 8.900000000000000000e+02 8.910000000000000000e+02 8.920000000000000000e+02 8.930000000000000000e+02 8.940000000000000000e+02 8.950000000000000000e+02 8.960000000000000000e+02 8.970000000000000000e+02 8.980000000000000000e+02 8.990000000000000000e+02 9.000000000000000000e+02 9.010000000000000000e+02 9.020000000000000000e+02 9.030000000000000000e+02 9.040000000000000000e+02 9.050000000000000000e+02 9.060000000000000000e+02 9.070000000000000000e+02 9.080000000000000000e+02 9.090000000000000000e+02 9.100000000000000000e+02 9.110000000000000000e+02 9.120000000000000000e+02 9.130000000000000000e+02 9.140000000000000000e+02 9.150000000000000000e+02 9.160000000000000000e+02 9.170000000000000000e+02 9.180000000000000000e+02 9.190000000000000000e+02 9.200000000000000000e+02 9.210000000000000000e+02 9.220000000000000000e+02 9.230000000000000000e+02 9.240000000000000000e+02 9.250000000000000000e+02 9.260000000000000000e+02 9.270000000000000000e+02 9.280000000000000000e+02 9.290000000000000000e+02 9.300000000000000000e+02 9.310000000000000000e+02 9.320000000000000000e+02 9.330000000000000000e+02 9.340000000000000000e+02 9.350000000000000000e+02 9.360000000000000000e+02 9.370000000000000000e+02 9.380000000000000000e+02 9.390000000000000000e+02 9.400000000000000000e+02 9.410000000000000000e+02 9.420000000000000000e+02 9.430000000000000000e+02 9.440000000000000000e+02 9.450000000000000000e+02 9.460000000000000000e+02 9.470000000000000000e+02 9.480000000000000000e+02 9.490000000000000000e+02 9.500000000000000000e+02 9.510000000000000000e+02 9.520000000000000000e+02 9.530000000000000000e+02 9.540000000000000000e+02 9.550000000000000000e+02 9.560000000000000000e+02 9.570000000000000000e+02 9.580000000000000000e+02 9.590000000000000000e+02 9.600000000000000000e+02 9.610000000000000000e+02 9.620000000000000000e+02 9.630000000000000000e+02 9.640000000000000000e+02 9.650000000000000000e+02 9.660000000000000000e+02 9.670000000000000000e+02 9.680000000000000000e+02 9.690000000000000000e+02 9.700000000000000000e+02 9.710000000000000000e+02 9.720000000000000000e+02 9.730000000000000000e+02 9.740000000000000000e+02 9.750000000000000000e+02 9.760000000000000000e+02 9.770000000000000000e+02 9.780000000000000000e+02 9.790000000000000000e+02 9.800000000000000000e+02 9.810000000000000000e+02 9.820000000000000000e+02 9.830000000000000000e+02 9.840000000000000000e+02 9.850000000000000000e+02 9.860000000000000000e+02 9.870000000000000000e+02 9.880000000000000000e+02 9.890000000000000000e+02 9.900000000000000000e+02 9.910000000000000000e+02 9.920000000000000000e+02 9.930000000000000000e+02 9.940000000000000000e+02 9.950000000000000000e+02 9.960000000000000000e+02 9.970000000000000000e+02 9.980000000000000000e+02 9.990000000000000000e+02
1.000000000000000000e+00 1.000000000000000000e+00 1.000000000000000000e+00 1.000000000000000000e+00 1.000000000000000000e+00 1.000000000000000000e+00 1.000000000000000000e+00 1.000000000000000000e+00 1.000000000000000000e+00 1.000000000000000000e+00 1.000000000000000000e+00 1.000000000000000000e+00 1.000000000000000000e+00 1.000000000000000000e+00 1.000000000000000000e+00 1.000000000000000000e+00 1.000000000000000000e+00 1.000000000000000000e+00 1.000000000000000000e+00 1.000000000000000000e+00 1.000000000000000000e+00 1.000000000000000000e+00 1.000000000000000000e+00 1.000000000000000000e+00 1.000000000000000000e+00 1.000000000000000000e+00 1.000000000000000000e+00 1.000000000000000000e+00 1.000000000000000000e+00 1.000000000000000000e+00 1.000000000000000000e+00 1.000000000000000000e+00 1.000000000000000000e+00 1.000000000000000000e+00 1.000000000000000000e+00 1.000000000000000000e+00 1.000000000000000000e+00 1.000000000000000000e+00 1.000000000000000000e+00 1.000000000000000000e+00 1.000000000000000000e+00 1.000000000000000000e+00 1.000000000000000000e+00 1.000000000000000000e+00 1.000000000000000000e+00 1.000000000000000000e+00 1.000000000000000000e+00 1.000000000000000000e+00 1.000000000000000000e+00 1.000000000000000000e+00 1.000000000000000000e+00 1.000000000000000000e+00 1.000000000000000000e+00 1.000000000000000000e+00 1.000000000000000000e+00 1.000000000000000000e+00 1.000000000000000000e+00 1.000000000000000000e+00 1.000000000000000000e+00 1.000000000000000000e+00 1.000000000000000000e+00 1.000000000000000000e+00 1.000000000000000000e+00 1.000000000000000000e+00 1.000000000000000000e+00 1.000000000000000000e+00 1.000000000000000000e+00 1.000000000000000000e+00 1.000000000000000000e+00 1.000000000000000000e+00 1.000000000000000000e+00 1.000000000000000000e+00 1.000000000000000000e+00 1.000000000000000000e+00 1.000000000000000000e+00 1.000000000000000000e+00 1.000000000000000000e+00 1.000000000000000000e+00 1.000000000000000000e+00 1.000000000000000000e+00 1.000000000000000000e+00 1.000000000000000000e+00 1.000000000000000000e+00 1.000000000000000000e+00 1.000000000000000000e+00 1.000000000000000000e+00 1.000000000000000000e+00 1.000000000000000000e+00 1.000000000000000000e+00 1.000000000000000000e+00 1.000000000000000000e+00 1.000000000000000000e+00 1.000000000000000000e+00 1.000000000000000000e+00 1.000000000000000000e+00 1.000000000000000000e+00 1.000000000000000000e+00 1.000000000000000000e+00 1.000000000000000000e+00 1.000000000000000000e+00 1.000000000000000000e+00 1.000000000000000000e+00 1.000000000000000000e+00 1.000000000000000000e+00 1.000000000000000000e+00 1.000000000000000000e+00 1.000000000000000000e+00 1.000000000000000000e+00 1.000000000000000000e+00 1.000000000000000000e+00 1.000000000000000000e+00 1.000000000000000000e+00 1.000000000000000000e+00 1.000000000000000000e+00 1.000000000000000000e+00 1.000000000000000000e+00 1.000000000000000000e+00 1.000000000000000000e+00 1.000000000000000000e+00 1.000000000000000000e+00 1.000000000000000000e+00 1.000000000000000000e+00 1.000000000000000000e+00 1.000000000000000000e+00 1.000000000000000000e+00 1.000000000000000000e+00 1.000000000000000000e+00 1.000000000000000000e+00 1.000000000000000000e+00 1.000000000000000000e+00 1.000000000000000000e+00 1.000000000000000000e+00 1.000000000000000000e+00 1.000000000000000000e+00 1.000000000000000000e+00 1.000000000000000000e+00 1.000000000000000000e+00 1.000000000000000000e+00 1.000000000000000000e+00 1.000000000000000000e+00 1.000000000000000000e+00 1.000000000000000000e+00 1.000000000000000000e+00 1.000000000000000000e+00 1.000000000000000000e+00 1.000000000000000000e+00 1.000000000000000000e+00 1.000000000000000000e+00 1.000000000000000000e+00 1.000000000000000000e+00 1.000000000000000000e+00 1.000000000000000000e+00 1.000000000000000000e+00 1.000000000000000000e+00 1.000000000000000000e+00 1.000000000000000000e+00 1.000000000000000000e+00 1.000000000000000000e+00 1.000000000000000000e+00 1.000000000000000000e+00 1.000000000000000000e+00 1.000000000000000000e+00 1.000000000000000000e+00 1.000000000000000000e+00 1.000000000000000000e+00 1.000000000000000000e+00 1.000000000000000000e+00 1.000000000000000000e+00 1.000000000000000000e+00 1.000000000000000000e+00 1.000000000000000000e+00 1.000000000000000000e+00 1.000000000000000000e+00 1.000000000000000000e+00 1.000000000000000000e+00 1.000000000000000000e+00 1.000000000000000000e+00 1.000000000000000000e+00 1.000000000000000000e+00 1.000000000000000000e+00 1.000000000000000000e+00 1.000000000000000000e+00 1.000000000000000000e+00 1.000000000000000000e+00 1.000000000000000000e+00 1.000000000000000000e+00 1.000000000000000000e+00 1.000000000000000000e+00 1.000000000000000000e+00 1.000000000000000000e+00 1.000000000000000000e+00 1.000000000000000000e+00 1.000000000000000000e+00 1.000000000000000000e+00 1.000000000000000000e+00 1.000000000000000000e+00 1.000000000000000000e+00 1.000000000000000000e+00 1.000000000000000000e+00 1.000000000000000000e+00 1.000000000000000000e+00 1.000000000000000000e+00 1.000000000000000000e+00 1.000000000000000000e+00 1.000000000000000000e+00 1.000000000000000000e+00 1.000000000000000000e+00 1.000000000000000000e+00 1.000000000000000000e+00 1.000000000000000000e+00 1.000000000000000000e+00 1.000000000000000000e+00 1.000000000000000000e+00 1.000000000000000000e+00 1.000000000000000000e+00 1.000000000000000000e+00 1.000000000000000000e+00 1.000000000000000000e+00 1.000000000000000000e+00 1.000000000000000000e+00 1.000000000000000000e+00 1.000000000000000000e+00 1.000000000000000000e+00 1.000000000000000000e+00 1.000000000000000000e+00 1.000000000000000000e+00 1.000000000000000000e+00 1.000000000000000000e+00 1.000000000000000000e+00 1.000000000000000000e+00 1.000000000000000000e+00 1.000000000000000000e+00 1.000000000000000000e+00 1.000000000000000000e+00 1.000000000000000000e+00 1.000000000000000000e+00 1.000000000000000000e+00 1.000000000000000000e+00 1.000000000000000000e+00 1.000000000000000000e+00 1.000000000000000000e+00 1.000000000000000000e+00 1.000000000000000000e+00 1.000000000000000000e+00 1.000000000000000000e+00 1.000000000000000000e+00 1.000000000000000000e+00 1.000000000000000000e+00 1.000000000000000000e+00 1.000000000000000000e+00 1.000000000000000000e+00 1.000000000000000000e+00 1.000000000000000000e+00 1.000000000000000000e+00 1.000000000000000000e+00 1.000000000000000000e+00 1.000000000000000000e+00 1.000000000000000000e+00 1.000000000000000000e+00 1.000000000000000000e+00 1.000000000000000000e+00 1.000000000000000000e+00 1.000000000000000000e+00 1.000000000000000000e+00 1.000000000000000000e+00 1.000000000000000000e+00 1.000000000000000000e+00 1.000000000000000000e+00 1.000000000000000000e+00 1.000000000000000000e+00 1.000000000000000000e+00 1.000000000000000000e+00 1.000000000000000000e+00 1.000000000000000000e+00 1.000000000000000000e+00 1.000000000000000000e+00 1.000000000000000000e+00 1.000000000000000000e+00 1.000000000000000000e+00 1.000000000000000000e+00 1.000000000000000000e+00 1.000000000000000000e+00 1.000000000000000000e+00 1.000000000000000000e+00 1.000000000000000000e+00 1.000000000000000000e+00 1.000000000000000000e+00 1.000000000000000000e+00 1.000000000000000000e+00 1.000000000000000000e+00 1.000000000000000000e+00 1.000000000000000000e+00 1.000000000000000000e+00 1.000000000000000000e+00 1.000000000000000000e+00 1.000000000000000000e+00 1.000000000000000000e+00 1.000000000000000000e+00 1.000000000000000000e+00 1.000000000000000000e+00 1.000000000000000000e+00 1.000000000000000000e+00 1.000000000000000000e+00 1.000000000000000000e+00 1.000000000000000000e+00 1.000000000000000000e+00 1.000000000000000000e+00 1.000000000000000000e+00 1.000000000000000000e+00 1.000000000000000000e+00 1.000000000000000000e+00 1.000000000000000000e+00 1.000000000000000000e+00 1.000000000000000000e+00 1.000000000000000000e+00 1.000000000000000000e+00 1.000000000000000000e+00 1.000000000000000000e+00 1.000000000000000000e+00 1.000000000000000000e+00 1.000000000000000000e+00 1.000000000000000000e+00 1.000000000000000000e+00 1.000000000000000000e+00 1.000000000000000000e+00 1.000000000000000000e+00 1.000000000000000000e+00 1.000000000000000000e+00 1.000000000000000000e+00 1.000000000000000000e+00 1.000000000000000000e+00 1.000000000000000000e+00 1.000000000000000000e+00 1.000000000000000000e+00 1.000000000000000000e+00 1.000000000000000000e+00 1.000000000000000000e+00 1.000000000000000000e+00 1.000000000000000000e+00 1.000000000000000000e+00 1.000000000000000000e+00 1.000000000000000000e+00 1.000000000000000000e+00 1.000000000000000000e+00 1.000000000000000000e+00 1.000000000000000000e+00 1.000000000000000000e+00 1.000000000000000000e+00 1.000000000000000000e+00 1.000000000000000000e+00 1.000000000000000000e+00 1.000000000000000000e+00 1.000000000000000000e+00 1.000000000000000000e+00 1.000000000000000000e+00 1.000000000000000000e+00 1.000000000000000000e+00 1.000000000000000000e+00 1.000000000000000000e+00 1.000000000000000000e+00 1.000000000000000000e+00 1.000000000000000000e+00 1.000000000000000000e+00 1.000000000000000000e+00 1.000000000000000000e+00 1.000000000000000000e+00 1.000000000000000000e+00 1.000000000000000000e+00 1.000000000000000000e+00 1.000000000000000000e+00 1.000000000000000000e+00 1.000000000000000000e+00 1.000000000000000000e+00 1.000000000000000000e+00 1.000000000000000000e+00 1.000000000000000000e+00 1.000000000000000000e+00 1.000000000000000000e+00 1.000000000000000000e+00 1.000000000000000000e+00 1.000000000000000000e+00 1.000000000000000000e+00 1.000000000000000000e+00 1.000000000000000000e+00 1.000000000000000000e+00 1.000000000000000000e+00 1.000000000000000000e+00 1.000000000000000000e+00 1.000000000000000000e+00 1.000000000000000000e+00 1.000000000000000000e+00 1.000000000000000000e+00 1.000000000000000000e+00 1.000000000000000000e+00 1.000000000000000000e+00 1.000000000000000000e+00 1.000000000000000000e+00 1.000000000000000000e+00 1.000000000000000000e+00 1.000000000000000000e+00 1.000000000000000000e+00 1.000000000000000000e+00 1.000000000000000000e+00 1.000000000000000000e+00 1.000000000000000000e+00 1.000000000000000000e+00 1.000000000000000000e+00 1.000000000000000000e+00 1.000000000000000000e+00 1.000000000000000000e+00 1.000000000000000000e+00 1.000000000000000000e+00 1.000000000000000000e+00 1.000000000000000000e+00 1.000000000000000000e+00 1.000000000000000000e+00 1.000000000000000000e+00 1.000000000000000000e+00 1.000000000000000000e+00 1.000000000000000000e+00 1.000000000000000000e+00 1.000000000000000000e+00 1.000000000000000000e+00 1.000000000000000000e+00 1.000000000000000000e+00 1.000000000000000000e+00 1.000000000000000000e+00 1.000000000000000000e+00 1.000000000000000000e+00 1.000000000000000000e+00 1.000000000000000000e+00 1.000000000000000000e+00 1.000000000000000000e+00 1.000000000000000000e+00 1.000000000000000000e+00 1.000000000000000000e+00 1.000000000000000000e+00 1.000000000000000000e+00 1.000000000000000000e+00 1.000000000000000000e+00 1.000000000000000000e+00 1.000000000000000000e+00 1.000000000000000000e+00 1.000000000000000000e+00 1.000000000000000000e+00 1.000000000000000000e+00 1.000000000000000000e+00 1.000000000000000000e+00 1.000000000000000000e+00 1.000000000000000000e+00 1.000000000000000000e+00 1.000000000000000000e+00 1.000000000000000000e+00 1.000000000000000000e+00 1.000000000000000000e+00 1.000000000000000000e+00 1.000000000000000000e+00 1.000000000000000000e+00 1.000000000000000000e+00 1.000000000000000000e+00 1.000000000000000000e+00 1.000000000000000000e+00 1.000000000000000000e+00 1.000000000000000000e+00 1.000000000000000000e+00 1.000000000000000000e+00 1.000000000000000000e+00 1.000000000000000000e+00 1.000000000000000000e+00 1.000000000000000000e+00 1.000000000000000000e+00 1.000000000000000000e+00 1.000000000000000000e+00 1.000000000000000000e+00 1.000000000000000000e+00 1.000000000000000000e+00 1.000000000000000000e+00 1.000000000000000000e+00 1.000000000000000000e+00 1.000000000000000000e+00 1.000000000000000000e+00 1.000000000000000000e+00 1.000000000000000000e+00 1.000000000000000000e+00 1.000000000000000000e+00 1.000000000000000000e+00 1.000000000000000000e+00 1.000000000000000000e+00 1.000000000000000000e+00 1.000000000000000000e+00 1.000000000000000000e+00 1.000000000000000000e+00 1.000000000000000000e+00 1.000000000000000000e+00 1.000000000000000000e+00 1.000000000000000000e+00 1.000000000000000000e+00 1.000000000000000000e+00 1.000000000000000000e+00 1.000000000000000000e+00 1.000000000000000000e+00 1.000000000000000000e+00 1.000000000000000000e+00 1.000000000000000000e+00 1.000000000000000000e+00 1.000000000000000000e+00 1.000000000000000000e+00 1.000000000000000000e+00 1.000000000000000000e+00 1.000000000000000000e+00 1.000000000000000000e+00 1.000000000000000000e+00 1.000000000000000000e+00 1.000000000000000000e+00 1.000000000000000000e+00 1.000000000000000000e+00 1.000000000000000000e+00 1.000000000000000000e+00 1.000000000000000000e+00 1.000000000000000000e+00 1.000000000000000000e+00 1.000000000000000000e+00 1.000000000000000000e+00 1.000000000000000000e+00 1.000000000000000000e+00 1.000000000000000000e+00 1.000000000000000000e+00 1.000000000000000000e+00 1.000000000000000000e+00 1.000000000000000000e+00 1.000000000000000000e+00 1.000000000000000000e+00 1.000000000000000000e+00 1.000000000000000000e+00 1.000000000000000000e+00 1.000000000000000000e+00 1.000000000000000000e+00 1.000000000000000000e+00 1.000000000000000000e+00 1.000000000000000000e+00 1.000000000000000000e+00 1.000000000000000000e+00 1.000000000000000000e+00 1.000000000000000000e+00 1.000000000000000000e+00 1.000000000000000000e+00 1.000000000000000000e+00 1.000000000000000000e+00 1.000000000000000000e+00 1.000000000000000000e+00 1.000000000000000000e+00 1.000000000000000000e+00 1.000000000000000000e+00 1.000000000000000000e+00 1.000000000000000000e+00 1.000000000000000000e+00 1.000000000000000000e+00 1.000000000000000000e+00 1.000000000000000000e+00 1.000000000000000000e+00 1.000000000000000000e+00 1.000000000000000000e+00 1.000000000000000000e+00 1.000000000000000000e+00 1.000000000000000000e+00 1.000000000000000000e+00 1.000000000000000000e+00 1.000000000000000000e+00 1.000000000000000000e+00 1.000000000000000000e+00 1.000000000000000000e+00 1.000000000000000000e+00 1.000000000000000000e+00 1.000000000000000000e+00 1.000000000000000000e+00 1.000000000000000000e+00 1.000000000000000000e+00 1.000000000000000000e+00 1.000000000000000000e+00 1.000000000000000000e+00 1.000000000000000000e+00 1.000000000000000000e+00 1.000000000000000000e+00 1.000000000000000000e+00 1.000000000000000000e+00 1.000000000000000000e+00 1.000000000000000000e+00 1.000000000000000000e+00 1.000000000000000000e+00 1.000000000000000000e+00 1.000000000000000000e+00 1.000000000000000000e+00 1.000000000000000000e+00 1.000000000000000000e+00 1.000000000000000000e+00 1.000000000000000000e+00 1.000000000000000000e+00 1.000000000000000000e+00 1.000000000000000000e+00 1.000000000000000000e+00 1.000000000000000000e+00 1.000000000000000000e+00 1.000000000000000000e+00 1.000000000000000000e+00 1.000000000000000000e+00 1.000000000000000000e+00 1.000000000000000000e+00 1.000000000000000000e+00 1.000000000000000000e+00 1.000000000000000000e+00 1.000000000000000000e+00 1.000000000000000000e+00 1.000000000000000000e+00 1.000000000000000000e+00 1.000000000000000000e+00 1.000000000000000000e+00 1.000000000000000000e+00 1.000000000000000000e+00 1.000000000000000000e+00 1.000000000000000000e+00 1.000000000000000000e+00 1.000000000000000000e+00 1.000000000000000000e+00 1.000000000000000000e+00 1.000000000000000000e+00 1.000000000000000000e+00 1.000000000000000000e+00 1.000000000000000000e+00 1.000000000000000000e+00 1.000000000000000000e+00 1.000000000000000000e+00 1.000000000000000000e+00 1.000000000000000000e+00 1.000000000000000000e+00 1.000000000000000000e+00 1.000000000000000000e+00 1.000000000000000000e+00 1.000000000000000000e+00 1.000000000000000000e+00 1.000000000000000000e+00 1.000000000000000000e+00 1.000000000000000000e+00 1.000000000000000000e+00 1.000000000000000000e+00 1.000000000000000000e+00 1.000000000000000000e+00 1.000000000000000000e+00 1.000000000000000000e+00 1.000000000000000000e+00 1.000000000000000000e+00 1.000000000000000000e+00 1.000000000000000000e+00 1.000000000000000000e+00 1.000000000000000000e+00 1.000000000000000000e+00 1.000000000000000000e+00 1.000000000000000000e+00 1.000000000000000000e+00 1.000000000000000000e+00 1.000000000000000000e+00 1.000000000000000000e+00 1.000000000000000000e+00 1.000000000000000000e+00 1.000000000000000000e+00 1.000000000000000000e+00 1.000000000000000000e+00 1.000000000000000000e+00 1.000000000000000000e+00 1.000000000000000000e+00 1.000000000000000000e+00 1.000000000000000000e+00 1.000000000000000000e+00 1.000000000000000000e+00 1.000000000000000000e+00 1.000000000000000000e+00 1.000000000000000000e+00 1.000000000000000000e+00 1.000000000000000000e+00 1.000000000000000000e+00 1.000000000000000000e+00 1.000000000000000000e+00 1.000000000000000000e+00 1.000000000000000000e+00 1.000000000000000000e+00 1.000000000000000000e+00 1.000000000000000000e+00 1.000000000000000000e+00 1.000000000000000000e+00 1.000000000000000000e+00 1.000000000000000000e+00 1.000000000000000000e+00 1.000000000000000000e+00 1.000000000000000000e+00 1.000000000000000000e+00 1.000000000000000000e+00 1.000000000000000000e+00 1.000000000000000000e+00 1.000000000000000000e+00 1.000000000000000000e+00 1.000000000000000000e+00 1.000000000000000000e+00 1.000000000000000000e+00 1.000000000000000000e+00 1.000000000000000000e+00 1.000000000000000000e+00 1.000000000000000000e+00 1.000000000000000000e+00 1.000000000000000000e+00 1.000000000000000000e+00 1.000000000000000000e+00 1.000000000000000000e+00 1.000000000000000000e+00 1.000000000000000000e+00 1.000000000000000000e+00 1.000000000000000000e+00 1.000000000000000000e+00 1.000000000000000000e+00 1.000000000000000000e+00 1.000000000000000000e+00 1.000000000000000000e+00 1.000000000000000000e+00 1.000000000000000000e+00 1.000000000000000000e+00 1.000000000000000000e+00 1.000000000000000000e+00 1.000000000000000000e+00 1.000000000000000000e+00 1.000000000000000000e+00 1.000000000000000000e+00 1.000000000000000000e+00 1.000000000000000000e+00 1.000000000000000000e+00 1.000000000000000000e+00 1.000000000000000000e+00 1.000000000000000000e+00 1.000000000000000000e+00 1.000000000000000000e+00 1.000000000000000000e+00 1.000000000000000000e+00 1.000000000000000000e+00 1.000000000000000000e+00 1.000000000000000000e+00 1.000000000000000000e+00 1.000000000000000000e+00 1.000000000000000000e+00 1.000000000000000000e+00 1.000000000000000000e+00 1.000000000000000000e+00 1.000000000000000000e+00 1.000000000000000000e+00 1.000000000000000000e+00 1.000000000000000000e+00 1.000000000000000000e+00 1.000000000000000000e+00 1.000000000000000000e+00 1.000000000000000000e+00 1.000000000000000000e+00 1.000000000000000000e+00 1.000000000000000000e+00 1.000000000000000000e+00 1.000000000000000000e+00 1.000000000000000000e+00 1.000000000000000000e+00 1.000000000000000000e+00 1.000000000000000000e+00 1.000000000000000000e+00 1.000000000000000000e+00 1.000000000000000000e+00 1.000000000000000000e+00 1.000000000000000000e+00 1.000000000000000000e+00 1.000000000000000000e+00 1.000000000000000000e+00 1.000000000000000000e+00 1.000000000000000000e+00 1.000000000000000000e+00 1.000000000000000000e+00 1.000000000000000000e+00 1.000000000000000000e+00 1.000000000000000000e+00 1.000000000000000000e+00 1.000000000000000000e+00 1.000000000000000000e+00 1.000000000000000000e+00 1.000000000000000000e+00 1.000000000000000000e+00 1.000000000000000000e+00 1.000000000000000000e+00 1.000000000000000000e+00 1.000000000000000000e+00 1.000000000000000000e+00 1.000000000000000000e+00 1.000000000000000000e+00 1.000000000000000000e+00 1.000000000000000000e+00 1.000000000000000000e+00 1.000000000000000000e+00 1.000000000000000000e+00 1.000000000000000000e+00 1.000000000000000000e+00 1.000000000000000000e+00 1.000000000000000000e+00 1.000000000000000000e+00 1.000000000000000000e+00 1.000000000000000000e+00 1.000000000000000000e+00 1.000000000000000000e+00 1.000000000000000000e+00 1.000000000000000000e+00 1.000000000000000000e+00 1.000000000000000000e+00 1.000000000000000000e+00 1.000000000000000000e+00 1.000000000000000000e+00 1.000000000000000000e+00 1.000000000000000000e+00 1.000000000000000000e+00 1.000000000000000000e+00 1.000000000000000000e+00 1.000000000000000000e+00 1.000000000000000000e+00 1.000000000000000000e+00 1.000000000000000000e+00 1.000000000000000000e+00 1.000000000000000000e+00 1.000000000000000000e+00 1.000000000000000000e+00 1.000000000000000000e+00 1.000000000000000000e+00 1.000000000000000000e+00 1.000000000000000000e+00 1.000000000000000000e+00 1.000000000000000000e+00 1.000000000000000000e+00 1.000000000000000000e+00 1.000000000000000000e+00 1.000000000000000000e+00 1.000000000000000000e+00 1.000000000000000000e+00 1.000000000000000000e+00 1.000000000000000000e+00 1.000000000000000000e+00 1.000000000000000000e+00 1.000000000000000000e+00 1.000000000000000000e+00 1.000000000000000000e+00 1.000000000000000000e+00 1.000000000000000000e+00 1.000000000000000000e+00 1.000000000000000000e+00 1.000000000000000000e+00 1.000000000000000000e+00 1.000000000000000000e+00 1.000000000000000000e+00 1.000000000000000000e+00 1.000000000000000000e+00 1.000000000000000000e+00 1.000000000000000000e+00 1.000000000000000000e+00 1.000000000000000000e+00 1.000000000000000000e+00 1.000000000000000000e+00 1.000000000000000000e+00 1.000000000000000000e+00 1.000000000000000000e+00 1.000000000000000000e+00 1.000000000000000000e+00 1.000000000000000000e+00 1.000000000000000000e+00 1.000000000000000000e+00 1.000000000000000000e+00 1.000000000000000000e+00 1.000000000000000000e+00 1.000000000000000000e+00 1.000000000000000000e+00 1.000000000000000000e+00 1.000000000000000000e+00 1.000000000000000000e+00 1.000000000000000000e+00 1.000000000000000000e+00 1.000000000000000000e+00 1.000000000000000000e+00 1.000000000000000000e+00 1.000000000000000000e+00 1.000000000000000000e+00 1.000000000000000000e+00 1.000000000000000000e+00 1.000000000000000000e+00 1.000000000000000000e+00 1.000000000000000000e+00 1.000000000000000000e+00 1.000000000000000000e+00 1.000000000000000000e+00 1.000000000000000000e+00 1.000000000000000000e+00 1.000000000000000000e+00 1.000000000000000000e+00 1.000000000000000000e+00 1.000000000000000000e+00 1.000000000000000000e+00 1.000000000000000000e+00 1.000000000000000000e+00 1.000000000000000000e+00 1.000000000000000000e+00 1.000000000000000000e+00 1.000000000000000000e+00 1.000000000000000000e+00 1.000000000000000000e+00 1.000000000000000000e+00 1.000000000000000000e+00 1.000000000000000000e+00 1.000000000000000000e+00 1.000000000000000000e+00 1.000000000000000000e+00 1.000000000000000000e+00 1.000000000000000000e+00 1.000000000000000000e+00 1.000000000000000000e+00 1.000000000000000000e+00 1.000000000000000000e+00 1.000000000000000000e+00 1.000000000000000000e+00 1.000000000000000000e+00 1.000000000000000000e+00 1.000000000000000000e+00 1.000000000000000000e+00 1.000000000000000000e+00 1.000000000000000000e+00 1.000000000000000000e+00 1.000000000000000000e+00 1.000000000000000000e+00 1.000000000000000000e+00 1.000000000000000000e+00 1.000000000000000000e+00 1.000000000000000000e+00 1.000000000000000000e+00 1.000000000000000000e+00 1.000000000000000000e+00 1.000000000000000000e+00 1.000000000000000000e+00 1.000000000000000000e+00 1.000000000000000000e+00 1.000000000000000000e+00 1.000000000000000000e+00 1.000000000000000000e+00 1.000000000000000000e+00 1.000000000000000000e+00 1.000000000000000000e+00 1.000000000000000000e+00 1.000000000000000000e+00 1.000000000000000000e+00 1.000000000000000000e+00 1.000000000000000000e+00 1.000000000000000000e+00 1.000000000000000000e+00 1.000000000000000000e+00 1.000000000000000000e+00 1.000000000000000000e+00 1.000000000000000000e+00 1.000000000000000000e+00 1.000000000000000000e+00 1.000000000000000000e+00 1.000000000000000000e+00 1.000000000000000000e+00 1.000000000000000000e+00 1.000000000000000000e+00 1.000000000000000000e+00 1.000000000000000000e+00 1.000000000000000000e+00 1.000000000000000000e+00 1.000000000000000000e+00 1.000000000000000000e+00 1.000000000000000000e+00 1.000000000000000000e+00 1.000000000000000000e+00 1.000000000000000000e+00 1.000000000000000000e+00 1.000000000000000000e+00 1.000000000000000000e+00 1.000000000000000000e+00 1.000000000000000000e+00 1.000000000000000000e+00 1.000000000000000000e+00 1.000000000000000000e+00 1.000000000000000000e+00 1.000000000000000000e+00 1.000000000000000000e+00 1.000000000000000000e+00 1.000000000000000000e+00 1.000000000000000000e+00 1.000000000000000000e+00 1.000000000000000000e+00 1.000000000000000000e+00 1.000000000000000000e+00 1.000000000000000000e+00 1.000000000000000000e+00 1.000000000000000000e+00 1.000000000000000000e+00 1.000000000000000000e+00 1.000000000000000000e+00
1.517783296292711873e-02 5.537899334496482195e-01 -2.265845770968154815e-01 7.433218183556001835e-01 5.146310198749219911e-01 5.298862206110287465e-01 6.213239460111568135e-01 2.857355842270729585e-01 5.240901460201573547e-01 5.102914655250274656e-01 1.079347778890452858e+00 -6.883381722719804641e-01 1.400384770142318880e+00 4.512735693022724148e-01 5.159575296769782771e-01 3.943591371749862740e-01 8.923569324363984645e-01 9.755562610957676517e-01 6.972304885826693388e-01 5.107039981669689865e-01 4.020701127478653603e-01 9.814429680723741889e-01 4.336426598133890087e-01 4.780803236780519216e-01 9.831445861587823076e-02 6.749213154794423408e-01 3.718101778145292413e-01 6.454754379881959547e-01 5.468327268158361676e-01 1.566084333783811733e+00 5.215716599465635150e-01 6.117603981333595842e-01 7.197735286768701668e-01 4.964438262513919398e-01 7.076267094567835203e-01 4.503045897307552670e-01 5.283165249711967437e-01 1.774876152278131780e+00 -6.773041536225110626e-02 5.301166709046164494e-01 -1.618678221783613758e-01 -5.605976671955087420e-01 7.497109841124625085e-01 2.255723706358769287e-01 2.752046197574056774e-01 5.257896548732862163e-01 7.434858988095842669e-01 5.143734217103055339e-01 6.112279565428017092e-01 2.121232916442687341e-02 4.626670724059679662e-03 8.257087722692489917e-01 6.741232930431708681e-01 4.514144050978227685e-01 4.556833669114395691e-01 1.808041037675746712e-02 4.804731498106800669e-01 5.339965673211106711e-01 1.895459780595833699e-01 4.632826995846737739e-01 9.130053400932667262e-01 5.323344628539217194e-01 5.395515091557044896e-01 4.336426511789926441e-01 6.812842961230659578e-01 5.665064282360056103e-01 5.154131128833788766e-01 3.078326103400328972e-01 5.553535549485993927e-01 4.158384738061227798e-04 4.172244307290105536e-01 5.231895089328779669e-01 5.153568010840188229e-01 2.304622585508452060e-02 1.502725557194225958e+00 5.554709479313800768e-01 6.339866616978303560e-01 7.355351786981200179e-01 5.164750625179143073e-01 1.382101695954986997e+00 5.160338368327312963e-01 3.085742596245856229e-01 1.393130382363711117e+00 7.074247636034010078e-01 4.912848240214963136e-01 7.563951679475201528e-01 8.095154249924251255e-01 5.472440831634471925e-01 4.103197227070461972e-01 5.758034545155563677e-01 2.768952494279227627e-01 2.165473679611237934e+00 7.395527522919660424e-01 -2.947869025591492304e-02 5.480956603603999167e-01 4.995706112510620578e-01 5.570533074114645267e-01 4.755883052898604579e-01 1.894882411676388212e-01 6.717099259009843282e-01 1.597550019682297817e+00 6.888025364928942462e-01 5.507176436211379533e-01 7.260234483640274350e-01 8.601028408812013692e-01 -2.049677802392130488e+00 -1.210172522989553689e+00 5.430861818731405055e-01 5.821691089421004994e-01 9.718719462954487076e-01 5.489549138988024657e-01 4.458481962297102807e-01 1.664857292986725024e-01 4.848198039587056640e-01 5.206238959499130958e-01 5.031010800329912547e-01 4.978762856064907760e-01 5.457552114745140015e-01 9.092913287034607439e-01 5.140716193050381966e-01 1.299610415295187948e+00 5.553583641344274069e-01 5.754696878485755507e-01 -4.142594158392490789e-01 5.155955688665792014e-01 1.939252108519516238e+00 5.582631915377574972e-01 5.373320512988889464e-01 6.863918341537268430e-01 5.154522799098797403e-01 5.023764521934005467e-01 5.106345234386938658e-01 4.181689362356210138e-01 3.192048296112472983e-01 -2.679909660810235739e-01 -1.618591714384119418e-01 6.363348536773362207e-01 4.806529835124221522e-02 9.973842106186376899e-01 6.472188828933315152e-01 5.210725237740709836e-01 8.623093176517988567e-01 6.194608610569101170e-01 5.909487046890713469e-01 5.163288556474128210e-01 5.011172506509939395e-02 9.039907531218003278e-01 1.985713126032418591e-02 4.559984984937348051e-01 -8.805459598074942829e-01 7.726732527354301938e-01 -2.960095565767865144e-01 5.257883996298137186e-01 5.537300298459988390e-01 4.603178758590492081e-01 5.188517943729907822e-01 1.925018206595660919e+00 -9.165890124240159975e-02 8.125945297739722850e-01 6.938988068484951421e-01 5.233703968497273040e-01 4.133150776187846098e-01 5.001515258283827370e-01 5.142764550993987882e-01 1.083496759487363459e+00 1.775943499019317084e-01 8.484114774385560498e-01 3.869832191738235561e-01 5.320066020861529132e-01 6.471453724345702652e-01 4.827666363578503872e-01 7.432722539543219487e-01 5.257978322520646675e-01 5.197864329402027694e-01 4.052246886405256321e-01 3.991410690185667048e-02 1.883455812491491577e-01 8.595942024274286219e-02 7.444749230796383621e-01 1.141545747529151500e+00 7.047531959700275017e-01 5.224277265089654065e-01 -1.802292625929526604e-01 4.469218862600073394e-01 6.478071117067096818e-01 5.294167267474392258e-01 5.126393712893713150e-01 5.227077794256570487e-01 2.772675334387283641e+00 5.546867234923612555e-01 5.306130172937363332e-01 -8.821761476168221705e-01 4.911576891583125382e-01 5.644151516530414581e-01 1.852164444941034604e-01 5.192610810547819700e-01 9.321497010589411270e-01 5.052249175108329826e-01 6.346316040366112299e-01 4.254031381719174942e-01 6.250451161990421278e-01 5.263959147803708438e-01 9.338033825188070125e-01 6.005462707154630708e-01 5.432350861847332624e-01 6.346315694721117451e-01 2.566361914179720594e-01 1.285082043161138721e+00 5.362760060955044095e-01 3.829522800512362157e-01 4.358882649277688870e-01 -7.848137800357649074e-02 4.790460502409825128e-01 1.599420640220535761e-01 5.300560293078016016e-01 5.179415176095560902e-01 5.148896077141704719e-01 5.114580391264419434e-01 5.135355217218149360e-01 5.197126409347465614e-01 4.394713653726588509e-01 6.021917971885899501e-01 -7.031810810586649474e-01 5.894182201445985481e-01 3.591180880670727937e-01 3.835237685633691718e-01 1.109070726664531520e-01 1.295796043247907647e+00 9.558574656794894819e-01 4.986867522582223433e-01 -1.038390642689164256e-01 1.052567812646451717e+00 5.134066542742654615e-01 4.442821630445021874e-01 5.474938696888755896e-01 4.141549440709553220e-01 3.560370948878071595e-01 1.893107456391490973e-01 -1.513990286630874094e-01 -1.057760827418371130e-01 3.586056769006764067e-01 5.127851260601618000e-01 -1.042073462562222302e-01 4.420714613950041949e-01 5.138402349418919046e-01 4.726401248501661545e-01 -1.014317801956283460e-01 7.498171461897414902e-01 -2.254474454369202352e+00 6.052255279267572119e-01 -5.833386462466019218e-01 4.968125914389328601e-01 5.158527533703608503e-01 4.336411159748322364e-01 4.732714496130440707e-01 5.579028586367104081e-01 5.355936506744011227e-01 7.517481916477607440e-01 5.491113699088276956e-01 1.688101265871068124e+00 6.765861032571610645e-01 6.939918576766348490e-01 4.880252425421583995e-01 3.492284451667855838e-01 9.130053046245630854e-01 3.992194309058079149e-01 2.659876467675806655e+00 5.237087633984525148e-01 2.359302278452179435e-01 7.128466579568274453e-01 5.119357306033742727e-01 9.132901682517170494e-01 5.165150104937918929e-01 5.486775519686668545e-01 5.158687577531914092e-01 1.086224819051015311e+00 7.679533585099668214e-01 8.641433919830946442e-01 8.085948190034141225e-01 4.159720954685541816e-01 6.775130110208797962e-01 5.338453513853049781e-01 3.889436410639726116e-01 -7.135430013278517558e-01 3.843816222920875547e-01 6.385648826382321896e-01 5.592073231068380723e-01 5.150538491565530563e-01 5.031010632482236788e-01 6.071722312478704531e-01 5.482500411995040457e-01 -8.142099309541176444e-01 7.113927917750817453e-01 5.329403642737287061e-01 3.428384538652743535e-02 5.574012980501583669e-01 1.846804157933044976e+00 5.000529501003440069e-01 5.162223625812560890e-01 4.559946133571139426e-01 -3.387343733158540982e+00 5.097404083692912424e-01 2.774884344026892879e+00 7.430814904398609366e-01 5.369339736789350281e-01 -5.787820497421223287e-01 5.174133695049157877e-01 5.149301163537066683e-01 4.355882925812475936e-01 4.549230845645556576e-01 3.688758170583086304e-01 6.401011422655612515e-01 3.145394698980538140e-01 5.191709383862601612e-01 5.149333657838525147e-01 3.562754377421003538e-01 5.073942905528441294e-01 7.429929113647831818e-01 5.136606151427801636e-01 1.195154240912586818e+00 5.248937119213418177e-03 2.212525342107562576e+00 2.624328219696231645e+00 5.247484339968510048e-01 -2.072406475760058264e-01 4.282167389971634486e-01 4.028296326699632446e-01 7.279220505603272162e-01 1.370612287052777045e+00 5.366092594468094834e-01 1.122906671541796131e+00 5.147241666579415176e-01 1.255224972336577427e-01 1.249929434434627007e+00 4.262094274679925632e-01 5.281233126857441951e-01 5.046686741837068668e-01 8.880632118677322939e-01 -3.678631312364993189e+00 1.624708954255274174e+00 5.452089787630565176e-01 6.384228899948368730e-01 5.157610715315071870e-01 1.774876158026263528e+00 3.062876426236444405e-01 5.455787936332587851e-01 5.346954610348266801e-01 4.392157057672132492e-01 1.379647190835249226e+00 5.946343159328579819e-01 6.346319067808003922e-01 4.420734344374908642e-01 6.005462720206851124e-01 5.932190363751524975e-01 5.647931424265971723e-01 8.940005104785491152e-01 5.140517741283081588e-01 3.892154341163862608e-01 2.014990696817025861e-01 6.559773091760922048e-01 5.152289116189651130e-01 4.015431206147869192e-01 5.455787893689115764e-01 6.610852333290606619e-01 5.153217559458587171e-01 1.010197039463504476e+00 9.856678872547380843e-01 1.130193078324731815e+00 5.106489683312716021e-01 2.333475777271915019e-01 9.130049450546804390e-01 -1.089893589889933956e-01 9.333455107967448816e-01 6.284137420193126600e-01 5.116628695017826946e-03 5.814846407257396876e-01 9.726970974228243971e-01 3.895401455908395483e-01 5.169775018797591049e-01 2.800551461560124022e-01 -3.326086870397122475e-01 -2.445912334262735133e+00 4.791667523654346006e-01 6.005462730479959044e-01 6.005463264622205033e-01 5.054998588560778439e-01 4.260537659861025062e-01 -2.143688671649271182e-01 3.196666907176202721e-01 5.085329669866283098e-01 6.751160753984748464e-01 5.180403754935893890e-01 1.052049188261716006e+00 6.346317782594945722e-01 5.155290239845056188e-01 4.818244592771279144e-01 2.690067529980487149e-01 6.525007886756989395e-01 5.157861594864605603e-01 5.130225750211043767e-01 5.474056909821090056e-01 2.808971290334693616e-01 2.081808900695216596e-02 6.005462734320555773e-01 6.585134807406884949e-01 5.172217621718433467e-01 4.199972196281824277e-01 8.581402373047658516e-01 6.988137796748654651e-01 5.634294976379269348e-01 1.838185207534503096e+00 5.146547510499496214e-01 -3.032462097209396301e+00 7.437430429319163983e-01 1.513525707621147243e+00 5.244560563010279841e-01 -1.057400321607110394e+00 7.476489477848585752e-01 4.570940828966792990e-01 5.203705053802499814e-01 5.038563474558798161e-01 -3.156285021699669069e-01 5.098398521727313115e-01 1.067557677559421325e+00 5.873113489982311197e-01 -3.434442619717100187e-01 5.146850665364421928e-01 5.152619611231190611e-01 7.749289891906957495e-01 5.434291241191826494e-01 5.340820096306342357e-01 -5.154802101890840760e-01 5.619477442674560841e-01 5.126187598108473686e-01 6.783153245194044612e-01 5.310781370514294775e-01 7.659021331189770354e-01 5.235314604741406752e-01 5.893364179333226982e-01 6.652612960246281348e-01 5.380037797582044590e-01 3.079917744008121572e-01 2.828289904057145199e-01 3.244519815470508495e-01 9.586695480722717821e-01 5.486940760490307545e-01 3.179904003836633297e+00 6.600142057326719991e-01 6.228657234812959853e-01 5.561242576940426119e-01 6.121840592566666350e-01 2.739695672920660491e-02 4.853532280161896861e-01 5.565617996825843461e-01 5.143901332277691640e-01 1.163779175950219402e+00 7.659362122586604871e-01 5.042393469651367255e-01 4.468924190476538660e-01 1.116186535107668076e+00 4.966548831357681104e-01 5.518949423507286678e-01 5.091082098375815379e-01 7.595286703013862661e-01 5.207382975738883424e-01 9.261342301207153849e-01 4.999061511938151514e-01 5.153728449778218756e-01 5.839837021092277730e-03 5.062814550366010469e-01 1.450799794454462992e-02 3.417498600976140444e-01 4.118799191036587315e-01 5.669548097199519354e-01 7.754395844231227741e-01 5.154517310772114280e-01 3.944085919771267990e-01 6.362192412611328285e-02 5.292836941331595657e-01 5.519696298102337861e-01 4.789657157581483360e-01 4.652909562247897757e-02 5.199113958381156309e-01 2.457743537904553133e-01 5.171289884702774398e-01 4.208908183408694437e-01 1.254691514016408771e+00 7.843722986996402025e-01 5.445579795080641716e-01 2.666175666967096070e-01 6.823086524916044393e-01 4.243543810465338906e-01 9.905239292422863828e-01 5.987944767891236753e-01 5.685798516903535216e-01 6.900911976275603266e-01 1.981830084540873615e+00 4.574728359540101152e-01 4.439984051193771597e-01 5.136284994937438952e-01 7.116993217605911415e-01 4.605165792262775337e-01 8.349696042183738509e-01 -5.683844436587330851e-01 3.341192538248374810e-01 5.187994546254582895e-01 4.280600341717092916e-01 3.700827497946441724e-01 -6.090827175939760307e-01 3.890362750570733885e-01 5.148693805246561395e-01 7.378033446268513762e-01 6.657027732083711236e-01 1.455005838322064760e+00 5.148197688120933480e-01 5.165418399947527828e-01 -6.940851029149534002e-01 5.203772105310030538e-01 1.209889114570156243e+00 7.025972166193533708e-01 2.621433703228297496e-01 2.689739947067236181e-01 -1.638594752126610654e+00 4.934604473301023031e-01 1.867905016686330355e-01 1.096482924125037561e+00 8.150303416062278927e-01 5.126374113086158424e-01 5.121644280235766455e-01 6.296937801510230637e-01 7.437456954026604450e-01 4.532569120437809351e-01 5.619487124142409362e-01 2.803289731399343995e-02 4.989762776027463209e-01 6.230683348894195950e-01 6.065010478065095967e-01 5.034004468625241646e-01 5.543181639733802957e-01 1.200215349539603293e+00 -1.062728627704970230e-01 -2.317041340708095309e-01 4.307950288166552677e-01 5.432385947186633146e-01 5.517832370046067414e-01 4.935611102731001787e-01 -8.450524281509044222e-01 3.144998238189779194e+00 5.694043097819734278e-01 4.515076069156380156e-01 4.163950934892998168e-01 5.131907895971246081e-01 5.137037567290885232e-01 6.053142632652643851e-01 3.259387740719257298e-01 5.870196825913119865e-01 5.153012993683168119e-01 6.226673208128630232e-01 3.587331859611950224e-01 4.480025306153990750e-01 5.381923489368208857e-01 4.059693677019414193e-01 4.899090066191389425e-01 5.457967388281249610e-01 6.534951478596361385e-01 1.006200439407044733e+00 2.305043389467015036e+00 5.534179453184732145e-01 4.956286372741921520e-01 4.762249152474397063e-01 5.184888459638246072e-01 3.648517771611576310e-01 5.127568298229886468e-01 5.077386487687527428e-01 5.287641016969356622e-01 5.009112052040306517e-01 4.770267308297027053e-01 7.433443705645723654e-01 3.671318432262745124e-01 5.084931776739243237e-01 4.843628147953619179e-01 5.547089636111022237e-01 1.206002106087462056e-01 9.130053177159486166e-01 5.563047559529178399e-01 1.299450792940656796e-01 1.909493483959176618e+00 2.772763463114626403e-01 4.389483562251118021e-01 5.878949254836662863e-01 6.187799328277893834e-02 5.058131398980492133e-01 1.506250646699982099e+00 7.674114286420924413e-01 7.650188532359168958e-01 5.154924396587845514e-01 5.493193081314154957e-01 4.813008145522754688e-01 6.471395386819972506e-01 4.965347241681263846e-01 5.167461842266058980e-01 -1.899443931720883882e-01 5.585069711837113982e-01 -1.432217623322901368e+00 5.045538447894232226e-01 4.991476646298803610e-01 5.475764505499420842e-01 4.559845271247269238e-01 9.130053176540221527e-01 2.222029106108784624e-01 5.547977812784816720e-01 1.326907856329842872e+00 -5.458397155154226521e-01 5.209520204081201644e-01 1.127454400700603543e+00 1.498666906064611393e+00 4.306130924058947929e-01 5.209710821900084277e-01 -5.030846679307564989e-02 -1.660961442396135634e+00 2.794607314421643229e-01 7.685605859243279658e-01 5.225463287210415642e-01 5.152488268656579828e-01 5.439463072546066869e-01 4.861779690118108177e-01 -3.988865884597171951e-01 8.147279995548287745e-01 5.031012527342542118e-01 3.361571899475793157e-01 5.538017359212445978e-01 -1.656535146966501074e-02 -1.733082029611029695e-01 1.773966759098730028e+00 4.152695168085449029e-01 4.762009195600830358e-01 5.174744355395299866e-01 3.290871356438818673e-01 6.051094462231809690e-01 -5.006663282928849878e-02 -1.086270750614332536e+00 5.142884446615326732e-01 5.150709290191272105e-01 5.440661274998210839e-01 6.147796284174196213e-01 5.454146413381948388e-01 5.438045359877350382e-01 5.558182709293768564e-01 5.768881586936919215e-01 1.028481392472960998e+00 7.261514023764141790e-01 5.455193930041385419e-01 5.736457096435098046e-01 4.537476609023780583e-01 4.244974996175949755e-01 1.992226742876222409e-02 5.455787798983270376e-01 5.135600199009849876e-01 4.670685752155423476e-01 7.534740530679754356e-01 9.391108961584707648e-01 8.349904519248854129e-01 -4.875498070674722517e-01 5.459198770675413037e-01 4.755344698480073462e-01 5.108022906755120829e-01 5.832527584324677106e-01 9.027759227480512960e-01 5.615195753185642236e-01 5.205449782706899065e-01 -2.319613602822153120e-01 -8.550997307404909487e-01 2.274844801094887181e+00 5.145241498195501917e-01 8.920714260237544435e-01 4.527440609202527111e-01 5.714551009372390578e-01 3.710883679903375088e-01 1.496795287408522190e-01 5.160674088839689588e-01 5.499156578490186353e-01 -1.852446383878937316e-03 5.191910915674290417e-01 4.262843989510611276e-01 5.220655438797436876e-01 6.918080039583385243e-01 5.139743974374422208e-01 6.004841919563255193e-01 3.980986087932799067e-01 4.828447118622966050e-01 3.892254148762387400e-01 5.089401770478930720e-01 4.260314368696717646e-01 4.991552833799305366e-01 -2.818582660075243385e-01 5.093514373934578954e-01 6.428476883348546167e-01 4.878815524977994089e-01 7.433041625066018065e-01 9.130053653134722058e-01 7.327699848858783005e-01 -5.895222853178708755e-01 9.898076751662469031e-01 1.774876152253994421e+00 4.848890104246475485e-01 4.638436336077724764e-01 1.073547738983851918e+00 5.523510100360873309e-01 7.432507105918987333e-01 5.163141470158640889e-01 1.809065125234450955e+00 5.200711378492162140e-01 4.420711560033190324e-01 1.233943854407698604e+00 -5.724816146990799326e-02 5.616564811518016676e-01 -1.655095995728090297e-01 -9.483653094720555510e-01 -1.732697305574676383e-01 7.775679686807819291e-01 5.544692600763529988e-01 5.404017475427472794e-01 -3.311686569997279728e-01 5.141506017069682466e-01 3.846521845989656768e-02 -3.654490484256930349e-01 4.808298857764958800e-01 5.193836554189773524e-01 5.121585888723954039e-01 5.622849877682614128e-01 5.571211304146591603e-01 9.059172156822441480e-01 -3.968073582963628221e-01 5.144211032864857147e-01 5.673779685649091853e-01 6.195819057271426678e-01 1.162679836278101897e+00 5.066217514606600192e-01 6.313866340623893736e-01 5.145928922859566157e-01 3.487997470378734893e-02 -3.150748799558869551e-01 5.247659953921489651e-01 4.956644269843294426e-01 6.724626685109111879e-01 5.214615010764738212e-01 3.405318620582801770e-01 5.193113618946748611e-01 5.165906025718000061e-01 3.532544647289127537e-01 5.155692335076399457e-01 8.382629544312734104e-01 2.537883042228359365e+00 -2.395930692493543346e-01 6.655931203623829395e-01 3.318282682419796403e-01 2.152096187938391247e-01 6.776021642164227199e-01 -5.732196114745113924e-02 -1.510838401000745845e+00 5.165291735489202507e-01 2.599022536672277006e+00 5.055827401681473043e-01 1.515618526372310426e-01 1.741920692578436958e-01 5.031010800640902669e-01 5.709332011806603768e-01 1.548869815115583970e+00 4.901754698330492155e-01 1.259243017459256153e-01 4.368004225078818692e-01 1.683442379403724098e+00 5.867737059848049386e-01 7.372444732410545765e-01 5.429143246548068236e-01 7.405239770487408446e-01 4.561207561808520716e-01 5.646256935921345477e-01 1.426295433705158412e-02 5.129223958311032172e-01 4.948300632569683222e-01 -5.687129308282760087e-01 -5.037341387883667587e-02 1.172130260059158990e+00 2.360838852562963941e-01 4.884089296179825457e-01 6.878547398111405364e-01 5.473246252260429712e-01 1.995541675163755801e+00 6.982997035782009254e-01 2.881652630707766047e-02 2.816815568516987112e-01 3.996636604257790548e-01 1.107492739294833051e+00 5.169835172992914840e-01 -2.507350899557571344e-02 5.236796142525822484e-01 -1.966084488087926560e-02 5.097881104492351101e-01 5.111826153803188388e-01 4.497431705607747229e-03 -6.037659233497130740e-02 6.672538212130041391e-01 6.117127425657988837e-01 5.467519341060137483e-01 2.754524574719168784e-01 4.818114568165544065e-01 4.904084048074127677e-01 5.605457407191420938e-01 5.591601476029195439e-01 4.801095424805001954e-01 6.256851906600593427e-01 1.015098265868402017e+00 3.106761115100570514e+00 9.146079861772363762e-01 5.111805809617736562e-01 6.432118315295458633e-01 2.126883280998735359e-01 5.144998143282331071e-01 8.419145561011933676e-01 4.906623535831392546e-01 1.316323770143760452e+00 4.572892883347438042e-01 -5.708882771425028979e-01 -1.493464235743134291e-02 4.088494094480465413e-01 6.121009897654486887e-01 4.961222702555048159e-01 5.251256767274861126e-01 2.240422599355008926e-02 5.497935195723179236e-01 3.976704410926141242e-01 -3.620489239922286107e+00 4.849402688185184274e-01 5.119959115727866772e-01 1.123068043917176961e+00 5.141711129079669096e-01 5.596572906098535860e-01 6.816367306327348885e-01 -8.735219065475383626e-01 -5.052411335957359695e-01 4.786819869738987571e-02 5.142543413384250695e-01 4.222525681699826894e-01 2.209084056039845312e-01 4.954541260424918381e-01 -3.343805346832123826e-01 6.297188813360089510e-01 5.063955257287954259e-01 6.942408332604393939e-01 5.396199058877557686e-01 4.742166031174397944e-01 1.605108009953713499e-01 -7.432337138927908038e-01 6.531549904832998354e-01 4.957510504704916166e-01 1.635148607057959336e-01 5.126548980683341972e-01 5.816047613957221474e-01 5.238992035806062653e-01 6.710272617147363672e-01 5.699133624137425747e-01 5.401658857609172859e-01 4.994428721279985939e-01 1.774876155186327242e+00 3.663191055423374864e-01 5.496298366987238948e-01 -1.131536062063148856e-01 5.502130445605553088e-01 6.236584541027023754e-01 5.154633231418156436e-01 4.976600909302898446e-01 3.497674476548567335e-01 9.216471816039899512e-01 1.191461774027800180e+00 5.571735249086676722e-01 5.691797342168284368e-01 5.958426597919715961e-01 4.642310484563257900e-01 4.881401863560913545e-01 5.163311138240559428e-01 9.897542033265510630e-01 7.240201258554892494e-01 -4.523045755006335766e-01 4.486555729765326905e-01 9.166464776677866189e-01 4.985655069425606323e-01 -1.027507114146302032e-02 5.126236961809615966e-01 1.266649116930078423e+00 -1.386015053491885529e-01 5.699737294700248924e-01 2.482589901256166687e-01 5.447789618907747933e-01 8.242010621775740509e-01 5.180494785525431300e-01 3.681384656062668403e-01 1.395031627496683635e+00 4.854838717060289133e-01 5.273588712195697026e-01 -6.370251265720289213e-01 4.555058534086202648e-01 1.042971027342864287e+00 5.945802952995102864e-01 9.255984703056019391e-02 9.578792350667102440e-01 -5.271099509384260390e-02 6.059692710592136100e-01 1.602756871558587592e+00 -8.539068077277909286e-01 5.497582571068343471e-01 5.151119833668771353e-01 -4.460430483880691854e-01 3.220443600339826795e-01 5.887117223033919711e-01 4.734563687818869049e-01 5.215430725181391391e-01 3.613931758234453784e-01 2.636874496760051034e-01 3.450699337090058494e-01 5.521255682101942064e-01 5.142919916250829893e-01 5.603715072135757869e-03 -8.413754242857467147e-02 5.213254301318006600e-01 1.060949201701533839e+00 4.293935891599692800e-01 -5.683904399913013439e-01 5.668562891173140050e-01 5.213581780654386044e-01 5.059702417560189014e-01 3.573847212512788057e-02 3.361961372089490863e-01 5.163749473814718272e-01 5.289684949634343436e-01 4.532259799396280431e-01 3.256922669102201712e-02 4.640046270668350958e-01 5.115280626943659037e-01 6.452123787730602578e-01 2.075199675599403548e+00 1.533956569496338143e-02 3.833262688613381375e-01 4.882520407824189612e-01 1.820592235309482554e+00 5.782981964206180825e-01 4.775340909945849366e-01 1.508708523091270223e-02 5.455787969036690610e-01 5.096420952205279464e-01 4.732466435324225174e-01 3.805603432550053178e-01 5.100652497465361090e-01 5.354718218616203451e-01 5.670596850477690465e-01 -5.191486849784512358e-01 5.160722028643941472e-01 5.372568202594693032e-01 5.151496070099078617e-01 1.036423699139201737e+00 5.144554799861565941e-01 -2.418816727150550627e-01 1.064346886843202444e+00 -1.243410695475064776e+00 -5.129747592884104090e-01 5.194830485632206951e-01 5.175178526102865995e-01 6.498948624762254100e-01 5.150214317750084758e-01 3.878144630253106406e-01 6.078268644124297237e-01 5.455787984215181297e-01 5.163552698385751594e-01 5.604534861895035247e-01 5.811242275182718631e-01 5.147896048841482664e-01 2.895857590617573196e-01 4.975308744710874587e-01 4.779768112847906925e-01 3.730428858471773190e-01 5.159929393192068670e-01 5.180488445463867775e-01 5.478121379961991000e-01 6.421764002752412548e-01 5.184394027087939616e-01 6.727695902634734937e-01 4.839738638959077410e-01 5.225917592643236631e-01 5.443708635576690602e-01 3.527191162356853593e-01 4.256159022538106851e-01 2.389792440302747067e+00 5.221284530517489308e-01 5.801319955012538276e-01 3.120536500020515414e-01 5.830770962059556028e-01 1.108630182864793090e+00 5.041162059835766485e-01 7.087644981978202807e-01 5.144758405782247079e-01
6.902806441212809840e-01 2.779539059791171773e-01 4.188247719078622699e-01 2.261548864907629228e-02 3.149749586416641378e-01 2.985199032920459183e-01 5.302974578799569683e-01 4.416376210217244358e-01 2.402576599156683035e-01 3.018593701571034016e-01 2.038521504332299727e+00 1.705693357405106525e+00 -1.428432417654855069e+00 6.223533151011284570e-01 3.157903145411697365e-01 4.123656041065354994e-01 1.293233944294335802e-01 4.286087842993936969e-01 4.433573341168325910e-01 3.122124090299477350e-01 4.675962966756964101e-01 2.097603310151541223e+00 3.946762749002384330e-01 3.723052206495421901e-01 7.186590589029244747e-01 -2.373353270944033311e-01 4.559328639755620416e-01 2.346559358447863064e-01 2.793719399161717631e-01 -8.591103929596416444e-01 2.800852286473191066e-01 -1.181952543477446660e-01 2.890996828521795736e-01 2.649505309456402502e-01 -4.258915032245924603e-01 4.554266204433313203e-01 3.032681952621532617e-01 -3.425099387059992173e-01 -3.203206261302971480e+00 3.440121505825285420e-01 1.131548200756396838e+00 1.405728069515410350e-01 -1.648516336150320227e-01 7.917061389347846978e-01 6.321500852362665901e-01 2.892995447591342195e-01 2.251036467215266137e-02 3.239830756470156170e-01 2.363993532572530865e-01 6.842476441182209212e-01 6.806568221045871114e-01 4.677706739110124023e-01 -2.489949686484716762e-01 2.050015583303573530e-01 6.045715598860174067e-01 6.621369820211207013e-01 3.621118330099194482e-01 2.613451031605108499e-01 3.472189794111951167e-01 3.542521569304123985e-01 4.244598396532256457e-01 3.858635552178377170e-01 2.995219018400920308e-01 3.946762784389574730e-01 -3.465180355526247813e-01 1.838942301257808221e-01 3.043588700459280982e-01 3.322221854965362042e-01 2.174351773003385113e-01 7.290230461377071869e-01 1.182604055612455629e-01 2.924606831426643239e-01 3.130906569328180677e-01 7.219823248596667353e-01 1.904372835694701394e+00 4.970800960523136802e-01 4.694600180220138697e-01 4.799243691310183246e-01 3.163547759986262697e-01 -1.326546875978561246e+00 3.089356827876795775e-01 6.190798993164250419e-01 2.287873831468740793e+00 1.086310351362105853e-01 2.758668277666034840e-01 -4.116379292557255098e-01 1.244826057074008147e-01 2.708761842984657719e-01 -5.731215093430581664e-01 -8.754535299127432779e-01 6.324090867377732961e-01 1.561055943210000629e+00 8.715478949156793553e-02 6.975862086944039087e-01 2.796257772011419007e-01 3.087693025914448053e-01 2.757157368350027227e-01 7.400718934843402153e-01 7.383646477381107243e-01 -2.425717586759075783e-01 -1.696295859857286092e-01 5.531212393105239961e-02 2.751341342780389554e-01 2.155193754254418059e-01 -4.145170434925266045e-03 3.071768410754282641e+00 -2.817355788725364740e-01 1.226829473454952718e-01 1.598259811418900334e-01 8.082863049824650092e-01 2.364758440191336297e-01 4.436710136973816554e-01 1.670066410736798235e-01 4.601878763980790654e-01 -4.889835093579418812e-01 2.042142169604496404e-01 2.455377965622476955e-01 4.182620334992664390e-01 1.017128515038488779e+00 3.193784413678810163e-01 -1.439344896006084396e+00 2.327045073227736460e-01 1.750575243902185163e-01 1.338835326347508570e+00 3.179075937799758500e-01 2.149232118930879842e+00 2.080738998781399840e-01 3.429086587152676557e-01 2.970966832534380209e-01 3.136253199770833167e-01 2.926358486699133787e-01 3.137179637807390731e-01 6.746942773603163968e-01 4.109273084407304433e-01 1.782259275625384387e-01 8.740448627285269945e-01 7.041611804761055415e-01 7.232432381957434320e-01 -3.310796796384516405e-01 2.001324743644584681e-01 3.632248437843417777e-01 3.215187760335358469e-01 2.682618042524626545e-01 2.969268213751289354e-01 3.227796783113341395e-01 6.929433571399767899e-01 -1.319064833287897365e-01 3.187086151407339529e-01 4.497262375549984648e-01 3.968776701916065797e-01 -2.661037085321653617e-01 2.180010565611149864e-02 2.893020742610827867e-01 2.655896421149681053e-01 3.473304317937188079e-01 3.220611632343991504e-01 -2.295063710882551344e+00 4.501886531032320837e-01 -5.895247105078036398e-01 -2.435879794479197946e-01 2.871221889986851350e-01 2.326254154853141798e-01 3.341512637021811782e-01 3.146106789160748596e-01 1.131485329275925544e-01 7.116777363534874945e-02 3.148686592844426313e-01 4.265633441883066035e-01 2.979621644626511690e-01 3.520089679905227253e-01 1.787860116739748706e-01 2.248380225394192369e-02 2.892737017325635596e-01 3.149820725532855858e-01 -2.478487004124491300e+00 7.073364355938659420e-01 6.222901666331936976e-01 9.719452076878868363e-01 -4.542700408595745087e-01 1.169871244400773058e+00 -9.850197397739998695e-03 3.050017937558205383e-01 1.230989348056179544e+00 2.777770749219618529e-01 3.055480204639030584e-01 2.575864355122326477e-01 3.276314529953011645e-01 3.270979172872808816e-01 -4.664694088778970626e-01 3.327915583892304685e-01 2.302940353295702125e-01 8.070555201852536165e-01 3.167584817245317486e-01 2.551005431739983842e-01 2.278638866748672054e-01 3.147350427363015957e-01 -1.629237896110697470e+00 3.226311129617988605e-01 2.184066565786652869e-01 3.528755937274962728e-01 9.526514566562559183e-02 2.727304997029228462e-01 3.801083956613741655e-01 1.326447242699967666e-01 -7.937860802603965427e-01 2.184066738525311802e-01 4.587720668901414944e-01 -5.074020401148368054e-01 3.587566484032252423e-01 1.602454899592220261e-01 2.577621413026737751e-01 -3.210445397296359804e+00 4.457451955542331978e-01 9.332428358509632371e-01 3.145165571340403643e-01 3.038143431394672578e-01 3.139981995103426904e-01 3.332988114086350429e-01 3.165397952506386892e-01 3.138978541374732867e-01 3.327158467229246464e-01 1.541079160829187111e-01 6.605434326858619087e-01 1.251833197984458523e-01 5.162065877197211661e-01 4.633560026653494313e-01 3.870089222616948654e-01 -6.493457746529938124e-01 2.255853833737162528e+00 3.858224731542902464e-01 1.232577485298021358e+00 -1.382240445664896233e+00 3.181708645938225444e-01 2.104519583195611221e-01 3.504475436152926782e-01 1.154997741310390902e+00 4.919177234222442685e-01 8.001400441393867746e-01 2.802863594675295000e-01 6.701802548672233240e-01 3.109623393219501097e-01 2.836351405260502112e-01 -1.154181606669046900e+00 3.760485617932483038e-01 3.140149803439842846e-01 4.789558223582340846e-01 9.083027531941212374e-01 -3.475609455231054579e-01 3.104394366972166974e+00 4.785321624745142999e-01 1.233420066477962873e+00 -1.400268423976781806e-01 3.054717714552674934e-01 3.946734487320943119e-01 3.138482450312571337e-01 2.575566071978430682e-01 3.637387473023501738e-01 -1.048936707703651688e-01 1.418589041919262050e-01 5.611406715654753130e-01 2.771182054321908450e-01 9.213809715682379220e-02 2.605897390494013588e-01 3.661544857558761135e-01 4.244598598198436323e-01 2.657075680963378317e-01 3.188457497431122611e+00 3.777850977819271483e-01 6.549322331311698830e-01 5.420133165683869159e-01 2.599339150352925065e-01 4.242802064256655514e-01 3.192033616579782462e-01 2.690875650230314386e-01 3.165752059653010320e-01 -5.285536372046346631e-01 4.648871613537840508e-01 2.854534237865383739e-01 1.223785911625903944e-01 2.584215202475622086e-01 1.520350467382004078e+00 2.609087493039879968e-01 2.875614610899107637e-01 1.984552302134154900e+00 4.949271276425714627e-01 3.171045632776456902e-01 2.681656076956956958e-01 2.840830996506670814e-01 2.042141071322464141e-01 -2.048983228777433663e+00 2.736436510568431846e-01 1.494682195220404131e+00 -1.299200988328656423e-02 2.948221757167880375e-01 7.065348661457717672e-01 2.668540145242630501e-01 -7.155644265775443769e-01 4.284514552703686530e-01 3.214099160087238727e-01 4.497172376448871356e-01 -3.825536605710622151e-01 3.321925722774503598e-01 -2.164806341274672974e+00 2.226904185824138405e-02 2.866182348424330395e-01 6.049604100923358097e-01 3.092595230408948237e-01 3.199761649752392301e-01 4.634442124726999013e-01 2.082997748564601181e-01 -1.178698520350134338e-01 -7.563200007506853950e-01 3.894253099895655414e-03 6.836816894338837436e-01 3.265966627408600220e-01 4.922372403453396661e-01 3.228783782640641253e-01 2.222869403141831610e-02 3.218695845143764167e-01 2.414394666066768558e+00 6.966869745572642492e-01 2.466659833839138505e-01 -1.141114508273429973e+00 2.194804283636035691e-01 4.614680018933017713e+00 3.382207333434275043e-01 -1.260861560939391390e-01 5.691113312847272399e-01 -5.507542604640494943e+00 5.068163853876765934e-01 1.526792490942696645e+00 3.153292819922025036e-01 5.389222248530634030e-01 -4.366451000633287949e-01 3.924022967482059254e-01 3.338938057163695072e-01 2.883260266870372734e-01 2.455682912648298744e-01 2.886983677833427464e+00 -3.659643395109489217e-01 2.900473527109660998e-01 -1.899907867856053922e+00 3.385417431258552767e-01 -3.425099395489342169e-01 7.433340555447800480e-01 5.445398637061192870e-01 3.147061877160334253e-01 3.186923002500710034e-01 1.282447407174929888e+00 1.383703828152234028e-01 2.184064099426791250e-01 3.760451810080975843e-01 1.326447263079350292e-01 2.718139638676302927e-01 3.960875872944896181e-01 -6.027949591280223895e-01 3.180849608141605445e-01 5.419865084372728070e-01 3.762431899072768426e-01 1.669619370626850285e-01 3.162115927404001714e-01 4.641538366182055841e-01 5.445398770953109313e-01 3.936996161386505100e-01 3.175738599713031629e-01 1.973295577291711567e-01 4.400629901521426746e-01 3.350368539033242055e+00 3.124875463192244851e-01 1.549393951058775920e-01 4.244602679624787656e-01 8.512365179175027663e-01 4.648334027499749221e-01 -1.921507528290233024e-01 6.868335030656469442e-01 2.655401011123008082e-01 1.143595187917944012e-01 3.955589304522429961e-01 6.590775579485435021e-01 6.397711780200227016e-01 7.767806561587280445e-01 8.095489156538089315e-01 3.798613962317126669e-01 1.326447242517581337e-01 1.326446373102550813e-01 2.748598123947708083e-01 1.283148337204183254e-01 1.120052078384669247e+00 4.098726069042076814e-01 3.064931906023016794e-01 3.580453460536013877e-01 3.124394946949612395e-01 7.785491141698487327e-01 2.184062099448773886e-01 3.170514757009557649e-01 4.415456460774904723e-01 2.829507867112259767e-01 -6.316174599549017055e-01 3.258300753027933427e-01 3.238501146293383259e-01 3.696894894131309006e-01 6.992069980254408401e-01 7.346986072396577416e-01 1.326447252832863299e-01 5.836815160801778896e-02 3.187613416968155811e-01 4.525899585465398278e-01 -5.901385300020732805e-01 2.027647626242459478e-01 -3.466073318177596008e+00 1.924958258228524732e+00 6.297115984094061591e-01 -4.467160115439999246e-01 2.266445025142875547e-02 2.033487349608140704e+00 3.095676067091687744e-01 6.343453414930190215e-01 2.684405506915183912e-02 3.104747106211497854e-01 4.480465809673301880e-01 2.918816652634054210e-01 -4.393503875502232092e-01 2.515997836821637357e-01 2.035432590681663267e+00 3.528942724228031347e-01 -4.074954787246297117e-01 3.132015910239244749e-01 3.135032254069971547e-01 -1.447017290005824686e+00 3.139137015324034441e-01 3.502133429050781066e-01 4.028704791451178102e-01 1.924587418984132492e-01 3.185722589514190517e-01 2.246018937380276914e-01 3.165313400683222866e-01 -1.605357784150366063e-01 3.065852257979283513e-01 1.252145678835470954e-01 3.318451194358079670e-01 2.907958409501704700e-01 2.096249930533936046e-02 4.318453124317007119e-01 6.049058619651708213e-01 -1.363640015169778064e+00 -5.222942962798818867e-01 -1.071575884135611417e-01 6.627647798866542761e-02 2.811032633415875281e-01 4.266088952791418643e-01 3.625511695327911510e-01 7.274246855200742212e-01 -1.104795127366064444e-01 3.217350168901434437e-01 3.126112115018278015e-01 9.239484469602296524e-02 -1.603287987043231222e-01 2.982999885220988801e-01 4.445646396827464542e-01 4.790055440379791807e-01 3.162550200853269100e-01 2.619964777610619966e-01 3.114990740594092977e-01 2.578586520103212099e-01 3.089456292635111012e-01 5.106114421506147139e-01 4.270084029688953620e-01 3.149103946022379086e-01 6.854620305712865180e-01 3.235339872125477800e-01 7.279316509212601094e-01 7.908799494018209364e-02 5.028791874627481784e-01 2.264355678913831382e-01 -1.437643377022764790e+00 2.939757186994568783e-01 6.445859808634125665e-01 3.823388213646122802e-01 2.688650972417045981e-01 2.839392143197217999e-01 2.461237775174417441e-01 6.932355589757444037e-01 3.094559009498936142e-01 3.766977723752845120e-01 3.166582069031546043e-01 2.881995608165783262e-01 2.126473684418484500e-01 5.190453575689274457e-01 2.864233822532523122e-01 2.522326199725726803e-01 1.633615402471327860e-01 4.889232404286516370e-02 1.617962264646579218e+00 2.860568743359871990e-01 3.716185636615879639e-01 3.763861711503442842e-01 -8.290280890690453486e-01 4.166594396598978234e-01 3.182540928588983298e-01 4.955585449753799887e-01 -1.287013602657673290e-02 3.260430721659372533e-01 1.534848089062229359e+00 8.876043008040264137e-01 4.082517935857905012e-01 2.821810213748902063e-01 3.759428597677453299e-01 3.292116731031941579e-01 9.127746397643082821e-01 3.001027039015389253e+00 3.191059022049279603e-01 4.933333577108729717e-02 5.938992372794995589e-01 -1.785203105347040742e-01 3.158203057823129600e-01 3.221618706489824402e-01 1.059113906612665801e+00 3.043196361839696218e-01 -3.134946902649135558e-01 3.732737168220954249e-01 1.185706968048934329e-01 6.552483966640051394e-01 1.714361643513100386e+00 3.462497220693923072e-01 2.443344947172365056e-01 1.648760220260843123e+00 4.098021608346437139e-01 3.164279914174270569e-01 2.381367352255911451e-01 3.198398482549689725e-01 2.215059785613609361e-02 4.632971278602213139e-01 2.366463065806634625e-01 7.282337105540972466e-01 2.722712951420033778e-01 3.063831292261509631e-01 3.012899302174422145e-01 4.563501174720346332e-01 2.825497197554033280e-01 2.544188823239817987e-01 9.156177543680236175e-01 5.042570401828071480e-01 4.202364578941824580e-01 2.829065407959336365e-01 2.987567475681702223e-01 2.990246839692807801e-01 5.848336137587446526e-01 7.676040871820017930e-01 3.381882333450494382e-01 2.846343945693872168e-01 4.516235293994839695e-01 3.128961698645769673e-01 7.373479048563484906e-01 2.180646488220377155e-01 4.462291571436575177e-01 -3.166000208808000815e-01 3.179862999883062979e-01 2.663957583494246384e-01 4.153601999718556925e-01 3.244644407451491852e-01 2.370810420737874957e-01 1.758506111401393346e+00 1.073858609653267487e-01 2.705188402234324774e-01 -1.608199361379085979e-01 1.613465567956398727e+00 1.141788896181727964e+00 6.108695551075635222e-02 -4.605469041465739544e-01 3.830626435784980077e-01 3.669776703092190173e-01 5.155885233456352079e-01 3.158569526455016763e-01 3.200551389507816924e-01 1.946141634355000594e-01 3.427306305174098733e-01 3.738919170124319069e-01 2.244105292574775229e-02 -1.850215852620820112e-01 3.810725801008312263e-01 3.344329284333322772e-01 2.032595636877371770e-01 8.607420063893571616e-01 4.244598513218852398e-01 2.283342931348660843e-01 8.306569498675030472e-01 4.761431611784950335e-01 6.319623684929008833e-01 4.481210661682409890e-01 6.877330129487828625e-01 1.462414513882729139e+00 3.029183733721450555e-01 2.051513889944742264e+00 -1.906904812437541091e-02 1.370427761536796019e-01 3.166823363409670966e-01 2.737698062165229151e-01 3.296923127370060547e-01 3.519821283705029114e-01 3.205014714066888870e-01 3.160783587135810313e-01 3.561647643730067592e-01 1.839819573752659310e-01 -2.932097729328155822e-01 2.584412785757521092e-01 -7.732541155250256815e-02 2.899229353189147762e-01 4.497059706270585266e-01 4.244598513786946858e-01 2.033228310671105210e-01 2.127723978197606225e-01 -1.206034322354172961e+00 1.934605418660892306e+00 3.170250849299750540e-01 -7.033450045439175735e-01 2.977813221898918949e-01 3.112902707892835630e-01 3.153380382455183706e-01 -4.700448083517211550e+00 3.485502650421828719e+00 6.213502068806198153e-01 9.040150160291986203e-02 3.155518302016472321e-01 3.194715589204535910e-01 3.045526831590864569e-01 2.581672357907053517e+00 6.171427674664375918e-01 3.201283835406930067e-01 2.042141783758849027e-01 2.538033696452975385e-01 2.635193309068873946e-01 8.714931624998919490e-01 -3.782597251357912027e-01 -1.153252229311494181e+00 -1.193025624502382476e+00 3.130222753673157499e-01 3.185431701185360009e-01 7.104544191996018387e-01 3.488096463512894152e-01 1.309827970655198071e+00 4.669443288558888239e-01 3.120287970782701370e-01 3.032656129309421744e-01 3.232063180629448085e-01 2.830054175574577280e-01 2.902885324681399037e-01 6.509001805620533432e-01 2.767547614931527566e-01 6.464288860308675666e-01 2.185680539598558458e-01 2.596545310068600065e-02 2.902560749547368757e-01 1.988259601487156192e-01 3.482885037284346730e-01 3.202998542989097253e-01 6.831670210028286672e-01 5.445398716230095415e-01 4.524848490309553717e-01 3.799346151288968132e-01 3.164577425436070346e-01 2.577401310019655778e-01 1.534836902198225550e+00 1.842409439061037713e+00 2.908835259870963252e-01 3.607791213882506343e-01 3.213784585938764260e-01 1.682074386971568192e-01 2.354719262961316728e-01 2.263965865436924352e-01 3.031799841949160412e-01 3.215820339706518816e-01 7.917176745141112360e-01 8.694041232149173348e-01 2.403793588637047340e-01 1.842397646210091500e+00 2.121378764161975516e-01 -1.720512972048809097e-01 -2.721089723984683184e-01 -3.205240120851694519e-01 3.156393471959997865e-01 2.750030126578221767e-01 7.062658146560952810e-01 3.111590586640223255e-01 4.566670681056272940e-01 3.275170353476688501e-01 3.759224974610045900e-01 4.027274155716539239e-01 2.591830441581922939e-02 1.021694560105500749e+00 3.127579643870890269e-01 4.702979353366327775e-01 3.222524885835438835e-01 3.627323690371356268e-01 3.197659563335996102e-01 3.882430516770871143e-01 -1.130828876758584456e-01 2.232638168229983400e-01 3.200532315707971809e-01 2.265074763856912698e-02 4.244598694150519269e-01 1.116184350877479581e+00 9.470550344667993947e-01 -7.358517268166056002e-01 -3.425099387263584871e-01 6.459679248065957058e-01 -3.270787032632752389e+00 1.557775996230538640e+00 2.631804196590147860e-01 2.294074384815327633e-02 3.189241165793005872e-01 8.748280508789245680e-01 3.165493472480377934e-01 3.760482438384303294e-01 -4.358887708315185572e-01 8.279788922338827684e-01 2.630011322390701789e-01 8.855098700607068052e-01 2.065411879202073475e+00 -3.784337972804320271e-01 -1.435459201277428321e+00 2.633246039381917925e-01 2.796548878909453362e-01 7.741736275998933881e-01 3.217095413745226784e-01 7.014685230505143254e-01 4.690560361137707801e-01 1.658370069482757170e-01 3.165500221694050875e-01 3.232110178151342827e-01 2.199020183452133348e-01 3.442584641170651216e-01 1.384709392658832527e+00 1.597221959647899592e+00 3.086210315440170437e-01 2.532099864674379197e-01 5.881014660172887570e-02 -2.373742770544151615e-01 2.029233094538432369e-01 1.737764297430154873e-03 3.100298784371021132e-01 7.074964121844292686e-01 -4.397989630053727450e-01 2.864481093741424456e-01 3.383814617317059681e-01 1.555777451413994927e-01 3.064844224944879292e-01 2.581263776412002220e-01 3.105421842677439370e-01 3.173041479832552914e-01 -1.712508325101206805e-02 2.558102307992844437e-01 4.403857729916816899e-01 1.106950358707315951e+00 1.098870074556379972e+00 9.360779083579161552e-01 1.944022302282738257e-01 7.724116327450419872e-01 1.288015937520959331e-01 4.630852501064406379e-01 -2.074197697983143129e+00 2.873800902142038538e-01 6.521807250719837690e-01 2.708907392573723927e-01 9.572279034887871685e-01 1.358099057024464873e+00 2.042142172481831164e-01 2.848189212076394083e-01 3.726940631590331954e-01 2.588098599056201654e-01 5.548608275049452532e-01 8.309349357146704751e-01 -7.576586571806269710e-01 1.548551019337994217e-01 1.093782324165363112e-01 2.970474925370406583e-01 3.431749408125335798e-01 7.705719804454498334e-01 -1.752609569816497015e-01 3.912507689845433068e-01 3.210483391398817887e-01 2.950034719266957373e-01 8.875601704593953922e-01 4.238214789638626301e-01 -2.063277068464320074e-01 8.594138910294873979e-01 -4.566805731185925171e-02 5.731934118336475814e-01 2.745941627429076548e-01 1.276382430794678280e+00 5.548300739295941586e-01 7.268634237579609803e-01 4.377170510193922337e-01 4.825740294937124752e-01 -5.259010269486915634e-01 2.756072451514770538e-01 7.637786171308547090e-01 3.335093472590370256e-01 6.389522961516405086e-01 2.788954267400124976e-01 3.192105155722849141e-01 7.313944967120409313e-01 1.294668780597565128e-01 -2.024529574872075077e+00 2.635461868068731950e-01 2.815312622703029510e-01 7.723668019948873864e-01 3.995602532391115402e-01 4.019806684785971473e-01 2.889735920450339224e-01 2.561469027670432719e-01 3.709362590282255789e-01 3.826665266033613816e-02 -1.610905858898061149e+00 7.464317889968753450e-01 2.609606985924357581e-01 3.275782771102168645e-01 1.921781514912709321e-01 8.236783589466555311e-01 3.132833661888879129e-01 -1.336532464343555271e-01 3.193790862886747850e-01 1.116040997891185382e+00 2.843046767155116283e-01 4.148399683423159012e-01 1.061773754122923963e+00 3.398299937268884907e-01 2.729015415564860270e+00 3.073219669433724377e-01 2.928281107835866148e-01 6.891047726247733207e-01 2.949130089214430650e-01 2.977804197275771281e-01 -2.041908848647879804e+00 3.950326633624814399e-01 3.158352457260800161e-01 5.131746786559219231e-01 3.243884985288505995e-01 2.763917418317901054e-01 -2.341196400391688803e-01 2.027358361619827853e+00 -5.203295600043711389e-01 8.285101432405108657e-01 3.165634390924672581e-01 3.624391615733875138e-01 7.738172606695787881e-01 3.621246288261153468e-01 1.319851013738490231e+00 1.709233890477172280e-01 2.964392287714404106e-01 -8.794519597841067293e-01 -1.310014442341737584e-01 -3.264078567083086857e-01 -3.854958808003467574e+00 2.909900916220979461e+00 6.107844453615314528e-02 3.344156501963778672e-01 -1.595544849772098317e+00 3.113570867911839568e-01 2.456138870304040156e-01 3.014682902413529653e-01 1.436849086798499542e-01 6.385188517355819826e-01 5.940415339581454068e-01 1.002759575040657047e+00 -3.425099400390892446e-01 -2.172561448971571663e-01 2.106224130892611346e-01 -1.176708794362281818e+00 2.795306073217476706e-01 -6.341797120332806070e-01 2.879226146367466765e-01 4.745820806640479450e-01 5.226247839578519044e-02 4.305868558362043741e-01 2.715027215824724616e-01 -9.344248477729194535e-02 2.044644981978137321e-01 3.002857849366749599e-01 3.542651127686547441e-01 3.088806095924041539e-01 3.140967607361731528e-01 -7.356841207944175842e-01 5.597760918373754224e-01 1.529441145480434860e+00 5.843459183701062154e-02 2.409761202484294318e-01 4.040822738334770570e-01 1.212779486108481075e+00 3.125006455340563205e-01 1.482704239888753273e-01 8.957574807618161605e-01 3.108836148667870614e-01 1.838501822275558251e+00 3.594660061441020127e-01 1.214892084945110806e+00 3.081420263616995170e-01 7.368713182333213041e-01 1.343903787607384492e+00 3.069454969448838777e-01 4.043541044805994411e-01 9.131267641162960080e-01 -1.870097913977216975e-01 -5.183159944955147841e-02 1.708874501674414736e-01 2.972756898858435748e-01 3.481534397600186681e-01 1.419003155346901524e-01 2.144766224550306577e-01 -3.542611352643239009e-01 1.292557456548864447e+00 2.659381544083429527e-01 3.141468888786272950e-01 -3.117551446648804347e+00 5.000008876324026907e-01 3.559850434260253271e-01 4.502543777908312728e-01 4.304762029993471351e-01 4.963765444089540124e-01 -1.051575349790111913e+00 6.022066495619738946e-01 2.690323830085538104e-01 3.208662507111531559e-01 1.040025641406462809e+00 4.487270019241176300e-01 3.093897941218489711e-01 -1.387207582977525222e+00 4.398914190459785600e-01 8.876497310663061802e-01 2.985388641346698457e-01 3.069600430668238400e-01 3.463636388315015080e-01 7.022054227581306929e-01 -7.941243835059857981e-02 3.152370424158383866e-01 2.885940481944496150e-01 7.241402888175167696e-02 6.939170840085229219e-01 3.550467126817639651e-01 7.318926104002664301e-01 1.728952308085741074e-01 6.861184354732772217e-01 -2.146004465073140244e-01 -1.502514327002683947e+00 3.413062816907561081e-01 -1.576881736755596231e-02 3.231826719370957113e-01 3.539884482984000380e-01 5.526324226786865496e-02 5.445398808467818430e-01 3.227559218202521452e-01 8.601613404725208523e-02 4.570350682473037218e-01 2.576793937862453254e-01 3.303937036129305227e-01 2.707284772616441182e-01 -8.142568816863705594e-01 3.103496468549727938e-01 3.582227903171658068e-01 2.888702203915319289e-01 -1.347097384067099946e-01 3.136845946333781110e-01 8.009750369817517646e-01 -5.109949644904180355e-01 1.096470150300183688e+00 6.044489185882891968e-01 2.608768835230595995e-01 3.151714860194003154e-01 -2.024859624694014926e+00 3.105424532794763270e-01 1.841104506680674990e-01 2.387919187601157955e-01 5.445398626286421795e-01 3.168379524621630083e-01 2.631636134498817059e-01 1.054748063643995010e-01 3.157287231581409337e-01 4.360742769240119610e-01 4.124007467387185710e-01 3.701721889390582887e-01 2.995236959868687321e-01 3.185939110270153418e-01 3.074785676366549869e-01 2.708636159732409343e-01 3.054799533756689944e-02 3.191417800357058132e-01 5.962072091446205535e-01 2.132401510834350533e-01 3.313052734308087333e-01 -1.252918846508844219e-01 1.380525374451445630e-01 5.240733124301859558e-01 4.373716240620378670e+00 2.965834052265337584e-01 1.219767919241078746e-01 5.303641332731769964e-01 2.089028068440464403e-01 1.536393646641560418e+00 3.488968167950685650e-01 6.567122391107775847e-01 3.128454230463476038e-01
