# 
#                 ----------------------------------------------------
#                 Data from a 3D direct N-body simulation. 
# 
#                 rows are i-particle; 
#                 coumns are :mass, tag, x ,y, z, vx, vy, vz, ax, ay, az
# 
#                 NTHU, Computational Physics 
# 
#                 ----------------------------------------------------
#                 Time = 0.0
0.000000000000000000e+00 1.000000000000000000e+00 2.000000000000000000e+00 3.000000000000000000e+00 4.000000000000000000e+00 5.000000000000000000e+00 6.000000000000000000e+00 7.000000000000000000e+00 8.000000000000000000e+00 9.000000000000000000e+00 1.000000000000000000e+01 1.100000000000000000e+01 1.200000000000000000e+01 1.300000000000000000e+01 1.400000000000000000e+01 1.500000000000000000e+01 1.600000000000000000e+01 1.700000000000000000e+01 1.800000000000000000e+01 1.900000000000000000e+01 2.000000000000000000e+01 2.100000000000000000e+01 2.200000000000000000e+01 2.300000000000000000e+01 2.400000000000000000e+01 2.500000000000000000e+01 2.600000000000000000e+01 2.700000000000000000e+01 2.800000000000000000e+01 2.900000000000000000e+01 3.000000000000000000e+01 3.100000000000000000e+01 3.200000000000000000e+01 3.300000000000000000e+01 3.400000000000000000e+01 3.500000000000000000e+01 3.600000000000000000e+01 3.700000000000000000e+01 3.800000000000000000e+01 3.900000000000000000e+01 4.000000000000000000e+01 4.100000000000000000e+01 4.200000000000000000e+01 4.300000000000000000e+01 4.400000000000000000e+01 4.500000000000000000e+01 4.600000000000000000e+01 4.700000000000000000e+01 4.800000000000000000e+01 4.900000000000000000e+01 5.000000000000000000e+01 5.100000000000000000e+01 5.200000000000000000e+01 5.300000000000000000e+01 5.400000000000000000e+01 5.500000000000000000e+01 5.600000000000000000e+01 5.700000000000000000e+01 5.800000000000000000e+01 5.900000000000000000e+01 6.000000000000000000e+01 6.100000000000000000e+01 6.200000000000000000e+01 6.300000000000000000e+01 6.400000000000000000e+01 6.500000000000000000e+01 6.600000000000000000e+01 6.700000000000000000e+01 6.800000000000000000e+01 6.900000000000000000e+01 7.000000000000000000e+01 7.100000000000000000e+01 7.200000000000000000e+01 7.300000000000000000e+01 7.400000000000000000e+01 7.500000000000000000e+01 7.600000000000000000e+01 7.700000000000000000e+01 7.800000000000000000e+01 7.900000000000000000e+01 8.000000000000000000e+01 8.100000000000000000e+01 8.200000000000000000e+01 8.300000000000000000e+01 8.400000000000000000e+01 8.500000000000000000e+01 8.600000000000000000e+01 8.700000000000000000e+01 8.800000000000000000e+01 8.900000000000000000e+01 9.000000000000000000e+01 9.100000000000000000e+01 9.200000000000000000e+01 9.300000000000000000e+01 9.400000000000000000e+01 9.500000000000000000e+01 9.600000000000000000e+01 9.700000000000000000e+01 9.800000000000000000e+01 9.900000000000000000e+01 1.000000000000000000e+02 1.010000000000000000e+02 1.020000000000000000e+02 1.030000000000000000e+02 1.040000000000000000e+02 1.050000000000000000e+02 1.060000000000000000e+02 1.070000000000000000e+02 1.080000000000000000e+02 1.090000000000000000e+02 1.100000000000000000e+02 1.110000000000000000e+02 1.120000000000000000e+02 1.130000000000000000e+02 1.140000000000000000e+02 1.150000000000000000e+02 1.160000000000000000e+02 1.170000000000000000e+02 1.180000000000000000e+02 1.190000000000000000e+02 1.200000000000000000e+02 1.210000000000000000e+02 1.220000000000000000e+02 1.230000000000000000e+02 1.240000000000000000e+02 1.250000000000000000e+02 1.260000000000000000e+02 1.270000000000000000e+02 1.280000000000000000e+02 1.290000000000000000e+02 1.300000000000000000e+02 1.310000000000000000e+02 1.320000000000000000e+02 1.330000000000000000e+02 1.340000000000000000e+02 1.350000000000000000e+02 1.360000000000000000e+02 1.370000000000000000e+02 1.380000000000000000e+02 1.390000000000000000e+02 1.400000000000000000e+02 1.410000000000000000e+02 1.420000000000000000e+02 1.430000000000000000e+02 1.440000000000000000e+02 1.450000000000000000e+02 1.460000000000000000e+02 1.470000000000000000e+02 1.480000000000000000e+02 1.490000000000000000e+02 1.500000000000000000e+02 1.510000000000000000e+02 1.520000000000000000e+02 1.530000000000000000e+02 1.540000000000000000e+02 1.550000000000000000e+02 1.560000000000000000e+02 1.570000000000000000e+02 1.580000000000000000e+02 1.590000000000000000e+02 1.600000000000000000e+02 1.610000000000000000e+02 1.620000000000000000e+02 1.630000000000000000e+02 1.640000000000000000e+02 1.650000000000000000e+02 1.660000000000000000e+02 1.670000000000000000e+02 1.680000000000000000e+02 1.690000000000000000e+02 1.700000000000000000e+02 1.710000000000000000e+02 1.720000000000000000e+02 1.730000000000000000e+02 1.740000000000000000e+02 1.750000000000000000e+02 1.760000000000000000e+02 1.770000000000000000e+02 1.780000000000000000e+02 1.790000000000000000e+02 1.800000000000000000e+02 1.810000000000000000e+02 1.820000000000000000e+02 1.830000000000000000e+02 1.840000000000000000e+02 1.850000000000000000e+02 1.860000000000000000e+02 1.870000000000000000e+02 1.880000000000000000e+02 1.890000000000000000e+02 1.900000000000000000e+02 1.910000000000000000e+02 1.920000000000000000e+02 1.930000000000000000e+02 1.940000000000000000e+02 1.950000000000000000e+02 1.960000000000000000e+02 1.970000000000000000e+02 1.980000000000000000e+02 1.990000000000000000e+02 2.000000000000000000e+02 2.010000000000000000e+02 2.020000000000000000e+02 2.030000000000000000e+02 2.040000000000000000e+02 2.050000000000000000e+02 2.060000000000000000e+02 2.070000000000000000e+02 2.080000000000000000e+02 2.090000000000000000e+02 2.100000000000000000e+02 2.110000000000000000e+02 2.120000000000000000e+02 2.130000000000000000e+02 2.140000000000000000e+02 2.150000000000000000e+02 2.160000000000000000e+02 2.170000000000000000e+02 2.180000000000000000e+02 2.190000000000000000e+02 2.200000000000000000e+02 2.210000000000000000e+02 2.220000000000000000e+02 2.230000000000000000e+02 2.240000000000000000e+02 2.250000000000000000e+02 2.260000000000000000e+02 2.270000000000000000e+02 2.280000000000000000e+02 2.290000000000000000e+02 2.300000000000000000e+02 2.310000000000000000e+02 2.320000000000000000e+02 2.330000000000000000e+02 2.340000000000000000e+02 2.350000000000000000e+02 2.360000000000000000e+02 2.370000000000000000e+02 2.380000000000000000e+02 2.390000000000000000e+02 2.400000000000000000e+02 2.410000000000000000e+02 2.420000000000000000e+02 2.430000000000000000e+02 2.440000000000000000e+02 2.450000000000000000e+02 2.460000000000000000e+02 2.470000000000000000e+02 2.480000000000000000e+02 2.490000000000000000e+02 2.500000000000000000e+02 2.510000000000000000e+02 2.520000000000000000e+02 2.530000000000000000e+02 2.540000000000000000e+02 2.550000000000000000e+02 2.560000000000000000e+02 2.570000000000000000e+02 2.580000000000000000e+02 2.590000000000000000e+02 2.600000000000000000e+02 2.610000000000000000e+02 2.620000000000000000e+02 2.630000000000000000e+02 2.640000000000000000e+02 2.650000000000000000e+02 2.660000000000000000e+02 2.670000000000000000e+02 2.680000000000000000e+02 2.690000000000000000e+02 2.700000000000000000e+02 2.710000000000000000e+02 2.720000000000000000e+02 2.730000000000000000e+02 2.740000000000000000e+02 2.750000000000000000e+02 2.760000000000000000e+02 2.770000000000000000e+02 2.780000000000000000e+02 2.790000000000000000e+02 2.800000000000000000e+02 2.810000000000000000e+02 2.820000000000000000e+02 2.830000000000000000e+02 2.840000000000000000e+02 2.850000000000000000e+02 2.860000000000000000e+02 2.870000000000000000e+02 2.880000000000000000e+02 2.890000000000000000e+02 2.900000000000000000e+02 2.910000000000000000e+02 2.920000000000000000e+02 2.930000000000000000e+02 2.940000000000000000e+02 2.950000000000000000e+02 2.960000000000000000e+02 2.970000000000000000e+02 2.980000000000000000e+02 2.990000000000000000e+02 3.000000000000000000e+02 3.010000000000000000e+02 3.020000000000000000e+02 3.030000000000000000e+02 3.040000000000000000e+02 3.050000000000000000e+02 3.060000000000000000e+02 3.070000000000000000e+02 3.080000000000000000e+02 3.090000000000000000e+02 3.100000000000000000e+02 3.110000000000000000e+02 3.120000000000000000e+02 3.130000000000000000e+02 3.140000000000000000e+02 3.150000000000000000e+02 3.160000000000000000e+02 3.170000000000000000e+02 3.180000000000000000e+02 3.190000000000000000e+02 3.200000000000000000e+02 3.210000000000000000e+02 3.220000000000000000e+02 3.230000000000000000e+02 3.240000000000000000e+02 3.250000000000000000e+02 3.260000000000000000e+02 3.270000000000000000e+02 3.280000000000000000e+02 3.290000000000000000e+02 3.300000000000000000e+02 3.310000000000000000e+02 3.320000000000000000e+02 3.330000000000000000e+02 3.340000000000000000e+02 3.350000000000000000e+02 3.360000000000000000e+02 3.370000000000000000e+02 3.380000000000000000e+02 3.390000000000000000e+02 3.400000000000000000e+02 3.410000000000000000e+02 3.420000000000000000e+02 3.430000000000000000e+02 3.440000000000000000e+02 3.450000000000000000e+02 3.460000000000000000e+02 3.470000000000000000e+02 3.480000000000000000e+02 3.490000000000000000e+02 3.500000000000000000e+02 3.510000000000000000e+02 3.520000000000000000e+02 3.530000000000000000e+02 3.540000000000000000e+02 3.550000000000000000e+02 3.560000000000000000e+02 3.570000000000000000e+02 3.580000000000000000e+02 3.590000000000000000e+02 3.600000000000000000e+02 3.610000000000000000e+02 3.620000000000000000e+02 3.630000000000000000e+02 3.640000000000000000e+02 3.650000000000000000e+02 3.660000000000000000e+02 3.670000000000000000e+02 3.680000000000000000e+02 3.690000000000000000e+02 3.700000000000000000e+02 3.710000000000000000e+02 3.720000000000000000e+02 3.730000000000000000e+02 3.740000000000000000e+02 3.750000000000000000e+02 3.760000000000000000e+02 3.770000000000000000e+02 3.780000000000000000e+02 3.790000000000000000e+02 3.800000000000000000e+02 3.810000000000000000e+02 3.820000000000000000e+02 3.830000000000000000e+02 3.840000000000000000e+02 3.850000000000000000e+02 3.860000000000000000e+02 3.870000000000000000e+02 3.880000000000000000e+02 3.890000000000000000e+02 3.900000000000000000e+02 3.910000000000000000e+02 3.920000000000000000e+02 3.930000000000000000e+02 3.940000000000000000e+02 3.950000000000000000e+02 3.960000000000000000e+02 3.970000000000000000e+02 3.980000000000000000e+02 3.990000000000000000e+02 4.000000000000000000e+02 4.010000000000000000e+02 4.020000000000000000e+02 4.030000000000000000e+02 4.040000000000000000e+02 4.050000000000000000e+02 4.060000000000000000e+02 4.070000000000000000e+02 4.080000000000000000e+02 4.090000000000000000e+02 4.100000000000000000e+02 4.110000000000000000e+02 4.120000000000000000e+02 4.130000000000000000e+02 4.140000000000000000e+02 4.150000000000000000e+02 4.160000000000000000e+02 4.170000000000000000e+02 4.180000000000000000e+02 4.190000000000000000e+02 4.200000000000000000e+02 4.210000000000000000e+02 4.220000000000000000e+02 4.230000000000000000e+02 4.240000000000000000e+02 4.250000000000000000e+02 4.260000000000000000e+02 4.270000000000000000e+02 4.280000000000000000e+02 4.290000000000000000e+02 4.300000000000000000e+02 4.310000000000000000e+02 4.320000000000000000e+02 4.330000000000000000e+02 4.340000000000000000e+02 4.350000000000000000e+02 4.360000000000000000e+02 4.370000000000000000e+02 4.380000000000000000e+02 4.390000000000000000e+02 4.400000000000000000e+02 4.410000000000000000e+02 4.420000000000000000e+02 4.430000000000000000e+02 4.440000000000000000e+02 4.450000000000000000e+02 4.460000000000000000e+02 4.470000000000000000e+02 4.480000000000000000e+02 4.490000000000000000e+02 4.500000000000000000e+02 4.510000000000000000e+02 4.520000000000000000e+02 4.530000000000000000e+02 4.540000000000000000e+02 4.550000000000000000e+02 4.560000000000000000e+02 4.570000000000000000e+02 4.580000000000000000e+02 4.590000000000000000e+02 4.600000000000000000e+02 4.610000000000000000e+02 4.620000000000000000e+02 4.630000000000000000e+02 4.640000000000000000e+02 4.650000000000000000e+02 4.660000000000000000e+02 4.670000000000000000e+02 4.680000000000000000e+02 4.690000000000000000e+02 4.700000000000000000e+02 4.710000000000000000e+02 4.720000000000000000e+02 4.730000000000000000e+02 4.740000000000000000e+02 4.750000000000000000e+02 4.760000000000000000e+02 4.770000000000000000e+02 4.780000000000000000e+02 4.790000000000000000e+02 4.800000000000000000e+02 4.810000000000000000e+02 4.820000000000000000e+02 4.830000000000000000e+02 4.840000000000000000e+02 4.850000000000000000e+02 4.860000000000000000e+02 4.870000000000000000e+02 4.880000000000000000e+02 4.890000000000000000e+02 4.900000000000000000e+02 4.910000000000000000e+02 4.920000000000000000e+02 4.930000000000000000e+02 4.940000000000000000e+02 4.950000000000000000e+02 4.960000000000000000e+02 4.970000000000000000e+02 4.980000000000000000e+02 4.990000000000000000e+02 5.000000000000000000e+02 5.010000000000000000e+02 5.020000000000000000e+02 5.030000000000000000e+02 5.040000000000000000e+02 5.050000000000000000e+02 5.060000000000000000e+02 5.070000000000000000e+02 5.080000000000000000e+02 5.090000000000000000e+02 5.100000000000000000e+02 5.110000000000000000e+02 5.120000000000000000e+02 5.130000000000000000e+02 5.140000000000000000e+02 5.150000000000000000e+02 5.160000000000000000e+02 5.170000000000000000e+02 5.180000000000000000e+02 5.190000000000000000e+02 5.200000000000000000e+02 5.210000000000000000e+02 5.220000000000000000e+02 5.230000000000000000e+02 5.240000000000000000e+02 5.250000000000000000e+02 5.260000000000000000e+02 5.270000000000000000e+02 5.280000000000000000e+02 5.290000000000000000e+02 5.300000000000000000e+02 5.310000000000000000e+02 5.320000000000000000e+02 5.330000000000000000e+02 5.340000000000000000e+02 5.350000000000000000e+02 5.360000000000000000e+02 5.370000000000000000e+02 5.380000000000000000e+02 5.390000000000000000e+02 5.400000000000000000e+02 5.410000000000000000e+02 5.420000000000000000e+02 5.430000000000000000e+02 5.440000000000000000e+02 5.450000000000000000e+02 5.460000000000000000e+02 5.470000000000000000e+02 5.480000000000000000e+02 5.490000000000000000e+02 5.500000000000000000e+02 5.510000000000000000e+02 5.520000000000000000e+02 5.530000000000000000e+02 5.540000000000000000e+02 5.550000000000000000e+02 5.560000000000000000e+02 5.570000000000000000e+02 5.580000000000000000e+02 5.590000000000000000e+02 5.600000000000000000e+02 5.610000000000000000e+02 5.620000000000000000e+02 5.630000000000000000e+02 5.640000000000000000e+02 5.650000000000000000e+02 5.660000000000000000e+02 5.670000000000000000e+02 5.680000000000000000e+02 5.690000000000000000e+02 5.700000000000000000e+02 5.710000000000000000e+02 5.720000000000000000e+02 5.730000000000000000e+02 5.740000000000000000e+02 5.750000000000000000e+02 5.760000000000000000e+02 5.770000000000000000e+02 5.780000000000000000e+02 5.790000000000000000e+02 5.800000000000000000e+02 5.810000000000000000e+02 5.820000000000000000e+02 5.830000000000000000e+02 5.840000000000000000e+02 5.850000000000000000e+02 5.860000000000000000e+02 5.870000000000000000e+02 5.880000000000000000e+02 5.890000000000000000e+02 5.900000000000000000e+02 5.910000000000000000e+02 5.920000000000000000e+02 5.930000000000000000e+02 5.940000000000000000e+02 5.950000000000000000e+02 5.960000000000000000e+02 5.970000000000000000e+02 5.980000000000000000e+02 5.990000000000000000e+02 6.000000000000000000e+02 6.010000000000000000e+02 6.020000000000000000e+02 6.030000000000000000e+02 6.040000000000000000e+02 6.050000000000000000e+02 6.060000000000000000e+02 6.070000000000000000e+02 6.080000000000000000e+02 6.090000000000000000e+02 6.100000000000000000e+02 6.110000000000000000e+02 6.120000000000000000e+02 6.130000000000000000e+02 6.140000000000000000e+02 6.150000000000000000e+02 6.160000000000000000e+02 6.170000000000000000e+02 6.180000000000000000e+02 6.190000000000000000e+02 6.200000000000000000e+02 6.210000000000000000e+02 6.220000000000000000e+02 6.230000000000000000e+02 6.240000000000000000e+02 6.250000000000000000e+02 6.260000000000000000e+02 6.270000000000000000e+02 6.280000000000000000e+02 6.290000000000000000e+02 6.300000000000000000e+02 6.310000000000000000e+02 6.320000000000000000e+02 6.330000000000000000e+02 6.340000000000000000e+02 6.350000000000000000e+02 6.360000000000000000e+02 6.370000000000000000e+02 6.380000000000000000e+02 6.390000000000000000e+02 6.400000000000000000e+02 6.410000000000000000e+02 6.420000000000000000e+02 6.430000000000000000e+02 6.440000000000000000e+02 6.450000000000000000e+02 6.460000000000000000e+02 6.470000000000000000e+02 6.480000000000000000e+02 6.490000000000000000e+02 6.500000000000000000e+02 6.510000000000000000e+02 6.520000000000000000e+02 6.530000000000000000e+02 6.540000000000000000e+02 6.550000000000000000e+02 6.560000000000000000e+02 6.570000000000000000e+02 6.580000000000000000e+02 6.590000000000000000e+02 6.600000000000000000e+02 6.610000000000000000e+02 6.620000000000000000e+02 6.630000000000000000e+02 6.640000000000000000e+02 6.650000000000000000e+02 6.660000000000000000e+02 6.670000000000000000e+02 6.680000000000000000e+02 6.690000000000000000e+02 6.700000000000000000e+02 6.710000000000000000e+02 6.720000000000000000e+02 6.730000000000000000e+02 6.740000000000000000e+02 6.750000000000000000e+02 6.760000000000000000e+02 6.770000000000000000e+02 6.780000000000000000e+02 6.790000000000000000e+02 6.800000000000000000e+02 6.810000000000000000e+02 6.820000000000000000e+02 6.830000000000000000e+02 6.840000000000000000e+02 6.850000000000000000e+02 6.860000000000000000e+02 6.870000000000000000e+02 6.880000000000000000e+02 6.890000000000000000e+02 6.900000000000000000e+02 6.910000000000000000e+02 6.920000000000000000e+02 6.930000000000000000e+02 6.940000000000000000e+02 6.950000000000000000e+02 6.960000000000000000e+02 6.970000000000000000e+02 6.980000000000000000e+02 6.990000000000000000e+02 7.000000000000000000e+02 7.010000000000000000e+02 7.020000000000000000e+02 7.030000000000000000e+02 7.040000000000000000e+02 7.050000000000000000e+02 7.060000000000000000e+02 7.070000000000000000e+02 7.080000000000000000e+02 7.090000000000000000e+02 7.100000000000000000e+02 7.110000000000000000e+02 7.120000000000000000e+02 7.130000000000000000e+02 7.140000000000000000e+02 7.150000000000000000e+02 7.160000000000000000e+02 7.170000000000000000e+02 7.180000000000000000e+02 7.190000000000000000e+02 7.200000000000000000e+02 7.210000000000000000e+02 7.220000000000000000e+02 7.230000000000000000e+02 7.240000000000000000e+02 7.250000000000000000e+02 7.260000000000000000e+02 7.270000000000000000e+02 7.280000000000000000e+02 7.290000000000000000e+02 7.300000000000000000e+02 7.310000000000000000e+02 7.320000000000000000e+02 7.330000000000000000e+02 7.340000000000000000e+02 7.350000000000000000e+02 7.360000000000000000e+02 7.370000000000000000e+02 7.380000000000000000e+02 7.390000000000000000e+02 7.400000000000000000e+02 7.410000000000000000e+02 7.420000000000000000e+02 7.430000000000000000e+02 7.440000000000000000e+02 7.450000000000000000e+02 7.460000000000000000e+02 7.470000000000000000e+02 7.480000000000000000e+02 7.490000000000000000e+02 7.500000000000000000e+02 7.510000000000000000e+02 7.520000000000000000e+02 7.530000000000000000e+02 7.540000000000000000e+02 7.550000000000000000e+02 7.560000000000000000e+02 7.570000000000000000e+02 7.580000000000000000e+02 7.590000000000000000e+02 7.600000000000000000e+02 7.610000000000000000e+02 7.620000000000000000e+02 7.630000000000000000e+02 7.640000000000000000e+02 7.650000000000000000e+02 7.660000000000000000e+02 7.670000000000000000e+02 7.680000000000000000e+02 7.690000000000000000e+02 7.700000000000000000e+02 7.710000000000000000e+02 7.720000000000000000e+02 7.730000000000000000e+02 7.740000000000000000e+02 7.750000000000000000e+02 7.760000000000000000e+02 7.770000000000000000e+02 7.780000000000000000e+02 7.790000000000000000e+02 7.800000000000000000e+02 7.810000000000000000e+02 7.820000000000000000e+02 7.830000000000000000e+02 7.840000000000000000e+02 7.850000000000000000e+02 7.860000000000000000e+02 7.870000000000000000e+02 7.880000000000000000e+02 7.890000000000000000e+02 7.900000000000000000e+02 7.910000000000000000e+02 7.920000000000000000e+02 7.930000000000000000e+02 7.940000000000000000e+02 7.950000000000000000e+02 7.960000000000000000e+02 7.970000000000000000e+02 7.980000000000000000e+02 7.990000000000000000e+02 8.000000000000000000e+02 8.010000000000000000e+02 8.020000000000000000e+02 8.030000000000000000e+02 8.040000000000000000e+02 8.050000000000000000e+02 8.060000000000000000e+02 8.070000000000000000e+02 8.080000000000000000e+02 8.090000000000000000e+02 8.100000000000000000e+02 8.110000000000000000e+02 8.120000000000000000e+02 8.130000000000000000e+02 8.140000000000000000e+02 8.150000000000000000e+02 8.160000000000000000e+02 8.170000000000000000e+02 8.180000000000000000e+02 8.190000000000000000e+02 8.200000000000000000e+02 8.210000000000000000e+02 8.220000000000000000e+02 8.230000000000000000e+02 8.240000000000000000e+02 8.250000000000000000e+02 8.260000000000000000e+02 8.270000000000000000e+02 8.280000000000000000e+02 8.290000000000000000e+02 8.300000000000000000e+02 8.310000000000000000e+02 8.320000000000000000e+02 8.330000000000000000e+02 8.340000000000000000e+02 8.350000000000000000e+02 8.360000000000000000e+02 8.370000000000000000e+02 8.380000000000000000e+02 8.390000000000000000e+02 8.400000000000000000e+02 8.410000000000000000e+02 8.420000000000000000e+02 8.430000000000000000e+02 8.440000000000000000e+02 8.450000000000000000e+02 8.460000000000000000e+02 8.470000000000000000e+02 8.480000000000000000e+02 8.490000000000000000e+02 8.500000000000000000e+02 8.510000000000000000e+02 8.520000000000000000e+02 8.530000000000000000e+02 8.540000000000000000e+02 8.550000000000000000e+02 8.560000000000000000e+02 8.570000000000000000e+02 8.580000000000000000e+02 8.590000000000000000e+02 8.600000000000000000e+02 8.610000000000000000e+02 8.620000000000000000e+02 8.630000000000000000e+02 8.640000000000000000e+02 8.650000000000000000e+02 8.660000000000000000e+02 8.670000000000000000e+02 8.680000000000000000e+02 8.690000000000000000e+02 8.700000000000000000e+02 8.710000000000000000e+02 8.720000000000000000e+02 8.730000000000000000e+02 8.740000000000000000e+02 8.750000000000000000e+02 8.760000000000000000e+02 8.770000000000000000e+02 8.780000000000000000e+02 8.790000000000000000e+02 8.800000000000000000e+02 8.810000000000000000e+02 8.820000000000000000e+02 8.830000000000000000e+02 8.840000000000000000e+02 8.850000000000000000e+02 8.860000000000000000e+02 8.870000000000000000e+02 8.880000000000000000e+02 8.890000000000000000e+02 8.900000000000000000e+02 8.910000000000000000e+02 8.920000000000000000e+02 8.930000000000000000e+02 8.940000000000000000e+02 8.950000000000000000e+02 8.960000000000000000e+02 8.970000000000000000e+02 8.980000000000000000e+02 8.990000000000000000e+02 9.000000000000000000e+02 9.010000000000000000e+02 9.020000000000000000e+02 9.030000000000000000e+02 9.040000000000000000e+02 9.050000000000000000e+02 9.060000000000000000e+02 9.070000000000000000e+02 9.080000000000000000e+02 9.090000000000000000e+02 9.100000000000000000e+02 9.110000000000000000e+02 9.120000000000000000e+02 9.130000000000000000e+02 9.140000000000000000e+02 9.150000000000000000e+02 9.160000000000000000e+02 9.170000000000000000e+02 9.180000000000000000e+02 9.190000000000000000e+02 9.200000000000000000e+02 9.210000000000000000e+02 9.220000000000000000e+02 9.230000000000000000e+02 9.240000000000000000e+02 9.250000000000000000e+02 9.260000000000000000e+02 9.270000000000000000e+02 9.280000000000000000e+02 9.290000000000000000e+02 9.300000000000000000e+02 9.310000000000000000e+02 9.320000000000000000e+02 9.330000000000000000e+02 9.340000000000000000e+02 9.350000000000000000e+02 9.360000000000000000e+02 9.370000000000000000e+02 9.380000000000000000e+02 9.390000000000000000e+02 9.400000000000000000e+02 9.410000000000000000e+02 9.420000000000000000e+02 9.430000000000000000e+02 9.440000000000000000e+02 9.450000000000000000e+02 9.460000000000000000e+02 9.470000000000000000e+02 9.480000000000000000e+02 9.490000000000000000e+02 9.500000000000000000e+02 9.510000000000000000e+02 9.520000000000000000e+02 9.530000000000000000e+02 9.540000000000000000e+02 9.550000000000000000e+02 9.560000000000000000e+02 9.570000000000000000e+02 9.580000000000000000e+02 9.590000000000000000e+02 9.600000000000000000e+02 9.610000000000000000e+02 9.620000000000000000e+02 9.630000000000000000e+02 9.640000000000000000e+02 9.650000000000000000e+02 9.660000000000000000e+02 9.670000000000000000e+02 9.680000000000000000e+02 9.690000000000000000e+02 9.700000000000000000e+02 9.710000000000000000e+02 9.720000000000000000e+02 9.730000000000000000e+02 9.740000000000000000e+02 9.750000000000000000e+02 9.760000000000000000e+02 9.770000000000000000e+02 9.780000000000000000e+02 9.790000000000000000e+02 9.800000000000000000e+02 9.810000000000000000e+02 9.820000000000000000e+02 9.830000000000000000e+02 9.840000000000000000e+02 9.850000000000000000e+02 9.860000000000000000e+02 9.870000000000000000e+02 9.880000000000000000e+02 9.890000000000000000e+02 9.900000000000000000e+02 9.910000000000000000e+02 9.920000000000000000e+02 9.930000000000000000e+02 9.940000000000000000e+02 9.950000000000000000e+02 9.960000000000000000e+02 9.970000000000000000e+02 9.980000000000000000e+02 9.990000000000000000e+02
1.000000000000000000e+00 1.000000000000000000e+00 1.000000000000000000e+00 1.000000000000000000e+00 1.000000000000000000e+00 1.000000000000000000e+00 1.000000000000000000e+00 1.000000000000000000e+00 1.000000000000000000e+00 1.000000000000000000e+00 1.000000000000000000e+00 1.000000000000000000e+00 1.000000000000000000e+00 1.000000000000000000e+00 1.000000000000000000e+00 1.000000000000000000e+00 1.000000000000000000e+00 1.000000000000000000e+00 1.000000000000000000e+00 1.000000000000000000e+00 1.000000000000000000e+00 1.000000000000000000e+00 1.000000000000000000e+00 1.000000000000000000e+00 1.000000000000000000e+00 1.000000000000000000e+00 1.000000000000000000e+00 1.000000000000000000e+00 1.000000000000000000e+00 1.000000000000000000e+00 1.000000000000000000e+00 1.000000000000000000e+00 1.000000000000000000e+00 1.000000000000000000e+00 1.000000000000000000e+00 1.000000000000000000e+00 1.000000000000000000e+00 1.000000000000000000e+00 1.000000000000000000e+00 1.000000000000000000e+00 1.000000000000000000e+00 1.000000000000000000e+00 1.000000000000000000e+00 1.000000000000000000e+00 1.000000000000000000e+00 1.000000000000000000e+00 1.000000000000000000e+00 1.000000000000000000e+00 1.000000000000000000e+00 1.000000000000000000e+00 1.000000000000000000e+00 1.000000000000000000e+00 1.000000000000000000e+00 1.000000000000000000e+00 1.000000000000000000e+00 1.000000000000000000e+00 1.000000000000000000e+00 1.000000000000000000e+00 1.000000000000000000e+00 1.000000000000000000e+00 1.000000000000000000e+00 1.000000000000000000e+00 1.000000000000000000e+00 1.000000000000000000e+00 1.000000000000000000e+00 1.000000000000000000e+00 1.000000000000000000e+00 1.000000000000000000e+00 1.000000000000000000e+00 1.000000000000000000e+00 1.000000000000000000e+00 1.000000000000000000e+00 1.000000000000000000e+00 1.000000000000000000e+00 1.000000000000000000e+00 1.000000000000000000e+00 1.000000000000000000e+00 1.000000000000000000e+00 1.000000000000000000e+00 1.000000000000000000e+00 1.000000000000000000e+00 1.000000000000000000e+00 1.000000000000000000e+00 1.000000000000000000e+00 1.000000000000000000e+00 1.000000000000000000e+00 1.000000000000000000e+00 1.000000000000000000e+00 1.000000000000000000e+00 1.000000000000000000e+00 1.000000000000000000e+00 1.000000000000000000e+00 1.000000000000000000e+00 1.000000000000000000e+00 1.000000000000000000e+00 1.000000000000000000e+00 1.000000000000000000e+00 1.000000000000000000e+00 1.000000000000000000e+00 1.000000000000000000e+00 1.000000000000000000e+00 1.000000000000000000e+00 1.000000000000000000e+00 1.000000000000000000e+00 1.000000000000000000e+00 1.000000000000000000e+00 1.000000000000000000e+00 1.000000000000000000e+00 1.000000000000000000e+00 1.000000000000000000e+00 1.000000000000000000e+00 1.000000000000000000e+00 1.000000000000000000e+00 1.000000000000000000e+00 1.000000000000000000e+00 1.000000000000000000e+00 1.000000000000000000e+00 1.000000000000000000e+00 1.000000000000000000e+00 1.000000000000000000e+00 1.000000000000000000e+00 1.000000000000000000e+00 1.000000000000000000e+00 1.000000000000000000e+00 1.000000000000000000e+00 1.000000000000000000e+00 1.000000000000000000e+00 1.000000000000000000e+00 1.000000000000000000e+00 1.000000000000000000e+00 1.000000000000000000e+00 1.000000000000000000e+00 1.000000000000000000e+00 1.000000000000000000e+00 1.000000000000000000e+00 1.000000000000000000e+00 1.000000000000000000e+00 1.000000000000000000e+00 1.000000000000000000e+00 1.000000000000000000e+00 1.000000000000000000e+00 1.000000000000000000e+00 1.000000000000000000e+00 1.000000000000000000e+00 1.000000000000000000e+00 1.000000000000000000e+00 1.000000000000000000e+00 1.000000000000000000e+00 1.000000000000000000e+00 1.000000000000000000e+00 1.000000000000000000e+00 1.000000000000000000e+00 1.000000000000000000e+00 1.000000000000000000e+00 1.000000000000000000e+00 1.000000000000000000e+00 1.000000000000000000e+00 1.000000000000000000e+00 1.000000000000000000e+00 1.000000000000000000e+00 1.000000000000000000e+00 1.000000000000000000e+00 1.000000000000000000e+00 1.000000000000000000e+00 1.000000000000000000e+00 1.000000000000000000e+00 1.000000000000000000e+00 1.000000000000000000e+00 1.000000000000000000e+00 1.000000000000000000e+00 1.000000000000000000e+00 1.000000000000000000e+00 1.000000000000000000e+00 1.000000000000000000e+00 1.000000000000000000e+00 1.000000000000000000e+00 1.000000000000000000e+00 1.000000000000000000e+00 1.000000000000000000e+00 1.000000000000000000e+00 1.000000000000000000e+00 1.000000000000000000e+00 1.000000000000000000e+00 1.000000000000000000e+00 1.000000000000000000e+00 1.000000000000000000e+00 1.000000000000000000e+00 1.000000000000000000e+00 1.000000000000000000e+00 1.000000000000000000e+00 1.000000000000000000e+00 1.000000000000000000e+00 1.000000000000000000e+00 1.000000000000000000e+00 1.000000000000000000e+00 1.000000000000000000e+00 1.000000000000000000e+00 1.000000000000000000e+00 1.000000000000000000e+00 1.000000000000000000e+00 1.000000000000000000e+00 1.000000000000000000e+00 1.000000000000000000e+00 1.000000000000000000e+00 1.000000000000000000e+00 1.000000000000000000e+00 1.000000000000000000e+00 1.000000000000000000e+00 1.000000000000000000e+00 1.000000000000000000e+00 1.000000000000000000e+00 1.000000000000000000e+00 1.000000000000000000e+00 1.000000000000000000e+00 1.000000000000000000e+00 1.000000000000000000e+00 1.000000000000000000e+00 1.000000000000000000e+00 1.000000000000000000e+00 1.000000000000000000e+00 1.000000000000000000e+00 1.000000000000000000e+00 1.000000000000000000e+00 1.000000000000000000e+00 1.000000000000000000e+00 1.000000000000000000e+00 1.000000000000000000e+00 1.000000000000000000e+00 1.000000000000000000e+00 1.000000000000000000e+00 1.000000000000000000e+00 1.000000000000000000e+00 1.000000000000000000e+00 1.000000000000000000e+00 1.000000000000000000e+00 1.000000000000000000e+00 1.000000000000000000e+00 1.000000000000000000e+00 1.000000000000000000e+00 1.000000000000000000e+00 1.000000000000000000e+00 1.000000000000000000e+00 1.000000000000000000e+00 1.000000000000000000e+00 1.000000000000000000e+00 1.000000000000000000e+00 1.000000000000000000e+00 1.000000000000000000e+00 1.000000000000000000e+00 1.000000000000000000e+00 1.000000000000000000e+00 1.000000000000000000e+00 1.000000000000000000e+00 1.000000000000000000e+00 1.000000000000000000e+00 1.000000000000000000e+00 1.000000000000000000e+00 1.000000000000000000e+00 1.000000000000000000e+00 1.000000000000000000e+00 1.000000000000000000e+00 1.000000000000000000e+00 1.000000000000000000e+00 1.000000000000000000e+00 1.000000000000000000e+00 1.000000000000000000e+00 1.000000000000000000e+00 1.000000000000000000e+00 1.000000000000000000e+00 1.000000000000000000e+00 1.000000000000000000e+00 1.000000000000000000e+00 1.000000000000000000e+00 1.000000000000000000e+00 1.000000000000000000e+00 1.000000000000000000e+00 1.000000000000000000e+00 1.000000000000000000e+00 1.000000000000000000e+00 1.000000000000000000e+00 1.000000000000000000e+00 1.000000000000000000e+00 1.000000000000000000e+00 1.000000000000000000e+00 1.000000000000000000e+00 1.000000000000000000e+00 1.000000000000000000e+00 1.000000000000000000e+00 1.000000000000000000e+00 1.000000000000000000e+00 1.000000000000000000e+00 1.000000000000000000e+00 1.000000000000000000e+00 1.000000000000000000e+00 1.000000000000000000e+00 1.000000000000000000e+00 1.000000000000000000e+00 1.000000000000000000e+00 1.000000000000000000e+00 1.000000000000000000e+00 1.000000000000000000e+00 1.000000000000000000e+00 1.000000000000000000e+00 1.000000000000000000e+00 1.000000000000000000e+00 1.000000000000000000e+00 1.000000000000000000e+00 1.000000000000000000e+00 1.000000000000000000e+00 1.000000000000000000e+00 1.000000000000000000e+00 1.000000000000000000e+00 1.000000000000000000e+00 1.000000000000000000e+00 1.000000000000000000e+00 1.000000000000000000e+00 1.000000000000000000e+00 1.000000000000000000e+00 1.000000000000000000e+00 1.000000000000000000e+00 1.000000000000000000e+00 1.000000000000000000e+00 1.000000000000000000e+00 1.000000000000000000e+00 1.000000000000000000e+00 1.000000000000000000e+00 1.000000000000000000e+00 1.000000000000000000e+00 1.000000000000000000e+00 1.000000000000000000e+00 1.000000000000000000e+00 1.000000000000000000e+00 1.000000000000000000e+00 1.000000000000000000e+00 1.000000000000000000e+00 1.000000000000000000e+00 1.000000000000000000e+00 1.000000000000000000e+00 1.000000000000000000e+00 1.000000000000000000e+00 1.000000000000000000e+00 1.000000000000000000e+00 1.000000000000000000e+00 1.000000000000000000e+00 1.000000000000000000e+00 1.000000000000000000e+00 1.000000000000000000e+00 1.000000000000000000e+00 1.000000000000000000e+00 1.000000000000000000e+00 1.000000000000000000e+00 1.000000000000000000e+00 1.000000000000000000e+00 1.000000000000000000e+00 1.000000000000000000e+00 1.000000000000000000e+00 1.000000000000000000e+00 1.000000000000000000e+00 1.000000000000000000e+00 1.000000000000000000e+00 1.000000000000000000e+00 1.000000000000000000e+00 1.000000000000000000e+00 1.000000000000000000e+00 1.000000000000000000e+00 1.000000000000000000e+00 1.000000000000000000e+00 1.000000000000000000e+00 1.000000000000000000e+00 1.000000000000000000e+00 1.000000000000000000e+00 1.000000000000000000e+00 1.000000000000000000e+00 1.000000000000000000e+00 1.000000000000000000e+00 1.000000000000000000e+00 1.000000000000000000e+00 1.000000000000000000e+00 1.000000000000000000e+00 1.000000000000000000e+00 1.000000000000000000e+00 1.000000000000000000e+00 1.000000000000000000e+00 1.000000000000000000e+00 1.000000000000000000e+00 1.000000000000000000e+00 1.000000000000000000e+00 1.000000000000000000e+00 1.000000000000000000e+00 1.000000000000000000e+00 1.000000000000000000e+00 1.000000000000000000e+00 1.000000000000000000e+00 1.000000000000000000e+00 1.000000000000000000e+00 1.000000000000000000e+00 1.000000000000000000e+00 1.000000000000000000e+00 1.000000000000000000e+00 1.000000000000000000e+00 1.000000000000000000e+00 1.000000000000000000e+00 1.000000000000000000e+00 1.000000000000000000e+00 1.000000000000000000e+00 1.000000000000000000e+00 1.000000000000000000e+00 1.000000000000000000e+00 1.000000000000000000e+00 1.000000000000000000e+00 1.000000000000000000e+00 1.000000000000000000e+00 1.000000000000000000e+00 1.000000000000000000e+00 1.000000000000000000e+00 1.000000000000000000e+00 1.000000000000000000e+00 1.000000000000000000e+00 1.000000000000000000e+00 1.000000000000000000e+00 1.000000000000000000e+00 1.000000000000000000e+00 1.000000000000000000e+00 1.000000000000000000e+00 1.000000000000000000e+00 1.000000000000000000e+00 1.000000000000000000e+00 1.000000000000000000e+00 1.000000000000000000e+00 1.000000000000000000e+00 1.000000000000000000e+00 1.000000000000000000e+00 1.000000000000000000e+00 1.000000000000000000e+00 1.000000000000000000e+00 1.000000000000000000e+00 1.000000000000000000e+00 1.000000000000000000e+00 1.000000000000000000e+00 1.000000000000000000e+00 1.000000000000000000e+00 1.000000000000000000e+00 1.000000000000000000e+00 1.000000000000000000e+00 1.000000000000000000e+00 1.000000000000000000e+00 1.000000000000000000e+00 1.000000000000000000e+00 1.000000000000000000e+00 1.000000000000000000e+00 1.000000000000000000e+00 1.000000000000000000e+00 1.000000000000000000e+00 1.000000000000000000e+00 1.000000000000000000e+00 1.000000000000000000e+00 1.000000000000000000e+00 1.000000000000000000e+00 1.000000000000000000e+00 1.000000000000000000e+00 1.000000000000000000e+00 1.000000000000000000e+00 1.000000000000000000e+00 1.000000000000000000e+00 1.000000000000000000e+00 1.000000000000000000e+00 1.000000000000000000e+00 1.000000000000000000e+00 1.000000000000000000e+00 1.000000000000000000e+00 1.000000000000000000e+00 1.000000000000000000e+00 1.000000000000000000e+00 1.000000000000000000e+00 1.000000000000000000e+00 1.000000000000000000e+00 1.000000000000000000e+00 1.000000000000000000e+00 1.000000000000000000e+00 1.000000000000000000e+00 1.000000000000000000e+00 1.000000000000000000e+00 1.000000000000000000e+00 1.000000000000000000e+00 1.000000000000000000e+00 1.000000000000000000e+00 1.000000000000000000e+00 1.000000000000000000e+00 1.000000000000000000e+00 1.000000000000000000e+00 1.000000000000000000e+00 1.000000000000000000e+00 1.000000000000000000e+00 1.000000000000000000e+00 1.000000000000000000e+00 1.000000000000000000e+00 1.000000000000000000e+00 1.000000000000000000e+00 1.000000000000000000e+00 1.000000000000000000e+00 1.000000000000000000e+00 1.000000000000000000e+00 1.000000000000000000e+00 1.000000000000000000e+00 1.000000000000000000e+00 1.000000000000000000e+00 1.000000000000000000e+00 1.000000000000000000e+00 1.000000000000000000e+00 1.000000000000000000e+00 1.000000000000000000e+00 1.000000000000000000e+00 1.000000000000000000e+00 1.000000000000000000e+00 1.000000000000000000e+00 1.000000000000000000e+00 1.000000000000000000e+00 1.000000000000000000e+00 1.000000000000000000e+00 1.000000000000000000e+00 1.000000000000000000e+00 1.000000000000000000e+00 1.000000000000000000e+00 1.000000000000000000e+00 1.000000000000000000e+00 1.000000000000000000e+00 1.000000000000000000e+00 1.000000000000000000e+00 1.000000000000000000e+00 1.000000000000000000e+00 1.000000000000000000e+00 1.000000000000000000e+00 1.000000000000000000e+00 1.000000000000000000e+00 1.000000000000000000e+00 1.000000000000000000e+00 1.000000000000000000e+00 1.000000000000000000e+00 1.000000000000000000e+00 1.000000000000000000e+00 1.000000000000000000e+00 1.000000000000000000e+00 1.000000000000000000e+00 1.000000000000000000e+00 1.000000000000000000e+00 1.000000000000000000e+00 1.000000000000000000e+00 1.000000000000000000e+00 1.000000000000000000e+00 1.000000000000000000e+00 1.000000000000000000e+00 1.000000000000000000e+00 1.000000000000000000e+00 1.000000000000000000e+00 1.000000000000000000e+00 1.000000000000000000e+00 1.000000000000000000e+00 1.000000000000000000e+00 1.000000000000000000e+00 1.000000000000000000e+00 1.000000000000000000e+00 1.000000000000000000e+00 1.000000000000000000e+00 1.000000000000000000e+00 1.000000000000000000e+00 1.000000000000000000e+00 1.000000000000000000e+00 1.000000000000000000e+00 1.000000000000000000e+00 1.000000000000000000e+00 1.000000000000000000e+00 1.000000000000000000e+00 1.000000000000000000e+00 1.000000000000000000e+00 1.000000000000000000e+00 1.000000000000000000e+00 1.000000000000000000e+00 1.000000000000000000e+00 1.000000000000000000e+00 1.000000000000000000e+00 1.000000000000000000e+00 1.000000000000000000e+00 1.000000000000000000e+00 1.000000000000000000e+00 1.000000000000000000e+00 1.000000000000000000e+00 1.000000000000000000e+00 1.000000000000000000e+00 1.000000000000000000e+00 1.000000000000000000e+00 1.000000000000000000e+00 1.000000000000000000e+00 1.000000000000000000e+00 1.000000000000000000e+00 1.000000000000000000e+00 1.000000000000000000e+00 1.000000000000000000e+00 1.000000000000000000e+00 1.000000000000000000e+00 1.000000000000000000e+00 1.000000000000000000e+00 1.000000000000000000e+00 1.000000000000000000e+00 1.000000000000000000e+00 1.000000000000000000e+00 1.000000000000000000e+00 1.000000000000000000e+00 1.000000000000000000e+00 1.000000000000000000e+00 1.000000000000000000e+00 1.000000000000000000e+00 1.000000000000000000e+00 1.000000000000000000e+00 1.000000000000000000e+00 1.000000000000000000e+00 1.000000000000000000e+00 1.000000000000000000e+00 1.000000000000000000e+00 1.000000000000000000e+00 1.000000000000000000e+00 1.000000000000000000e+00 1.000000000000000000e+00 1.000000000000000000e+00 1.000000000000000000e+00 1.000000000000000000e+00 1.000000000000000000e+00 1.000000000000000000e+00 1.000000000000000000e+00 1.000000000000000000e+00 1.000000000000000000e+00 1.000000000000000000e+00 1.000000000000000000e+00 1.000000000000000000e+00 1.000000000000000000e+00 1.000000000000000000e+00 1.000000000000000000e+00 1.000000000000000000e+00 1.000000000000000000e+00 1.000000000000000000e+00 1.000000000000000000e+00 1.000000000000000000e+00 1.000000000000000000e+00 1.000000000000000000e+00 1.000000000000000000e+00 1.000000000000000000e+00 1.000000000000000000e+00 1.000000000000000000e+00 1.000000000000000000e+00 1.000000000000000000e+00 1.000000000000000000e+00 1.000000000000000000e+00 1.000000000000000000e+00 1.000000000000000000e+00 1.000000000000000000e+00 1.000000000000000000e+00 1.000000000000000000e+00 1.000000000000000000e+00 1.000000000000000000e+00 1.000000000000000000e+00 1.000000000000000000e+00 1.000000000000000000e+00 1.000000000000000000e+00 1.000000000000000000e+00 1.000000000000000000e+00 1.000000000000000000e+00 1.000000000000000000e+00 1.000000000000000000e+00 1.000000000000000000e+00 1.000000000000000000e+00 1.000000000000000000e+00 1.000000000000000000e+00 1.000000000000000000e+00 1.000000000000000000e+00 1.000000000000000000e+00 1.000000000000000000e+00 1.000000000000000000e+00 1.000000000000000000e+00 1.000000000000000000e+00 1.000000000000000000e+00 1.000000000000000000e+00 1.000000000000000000e+00 1.000000000000000000e+00 1.000000000000000000e+00 1.000000000000000000e+00 1.000000000000000000e+00 1.000000000000000000e+00 1.000000000000000000e+00 1.000000000000000000e+00 1.000000000000000000e+00 1.000000000000000000e+00 1.000000000000000000e+00 1.000000000000000000e+00 1.000000000000000000e+00 1.000000000000000000e+00 1.000000000000000000e+00 1.000000000000000000e+00 1.000000000000000000e+00 1.000000000000000000e+00 1.000000000000000000e+00 1.000000000000000000e+00 1.000000000000000000e+00 1.000000000000000000e+00 1.000000000000000000e+00 1.000000000000000000e+00 1.000000000000000000e+00 1.000000000000000000e+00 1.000000000000000000e+00 1.000000000000000000e+00 1.000000000000000000e+00 1.000000000000000000e+00 1.000000000000000000e+00 1.000000000000000000e+00 1.000000000000000000e+00 1.000000000000000000e+00 1.000000000000000000e+00 1.000000000000000000e+00 1.000000000000000000e+00 1.000000000000000000e+00 1.000000000000000000e+00 1.000000000000000000e+00 1.000000000000000000e+00 1.000000000000000000e+00 1.000000000000000000e+00 1.000000000000000000e+00 1.000000000000000000e+00 1.000000000000000000e+00 1.000000000000000000e+00 1.000000000000000000e+00 1.000000000000000000e+00 1.000000000000000000e+00 1.000000000000000000e+00 1.000000000000000000e+00 1.000000000000000000e+00 1.000000000000000000e+00 1.000000000000000000e+00 1.000000000000000000e+00 1.000000000000000000e+00 1.000000000000000000e+00 1.000000000000000000e+00 1.000000000000000000e+00 1.000000000000000000e+00 1.000000000000000000e+00 1.000000000000000000e+00 1.000000000000000000e+00 1.000000000000000000e+00 1.000000000000000000e+00 1.000000000000000000e+00 1.000000000000000000e+00 1.000000000000000000e+00 1.000000000000000000e+00 1.000000000000000000e+00 1.000000000000000000e+00 1.000000000000000000e+00 1.000000000000000000e+00 1.000000000000000000e+00 1.000000000000000000e+00 1.000000000000000000e+00 1.000000000000000000e+00 1.000000000000000000e+00 1.000000000000000000e+00 1.000000000000000000e+00 1.000000000000000000e+00 1.000000000000000000e+00 1.000000000000000000e+00 1.000000000000000000e+00 1.000000000000000000e+00 1.000000000000000000e+00 1.000000000000000000e+00 1.000000000000000000e+00 1.000000000000000000e+00 1.000000000000000000e+00 1.000000000000000000e+00 1.000000000000000000e+00 1.000000000000000000e+00 1.000000000000000000e+00 1.000000000000000000e+00 1.000000000000000000e+00 1.000000000000000000e+00 1.000000000000000000e+00 1.000000000000000000e+00 1.000000000000000000e+00 1.000000000000000000e+00 1.000000000000000000e+00 1.000000000000000000e+00 1.000000000000000000e+00 1.000000000000000000e+00 1.000000000000000000e+00 1.000000000000000000e+00 1.000000000000000000e+00 1.000000000000000000e+00 1.000000000000000000e+00 1.000000000000000000e+00 1.000000000000000000e+00 1.000000000000000000e+00 1.000000000000000000e+00 1.000000000000000000e+00 1.000000000000000000e+00 1.000000000000000000e+00 1.000000000000000000e+00 1.000000000000000000e+00 1.000000000000000000e+00 1.000000000000000000e+00 1.000000000000000000e+00 1.000000000000000000e+00 1.000000000000000000e+00 1.000000000000000000e+00 1.000000000000000000e+00 1.000000000000000000e+00 1.000000000000000000e+00 1.000000000000000000e+00 1.000000000000000000e+00 1.000000000000000000e+00 1.000000000000000000e+00 1.000000000000000000e+00 1.000000000000000000e+00 1.000000000000000000e+00 1.000000000000000000e+00 1.000000000000000000e+00 1.000000000000000000e+00 1.000000000000000000e+00 1.000000000000000000e+00 1.000000000000000000e+00 1.000000000000000000e+00 1.000000000000000000e+00 1.000000000000000000e+00 1.000000000000000000e+00 1.000000000000000000e+00 1.000000000000000000e+00 1.000000000000000000e+00 1.000000000000000000e+00 1.000000000000000000e+00 1.000000000000000000e+00 1.000000000000000000e+00 1.000000000000000000e+00 1.000000000000000000e+00 1.000000000000000000e+00 1.000000000000000000e+00 1.000000000000000000e+00 1.000000000000000000e+00 1.000000000000000000e+00 1.000000000000000000e+00 1.000000000000000000e+00 1.000000000000000000e+00 1.000000000000000000e+00 1.000000000000000000e+00 1.000000000000000000e+00 1.000000000000000000e+00 1.000000000000000000e+00 1.000000000000000000e+00 1.000000000000000000e+00 1.000000000000000000e+00 1.000000000000000000e+00 1.000000000000000000e+00 1.000000000000000000e+00 1.000000000000000000e+00 1.000000000000000000e+00 1.000000000000000000e+00 1.000000000000000000e+00 1.000000000000000000e+00 1.000000000000000000e+00 1.000000000000000000e+00 1.000000000000000000e+00 1.000000000000000000e+00 1.000000000000000000e+00 1.000000000000000000e+00 1.000000000000000000e+00 1.000000000000000000e+00 1.000000000000000000e+00 1.000000000000000000e+00 1.000000000000000000e+00 1.000000000000000000e+00 1.000000000000000000e+00 1.000000000000000000e+00 1.000000000000000000e+00 1.000000000000000000e+00 1.000000000000000000e+00 1.000000000000000000e+00 1.000000000000000000e+00 1.000000000000000000e+00 1.000000000000000000e+00 1.000000000000000000e+00 1.000000000000000000e+00 1.000000000000000000e+00 1.000000000000000000e+00 1.000000000000000000e+00 1.000000000000000000e+00 1.000000000000000000e+00 1.000000000000000000e+00 1.000000000000000000e+00 1.000000000000000000e+00 1.000000000000000000e+00 1.000000000000000000e+00 1.000000000000000000e+00 1.000000000000000000e+00 1.000000000000000000e+00 1.000000000000000000e+00 1.000000000000000000e+00 1.000000000000000000e+00 1.000000000000000000e+00 1.000000000000000000e+00 1.000000000000000000e+00 1.000000000000000000e+00 1.000000000000000000e+00 1.000000000000000000e+00 1.000000000000000000e+00 1.000000000000000000e+00 1.000000000000000000e+00 1.000000000000000000e+00 1.000000000000000000e+00 1.000000000000000000e+00 1.000000000000000000e+00 1.000000000000000000e+00 1.000000000000000000e+00 1.000000000000000000e+00 1.000000000000000000e+00 1.000000000000000000e+00 1.000000000000000000e+00 1.000000000000000000e+00 1.000000000000000000e+00 1.000000000000000000e+00 1.000000000000000000e+00 1.000000000000000000e+00 1.000000000000000000e+00 1.000000000000000000e+00 1.000000000000000000e+00 1.000000000000000000e+00 1.000000000000000000e+00 1.000000000000000000e+00 1.000000000000000000e+00 1.000000000000000000e+00 1.000000000000000000e+00 1.000000000000000000e+00 1.000000000000000000e+00 1.000000000000000000e+00 1.000000000000000000e+00 1.000000000000000000e+00 1.000000000000000000e+00 1.000000000000000000e+00 1.000000000000000000e+00 1.000000000000000000e+00 1.000000000000000000e+00 1.000000000000000000e+00 1.000000000000000000e+00 1.000000000000000000e+00 1.000000000000000000e+00 1.000000000000000000e+00 1.000000000000000000e+00 1.000000000000000000e+00 1.000000000000000000e+00 1.000000000000000000e+00 1.000000000000000000e+00 1.000000000000000000e+00 1.000000000000000000e+00 1.000000000000000000e+00 1.000000000000000000e+00 1.000000000000000000e+00 1.000000000000000000e+00 1.000000000000000000e+00 1.000000000000000000e+00 1.000000000000000000e+00 1.000000000000000000e+00 1.000000000000000000e+00 1.000000000000000000e+00 1.000000000000000000e+00 1.000000000000000000e+00 1.000000000000000000e+00 1.000000000000000000e+00 1.000000000000000000e+00 1.000000000000000000e+00 1.000000000000000000e+00 1.000000000000000000e+00 1.000000000000000000e+00 1.000000000000000000e+00 1.000000000000000000e+00 1.000000000000000000e+00 1.000000000000000000e+00 1.000000000000000000e+00 1.000000000000000000e+00 1.000000000000000000e+00 1.000000000000000000e+00 1.000000000000000000e+00 1.000000000000000000e+00 1.000000000000000000e+00 1.000000000000000000e+00 1.000000000000000000e+00 1.000000000000000000e+00 1.000000000000000000e+00 1.000000000000000000e+00 1.000000000000000000e+00 1.000000000000000000e+00 1.000000000000000000e+00 1.000000000000000000e+00 1.000000000000000000e+00 1.000000000000000000e+00 1.000000000000000000e+00 1.000000000000000000e+00 1.000000000000000000e+00 1.000000000000000000e+00 1.000000000000000000e+00 1.000000000000000000e+00
3.213516750273583307e-03 5.624903611039085982e-01 -2.089250366922520974e-01 7.309367933494577141e-01 5.103934122679439911e-01 5.630434451357819725e-01 6.337808562101370224e-01 2.675690690278257899e-01 5.200451293539724018e-01 5.204413512127611385e-01 1.077413244777669199e+00 -6.766698326912533590e-01 1.394071953027991251e+00 4.475299892336940255e-01 5.113195667127802269e-01 3.960431815951503398e-01 9.046286113027771636e-01 9.726712959218516419e-01 6.751229707379590161e-01 5.191575764947758964e-01 4.203488262526381414e-01 9.779519001260509325e-01 4.670167820784679735e-01 4.638764224199082298e-01 1.082182058722662432e-01 6.795378643859270040e-01 3.648761352299774718e-01 6.115655807606503735e-01 5.331742727167536611e-01 1.548051885386724225e+00 5.300500838277973914e-01 6.129896881252268059e-01 7.204570735727728881e-01 4.876299468926979519e-01 7.117680858703829827e-01 4.502513170146649757e-01 5.487771797554681363e-01 1.751815447263582071e+00 -6.393381734487950385e-02 5.113505927461247103e-01 -1.453516095800853614e-01 -5.595474041414985056e-01 7.505644098724848501e-01 2.240998801679999486e-01 2.641406688052611029e-01 5.235785669846236834e-01 7.305924294900747462e-01 5.195315375425431093e-01 5.879790616071107756e-01 2.490629190612439828e-02 1.540167953046486403e-03 8.380862463649607630e-01 6.710537377755674271e-01 4.659723856547802745e-01 4.531022550320834008e-01 1.831659698154551943e-02 4.756971451467590373e-01 5.411928523986613282e-01 1.868844116827039492e-01 4.628815180121365613e-01 9.104080727160454023e-01 5.467622448899801535e-01 4.994648591287033645e-01 4.670166177183704415e-01 6.823941237036255103e-01 5.395450440406366344e-01 5.117619489073349515e-01 2.926608577444347881e-01 5.430848097731617585e-01 -6.859760323709336582e-03 4.109841259972369931e-01 4.904035638002490760e-01 5.233050997946540051e-01 3.416148702710983254e-02 1.496072710564632979e+00 5.582473834785178779e-01 6.327283907933087814e-01 7.401570051937207406e-01 5.157888981712828169e-01 1.380103647323254856e+00 5.334053241034716342e-01 2.954455601835178080e-01 1.377903111418815607e+00 6.867292212799278595e-01 4.869082777562980247e-01 7.573155998652739695e-01 8.140112823428465871e-01 5.472751580058936582e-01 4.063021251340940276e-01 5.755564415373345399e-01 2.691838670592771043e-01 2.146192169141483586e+00 7.230353689697870401e-01 -4.546939612746206394e-02 5.604088911632584269e-01 5.553842124305046202e-01 5.397229942214601950e-01 4.732162307008081492e-01 1.894774348868859537e-01 6.819591759966567857e-01 1.583966188869244895e+00 6.878831224461277039e-01 5.443560451539232181e-01 7.566419612909910386e-01 8.594863220993868014e-01 -2.023287017432731094e+00 -1.198995641319404282e+00 5.462535578220755195e-01 5.667574025497659207e-01 9.726156370627191405e-01 5.335882843753317895e-01 4.585261598778818115e-01 1.658145507245765982e-01 4.770302099032596721e-01 5.185645122379632932e-01 5.095005028759440613e-01 5.220662062112294555e-01 5.526019199103178181e-01 8.838834051730164454e-01 5.114224637026797415e-01 1.294370061008079276e+00 5.601309232286263429e-01 5.536038348705900614e-01 -3.777313116827623607e-01 5.175687143472075258e-01 1.928490845065949033e+00 5.556366239249730388e-01 5.048580609339285985e-01 6.872965561750049579e-01 5.125496282225187050e-01 5.204277963754108116e-01 5.138274223932824958e-01 4.133999176222344918e-01 2.843742837725560801e-01 -2.355001483395495476e-01 -1.568773504813585629e-01 6.252642221583790683e-01 4.315419834332248628e-02 9.936586322132859861e-01 6.669034764852013186e-01 5.244588746753844344e-01 8.586748171602784918e-01 6.396632759941229818e-01 5.966191929365856073e-01 5.147696120057160263e-01 3.971858051729750677e-02 8.824056614128107379e-01 7.236604197222963608e-02 4.680120891041483766e-01 -8.679336772059146332e-01 7.768323087285352591e-01 -2.980400283276949391e-01 5.235795215115414125e-01 5.401968529872328562e-01 4.812725463426719696e-01 5.092873246201466975e-01 1.893201953631674428e+00 -7.081532529253288522e-02 8.095945889847512289e-01 6.983226725063418350e-01 5.175162583099743863e-01 4.185751530282889044e-01 5.130380165721036834e-01 5.130553319206265783e-01 1.087894850488403620e+00 1.592513776091690758e-01 8.461088398335914196e-01 4.163560110037701212e-01 5.767732331903220322e-01 6.278640181367998174e-01 4.517138396545588019e-01 7.323266872897146174e-01 5.235938058235254378e-01 5.095479328348938575e-01 4.059045043537037878e-01 2.830928049815960995e-02 1.811844713659549189e-01 8.018863257390287935e-02 7.408139366765983391e-01 1.140575116832255986e+00 7.124672970387823101e-01 5.056851340453000221e-01 -1.838428427961937839e-01 4.567686049800811499e-01 6.669808462501497504e-01 5.252866413463599393e-01 5.225257177139365217e-01 5.127075129186753344e-01 2.745545464090367371e+00 5.441543681666910492e-01 5.188675012166026335e-01 -8.697643120620945911e-01 5.188340085061625695e-01 5.728760595027868607e-01 1.809520296676474516e-01 5.115492457447551322e-01 9.282217268594179505e-01 5.248496322932729719e-01 6.648064124885834092e-01 4.190751168223522671e-01 6.197670362079120698e-01 5.502694551115621113e-01 9.527317072462326841e-01 5.999310932973728194e-01 5.432450680018059419e-01 6.648064731821612394e-01 2.751420106970473012e-01 1.280435283926721679e+00 5.128025550526879028e-01 3.661176221684910304e-01 4.415830257337137188e-01 -7.071884756600431421e-02 4.740225627138404674e-01 1.621766640272992999e-01 4.941174955511867251e-01 5.122608754265032260e-01 5.072733142625440728e-01 5.173368438160717009e-01 5.167561542176358769e-01 5.113961228418018035e-01 4.449532029773511921e-01 6.107674372362017490e-01 -6.974723698794923488e-01 5.752963982337507831e-01 3.334984399903828667e-01 3.935951881258245577e-01 1.394319725836150048e-01 1.282894226812317573e+00 9.511765933469659151e-01 5.008267957353367272e-01 -1.043255820733402922e-01 1.048317078461604046e+00 5.139885558330304915e-01 4.472573704443457143e-01 5.024166435059109759e-01 4.162907300630356855e-01 3.923981647049907262e-01 1.962067066064563936e-01 -1.473991400678645591e-01 -1.157082948109440373e-01 3.281546537704914668e-01 5.084791053826698271e-01 -1.002199104798302265e-01 4.585427685973805234e-01 5.098478353965290033e-01 4.599678060423528225e-01 -1.035071006031666047e-01 7.457050720809824673e-01 -2.220476884522805339e+00 5.960611644855909885e-01 -5.589740392127882096e-01 4.963454660949246366e-01 5.105067752688969840e-01 4.670163322382461790e-01 4.734512753444834465e-01 5.414120380798393972e-01 5.256383693276674984e-01 7.400700299493448986e-01 5.422124232364867735e-01 1.683829457586482503e+00 6.736655310424869425e-01 6.963814330968879363e-01 5.012977400952013385e-01 3.467463232708186682e-01 9.104080747151189756e-01 3.846333931861562472e-01 2.636258079889106654e+00 5.453771621705658657e-01 2.403300290006880613e-01 6.927328153959907420e-01 5.191928050264584815e-01 9.107076998286426361e-01 5.139806943273639295e-01 5.409694831192130016e-01 5.143273717847302029e-01 1.067674785508809121e+00 7.644904299032679873e-01 8.660993003410322189e-01 8.095778825331088058e-01 3.712349922055421803e-01 6.753619854531527356e-01 5.509385582549091165e-01 3.937811754256894670e-01 -7.036930787476983751e-01 3.826111090208995646e-01 6.744805957429470533e-01 5.532636394988525996e-01 5.425331514122425647e-01 5.095005022363803260e-01 6.065015721970853368e-01 5.476855038354815353e-01 -7.830313246049532827e-01 6.960526955609929178e-01 5.199965070723023830e-01 5.052022719027340902e-02 5.448665395619224361e-01 1.842737478466443202e+00 4.961964802783513373e-01 5.149128546687137264e-01 4.680234907466138128e-01 -3.353735694353394692e+00 5.135353695853264178e-01 2.726738850242250489e+00 7.320259517822044204e-01 5.042712076009708833e-01 -5.808076642150210578e-01 5.144331517609944671e-01 5.144391898199439650e-01 4.325929139490732322e-01 4.591225633784648541e-01 3.786402288996537635e-01 6.370279345877297716e-01 3.147770959902050358e-01 5.176801112238781366e-01 5.168176008016935885e-01 3.630893069713648225e-01 5.165919502723972379e-01 7.317750944209396868e-01 5.129029346639053522e-01 1.189870698533614046e+00 8.075881916073512218e-03 2.204408760377902343e+00 2.607080600323003594e+00 5.404748352683680368e-01 -1.991079504132720057e-01 4.516541908128309801e-01 4.044106853060987494e-01 7.235520046636835234e-01 1.362935971607152519e+00 5.380572588886067820e-01 1.119022185839967820e+00 5.148253241142173309e-01 1.279974518078681733e-01 1.245714338123989684e+00 3.993562742998388870e-01 5.115861207987676407e-01 5.270850813346316110e-01 8.772462918063157478e-01 -3.631313716973461503e+00 1.614678821084026605e+00 5.555026845138930636e-01 6.393292925842637420e-01 5.107232371558945161e-01 1.751815452855260080e+00 3.093284059859897073e-01 5.390608758150152724e-01 5.084492484147625779e-01 4.264071294186812522e-01 1.381860949420703477e+00 6.129432747499051759e-01 6.648066276487126780e-01 4.585386337191317829e-01 5.999310938905803026e-01 6.315948650806184617e-01 5.616876538781607753e-01 8.905913406310714819e-01 5.118361615148403487e-01 3.937987925405315726e-01 2.224659982741203912e-01 6.471765772714911380e-01 5.091533656832198940e-01 4.413622514236520411e-01 5.390608695835644726e-01 6.622851785595760266e-01 5.080295518150224066e-01 9.972814468838602231e-01 9.977524321118644846e-01 1.121800582426025539e+00 5.136825335926672453e-01 2.413183378679808755e-01 9.104078196851081994e-01 -1.087419534310557767e-01 9.331199780457491988e-01 6.274200231372701886e-01 9.469575422406570700e-03 5.687457055882565449e-01 9.913779085693109616e-01 3.915148638068477460e-01 5.266976009327819508e-01 2.720350832088075932e-01 -3.301375179568586393e-01 -2.422978152687388143e+00 4.714974730883069731e-01 5.999310933728900785e-01 5.999310902090713160e-01 5.233379295672188070e-01 4.494226956618370128e-01 -2.075000867491693102e-01 3.328762989231252023e-01 5.215421354453202429e-01 6.522453986739231713e-01 5.094082101618806480e-01 1.059415194080360667e+00 6.648063836815204519e-01 5.132848576023665288e-01 4.758964183327228370e-01 2.665816081818119798e-01 6.487993040675824608e-01 5.119688173263330366e-01 5.116528284596506548e-01 5.568424348709402061e-01 2.727868196953100455e-01 2.450505921367533355e-02 5.999310938968278606e-01 6.564387382472772758e-01 5.125001019698510740e-01 4.354624055125936866e-01 8.573254851925415920e-01 6.705337021467625558e-01 5.630867762340421301e-01 1.815001007806057221e+00 5.213518277019919545e-01 -2.985970890960199853e+00 7.305456458620275262e-01 1.503721172142639118e+00 4.968080575327882831e-01 -1.041327380214125187e+00 7.167666341784710848e-01 4.674229856538880679e-01 5.163189051917267403e-01 5.008415940783051967e-01 -2.807964077550575421e-01 5.079282745325280901e-01 1.064560418012287624e+00 6.177333034382528343e-01 -3.254162436887698129e-01 5.102293555260154490e-01 5.191511195786570054e-01 7.676119439933847266e-01 5.376471725615911135e-01 5.006567656608219563e-01 -5.057504395671387210e-01 5.626862055566548282e-01 5.183377496124770278e-01 7.024898917566718692e-01 4.845572865818696950e-01 7.644262669213796046e-01 5.055061362446359174e-01 5.752818089736018159e-01 7.076434412479772895e-01 5.498517586737843299e-01 3.311227583831858889e-01 2.698953865615940639e-01 3.144665930340684867e-01 9.545128443031747345e-01 5.459483351461349443e-01 3.157446027662363264e+00 6.605739049149326192e-01 6.064757256099850835e-01 5.591196859165659117e-01 6.277292418849530486e-01 2.773264927120628123e-02 4.834780885748640178e-01 5.864059830475000235e-01 5.253117060431330421e-01 1.165166747909356815e+00 7.647349081553286299e-01 5.224322828290408616e-01 4.508055373506797969e-01 1.114645223093733817e+00 5.142719320367953317e-01 5.379613577122818180e-01 4.953734467372111205e-01 7.274095903509405492e-01 5.055440092249544604e-01 9.198837291632167013e-01 4.862451427481466748e-01 5.134469742252923963e-01 7.575365320377504610e-03 5.265453255614630512e-01 2.730673791729641003e-02 3.581418847429751473e-01 4.170092285588057890e-01 5.558255643243850130e-01 7.714437051074188867e-01 5.141469883462792545e-01 3.993321012296948136e-01 5.055651793449863346e-02 5.505025589995501401e-01 5.461781058602204197e-01 5.098385935235583144e-01 4.825022517645326248e-02 5.083619240296901598e-01 2.462584206816486876e-01 5.165842412817965856e-01 4.282720141953945125e-01 1.250923116555993087e+00 7.897445862858167853e-01 5.242467460668559509e-01 2.746492194083556271e-01 6.423186271201885011e-01 4.198282605462814732e-01 9.869048029594132965e-01 5.873642504888069160e-01 5.415482888053562149e-01 6.852189291727169840e-01 1.968203710804927509e+00 4.539540713668872574e-01 4.218294821104969783e-01 5.139241278389909962e-01 6.960818447199570436e-01 4.403936506599528955e-01 8.249804017087573049e-01 -5.636632766059094246e-01 3.211739600790963767e-01 5.375330190034138811e-01 4.334153119039528268e-01 3.706055887519824621e-01 -6.000687419621418828e-01 3.901596916141666926e-01 5.102916721444469283e-01 7.389745564337277806e-01 6.643005015405404334e-01 1.426044854401710360e+00 5.090219894566357928e-01 5.066528779186175724e-01 -6.825797518720349011e-01 5.052123088033169118e-01 1.199700211948721895e+00 6.952917208614330935e-01 2.542378614450722663e-01 2.804671035396164025e-01 -1.580035454837496189e+00 4.862517138430293984e-01 1.906262468023293688e-01 1.092585733028274220e+00 8.124371041496719625e-01 5.148548535023852457e-01 5.061470132215737383e-01 6.242209157156529686e-01 7.307326540429394113e-01 4.660075716111356514e-01 5.644710362223278599e-01 2.479231212011391572e-02 5.001147172775886052e-01 6.273670718346622266e-01 6.407141085410844594e-01 4.992678127176954361e-01 5.842185720994487186e-01 1.187932989516383042e+00 -1.089892380753551548e-01 -2.275383427351655441e-01 4.455625871344066624e-01 5.422630904170426813e-01 5.595443575170464534e-01 5.216544971236818373e-01 -8.328825493216670539e-01 3.122499721903285064e+00 5.888115983364705652e-01 4.569185075363593196e-01 4.125282125594511018e-01 5.169159172859875140e-01 5.158184315813965082e-01 6.298877760217210797e-01 3.268550785949350113e-01 5.794364391357166300e-01 5.154087415360578683e-01 6.469220462416362949e-01 3.708237575950565912e-01 4.999146100650092017e-01 5.281902711818244889e-01 4.062135537442236322e-01 4.744313427178662446e-01 5.479220559551624126e-01 6.452976548218670727e-01 1.000461877184602555e+00 2.292597718404130624e+00 5.703609077642143310e-01 4.942691106979687499e-01 5.296379916809502708e-01 5.384386633246237563e-01 3.639145670134949495e-01 5.106481875627439937e-01 5.188969561811421771e-01 5.426641198189832149e-01 4.782408001986461210e-01 4.820349461897130428e-01 7.312114665536800784e-01 3.689954124230245269e-01 5.536190978062546231e-01 5.150607482228207745e-01 5.734785391322302361e-01 1.249306983973715590e-01 9.104080781934109634e-01 5.475234681508311940e-01 1.433623869650865468e-01 1.907582921413033317e+00 2.697450452741203542e-01 4.571899820827361460e-01 5.852562089219454089e-01 6.071616614314564314e-02 5.187266618386067174e-01 1.498558392399699235e+00 7.536873493749841613e-01 7.827705083727849455e-01 5.105986394239661053e-01 5.472257478622343241e-01 4.984118155289404273e-01 6.278490669037747329e-01 5.002003409660433775e-01 5.106924857526305983e-01 -1.649522172939668352e-01 5.803829362105678014e-01 -1.382221046537521536e+00 5.301062770511231204e-01 4.934324415821561560e-01 5.559711478935467355e-01 4.680321902069511930e-01 9.104080782329267985e-01 2.255266876478982108e-01 5.648885456089867141e-01 1.313491011568908018e+00 -5.350408848187315769e-01 5.106378109404825505e-01 1.118429934240174894e+00 1.480083528629157819e+00 4.000258961854655237e-01 5.111674887650559107e-01 -4.574018722323448111e-02 -1.642978037248737033e+00 2.827365981110772086e-01 7.407433034888372125e-01 5.260644189047144481e-01 5.179429781576043723e-01 4.843563254394352424e-01 4.878806564790849620e-01 -3.905871262982489323e-01 8.099415516468632115e-01 5.095004988051234918e-01 3.417505609705118741e-01 5.511862454171797543e-01 -2.177463659999179929e-02 -1.753495663283217432e-01 1.756462025905560109e+00 4.166225948171400906e-01 4.503317341372952143e-01 5.100644306705646169e-01 3.316761734261217121e-01 6.204245230604488182e-01 -2.374608331245635709e-02 -1.014843515238098348e+00 5.162117734500579758e-01 5.073130496990594374e-01 5.092856824940040772e-01 6.016629729526288273e-01 5.559100313546714300e-01 5.421435979833940655e-01 5.325482299118045049e-01 5.805779059940886500e-01 1.024869486040088873e+00 7.280620509765450832e-01 5.556152019586273472e-01 5.530051945688509996e-01 4.609638083439127620e-01 4.229463852122450906e-01 6.895287393216582503e-03 5.390608707252405596e-01 5.440210546684617343e-01 4.606395429364028571e-01 7.464132491626573884e-01 9.631266205575297334e-01 8.249947810419852035e-01 -4.706263475193792067e-01 5.561521700966294279e-01 5.089987196057726981e-01 5.209015292692161792e-01 5.762180167015578114e-01 8.978135143640619820e-01 5.535289101793849920e-01 5.007231249304542331e-01 -2.089458039479413498e-01 -8.415801527091703038e-01 2.254008860470930298e+00 5.206355033403573529e-01 8.881722456549167033e-01 4.750334112438510670e-01 5.686185266342607125e-01 3.631751195237025165e-01 1.490140853631063966e-01 5.103777176961609152e-01 5.461402216193134151e-01 1.945969639634753234e-03 5.077815952875258665e-01 4.242288623404047998e-01 5.011378608059682271e-01 7.331778125976565752e-01 5.070389340811835011e-01 5.898269817885043453e-01 3.896517627139948758e-01 5.145498675561641644e-01 3.601839327220405784e-01 5.150503612082886207e-01 4.408824706442501240e-01 5.184456879892779257e-01 -2.908464169518645837e-01 5.070355987114708585e-01 6.430128207799179485e-01 5.307119996210972745e-01 7.307800593719782078e-01 9.104082932942868522e-01 7.346917882787268317e-01 -5.815222938948252374e-01 9.926853881896987586e-01 1.751815447280581584e+00 4.779470621921091955e-01 4.638705637906853640e-01 1.069131887844454232e+00 5.381197375026738339e-01 7.306960311954794340e-01 5.092905130331626395e-01 1.787084830976322536e+00 5.122472551284804609e-01 4.585416770672253728e-01 1.233902176364903625e+00 -5.299960132675542168e-02 5.491537047103367541e-01 -1.681337483146805312e-01 -9.365501787324357341e-01 -1.755826752324348150e-01 7.801784740904832427e-01 5.385471093432613321e-01 5.666689676001385179e-01 -3.342903543208018413e-01 5.217770427445830306e-01 2.088355630367226545e-02 -3.509463175678868563e-01 4.655314433998626877e-01 5.139755819647869872e-01 5.153876970695158155e-01 5.679563045008827471e-01 5.634350690518389326e-01 9.020932845879593431e-01 -3.828939533121533678e-01 5.092369062796701096e-01 5.698822945767959558e-01 6.259969195392351970e-01 1.158637221501108483e+00 5.149330741805382416e-01 6.139685934517014054e-01 5.086185777599180335e-01 2.572664875064940848e-02 -2.801145336755905824e-01 5.201110794540619864e-01 5.023112100257229873e-01 6.634299788983806234e-01 5.248862776644880324e-01 3.358837112374240541e-01 5.091851531184446999e-01 5.096264845529173693e-01 3.389665230322834177e-01 5.106838183664649256e-01 8.372967748291278989e-01 2.520304744954466880e+00 -2.362161349942817623e-01 6.675692659920188232e-01 3.376243381710978819e-01 2.210591007922967088e-01 6.839684454313430528e-01 -5.681499109451636914e-02 -1.486741127519206174e+00 5.171488254899367920e-01 2.581067319291711293e+00 5.003982213145032887e-01 1.471313765468611201e-01 1.798009296468317253e-01 5.095005027184742463e-01 5.600711159852800325e-01 1.537803187041688835e+00 4.874218944542341725e-01 1.257008750977140488e-01 4.434709391048944904e-01 1.665928793006799191e+00 5.747683129249512302e-01 7.159537777016301563e-01 5.378606740158634603e-01 7.418214888783760674e-01 4.536453587387845876e-01 5.613132672507344934e-01 1.112587491178787177e-02 5.116595032824803324e-01 5.298030517543252937e-01 -5.636186359799717494e-01 -3.397158876095261737e-02 1.168714259350851048e+00 2.350721367992307242e-01 4.919283722707051831e-01 6.754120827119318715e-01 5.470706172579398174e-01 1.987224697722689282e+00 7.057962631668053266e-01 2.908489022203742530e-02 2.638759899325842095e-01 4.046409785756049371e-01 1.096466332580080971e+00 5.381714638213056512e-01 -2.183254185952859458e-02 5.074761574313861878e-01 -2.309699745318102848e-02 5.174731057886736707e-01 5.110201471315936050e-01 8.336161184178630598e-03 -6.920141500254270439e-02 6.658693676804510186e-01 6.219590100488547879e-01 5.295175074514903990e-01 3.005184851282802216e-01 5.161175898644597693e-01 4.835805434046703821e-01 5.682588985138768978e-01 5.532557183543753698e-01 4.814083832576654953e-01 6.376332561446409475e-01 1.013282612588821019e+00 3.085309424997721539e+00 8.965541468517164159e-01 5.203171672279649496e-01 6.517322971928941611e-01 2.110953204795543159e-01 5.089885741719628598e-01 8.360517641132814148e-01 4.841721500995531113e-01 1.315919794932787878e+00 4.866247731209872307e-01 -5.643043561894959259e-01 -1.214272110099783378e-02 4.144288829756419545e-01 6.110289470451427674e-01 5.270603317542433830e-01 5.135884640834803561e-01 2.792354477885270782e-03 5.265109600558190994e-01 3.925066466142067556e-01 -3.557940701309669329e+00 4.888549904057484241e-01 5.217890153670786679e-01 1.118158086800604245e+00 5.157952636369264043e-01 5.882557728888387905e-01 6.799850316242915804e-01 -8.620169970928405201e-01 -5.065512161653249468e-01 5.410103952317492360e-02 5.105460809929617261e-01 4.096577921182704141e-01 2.246941446490790251e-01 4.881398261855574017e-01 -3.306095577088912774e-01 6.493957304216744220e-01 5.402888232049334327e-01 6.934660629432117807e-01 5.356147526123262725e-01 4.765784034212886544e-01 1.649449826188097712e-01 -7.311973202509892689e-01 6.500435023745452234e-01 5.104078332711964316e-01 1.660603822769088078e-01 5.121509069459726504e-01 5.868515442043522601e-01 4.976918128856280821e-01 6.695688882620549620e-01 5.668763763388495747e-01 5.372251987548565255e-01 4.980287356224674666e-01 1.751815447613222609e+00 3.710094097546387526e-01 5.516714808751490562e-01 -1.059435774141771758e-01 5.404131277505531683e-01 6.197376082666030683e-01 5.130210669297199377e-01 5.016878326303070290e-01 3.475412017434540424e-01 9.009718022234288748e-01 1.179441054158887559e+00 5.576085160465130697e-01 5.582032487172043922e-01 5.952946672590280208e-01 4.629319147866607920e-01 5.174274454327330020e-01 5.123826780900508915e-01 9.926801552366281145e-01 7.303911764849659871e-01 -4.484327996315420894e-01 4.441177785953565049e-01 9.195562563990996585e-01 4.890058997695948539e-01 -2.504560893314463060e-03 5.266409178428885784e-01 1.200202751494823250e+00 -1.382680192234795324e-01 5.439624448135775836e-01 2.520526818838517702e-01 5.463170227844975635e-01 8.108981195992606139e-01 5.164740461237677938e-01 3.667456538653022791e-01 1.390197207259078249e+00 5.070152561998523266e-01 5.227422568643487200e-01 -6.161060111918268412e-01 4.602708822129439881e-01 1.043919880707497194e+00 5.855765375801127437e-01 1.034539829549575157e-01 9.467156292191339917e-01 -6.188051456909742648e-02 5.603367949979018992e-01 1.587017866047994774e+00 -8.497496159909144753e-01 5.347258535332914953e-01 5.110767746795836786e-01 -4.362410071490274155e-01 3.341190633641740182e-01 5.686411910308816209e-01 4.665156334284841777e-01 5.298064468338015143e-01 3.508470155814943370e-01 2.640689446233249194e-01 3.466793872813240807e-01 5.357463196913283543e-01 5.111537572862514534e-01 4.251207380576278727e-03 -6.167932120235530835e-02 4.989379613988093598e-01 1.058660617187858533e+00 4.023199218796349452e-01 -5.631823167204602631e-01 5.608987516919194949e-01 5.069897988618565776e-01 4.821067862013677097e-01 2.775973264553090528e-02 3.411801368478585283e-01 5.104481182023559160e-01 5.049893763250693501e-01 4.550527145563001974e-01 4.486247282201867581e-02 4.448357690611178250e-01 5.054585657000111310e-01 6.579831691726466536e-01 2.065426260892600396e+00 2.400705418757937207e-02 3.816830703329972541e-01 4.701564569862556886e-01 1.810187441281061682e+00 5.503425714272299762e-01 4.831496182545503282e-01 1.415260845996587670e-02 5.390608745854821304e-01 5.207925918041260704e-01 4.707183420617419012e-01 3.809910575947790257e-01 5.224578886689636992e-01 5.733828558027699307e-01 5.492648151418829672e-01 -5.068689580777716586e-01 5.145937445153901946e-01 5.190820875520073541e-01 4.985418031995211274e-01 9.744645488611555217e-01 5.061068103393258077e-01 -2.394426704403262718e-01 1.046149165134536707e+00 -1.221961817760369273e+00 -5.040274809516708254e-01 5.147949726240639290e-01 5.127586474912985137e-01 6.481128407095856359e-01 5.243899819626243186e-01 3.661727588193024463e-01 6.229377919624513593e-01 5.390608754912000755e-01 5.117377317390056080e-01 5.953991418358028920e-01 5.743992756578598646e-01 5.104353901043902075e-01 2.834546751905793194e-01 4.928744202346677095e-01 4.540517036301966458e-01 3.636368719714234143e-01 5.064038522502132267e-01 5.083379215738750290e-01 5.465947277609051191e-01 6.357053609508348524e-01 5.144071211966481094e-01 6.566148523760835243e-01 4.762377354998625911e-01 5.088068945968902135e-01 5.462635427246553821e-01 3.354516447782804889e-01 4.465890006902460962e-01 2.364986039613600433e+00 5.645120673388536181e-01 5.656435619048679753e-01 3.219200809333919167e-01 5.801156781460148348e-01 1.105211436678254389e+00 5.559559452204332342e-01 7.136556950569855617e-01 5.139950433255217055e-01
6.816730403547006656e-01 2.533487645558238910e-01 4.097417533160199743e-01 4.103424369406357547e-02 3.199521735145085533e-01 2.964375882610242319e-01 5.272237766645874180e-01 4.520182357721717614e-01 2.179919762848752662e-01 3.384395163043775190e-01 2.026010581525662602e+00 1.696818155521280014e+00 -1.414905866484272190e+00 6.232481472170070536e-01 3.152936672768641979e-01 3.912167900346219529e-01 1.284874562340178328e-01 4.232079691349261985e-01 4.477685015858340334e-01 3.155396356871521535e-01 4.725388210864057137e-01 2.081485620439310402e+00 4.012640362516715076e-01 3.677821781895850850e-01 7.077352515915714681e-01 -2.574069418764313166e-01 4.659806944818552510e-01 2.531230175132202498e-01 2.838185141438596126e-01 -8.390720811710817850e-01 2.382389957135334635e-01 -1.026981139315504693e-01 2.893558851940031262e-01 2.529167635650326762e-01 -4.284991214070619225e-01 4.307794061058512480e-01 3.061530018619820215e-01 -3.279677762664454099e-01 -3.174930974720359789e+00 3.116182628974771829e-01 1.112067011368859104e+00 1.390691124768866083e-01 -1.634284506506671342e-01 7.915063123021570668e-01 6.504415149109421534e-01 2.785952963759789069e-01 4.139955548438847138e-02 3.013640012866590223e-01 2.655658226122002974e-01 7.088858005227629544e-01 6.902585447175639821e-01 4.545992775666194419e-01 -2.739455434254103872e-01 1.987344870018648013e-01 6.051923889964407888e-01 6.780751764768313539e-01 3.469709698935557474e-01 2.751121914225073128e-01 3.478763759137201705e-01 3.436952375530069048e-01 4.231316353512767359e-01 3.525420984182980888e-01 3.174109465175100064e-01 4.012640546702687105e-01 -3.460633503600710759e-01 2.125201736958436394e-01 3.359835154980914673e-01 3.390786816444291696e-01 2.420907620368168978e-01 7.308263594015986797e-01 1.172083990264649600e-01 3.203039630070465549e-01 2.970255185234349504e-01 7.147436599399320523e-01 1.892105448012717739e+00 5.124974436784878185e-01 4.669586118529027718e-01 4.788061111087557609e-01 3.142607331128747239e-01 -1.317045965627939630e+00 2.906009779730332476e-01 6.387348763875730917e-01 2.255444865701976109e+00 1.246129194848111521e-01 2.828104077755813628e-01 -4.267489315703084651e-01 1.203972664713895691e-01 2.808188603977233022e-01 -5.696307856596304342e-01 -8.647278646071955288e-01 6.501723358170858891e-01 1.545995588823807498e+00 1.020868846708484351e-01 7.050250026546054372e-01 2.908551696071420278e-01 3.019722600324208917e-01 2.752336492013465197e-01 7.263366994852897829e-01 7.388514789293457730e-01 -2.603240301089730924e-01 -1.658205035391273896e-01 5.624248738879050746e-02 2.853037890753113981e-01 2.167091153893418720e-01 1.265917811330341189e-02 3.043064593090280656e+00 -2.778407174662116397e-01 7.660452797655709078e-02 1.962281421806194859e-01 8.068645978357967818e-01 2.301929073507547885e-01 4.071141999285458613e-01 1.702104028661571011e-01 4.763443657305285184e-01 -4.932274582663408458e-01 2.038055260872254915e-01 3.215852203944400967e-01 3.922393987952149663e-01 9.700035419885965071e-01 3.245100574296518881e-01 -1.428644062279957883e+00 2.624311496072850303e-01 2.152937098361742130e-01 1.298720006920925041e+00 2.979519414372530095e-01 2.132882677111470393e+00 1.768832519515728119e-01 3.780172620344852685e-01 2.930444123636914977e-01 3.291474107004441763e-01 2.588018170500281379e-01 3.204685409945487451e-01 6.724493350557592120e-01 4.027665846852593323e-01 1.834546541556547616e-01 8.816924799304213245e-01 6.957369632251864111e-01 7.253270348286998681e-01 -3.282925966116708727e-01 1.976122405105544266e-01 3.415672400095379202e-01 3.213458598436039204e-01 2.367589549800679649e-01 3.220739320504260594e-01 3.042705498425328781e-01 6.947705610992492842e-01 -1.159583361683880071e-01 3.184949105116713919e-01 4.490555049023279288e-01 3.949657525550785975e-01 -2.837117381011720063e-01 2.039717145981608665e-02 2.785984085253649378e-01 2.771372158259839957e-01 3.662821816614751369e-01 3.165505576131789067e-01 -2.237002790633445315e+00 4.448040982566801582e-01 -5.838721630257740491e-01 -2.590139023349364300e-01 3.503596985542464237e-01 1.984189029242737767e-01 3.337983158043812404e-01 3.121361028703821816e-01 1.085123227202410418e-01 5.918907636913003228e-02 3.139746093199594079e-01 4.039766364133862697e-01 2.610717677694199823e-01 3.670713329417433224e-01 1.851477989505244670e-01 4.282610959643075310e-02 2.786135067126944698e-01 3.152178252224309696e-01 -2.461010587200040955e+00 7.175623092816592052e-01 6.345786525922790799e-01 9.810770799610629700e-01 -4.521989082557710815e-01 1.168149999236689718e+00 -2.050948218808055709e-02 3.318540082757518439e-01 1.226174535873841176e+00 2.586401311898059441e-01 3.037116917630823809e-01 2.581011006085025539e-01 2.696062869429581288e-01 2.993328421886670143e-01 -4.566439003291599685e-01 3.636094527105004359e-01 2.046602670985323835e-01 8.018142461059190040e-01 3.030806384012920685e-01 2.255802728574931859e-01 2.219838852085234959e-01 3.131878587444971163e-01 -1.609912814668122749e+00 3.067905587069170159e-01 1.890920738469528406e-01 3.501613819282586859e-01 1.187928190436204345e-01 2.888298596915699901e-01 3.761873728421465946e-01 1.276996523233172309e-01 -8.031264246999577638e-01 1.890920450482502790e-01 4.483098230270146645e-01 -5.025301254977114773e-01 3.426769829764432784e-01 1.537827691998134849e-01 2.654560194999239786e-01 -3.180349376743898837e+00 4.358829167082515776e-01 9.376057188599073999e-01 3.156896199595413122e-01 3.248280367717190087e-01 3.200348455932786607e-01 2.997403443185739924e-01 3.062907025148759455e-01 3.143542376701555230e-01 3.207729573973338577e-01 1.851720067026765559e-01 6.571050993516794891e-01 1.435131803971983755e-01 5.261602773435871683e-01 4.446965590154114967e-01 3.808618885669761700e-01 -6.329772225795576857e-01 2.233323476908580574e+00 3.785586624044349757e-01 1.226863320274713898e+00 -1.376390497684877090e+00 3.187589562180863090e-01 2.027570054917325060e-01 3.474021048612164764e-01 1.142883420482727619e+00 4.756506787033462635e-01 7.904787377362807455e-01 2.779901536838411680e-01 6.704842557336971876e-01 3.358513455344956933e-01 2.944331130494338700e-01 -1.143624880982849534e+00 3.479526406835746766e-01 3.174107216615375537e-01 4.661089283909229941e-01 9.171023945848482128e-01 -3.367835163609475546e-01 3.070169436411339436e+00 4.619420096969048539e-01 1.212591131703170788e+00 -9.485187369540024060e-02 3.318571665363621581e-01 4.012642248139817736e-01 3.051061479354769124e-01 2.907553110036016353e-01 3.491133671359892832e-01 -8.693091223273352597e-02 1.591367310022548109e-01 5.606097981849242906e-01 2.873150620639400854e-01 9.100942491955250901e-02 2.731588725310818422e-01 3.293827783644268647e-01 4.231316466104213525e-01 2.701218144792276177e-01 3.156558029971130441e+00 3.819418648919542525e-01 6.559562776711290732e-01 5.440469033449313319e-01 3.256818596104575914e-01 4.228562867711620488e-01 3.079584379077809908e-01 2.594275718085747306e-01 3.135516345958889728e-01 -5.023828070701297221e-01 4.758576174092830069e-01 2.855161854866675730e-01 1.153239673517301445e-01 2.403212574221971765e-01 1.510621777747541694e+00 2.309016128940428736e-01 2.785001018611161783e-01 1.976750205265313420e+00 4.904768996622300148e-01 3.451798828541364217e-01 2.742767070415990105e-01 2.870867904872133058e-01 2.038055237327009439e-01 -2.040943675973621918e+00 2.842904146095920348e-01 1.466302631638610743e+00 8.106914114543431818e-03 2.417123568695447866e-01 7.141669914660820906e-01 2.523463935877945929e-01 -7.107973836476978446e-01 4.409182678185999404e-01 3.056743502155475078e-01 4.490904442452529621e-01 -3.766275049562359811e-01 3.094203219996630172e-01 -2.111693404476223446e+00 4.250741799718046193e-02 3.196317229822704387e-01 6.069734435556475294e-01 3.179986539202357965e-01 3.088005988673518387e-01 4.476373099470242201e-01 2.212005657524073188e-01 -1.257198710514288165e-01 -7.507401750542556096e-01 6.038397488796237028e-03 6.803821437534417482e-01 3.037421417622231390e-01 4.825935427017543633e-01 3.143103678079147700e-01 4.205359412771285388e-02 3.107974105446966728e-01 2.396228898998918666e+00 6.956261954032333383e-01 2.465168717513252228e-01 -1.129365308869994644e+00 2.199745699174337488e-01 4.567207562552599853e+00 3.207450668480275602e-01 -1.069758171100528704e-01 5.681896810665865161e-01 -5.456464188688613604e+00 4.998293840444058556e-01 1.512103646105684263e+00 3.118816230843645676e-01 5.425383126430201042e-01 -4.314359093302000958e-01 3.614879275516009738e-01 3.245718312967686425e-01 3.329703486372728727e-01 2.541502138498116237e-01 2.857817772064052519e+00 -3.613172623195620159e-01 2.641305466365870269e-01 -1.889460530429929452e+00 2.950812988577274365e-01 -3.279677806316841360e-01 7.388654610864193728e-01 5.538520753053358670e-01 3.503755125970549056e-01 3.391942521629418561e-01 1.286986783455515759e+00 1.351240553539709843e-01 1.890919094660290234e-01 3.479571645335105545e-01 1.276996511185066741e-01 2.513268529822080821e-01 3.982344207723759189e-01 -5.967178566738055023e-01 3.157680045242611810e-01 5.329664460799961034e-01 3.679884927656344451e-01 1.708628316482780074e-01 3.195676071319470957e-01 4.454652876980669252e-01 5.538520974297388433e-01 3.582341266574495253e-01 3.164428178355103705e-01 2.058721973125966775e-01 4.548745136205639139e-01 3.304984781698844465e+00 3.195379737086868621e-01 1.689405084559530423e-01 4.231322024929907721e-01 8.548309067626386204e-01 4.630227205858495898e-01 -1.899198607569153041e-01 6.924300550432940238e-01 2.348665699724755695e-01 1.121046591881372512e-01 3.882641694994544701e-01 6.505981427156840580e-01 6.601885578557816769e-01 7.713496109778953391e-01 8.060037819277221516e-01 3.861081448104187741e-01 1.276996522202836770e-01 1.276996595432021708e-01 3.431193545172325221e-01 1.110150377701904917e-01 1.120054402445059383e+00 4.150087960234506435e-01 3.255840730029537777e-01 3.785860308199760493e-01 3.174599521404951052e-01 7.860926271852570757e-01 1.890920709111036657e-01 3.174913267181356802e-01 4.374639392565480844e-01 3.040435457412928866e-01 -6.291964788660208141e-01 3.083760414021538554e-01 3.188832079555146692e-01 3.584100970589316759e-01 7.037800303827302928e-01 7.449556561748511552e-01 1.276996512351396829e-01 4.031668958821518767e-02 3.141870932770340907e-01 4.235096968550864371e-01 -5.889717484837956318e-01 2.145313622060165126e-01 -3.434996184582989276e+00 1.897506189711611224e+00 6.225878794972103947e-01 -4.368395168626096337e-01 4.091494853543427290e-02 2.020479050396002396e+00 3.189576377576489596e-01 6.297647036318286817e-01 5.326138074986981608e-02 2.860233710749701119e-01 4.592577193963397475e-01 3.198180507919903826e-01 -4.089767617545785328e-01 2.557205965157259286e-01 2.019935365819981676e+00 3.504279649238881689e-01 -3.929188030605197945e-01 2.664405431694366611e-01 3.012137356462452065e-01 -1.439522078553987949e+00 2.875420103879794964e-01 3.158189509209866630e-01 4.026813797452359345e-01 2.212446603163930325e-01 3.117774037074128590e-01 2.369401261660651348e-01 3.166044388116617814e-01 -1.600059194685114483e-01 3.197157315948256362e-01 1.434823937957848405e-01 3.392357942929071779e-01 2.691102586788557960e-01 2.720825003306772544e-02 4.457074778641016422e-01 6.275359957702131286e-01 -1.347770783824707941e+00 -4.836069631891422027e-01 -1.039479694968425405e-01 4.658833119549796176e-02 3.119063841870704512e-01 4.240942869271763782e-01 3.624688659323532236e-01 7.197056260625879220e-01 -9.809943503605353388e-02 3.293029254897110181e-01 2.959798700210394262e-01 9.172791709090399870e-02 -1.601584931665425149e-01 3.248576595987630600e-01 4.335331886838947879e-01 4.785743334089117562e-01 2.997090929624081634e-01 2.802103451533602407e-01 3.209214414066265952e-01 2.610713564319769309e-01 3.265036609459597838e-01 5.149341252685515347e-01 4.306720319797897600e-01 3.129128237017306802e-01 6.924723869779501051e-01 3.041082568015461285e-01 7.149375007186016262e-01 1.065953861056439661e-01 4.817777342135183272e-01 2.157254917699648888e-01 -1.429203045811158201e+00 2.981176099604109231e-01 6.420410396546166742e-01 3.906350735853127421e-01 2.556435353655796550e-01 2.887463816216430113e-01 2.916120030335707658e-01 7.030402249806538828e-01 3.215945702539131368e-01 3.624499989077401008e-01 3.142740869099566181e-01 2.941650886856960745e-01 2.214303551024306982e-01 5.266715883841315282e-01 2.923777451657954551e-01 2.743934347038868848e-01 2.008573963287740294e-01 3.938322411998945033e-02 1.604553513537166909e+00 3.248062333435747240e-01 3.743706552889647932e-01 3.727167044484070990e-01 -8.190208367723762484e-01 4.346677655193605938e-01 3.435339989255863369e-01 5.262679818790616526e-01 8.664714751412953136e-03 3.334157866759510647e-01 1.492889003407678716e+00 8.852337113566942639e-01 3.882460338249696941e-01 2.608835143343948837e-01 3.907435476326571733e-01 3.219860418912632860e-01 9.069866657979737123e-01 2.976784639119387954e+00 3.158008564397200568e-01 6.122645020857553355e-02 5.958156971331232121e-01 -1.622906461145685875e-01 3.119339799664738733e-01 3.057183457708008145e-01 1.051339457302956415e+00 3.284911919902162025e-01 -3.051037431530954080e-01 3.686324689205738858e-01 1.137236401135928027e-01 6.627754747031920912e-01 1.676430018812244738e+00 3.773284560227408435e-01 2.358624830811059947e-01 1.641981414852509813e+00 4.149563658077375372e-01 2.907679009393219216e-01 2.746533981849698658e-01 3.586213768456683604e-01 4.158169131251642642e-02 4.326841025448977529e-01 2.344564605364960197e-01 7.210591469360931871e-01 2.962011059255710288e-01 3.366640817333919622e-01 2.984686212186328791e-01 4.604217123374572118e-01 2.680857056025506280e-01 2.520108384502309229e-01 9.238951005177322706e-01 5.007500683377659190e-01 3.864795838541519313e-01 2.885886708758745312e-01 3.139893107490747681e-01 3.192500736989329346e-01 5.827035533879382223e-01 7.641581200993801115e-01 3.152319610526477245e-01 2.754975836522012833e-01 4.064770951250771258e-01 3.137948989866495841e-01 7.445203149970186507e-01 2.078728728284432448e-01 4.367959509855692257e-01 -3.172972038064840739e-01 3.147947994103784675e-01 2.386459997684558243e-01 4.054779571294134799e-01 3.527728770534113711e-01 2.260853315364622362e-01 1.740881610150949221e+00 1.383823013099619303e-01 2.831897582244357059e-01 -1.445867529472286417e-01 1.594105275692806467e+00 1.136078793704371925e+00 7.617241214542172512e-02 -4.637971476691687411e-01 3.393315903821380597e-01 3.466928494866549082e-01 5.149241633072259017e-01 3.162004003001536723e-01 3.079122716236691870e-01 1.979754558302283807e-01 3.360347039438290606e-01 3.646578651855801323e-01 4.099039327758363660e-02 -1.695270546752176144e-01 3.862205553977577921e-01 3.644432265928452819e-01 1.923782836106163741e-01 8.550708196837496500e-01 4.231316394567714023e-01 2.196789493600979082e-01 8.215756943477341423e-01 4.762926775325755369e-01 6.501667033332516610e-01 4.317043577143506172e-01 6.847001021003884524e-01 1.456649630378355154e+00 3.059133976671306598e-01 2.031177707718121006e+00 -1.383357261370985608e-02 1.325697054787432494e-01 3.174097207732297643e-01 2.871646014143027226e-01 3.159725289149222793e-01 3.670736705491056129e-01 3.300317845380419945e-01 3.166560168127509067e-01 3.525291568923840657e-01 1.809710448322990883e-01 -2.771292375626948079e-01 2.883960591702769971e-01 -7.777538329314320764e-02 2.611703863040999996e-01 4.491569897854250648e-01 4.231316394116754198e-01 1.973576393095048676e-01 2.398335633184877358e-01 -1.182076611019160950e+00 1.920861837501745661e+00 3.112882125619343410e-01 -6.885792451560284189e-01 2.980432938006772337e-01 3.148121064804300651e-01 3.143665517018730537e-01 -4.658554788227679211e+00 3.459054084055748213e+00 6.178635291886807046e-01 1.111487721789579247e-01 3.338404400183599963e-01 3.094871658941276693e-01 3.254647578392284579e-01 2.561307847182336506e+00 6.135022501098029712e-01 3.206343049689772684e-01 2.038055148973922648e-01 2.411713105880323171e-01 2.831252186404704108e-01 8.753786959415754687e-01 -3.793053842011867571e-01 -1.133209985784300100e+00 -1.180646584370169450e+00 3.181380802561751819e-01 3.095533911365656587e-01 7.027499894061652874e-01 3.332872373622343676e-01 1.261439034847214646e+00 4.606899515745445650e-01 3.116035274945292977e-01 2.985304364318744352e-01 2.999483428819462727e-01 2.701583670969229800e-01 2.635638084171733619e-01 6.528144693627115913e-01 2.824374445188871374e-01 6.365981607612982707e-01 2.146154121673241877e-01 1.955433033983556765e-02 2.636221629706106961e-01 2.125806906282224629e-01 3.338885855910054823e-01 3.512440563413940509e-01 7.053686717842827525e-01 5.538520942970652783e-01 4.795319249075149504e-01 3.927681732456712593e-01 3.194404051392919497e-01 2.535299128662122925e-01 1.492903897235160926e+00 1.817220088963614089e+00 2.625342008276629890e-01 3.406341324853296437e-01 3.036085503247098472e-01 1.788647189427552964e-01 2.392574250974467964e-01 1.964941069556247755e-01 3.427226256853592723e-01 3.200254648410094660e-01 7.869375649632701641e-01 8.624208071813507237e-01 2.538396046616450130e-01 1.829181936223137628e+00 1.814679770756995325e-01 -1.441987018348429017e-01 -2.705677419455941313e-01 -3.245697001722268604e-01 3.147959223810003482e-01 2.841041304556011227e-01 7.042562250728303663e-01 3.240140347205498483e-01 4.505441646167350767e-01 3.061445937135748308e-01 3.790264432238796832e-01 4.071667410339782633e-01 5.074184847247993624e-02 1.022905392334944263e+00 3.047312096630089284e-01 4.916677157644795404e-01 3.084719729308989522e-01 3.637595007583047657e-01 3.003060159861513645e-01 3.861503098776279952e-01 -1.212647934169092251e-01 2.235906718840187657e-01 3.007863803998228613e-01 4.139537047035244527e-02 4.231313663468967978e-01 1.120859380262964278e+00 9.406198108003925862e-01 -7.393006318070590721e-01 -3.279677762874407820e-01 6.389610152825279110e-01 -3.242595903519537082e+00 1.551102834522873453e+00 2.790006976974039876e-01 4.054891164678799120e-02 3.130369010564713617e-01 8.667392060145905353e-01 3.129618511875787434e-01 3.479530067706447793e-01 -4.353312689204064112e-01 8.293748746744816769e-01 2.627728812831918725e-01 8.885601709083535971e-01 2.052736898518666031e+00 -3.794602168503750095e-01 -1.423379097999122100e+00 2.893826867621774879e-01 2.470145336747869846e-01 7.804590504495277914e-01 3.014446854812272147e-01 6.986614676056999151e-01 4.689805465628325565e-01 1.413195383673480632e-01 3.054579817161091060e-01 3.469615544303358279e-01 2.191732607638376129e-01 3.616506170196641667e-01 1.371445007775679015e+00 1.578829160676903598e+00 3.197714293861786405e-01 2.527028099427729990e-01 2.516069523722833101e-02 -2.336782539287093619e-01 1.977711113199699111e-01 1.950821594618542057e-02 3.215665402037364284e-01 7.041632722766911767e-01 -4.102480043528667353e-01 2.992821786085702596e-01 3.453317592178958284e-01 1.591762067548607995e-01 3.076737444311958836e-01 2.779951642025434988e-01 3.209884343679243468e-01 3.112544875380124920e-01 -3.094489773697600352e-02 2.456780724822892892e-01 4.422095240022108076e-01 1.099561783050145403e+00 1.095644493813413556e+00 9.400476825501357103e-01 1.956633779876372492e-01 7.652191276183772928e-01 1.209419789250120031e-01 4.525927504935448598e-01 -2.045805400156066156e+00 2.859807867302910367e-01 6.493990026643147173e-01 2.747713684199323270e-01 9.585848996319619175e-01 1.351709738618998680e+00 2.038055250905886906e-01 2.982090817734789345e-01 3.718215646862711998e-01 2.183115970416461549e-01 5.571132790980998228e-01 7.954256753279705938e-01 -7.415724596707669036e-01 1.441188988565781093e-01 1.330507155870331859e-01 3.007004113176988125e-01 3.438841514604189520e-01 7.687272617928636587e-01 -1.488452807093458841e-01 3.861846978480515391e-01 3.141087597541324383e-01 2.635359080580833013e-01 8.856270788433560082e-01 4.211210789163677970e-01 -2.025691746283102557e-01 8.593358995054841687e-01 -4.359926825996057742e-02 5.727229603116432699e-01 2.843050411286064394e-01 1.270760974392221243e+00 5.385430218045145212e-01 7.190028118927476175e-01 4.352949132148394296e-01 4.774096336238732863e-01 -5.086442884432740286e-01 2.930498305912710988e-01 7.632897131537519364e-01 3.036508762120519456e-01 6.468640929621685132e-01 3.360703658138591843e-01 3.154011632639713847e-01 7.326740619022976686e-01 1.208906982145723924e-01 -2.011048761704349985e+00 3.000118898431193837e-01 2.788527779469370249e-01 7.295960559949369317e-01 3.910942198058861008e-01 3.924039195411412884e-01 2.547553670119924174e-01 2.410055425542910745e-01 3.620860050589628787e-01 2.361520037174716369e-02 -1.604578626649526774e+00 7.417426131448001669e-01 2.664099126422054264e-01 3.034999981822176784e-01 1.868274682677028009e-01 8.240315787937466663e-01 3.138014685430660644e-01 -1.268849961258375625e-01 3.127337949210712842e-01 1.113214383870485102e+00 3.091657214215162708e-01 4.144054499589701068e-01 1.066008927087094715e+00 3.137263563373859365e-01 2.697518392282283628e+00 2.773675105436361199e-01 3.119487543353766101e-01 6.888989162035457081e-01 3.173812778597874251e-01 2.857697077918959216e-01 -2.006765910939683817e+00 3.719579986450033404e-01 2.981684546442624484e-01 5.115024927493548867e-01 2.974184980682182955e-01 3.264615358284970181e-01 -2.522740933023328025e-01 2.012545126390895334e+00 -5.205075617293903889e-01 8.273851595095887967e-01 3.132815276515491520e-01 3.884943389781889134e-01 7.517196325746330343e-01 3.514387342482324095e-01 1.312313268998415383e+00 1.578032792454840960e-01 2.966687373528806293e-01 -8.766484708193839070e-01 -1.274724852428049948e-01 -2.546303111598878233e-01 -3.798838848955084391e+00 2.884881910479793810e+00 7.866668421328604222e-02 3.048014229871482406e-01 -1.576436758758446244e+00 3.145148324097042369e-01 1.956941602562405347e-01 3.406426747182828563e-01 1.342333040236821928e-01 6.372419564043957374e-01 5.910353378722208451e-01 9.773361258239168237e-01 -3.279677764089485303e-01 -2.114968444789743773e-01 2.085189312033554343e-01 -1.170504840004293445e+00 2.821965331830402768e-01 -6.273502029006262637e-01 3.428780629290510418e-01 4.819143943621809201e-01 4.067485174222405103e-02 4.157662783139977059e-01 2.739405179268262769e-01 -1.095917943519564980e-01 2.039972010848406514e-01 3.047708848298367190e-01 3.480006169824898521e-01 3.146155886908850174e-01 3.112948203901855226e-01 -7.390723428770364922e-01 5.782314065234755995e-01 1.524193383644551369e+00 5.402689614377211708e-02 2.424204708042667356e-01 4.136541145681893461e-01 1.214916440212051363e+00 2.927248465134992816e-01 1.635135509198006043e-01 8.974390706053815281e-01 3.289415353855794089e-01 1.824519838528173343e+00 3.931713010130981623e-01 1.174582310641121730e+00 3.071940729127923264e-01 7.369122764700414274e-01 1.339995481240237263e+00 2.913968156927644326e-01 4.016769834401977546e-01 9.030859119706478033e-01 -1.845064741134690989e-01 -4.773579622198733524e-02 1.505606366580093114e-01 2.951466267050834591e-01 3.437545033814645157e-01 1.412053465541494024e-01 2.489993513749026721e-01 -3.454656287598967812e-01 1.292472309576385259e+00 2.624990041910380545e-01 3.147832896829987903e-01 -3.079634298140404791e+00 4.782736899682545895e-01 3.819764945907200837e-01 4.670630680325126849e-01 4.370443781695433350e-01 5.053087532617707156e-01 -1.031925278588469386e+00 5.900814434696431965e-01 2.644211808390971030e-01 3.121476951304983927e-01 1.045579028133064581e+00 4.430096948765959719e-01 3.320212785284514800e-01 -1.378433062436933643e+00 4.583550812167855315e-01 8.857650897518906108e-01 2.979500007216850932e-01 3.182554383607983373e-01 3.080454878010521202e-01 6.950344370525181059e-01 -8.615587058974524814e-02 3.187626854634015294e-01 3.302130852202114220e-01 6.731840535753240429e-02 7.112619475628562116e-01 3.606166934161897375e-01 7.408967610567324114e-01 1.772169469765790817e-01 6.840393239946210846e-01 -2.047475158237711257e-01 -1.499511232332342958e+00 3.490609865901692088e-01 -1.429838553231842918e-02 3.047443130619649776e-01 3.119811587973874145e-01 5.640049578468120384e-02 5.538520913112748856e-01 3.050248752716068767e-01 8.799088011634317863e-02 4.584886613442908376e-01 3.032901765435576658e-01 3.036607429561563043e-01 2.698997275511477723e-01 -8.005897834717534689e-01 3.103590098077569914e-01 3.474324631538869279e-01 3.226711432862323647e-01 -8.171256544406363398e-02 3.197177096535877006e-01 7.907521579583196569e-01 -4.823401709357235667e-01 1.085414313254741803e+00 6.001847138003109094e-01 3.118656735455554996e-01 3.131753265207756209e-01 -2.013684913350093364e+00 2.960246109445289764e-01 1.791515012725073408e-01 2.271201430120637355e-01 5.538521044086195388e-01 3.172070910082795958e-01 2.614704721536810772e-01 1.251782871059150815e-01 3.105725526348029897e-01 4.354421314725021031e-01 4.238205346495848569e-01 3.934964223961274210e-01 3.042320580669166108e-01 3.104740899984123059e-01 3.304065589001867198e-01 2.821958855821329881e-01 1.008705822845952678e-02 3.114380567277035272e-01 5.822367789552130857e-01 2.278598588784356282e-01 3.072799877153742365e-01 -1.183604244034481973e-01 1.238423773607394279e-01 4.849471846502911299e-01 4.319981983572636963e+00 2.658596917954120231e-01 1.414076059851261669e-01 5.135047275074863249e-01 2.215046981984370444e-01 1.526879164871960182e+00 3.181124963915874515e-01 6.625639718649934951e-01 3.184064646429869416e-01
