# 
#                 ----------------------------------------------------
#                 Data from a 3D direct N-body simulation. 
# 
#                 rows are i-particle; 
#                 coumns are :mass, tag, x ,y, z, vx, vy, vz, ax, ay, az
# 
#                 NTHU, Computational Physics 
# 
#                 ----------------------------------------------------
#                 Time = 0.0
0.000000000000000000e+00 1.000000000000000000e+00 2.000000000000000000e+00 3.000000000000000000e+00 4.000000000000000000e+00 5.000000000000000000e+00 6.000000000000000000e+00 7.000000000000000000e+00 8.000000000000000000e+00 9.000000000000000000e+00 1.000000000000000000e+01 1.100000000000000000e+01 1.200000000000000000e+01 1.300000000000000000e+01 1.400000000000000000e+01 1.500000000000000000e+01 1.600000000000000000e+01 1.700000000000000000e+01 1.800000000000000000e+01 1.900000000000000000e+01 2.000000000000000000e+01 2.100000000000000000e+01 2.200000000000000000e+01 2.300000000000000000e+01 2.400000000000000000e+01 2.500000000000000000e+01 2.600000000000000000e+01 2.700000000000000000e+01 2.800000000000000000e+01 2.900000000000000000e+01 3.000000000000000000e+01 3.100000000000000000e+01 3.200000000000000000e+01 3.300000000000000000e+01 3.400000000000000000e+01 3.500000000000000000e+01 3.600000000000000000e+01 3.700000000000000000e+01 3.800000000000000000e+01 3.900000000000000000e+01 4.000000000000000000e+01 4.100000000000000000e+01 4.200000000000000000e+01 4.300000000000000000e+01 4.400000000000000000e+01 4.500000000000000000e+01 4.600000000000000000e+01 4.700000000000000000e+01 4.800000000000000000e+01 4.900000000000000000e+01 5.000000000000000000e+01 5.100000000000000000e+01 5.200000000000000000e+01 5.300000000000000000e+01 5.400000000000000000e+01 5.500000000000000000e+01 5.600000000000000000e+01 5.700000000000000000e+01 5.800000000000000000e+01 5.900000000000000000e+01 6.000000000000000000e+01 6.100000000000000000e+01 6.200000000000000000e+01 6.300000000000000000e+01 6.400000000000000000e+01 6.500000000000000000e+01 6.600000000000000000e+01 6.700000000000000000e+01 6.800000000000000000e+01 6.900000000000000000e+01 7.000000000000000000e+01 7.100000000000000000e+01 7.200000000000000000e+01 7.300000000000000000e+01 7.400000000000000000e+01 7.500000000000000000e+01 7.600000000000000000e+01 7.700000000000000000e+01 7.800000000000000000e+01 7.900000000000000000e+01 8.000000000000000000e+01 8.100000000000000000e+01 8.200000000000000000e+01 8.300000000000000000e+01 8.400000000000000000e+01 8.500000000000000000e+01 8.600000000000000000e+01 8.700000000000000000e+01 8.800000000000000000e+01 8.900000000000000000e+01 9.000000000000000000e+01 9.100000000000000000e+01 9.200000000000000000e+01 9.300000000000000000e+01 9.400000000000000000e+01 9.500000000000000000e+01 9.600000000000000000e+01 9.700000000000000000e+01 9.800000000000000000e+01 9.900000000000000000e+01 1.000000000000000000e+02 1.010000000000000000e+02 1.020000000000000000e+02 1.030000000000000000e+02 1.040000000000000000e+02 1.050000000000000000e+02 1.060000000000000000e+02 1.070000000000000000e+02 1.080000000000000000e+02 1.090000000000000000e+02 1.100000000000000000e+02 1.110000000000000000e+02 1.120000000000000000e+02 1.130000000000000000e+02 1.140000000000000000e+02 1.150000000000000000e+02 1.160000000000000000e+02 1.170000000000000000e+02 1.180000000000000000e+02 1.190000000000000000e+02 1.200000000000000000e+02 1.210000000000000000e+02 1.220000000000000000e+02 1.230000000000000000e+02 1.240000000000000000e+02 1.250000000000000000e+02 1.260000000000000000e+02 1.270000000000000000e+02 1.280000000000000000e+02 1.290000000000000000e+02 1.300000000000000000e+02 1.310000000000000000e+02 1.320000000000000000e+02 1.330000000000000000e+02 1.340000000000000000e+02 1.350000000000000000e+02 1.360000000000000000e+02 1.370000000000000000e+02 1.380000000000000000e+02 1.390000000000000000e+02 1.400000000000000000e+02 1.410000000000000000e+02 1.420000000000000000e+02 1.430000000000000000e+02 1.440000000000000000e+02 1.450000000000000000e+02 1.460000000000000000e+02 1.470000000000000000e+02 1.480000000000000000e+02 1.490000000000000000e+02 1.500000000000000000e+02 1.510000000000000000e+02 1.520000000000000000e+02 1.530000000000000000e+02 1.540000000000000000e+02 1.550000000000000000e+02 1.560000000000000000e+02 1.570000000000000000e+02 1.580000000000000000e+02 1.590000000000000000e+02 1.600000000000000000e+02 1.610000000000000000e+02 1.620000000000000000e+02 1.630000000000000000e+02 1.640000000000000000e+02 1.650000000000000000e+02 1.660000000000000000e+02 1.670000000000000000e+02 1.680000000000000000e+02 1.690000000000000000e+02 1.700000000000000000e+02 1.710000000000000000e+02 1.720000000000000000e+02 1.730000000000000000e+02 1.740000000000000000e+02 1.750000000000000000e+02 1.760000000000000000e+02 1.770000000000000000e+02 1.780000000000000000e+02 1.790000000000000000e+02 1.800000000000000000e+02 1.810000000000000000e+02 1.820000000000000000e+02 1.830000000000000000e+02 1.840000000000000000e+02 1.850000000000000000e+02 1.860000000000000000e+02 1.870000000000000000e+02 1.880000000000000000e+02 1.890000000000000000e+02 1.900000000000000000e+02 1.910000000000000000e+02 1.920000000000000000e+02 1.930000000000000000e+02 1.940000000000000000e+02 1.950000000000000000e+02 1.960000000000000000e+02 1.970000000000000000e+02 1.980000000000000000e+02 1.990000000000000000e+02 2.000000000000000000e+02 2.010000000000000000e+02 2.020000000000000000e+02 2.030000000000000000e+02 2.040000000000000000e+02 2.050000000000000000e+02 2.060000000000000000e+02 2.070000000000000000e+02 2.080000000000000000e+02 2.090000000000000000e+02 2.100000000000000000e+02 2.110000000000000000e+02 2.120000000000000000e+02 2.130000000000000000e+02 2.140000000000000000e+02 2.150000000000000000e+02 2.160000000000000000e+02 2.170000000000000000e+02 2.180000000000000000e+02 2.190000000000000000e+02 2.200000000000000000e+02 2.210000000000000000e+02 2.220000000000000000e+02 2.230000000000000000e+02 2.240000000000000000e+02 2.250000000000000000e+02 2.260000000000000000e+02 2.270000000000000000e+02 2.280000000000000000e+02 2.290000000000000000e+02 2.300000000000000000e+02 2.310000000000000000e+02 2.320000000000000000e+02 2.330000000000000000e+02 2.340000000000000000e+02 2.350000000000000000e+02 2.360000000000000000e+02 2.370000000000000000e+02 2.380000000000000000e+02 2.390000000000000000e+02 2.400000000000000000e+02 2.410000000000000000e+02 2.420000000000000000e+02 2.430000000000000000e+02 2.440000000000000000e+02 2.450000000000000000e+02 2.460000000000000000e+02 2.470000000000000000e+02 2.480000000000000000e+02 2.490000000000000000e+02 2.500000000000000000e+02 2.510000000000000000e+02 2.520000000000000000e+02 2.530000000000000000e+02 2.540000000000000000e+02 2.550000000000000000e+02 2.560000000000000000e+02 2.570000000000000000e+02 2.580000000000000000e+02 2.590000000000000000e+02 2.600000000000000000e+02 2.610000000000000000e+02 2.620000000000000000e+02 2.630000000000000000e+02 2.640000000000000000e+02 2.650000000000000000e+02 2.660000000000000000e+02 2.670000000000000000e+02 2.680000000000000000e+02 2.690000000000000000e+02 2.700000000000000000e+02 2.710000000000000000e+02 2.720000000000000000e+02 2.730000000000000000e+02 2.740000000000000000e+02 2.750000000000000000e+02 2.760000000000000000e+02 2.770000000000000000e+02 2.780000000000000000e+02 2.790000000000000000e+02 2.800000000000000000e+02 2.810000000000000000e+02 2.820000000000000000e+02 2.830000000000000000e+02 2.840000000000000000e+02 2.850000000000000000e+02 2.860000000000000000e+02 2.870000000000000000e+02 2.880000000000000000e+02 2.890000000000000000e+02 2.900000000000000000e+02 2.910000000000000000e+02 2.920000000000000000e+02 2.930000000000000000e+02 2.940000000000000000e+02 2.950000000000000000e+02 2.960000000000000000e+02 2.970000000000000000e+02 2.980000000000000000e+02 2.990000000000000000e+02 3.000000000000000000e+02 3.010000000000000000e+02 3.020000000000000000e+02 3.030000000000000000e+02 3.040000000000000000e+02 3.050000000000000000e+02 3.060000000000000000e+02 3.070000000000000000e+02 3.080000000000000000e+02 3.090000000000000000e+02 3.100000000000000000e+02 3.110000000000000000e+02 3.120000000000000000e+02 3.130000000000000000e+02 3.140000000000000000e+02 3.150000000000000000e+02 3.160000000000000000e+02 3.170000000000000000e+02 3.180000000000000000e+02 3.190000000000000000e+02 3.200000000000000000e+02 3.210000000000000000e+02 3.220000000000000000e+02 3.230000000000000000e+02 3.240000000000000000e+02 3.250000000000000000e+02 3.260000000000000000e+02 3.270000000000000000e+02 3.280000000000000000e+02 3.290000000000000000e+02 3.300000000000000000e+02 3.310000000000000000e+02 3.320000000000000000e+02 3.330000000000000000e+02 3.340000000000000000e+02 3.350000000000000000e+02 3.360000000000000000e+02 3.370000000000000000e+02 3.380000000000000000e+02 3.390000000000000000e+02 3.400000000000000000e+02 3.410000000000000000e+02 3.420000000000000000e+02 3.430000000000000000e+02 3.440000000000000000e+02 3.450000000000000000e+02 3.460000000000000000e+02 3.470000000000000000e+02 3.480000000000000000e+02 3.490000000000000000e+02 3.500000000000000000e+02 3.510000000000000000e+02 3.520000000000000000e+02 3.530000000000000000e+02 3.540000000000000000e+02 3.550000000000000000e+02 3.560000000000000000e+02 3.570000000000000000e+02 3.580000000000000000e+02 3.590000000000000000e+02 3.600000000000000000e+02 3.610000000000000000e+02 3.620000000000000000e+02 3.630000000000000000e+02 3.640000000000000000e+02 3.650000000000000000e+02 3.660000000000000000e+02 3.670000000000000000e+02 3.680000000000000000e+02 3.690000000000000000e+02 3.700000000000000000e+02 3.710000000000000000e+02 3.720000000000000000e+02 3.730000000000000000e+02 3.740000000000000000e+02 3.750000000000000000e+02 3.760000000000000000e+02 3.770000000000000000e+02 3.780000000000000000e+02 3.790000000000000000e+02 3.800000000000000000e+02 3.810000000000000000e+02 3.820000000000000000e+02 3.830000000000000000e+02 3.840000000000000000e+02 3.850000000000000000e+02 3.860000000000000000e+02 3.870000000000000000e+02 3.880000000000000000e+02 3.890000000000000000e+02 3.900000000000000000e+02 3.910000000000000000e+02 3.920000000000000000e+02 3.930000000000000000e+02 3.940000000000000000e+02 3.950000000000000000e+02 3.960000000000000000e+02 3.970000000000000000e+02 3.980000000000000000e+02 3.990000000000000000e+02 4.000000000000000000e+02 4.010000000000000000e+02 4.020000000000000000e+02 4.030000000000000000e+02 4.040000000000000000e+02 4.050000000000000000e+02 4.060000000000000000e+02 4.070000000000000000e+02 4.080000000000000000e+02 4.090000000000000000e+02 4.100000000000000000e+02 4.110000000000000000e+02 4.120000000000000000e+02 4.130000000000000000e+02 4.140000000000000000e+02 4.150000000000000000e+02 4.160000000000000000e+02 4.170000000000000000e+02 4.180000000000000000e+02 4.190000000000000000e+02 4.200000000000000000e+02 4.210000000000000000e+02 4.220000000000000000e+02 4.230000000000000000e+02 4.240000000000000000e+02 4.250000000000000000e+02 4.260000000000000000e+02 4.270000000000000000e+02 4.280000000000000000e+02 4.290000000000000000e+02 4.300000000000000000e+02 4.310000000000000000e+02 4.320000000000000000e+02 4.330000000000000000e+02 4.340000000000000000e+02 4.350000000000000000e+02 4.360000000000000000e+02 4.370000000000000000e+02 4.380000000000000000e+02 4.390000000000000000e+02 4.400000000000000000e+02 4.410000000000000000e+02 4.420000000000000000e+02 4.430000000000000000e+02 4.440000000000000000e+02 4.450000000000000000e+02 4.460000000000000000e+02 4.470000000000000000e+02 4.480000000000000000e+02 4.490000000000000000e+02 4.500000000000000000e+02 4.510000000000000000e+02 4.520000000000000000e+02 4.530000000000000000e+02 4.540000000000000000e+02 4.550000000000000000e+02 4.560000000000000000e+02 4.570000000000000000e+02 4.580000000000000000e+02 4.590000000000000000e+02 4.600000000000000000e+02 4.610000000000000000e+02 4.620000000000000000e+02 4.630000000000000000e+02 4.640000000000000000e+02 4.650000000000000000e+02 4.660000000000000000e+02 4.670000000000000000e+02 4.680000000000000000e+02 4.690000000000000000e+02 4.700000000000000000e+02 4.710000000000000000e+02 4.720000000000000000e+02 4.730000000000000000e+02 4.740000000000000000e+02 4.750000000000000000e+02 4.760000000000000000e+02 4.770000000000000000e+02 4.780000000000000000e+02 4.790000000000000000e+02 4.800000000000000000e+02 4.810000000000000000e+02 4.820000000000000000e+02 4.830000000000000000e+02 4.840000000000000000e+02 4.850000000000000000e+02 4.860000000000000000e+02 4.870000000000000000e+02 4.880000000000000000e+02 4.890000000000000000e+02 4.900000000000000000e+02 4.910000000000000000e+02 4.920000000000000000e+02 4.930000000000000000e+02 4.940000000000000000e+02 4.950000000000000000e+02 4.960000000000000000e+02 4.970000000000000000e+02 4.980000000000000000e+02 4.990000000000000000e+02 5.000000000000000000e+02 5.010000000000000000e+02 5.020000000000000000e+02 5.030000000000000000e+02 5.040000000000000000e+02 5.050000000000000000e+02 5.060000000000000000e+02 5.070000000000000000e+02 5.080000000000000000e+02 5.090000000000000000e+02 5.100000000000000000e+02 5.110000000000000000e+02 5.120000000000000000e+02 5.130000000000000000e+02 5.140000000000000000e+02 5.150000000000000000e+02 5.160000000000000000e+02 5.170000000000000000e+02 5.180000000000000000e+02 5.190000000000000000e+02 5.200000000000000000e+02 5.210000000000000000e+02 5.220000000000000000e+02 5.230000000000000000e+02 5.240000000000000000e+02 5.250000000000000000e+02 5.260000000000000000e+02 5.270000000000000000e+02 5.280000000000000000e+02 5.290000000000000000e+02 5.300000000000000000e+02 5.310000000000000000e+02 5.320000000000000000e+02 5.330000000000000000e+02 5.340000000000000000e+02 5.350000000000000000e+02 5.360000000000000000e+02 5.370000000000000000e+02 5.380000000000000000e+02 5.390000000000000000e+02 5.400000000000000000e+02 5.410000000000000000e+02 5.420000000000000000e+02 5.430000000000000000e+02 5.440000000000000000e+02 5.450000000000000000e+02 5.460000000000000000e+02 5.470000000000000000e+02 5.480000000000000000e+02 5.490000000000000000e+02 5.500000000000000000e+02 5.510000000000000000e+02 5.520000000000000000e+02 5.530000000000000000e+02 5.540000000000000000e+02 5.550000000000000000e+02 5.560000000000000000e+02 5.570000000000000000e+02 5.580000000000000000e+02 5.590000000000000000e+02 5.600000000000000000e+02 5.610000000000000000e+02 5.620000000000000000e+02 5.630000000000000000e+02 5.640000000000000000e+02 5.650000000000000000e+02 5.660000000000000000e+02 5.670000000000000000e+02 5.680000000000000000e+02 5.690000000000000000e+02 5.700000000000000000e+02 5.710000000000000000e+02 5.720000000000000000e+02 5.730000000000000000e+02 5.740000000000000000e+02 5.750000000000000000e+02 5.760000000000000000e+02 5.770000000000000000e+02 5.780000000000000000e+02 5.790000000000000000e+02 5.800000000000000000e+02 5.810000000000000000e+02 5.820000000000000000e+02 5.830000000000000000e+02 5.840000000000000000e+02 5.850000000000000000e+02 5.860000000000000000e+02 5.870000000000000000e+02 5.880000000000000000e+02 5.890000000000000000e+02 5.900000000000000000e+02 5.910000000000000000e+02 5.920000000000000000e+02 5.930000000000000000e+02 5.940000000000000000e+02 5.950000000000000000e+02 5.960000000000000000e+02 5.970000000000000000e+02 5.980000000000000000e+02 5.990000000000000000e+02 6.000000000000000000e+02 6.010000000000000000e+02 6.020000000000000000e+02 6.030000000000000000e+02 6.040000000000000000e+02 6.050000000000000000e+02 6.060000000000000000e+02 6.070000000000000000e+02 6.080000000000000000e+02 6.090000000000000000e+02 6.100000000000000000e+02 6.110000000000000000e+02 6.120000000000000000e+02 6.130000000000000000e+02 6.140000000000000000e+02 6.150000000000000000e+02 6.160000000000000000e+02 6.170000000000000000e+02 6.180000000000000000e+02 6.190000000000000000e+02 6.200000000000000000e+02 6.210000000000000000e+02 6.220000000000000000e+02 6.230000000000000000e+02 6.240000000000000000e+02 6.250000000000000000e+02 6.260000000000000000e+02 6.270000000000000000e+02 6.280000000000000000e+02 6.290000000000000000e+02 6.300000000000000000e+02 6.310000000000000000e+02 6.320000000000000000e+02 6.330000000000000000e+02 6.340000000000000000e+02 6.350000000000000000e+02 6.360000000000000000e+02 6.370000000000000000e+02 6.380000000000000000e+02 6.390000000000000000e+02 6.400000000000000000e+02 6.410000000000000000e+02 6.420000000000000000e+02 6.430000000000000000e+02 6.440000000000000000e+02 6.450000000000000000e+02 6.460000000000000000e+02 6.470000000000000000e+02 6.480000000000000000e+02 6.490000000000000000e+02 6.500000000000000000e+02 6.510000000000000000e+02 6.520000000000000000e+02 6.530000000000000000e+02 6.540000000000000000e+02 6.550000000000000000e+02 6.560000000000000000e+02 6.570000000000000000e+02 6.580000000000000000e+02 6.590000000000000000e+02 6.600000000000000000e+02 6.610000000000000000e+02 6.620000000000000000e+02 6.630000000000000000e+02 6.640000000000000000e+02 6.650000000000000000e+02 6.660000000000000000e+02 6.670000000000000000e+02 6.680000000000000000e+02 6.690000000000000000e+02 6.700000000000000000e+02 6.710000000000000000e+02 6.720000000000000000e+02 6.730000000000000000e+02 6.740000000000000000e+02 6.750000000000000000e+02 6.760000000000000000e+02 6.770000000000000000e+02 6.780000000000000000e+02 6.790000000000000000e+02 6.800000000000000000e+02 6.810000000000000000e+02 6.820000000000000000e+02 6.830000000000000000e+02 6.840000000000000000e+02 6.850000000000000000e+02 6.860000000000000000e+02 6.870000000000000000e+02 6.880000000000000000e+02 6.890000000000000000e+02 6.900000000000000000e+02 6.910000000000000000e+02 6.920000000000000000e+02 6.930000000000000000e+02 6.940000000000000000e+02 6.950000000000000000e+02 6.960000000000000000e+02 6.970000000000000000e+02 6.980000000000000000e+02 6.990000000000000000e+02 7.000000000000000000e+02 7.010000000000000000e+02 7.020000000000000000e+02 7.030000000000000000e+02 7.040000000000000000e+02 7.050000000000000000e+02 7.060000000000000000e+02 7.070000000000000000e+02 7.080000000000000000e+02 7.090000000000000000e+02 7.100000000000000000e+02 7.110000000000000000e+02 7.120000000000000000e+02 7.130000000000000000e+02 7.140000000000000000e+02 7.150000000000000000e+02 7.160000000000000000e+02 7.170000000000000000e+02 7.180000000000000000e+02 7.190000000000000000e+02 7.200000000000000000e+02 7.210000000000000000e+02 7.220000000000000000e+02 7.230000000000000000e+02 7.240000000000000000e+02 7.250000000000000000e+02 7.260000000000000000e+02 7.270000000000000000e+02 7.280000000000000000e+02 7.290000000000000000e+02 7.300000000000000000e+02 7.310000000000000000e+02 7.320000000000000000e+02 7.330000000000000000e+02 7.340000000000000000e+02 7.350000000000000000e+02 7.360000000000000000e+02 7.370000000000000000e+02 7.380000000000000000e+02 7.390000000000000000e+02 7.400000000000000000e+02 7.410000000000000000e+02 7.420000000000000000e+02 7.430000000000000000e+02 7.440000000000000000e+02 7.450000000000000000e+02 7.460000000000000000e+02 7.470000000000000000e+02 7.480000000000000000e+02 7.490000000000000000e+02 7.500000000000000000e+02 7.510000000000000000e+02 7.520000000000000000e+02 7.530000000000000000e+02 7.540000000000000000e+02 7.550000000000000000e+02 7.560000000000000000e+02 7.570000000000000000e+02 7.580000000000000000e+02 7.590000000000000000e+02 7.600000000000000000e+02 7.610000000000000000e+02 7.620000000000000000e+02 7.630000000000000000e+02 7.640000000000000000e+02 7.650000000000000000e+02 7.660000000000000000e+02 7.670000000000000000e+02 7.680000000000000000e+02 7.690000000000000000e+02 7.700000000000000000e+02 7.710000000000000000e+02 7.720000000000000000e+02 7.730000000000000000e+02 7.740000000000000000e+02 7.750000000000000000e+02 7.760000000000000000e+02 7.770000000000000000e+02 7.780000000000000000e+02 7.790000000000000000e+02 7.800000000000000000e+02 7.810000000000000000e+02 7.820000000000000000e+02 7.830000000000000000e+02 7.840000000000000000e+02 7.850000000000000000e+02 7.860000000000000000e+02 7.870000000000000000e+02 7.880000000000000000e+02 7.890000000000000000e+02 7.900000000000000000e+02 7.910000000000000000e+02 7.920000000000000000e+02 7.930000000000000000e+02 7.940000000000000000e+02 7.950000000000000000e+02 7.960000000000000000e+02 7.970000000000000000e+02 7.980000000000000000e+02 7.990000000000000000e+02 8.000000000000000000e+02 8.010000000000000000e+02 8.020000000000000000e+02 8.030000000000000000e+02 8.040000000000000000e+02 8.050000000000000000e+02 8.060000000000000000e+02 8.070000000000000000e+02 8.080000000000000000e+02 8.090000000000000000e+02 8.100000000000000000e+02 8.110000000000000000e+02 8.120000000000000000e+02 8.130000000000000000e+02 8.140000000000000000e+02 8.150000000000000000e+02 8.160000000000000000e+02 8.170000000000000000e+02 8.180000000000000000e+02 8.190000000000000000e+02 8.200000000000000000e+02 8.210000000000000000e+02 8.220000000000000000e+02 8.230000000000000000e+02 8.240000000000000000e+02 8.250000000000000000e+02 8.260000000000000000e+02 8.270000000000000000e+02 8.280000000000000000e+02 8.290000000000000000e+02 8.300000000000000000e+02 8.310000000000000000e+02 8.320000000000000000e+02 8.330000000000000000e+02 8.340000000000000000e+02 8.350000000000000000e+02 8.360000000000000000e+02 8.370000000000000000e+02 8.380000000000000000e+02 8.390000000000000000e+02 8.400000000000000000e+02 8.410000000000000000e+02 8.420000000000000000e+02 8.430000000000000000e+02 8.440000000000000000e+02 8.450000000000000000e+02 8.460000000000000000e+02 8.470000000000000000e+02 8.480000000000000000e+02 8.490000000000000000e+02 8.500000000000000000e+02 8.510000000000000000e+02 8.520000000000000000e+02 8.530000000000000000e+02 8.540000000000000000e+02 8.550000000000000000e+02 8.560000000000000000e+02 8.570000000000000000e+02 8.580000000000000000e+02 8.590000000000000000e+02 8.600000000000000000e+02 8.610000000000000000e+02 8.620000000000000000e+02 8.630000000000000000e+02 8.640000000000000000e+02 8.650000000000000000e+02 8.660000000000000000e+02 8.670000000000000000e+02 8.680000000000000000e+02 8.690000000000000000e+02 8.700000000000000000e+02 8.710000000000000000e+02 8.720000000000000000e+02 8.730000000000000000e+02 8.740000000000000000e+02 8.750000000000000000e+02 8.760000000000000000e+02 8.770000000000000000e+02 8.780000000000000000e+02 8.790000000000000000e+02 8.800000000000000000e+02 8.810000000000000000e+02 8.820000000000000000e+02 8.830000000000000000e+02 8.840000000000000000e+02 8.850000000000000000e+02 8.860000000000000000e+02 8.870000000000000000e+02 8.880000000000000000e+02 8.890000000000000000e+02 8.900000000000000000e+02 8.910000000000000000e+02 8.920000000000000000e+02 8.930000000000000000e+02 8.940000000000000000e+02 8.950000000000000000e+02 8.960000000000000000e+02 8.970000000000000000e+02 8.980000000000000000e+02 8.990000000000000000e+02 9.000000000000000000e+02 9.010000000000000000e+02 9.020000000000000000e+02 9.030000000000000000e+02 9.040000000000000000e+02 9.050000000000000000e+02 9.060000000000000000e+02 9.070000000000000000e+02 9.080000000000000000e+02 9.090000000000000000e+02 9.100000000000000000e+02 9.110000000000000000e+02 9.120000000000000000e+02 9.130000000000000000e+02 9.140000000000000000e+02 9.150000000000000000e+02 9.160000000000000000e+02 9.170000000000000000e+02 9.180000000000000000e+02 9.190000000000000000e+02 9.200000000000000000e+02 9.210000000000000000e+02 9.220000000000000000e+02 9.230000000000000000e+02 9.240000000000000000e+02 9.250000000000000000e+02 9.260000000000000000e+02 9.270000000000000000e+02 9.280000000000000000e+02 9.290000000000000000e+02 9.300000000000000000e+02 9.310000000000000000e+02 9.320000000000000000e+02 9.330000000000000000e+02 9.340000000000000000e+02 9.350000000000000000e+02 9.360000000000000000e+02 9.370000000000000000e+02 9.380000000000000000e+02 9.390000000000000000e+02 9.400000000000000000e+02 9.410000000000000000e+02 9.420000000000000000e+02 9.430000000000000000e+02 9.440000000000000000e+02 9.450000000000000000e+02 9.460000000000000000e+02 9.470000000000000000e+02 9.480000000000000000e+02 9.490000000000000000e+02 9.500000000000000000e+02 9.510000000000000000e+02 9.520000000000000000e+02 9.530000000000000000e+02 9.540000000000000000e+02 9.550000000000000000e+02 9.560000000000000000e+02 9.570000000000000000e+02 9.580000000000000000e+02 9.590000000000000000e+02 9.600000000000000000e+02 9.610000000000000000e+02 9.620000000000000000e+02 9.630000000000000000e+02 9.640000000000000000e+02 9.650000000000000000e+02 9.660000000000000000e+02 9.670000000000000000e+02 9.680000000000000000e+02 9.690000000000000000e+02 9.700000000000000000e+02 9.710000000000000000e+02 9.720000000000000000e+02 9.730000000000000000e+02 9.740000000000000000e+02 9.750000000000000000e+02 9.760000000000000000e+02 9.770000000000000000e+02 9.780000000000000000e+02 9.790000000000000000e+02 9.800000000000000000e+02 9.810000000000000000e+02 9.820000000000000000e+02 9.830000000000000000e+02 9.840000000000000000e+02 9.850000000000000000e+02 9.860000000000000000e+02 9.870000000000000000e+02 9.880000000000000000e+02 9.890000000000000000e+02 9.900000000000000000e+02 9.910000000000000000e+02 9.920000000000000000e+02 9.930000000000000000e+02 9.940000000000000000e+02 9.950000000000000000e+02 9.960000000000000000e+02 9.970000000000000000e+02 9.980000000000000000e+02 9.990000000000000000e+02
1.000000000000000000e+00 1.000000000000000000e+00 1.000000000000000000e+00 1.000000000000000000e+00 1.000000000000000000e+00 1.000000000000000000e+00 1.000000000000000000e+00 1.000000000000000000e+00 1.000000000000000000e+00 1.000000000000000000e+00 1.000000000000000000e+00 1.000000000000000000e+00 1.000000000000000000e+00 1.000000000000000000e+00 1.000000000000000000e+00 1.000000000000000000e+00 1.000000000000000000e+00 1.000000000000000000e+00 1.000000000000000000e+00 1.000000000000000000e+00 1.000000000000000000e+00 1.000000000000000000e+00 1.000000000000000000e+00 1.000000000000000000e+00 1.000000000000000000e+00 1.000000000000000000e+00 1.000000000000000000e+00 1.000000000000000000e+00 1.000000000000000000e+00 1.000000000000000000e+00 1.000000000000000000e+00 1.000000000000000000e+00 1.000000000000000000e+00 1.000000000000000000e+00 1.000000000000000000e+00 1.000000000000000000e+00 1.000000000000000000e+00 1.000000000000000000e+00 1.000000000000000000e+00 1.000000000000000000e+00 1.000000000000000000e+00 1.000000000000000000e+00 1.000000000000000000e+00 1.000000000000000000e+00 1.000000000000000000e+00 1.000000000000000000e+00 1.000000000000000000e+00 1.000000000000000000e+00 1.000000000000000000e+00 1.000000000000000000e+00 1.000000000000000000e+00 1.000000000000000000e+00 1.000000000000000000e+00 1.000000000000000000e+00 1.000000000000000000e+00 1.000000000000000000e+00 1.000000000000000000e+00 1.000000000000000000e+00 1.000000000000000000e+00 1.000000000000000000e+00 1.000000000000000000e+00 1.000000000000000000e+00 1.000000000000000000e+00 1.000000000000000000e+00 1.000000000000000000e+00 1.000000000000000000e+00 1.000000000000000000e+00 1.000000000000000000e+00 1.000000000000000000e+00 1.000000000000000000e+00 1.000000000000000000e+00 1.000000000000000000e+00 1.000000000000000000e+00 1.000000000000000000e+00 1.000000000000000000e+00 1.000000000000000000e+00 1.000000000000000000e+00 1.000000000000000000e+00 1.000000000000000000e+00 1.000000000000000000e+00 1.000000000000000000e+00 1.000000000000000000e+00 1.000000000000000000e+00 1.000000000000000000e+00 1.000000000000000000e+00 1.000000000000000000e+00 1.000000000000000000e+00 1.000000000000000000e+00 1.000000000000000000e+00 1.000000000000000000e+00 1.000000000000000000e+00 1.000000000000000000e+00 1.000000000000000000e+00 1.000000000000000000e+00 1.000000000000000000e+00 1.000000000000000000e+00 1.000000000000000000e+00 1.000000000000000000e+00 1.000000000000000000e+00 1.000000000000000000e+00 1.000000000000000000e+00 1.000000000000000000e+00 1.000000000000000000e+00 1.000000000000000000e+00 1.000000000000000000e+00 1.000000000000000000e+00 1.000000000000000000e+00 1.000000000000000000e+00 1.000000000000000000e+00 1.000000000000000000e+00 1.000000000000000000e+00 1.000000000000000000e+00 1.000000000000000000e+00 1.000000000000000000e+00 1.000000000000000000e+00 1.000000000000000000e+00 1.000000000000000000e+00 1.000000000000000000e+00 1.000000000000000000e+00 1.000000000000000000e+00 1.000000000000000000e+00 1.000000000000000000e+00 1.000000000000000000e+00 1.000000000000000000e+00 1.000000000000000000e+00 1.000000000000000000e+00 1.000000000000000000e+00 1.000000000000000000e+00 1.000000000000000000e+00 1.000000000000000000e+00 1.000000000000000000e+00 1.000000000000000000e+00 1.000000000000000000e+00 1.000000000000000000e+00 1.000000000000000000e+00 1.000000000000000000e+00 1.000000000000000000e+00 1.000000000000000000e+00 1.000000000000000000e+00 1.000000000000000000e+00 1.000000000000000000e+00 1.000000000000000000e+00 1.000000000000000000e+00 1.000000000000000000e+00 1.000000000000000000e+00 1.000000000000000000e+00 1.000000000000000000e+00 1.000000000000000000e+00 1.000000000000000000e+00 1.000000000000000000e+00 1.000000000000000000e+00 1.000000000000000000e+00 1.000000000000000000e+00 1.000000000000000000e+00 1.000000000000000000e+00 1.000000000000000000e+00 1.000000000000000000e+00 1.000000000000000000e+00 1.000000000000000000e+00 1.000000000000000000e+00 1.000000000000000000e+00 1.000000000000000000e+00 1.000000000000000000e+00 1.000000000000000000e+00 1.000000000000000000e+00 1.000000000000000000e+00 1.000000000000000000e+00 1.000000000000000000e+00 1.000000000000000000e+00 1.000000000000000000e+00 1.000000000000000000e+00 1.000000000000000000e+00 1.000000000000000000e+00 1.000000000000000000e+00 1.000000000000000000e+00 1.000000000000000000e+00 1.000000000000000000e+00 1.000000000000000000e+00 1.000000000000000000e+00 1.000000000000000000e+00 1.000000000000000000e+00 1.000000000000000000e+00 1.000000000000000000e+00 1.000000000000000000e+00 1.000000000000000000e+00 1.000000000000000000e+00 1.000000000000000000e+00 1.000000000000000000e+00 1.000000000000000000e+00 1.000000000000000000e+00 1.000000000000000000e+00 1.000000000000000000e+00 1.000000000000000000e+00 1.000000000000000000e+00 1.000000000000000000e+00 1.000000000000000000e+00 1.000000000000000000e+00 1.000000000000000000e+00 1.000000000000000000e+00 1.000000000000000000e+00 1.000000000000000000e+00 1.000000000000000000e+00 1.000000000000000000e+00 1.000000000000000000e+00 1.000000000000000000e+00 1.000000000000000000e+00 1.000000000000000000e+00 1.000000000000000000e+00 1.000000000000000000e+00 1.000000000000000000e+00 1.000000000000000000e+00 1.000000000000000000e+00 1.000000000000000000e+00 1.000000000000000000e+00 1.000000000000000000e+00 1.000000000000000000e+00 1.000000000000000000e+00 1.000000000000000000e+00 1.000000000000000000e+00 1.000000000000000000e+00 1.000000000000000000e+00 1.000000000000000000e+00 1.000000000000000000e+00 1.000000000000000000e+00 1.000000000000000000e+00 1.000000000000000000e+00 1.000000000000000000e+00 1.000000000000000000e+00 1.000000000000000000e+00 1.000000000000000000e+00 1.000000000000000000e+00 1.000000000000000000e+00 1.000000000000000000e+00 1.000000000000000000e+00 1.000000000000000000e+00 1.000000000000000000e+00 1.000000000000000000e+00 1.000000000000000000e+00 1.000000000000000000e+00 1.000000000000000000e+00 1.000000000000000000e+00 1.000000000000000000e+00 1.000000000000000000e+00 1.000000000000000000e+00 1.000000000000000000e+00 1.000000000000000000e+00 1.000000000000000000e+00 1.000000000000000000e+00 1.000000000000000000e+00 1.000000000000000000e+00 1.000000000000000000e+00 1.000000000000000000e+00 1.000000000000000000e+00 1.000000000000000000e+00 1.000000000000000000e+00 1.000000000000000000e+00 1.000000000000000000e+00 1.000000000000000000e+00 1.000000000000000000e+00 1.000000000000000000e+00 1.000000000000000000e+00 1.000000000000000000e+00 1.000000000000000000e+00 1.000000000000000000e+00 1.000000000000000000e+00 1.000000000000000000e+00 1.000000000000000000e+00 1.000000000000000000e+00 1.000000000000000000e+00 1.000000000000000000e+00 1.000000000000000000e+00 1.000000000000000000e+00 1.000000000000000000e+00 1.000000000000000000e+00 1.000000000000000000e+00 1.000000000000000000e+00 1.000000000000000000e+00 1.000000000000000000e+00 1.000000000000000000e+00 1.000000000000000000e+00 1.000000000000000000e+00 1.000000000000000000e+00 1.000000000000000000e+00 1.000000000000000000e+00 1.000000000000000000e+00 1.000000000000000000e+00 1.000000000000000000e+00 1.000000000000000000e+00 1.000000000000000000e+00 1.000000000000000000e+00 1.000000000000000000e+00 1.000000000000000000e+00 1.000000000000000000e+00 1.000000000000000000e+00 1.000000000000000000e+00 1.000000000000000000e+00 1.000000000000000000e+00 1.000000000000000000e+00 1.000000000000000000e+00 1.000000000000000000e+00 1.000000000000000000e+00 1.000000000000000000e+00 1.000000000000000000e+00 1.000000000000000000e+00 1.000000000000000000e+00 1.000000000000000000e+00 1.000000000000000000e+00 1.000000000000000000e+00 1.000000000000000000e+00 1.000000000000000000e+00 1.000000000000000000e+00 1.000000000000000000e+00 1.000000000000000000e+00 1.000000000000000000e+00 1.000000000000000000e+00 1.000000000000000000e+00 1.000000000000000000e+00 1.000000000000000000e+00 1.000000000000000000e+00 1.000000000000000000e+00 1.000000000000000000e+00 1.000000000000000000e+00 1.000000000000000000e+00 1.000000000000000000e+00 1.000000000000000000e+00 1.000000000000000000e+00 1.000000000000000000e+00 1.000000000000000000e+00 1.000000000000000000e+00 1.000000000000000000e+00 1.000000000000000000e+00 1.000000000000000000e+00 1.000000000000000000e+00 1.000000000000000000e+00 1.000000000000000000e+00 1.000000000000000000e+00 1.000000000000000000e+00 1.000000000000000000e+00 1.000000000000000000e+00 1.000000000000000000e+00 1.000000000000000000e+00 1.000000000000000000e+00 1.000000000000000000e+00 1.000000000000000000e+00 1.000000000000000000e+00 1.000000000000000000e+00 1.000000000000000000e+00 1.000000000000000000e+00 1.000000000000000000e+00 1.000000000000000000e+00 1.000000000000000000e+00 1.000000000000000000e+00 1.000000000000000000e+00 1.000000000000000000e+00 1.000000000000000000e+00 1.000000000000000000e+00 1.000000000000000000e+00 1.000000000000000000e+00 1.000000000000000000e+00 1.000000000000000000e+00 1.000000000000000000e+00 1.000000000000000000e+00 1.000000000000000000e+00 1.000000000000000000e+00 1.000000000000000000e+00 1.000000000000000000e+00 1.000000000000000000e+00 1.000000000000000000e+00 1.000000000000000000e+00 1.000000000000000000e+00 1.000000000000000000e+00 1.000000000000000000e+00 1.000000000000000000e+00 1.000000000000000000e+00 1.000000000000000000e+00 1.000000000000000000e+00 1.000000000000000000e+00 1.000000000000000000e+00 1.000000000000000000e+00 1.000000000000000000e+00 1.000000000000000000e+00 1.000000000000000000e+00 1.000000000000000000e+00 1.000000000000000000e+00 1.000000000000000000e+00 1.000000000000000000e+00 1.000000000000000000e+00 1.000000000000000000e+00 1.000000000000000000e+00 1.000000000000000000e+00 1.000000000000000000e+00 1.000000000000000000e+00 1.000000000000000000e+00 1.000000000000000000e+00 1.000000000000000000e+00 1.000000000000000000e+00 1.000000000000000000e+00 1.000000000000000000e+00 1.000000000000000000e+00 1.000000000000000000e+00 1.000000000000000000e+00 1.000000000000000000e+00 1.000000000000000000e+00 1.000000000000000000e+00 1.000000000000000000e+00 1.000000000000000000e+00 1.000000000000000000e+00 1.000000000000000000e+00 1.000000000000000000e+00 1.000000000000000000e+00 1.000000000000000000e+00 1.000000000000000000e+00 1.000000000000000000e+00 1.000000000000000000e+00 1.000000000000000000e+00 1.000000000000000000e+00 1.000000000000000000e+00 1.000000000000000000e+00 1.000000000000000000e+00 1.000000000000000000e+00 1.000000000000000000e+00 1.000000000000000000e+00 1.000000000000000000e+00 1.000000000000000000e+00 1.000000000000000000e+00 1.000000000000000000e+00 1.000000000000000000e+00 1.000000000000000000e+00 1.000000000000000000e+00 1.000000000000000000e+00 1.000000000000000000e+00 1.000000000000000000e+00 1.000000000000000000e+00 1.000000000000000000e+00 1.000000000000000000e+00 1.000000000000000000e+00 1.000000000000000000e+00 1.000000000000000000e+00 1.000000000000000000e+00 1.000000000000000000e+00 1.000000000000000000e+00 1.000000000000000000e+00 1.000000000000000000e+00 1.000000000000000000e+00 1.000000000000000000e+00 1.000000000000000000e+00 1.000000000000000000e+00 1.000000000000000000e+00 1.000000000000000000e+00 1.000000000000000000e+00 1.000000000000000000e+00 1.000000000000000000e+00 1.000000000000000000e+00 1.000000000000000000e+00 1.000000000000000000e+00 1.000000000000000000e+00 1.000000000000000000e+00 1.000000000000000000e+00 1.000000000000000000e+00 1.000000000000000000e+00 1.000000000000000000e+00 1.000000000000000000e+00 1.000000000000000000e+00 1.000000000000000000e+00 1.000000000000000000e+00 1.000000000000000000e+00 1.000000000000000000e+00 1.000000000000000000e+00 1.000000000000000000e+00 1.000000000000000000e+00 1.000000000000000000e+00 1.000000000000000000e+00 1.000000000000000000e+00 1.000000000000000000e+00 1.000000000000000000e+00 1.000000000000000000e+00 1.000000000000000000e+00 1.000000000000000000e+00 1.000000000000000000e+00 1.000000000000000000e+00 1.000000000000000000e+00 1.000000000000000000e+00 1.000000000000000000e+00 1.000000000000000000e+00 1.000000000000000000e+00 1.000000000000000000e+00 1.000000000000000000e+00 1.000000000000000000e+00 1.000000000000000000e+00 1.000000000000000000e+00 1.000000000000000000e+00 1.000000000000000000e+00 1.000000000000000000e+00 1.000000000000000000e+00 1.000000000000000000e+00 1.000000000000000000e+00 1.000000000000000000e+00 1.000000000000000000e+00 1.000000000000000000e+00 1.000000000000000000e+00 1.000000000000000000e+00 1.000000000000000000e+00 1.000000000000000000e+00 1.000000000000000000e+00 1.000000000000000000e+00 1.000000000000000000e+00 1.000000000000000000e+00 1.000000000000000000e+00 1.000000000000000000e+00 1.000000000000000000e+00 1.000000000000000000e+00 1.000000000000000000e+00 1.000000000000000000e+00 1.000000000000000000e+00 1.000000000000000000e+00 1.000000000000000000e+00 1.000000000000000000e+00 1.000000000000000000e+00 1.000000000000000000e+00 1.000000000000000000e+00 1.000000000000000000e+00 1.000000000000000000e+00 1.000000000000000000e+00 1.000000000000000000e+00 1.000000000000000000e+00 1.000000000000000000e+00 1.000000000000000000e+00 1.000000000000000000e+00 1.000000000000000000e+00 1.000000000000000000e+00 1.000000000000000000e+00 1.000000000000000000e+00 1.000000000000000000e+00 1.000000000000000000e+00 1.000000000000000000e+00 1.000000000000000000e+00 1.000000000000000000e+00 1.000000000000000000e+00 1.000000000000000000e+00 1.000000000000000000e+00 1.000000000000000000e+00 1.000000000000000000e+00 1.000000000000000000e+00 1.000000000000000000e+00 1.000000000000000000e+00 1.000000000000000000e+00 1.000000000000000000e+00 1.000000000000000000e+00 1.000000000000000000e+00 1.000000000000000000e+00 1.000000000000000000e+00 1.000000000000000000e+00 1.000000000000000000e+00 1.000000000000000000e+00 1.000000000000000000e+00 1.000000000000000000e+00 1.000000000000000000e+00 1.000000000000000000e+00 1.000000000000000000e+00 1.000000000000000000e+00 1.000000000000000000e+00 1.000000000000000000e+00 1.000000000000000000e+00 1.000000000000000000e+00 1.000000000000000000e+00 1.000000000000000000e+00 1.000000000000000000e+00 1.000000000000000000e+00 1.000000000000000000e+00 1.000000000000000000e+00 1.000000000000000000e+00 1.000000000000000000e+00 1.000000000000000000e+00 1.000000000000000000e+00 1.000000000000000000e+00 1.000000000000000000e+00 1.000000000000000000e+00 1.000000000000000000e+00 1.000000000000000000e+00 1.000000000000000000e+00 1.000000000000000000e+00 1.000000000000000000e+00 1.000000000000000000e+00 1.000000000000000000e+00 1.000000000000000000e+00 1.000000000000000000e+00 1.000000000000000000e+00 1.000000000000000000e+00 1.000000000000000000e+00 1.000000000000000000e+00 1.000000000000000000e+00 1.000000000000000000e+00 1.000000000000000000e+00 1.000000000000000000e+00 1.000000000000000000e+00 1.000000000000000000e+00 1.000000000000000000e+00 1.000000000000000000e+00 1.000000000000000000e+00 1.000000000000000000e+00 1.000000000000000000e+00 1.000000000000000000e+00 1.000000000000000000e+00 1.000000000000000000e+00 1.000000000000000000e+00 1.000000000000000000e+00 1.000000000000000000e+00 1.000000000000000000e+00 1.000000000000000000e+00 1.000000000000000000e+00 1.000000000000000000e+00 1.000000000000000000e+00 1.000000000000000000e+00 1.000000000000000000e+00 1.000000000000000000e+00 1.000000000000000000e+00 1.000000000000000000e+00 1.000000000000000000e+00 1.000000000000000000e+00 1.000000000000000000e+00 1.000000000000000000e+00 1.000000000000000000e+00 1.000000000000000000e+00 1.000000000000000000e+00 1.000000000000000000e+00 1.000000000000000000e+00 1.000000000000000000e+00 1.000000000000000000e+00 1.000000000000000000e+00 1.000000000000000000e+00 1.000000000000000000e+00 1.000000000000000000e+00 1.000000000000000000e+00 1.000000000000000000e+00 1.000000000000000000e+00 1.000000000000000000e+00 1.000000000000000000e+00 1.000000000000000000e+00 1.000000000000000000e+00 1.000000000000000000e+00 1.000000000000000000e+00 1.000000000000000000e+00 1.000000000000000000e+00 1.000000000000000000e+00 1.000000000000000000e+00 1.000000000000000000e+00 1.000000000000000000e+00 1.000000000000000000e+00 1.000000000000000000e+00 1.000000000000000000e+00 1.000000000000000000e+00 1.000000000000000000e+00 1.000000000000000000e+00 1.000000000000000000e+00 1.000000000000000000e+00 1.000000000000000000e+00 1.000000000000000000e+00 1.000000000000000000e+00 1.000000000000000000e+00 1.000000000000000000e+00 1.000000000000000000e+00 1.000000000000000000e+00 1.000000000000000000e+00 1.000000000000000000e+00 1.000000000000000000e+00 1.000000000000000000e+00 1.000000000000000000e+00 1.000000000000000000e+00 1.000000000000000000e+00 1.000000000000000000e+00 1.000000000000000000e+00 1.000000000000000000e+00 1.000000000000000000e+00 1.000000000000000000e+00 1.000000000000000000e+00 1.000000000000000000e+00 1.000000000000000000e+00 1.000000000000000000e+00 1.000000000000000000e+00 1.000000000000000000e+00 1.000000000000000000e+00 1.000000000000000000e+00 1.000000000000000000e+00 1.000000000000000000e+00 1.000000000000000000e+00 1.000000000000000000e+00 1.000000000000000000e+00 1.000000000000000000e+00 1.000000000000000000e+00 1.000000000000000000e+00 1.000000000000000000e+00 1.000000000000000000e+00 1.000000000000000000e+00 1.000000000000000000e+00 1.000000000000000000e+00 1.000000000000000000e+00 1.000000000000000000e+00 1.000000000000000000e+00 1.000000000000000000e+00 1.000000000000000000e+00 1.000000000000000000e+00 1.000000000000000000e+00 1.000000000000000000e+00 1.000000000000000000e+00 1.000000000000000000e+00 1.000000000000000000e+00 1.000000000000000000e+00 1.000000000000000000e+00 1.000000000000000000e+00 1.000000000000000000e+00 1.000000000000000000e+00 1.000000000000000000e+00 1.000000000000000000e+00 1.000000000000000000e+00 1.000000000000000000e+00 1.000000000000000000e+00 1.000000000000000000e+00 1.000000000000000000e+00 1.000000000000000000e+00 1.000000000000000000e+00 1.000000000000000000e+00 1.000000000000000000e+00 1.000000000000000000e+00 1.000000000000000000e+00 1.000000000000000000e+00 1.000000000000000000e+00 1.000000000000000000e+00 1.000000000000000000e+00 1.000000000000000000e+00 1.000000000000000000e+00 1.000000000000000000e+00 1.000000000000000000e+00 1.000000000000000000e+00 1.000000000000000000e+00 1.000000000000000000e+00 1.000000000000000000e+00 1.000000000000000000e+00 1.000000000000000000e+00 1.000000000000000000e+00 1.000000000000000000e+00 1.000000000000000000e+00 1.000000000000000000e+00 1.000000000000000000e+00 1.000000000000000000e+00 1.000000000000000000e+00 1.000000000000000000e+00 1.000000000000000000e+00 1.000000000000000000e+00 1.000000000000000000e+00 1.000000000000000000e+00 1.000000000000000000e+00 1.000000000000000000e+00 1.000000000000000000e+00 1.000000000000000000e+00 1.000000000000000000e+00 1.000000000000000000e+00 1.000000000000000000e+00 1.000000000000000000e+00 1.000000000000000000e+00 1.000000000000000000e+00 1.000000000000000000e+00 1.000000000000000000e+00 1.000000000000000000e+00 1.000000000000000000e+00 1.000000000000000000e+00 1.000000000000000000e+00 1.000000000000000000e+00 1.000000000000000000e+00 1.000000000000000000e+00 1.000000000000000000e+00 1.000000000000000000e+00 1.000000000000000000e+00 1.000000000000000000e+00 1.000000000000000000e+00 1.000000000000000000e+00 1.000000000000000000e+00 1.000000000000000000e+00 1.000000000000000000e+00 1.000000000000000000e+00 1.000000000000000000e+00 1.000000000000000000e+00 1.000000000000000000e+00 1.000000000000000000e+00 1.000000000000000000e+00 1.000000000000000000e+00 1.000000000000000000e+00 1.000000000000000000e+00 1.000000000000000000e+00 1.000000000000000000e+00 1.000000000000000000e+00 1.000000000000000000e+00 1.000000000000000000e+00 1.000000000000000000e+00 1.000000000000000000e+00 1.000000000000000000e+00 1.000000000000000000e+00 1.000000000000000000e+00 1.000000000000000000e+00 1.000000000000000000e+00 1.000000000000000000e+00 1.000000000000000000e+00 1.000000000000000000e+00 1.000000000000000000e+00 1.000000000000000000e+00 1.000000000000000000e+00 1.000000000000000000e+00 1.000000000000000000e+00 1.000000000000000000e+00 1.000000000000000000e+00 1.000000000000000000e+00 1.000000000000000000e+00 1.000000000000000000e+00 1.000000000000000000e+00 1.000000000000000000e+00 1.000000000000000000e+00 1.000000000000000000e+00 1.000000000000000000e+00 1.000000000000000000e+00 1.000000000000000000e+00 1.000000000000000000e+00 1.000000000000000000e+00 1.000000000000000000e+00 1.000000000000000000e+00 1.000000000000000000e+00 1.000000000000000000e+00 1.000000000000000000e+00 1.000000000000000000e+00 1.000000000000000000e+00 1.000000000000000000e+00 1.000000000000000000e+00 1.000000000000000000e+00 1.000000000000000000e+00 1.000000000000000000e+00 1.000000000000000000e+00 1.000000000000000000e+00 1.000000000000000000e+00 1.000000000000000000e+00 1.000000000000000000e+00 1.000000000000000000e+00 1.000000000000000000e+00 1.000000000000000000e+00 1.000000000000000000e+00 1.000000000000000000e+00 1.000000000000000000e+00 1.000000000000000000e+00 1.000000000000000000e+00 1.000000000000000000e+00 1.000000000000000000e+00 1.000000000000000000e+00 1.000000000000000000e+00 1.000000000000000000e+00 1.000000000000000000e+00 1.000000000000000000e+00 1.000000000000000000e+00 1.000000000000000000e+00 1.000000000000000000e+00 1.000000000000000000e+00 1.000000000000000000e+00 1.000000000000000000e+00 1.000000000000000000e+00 1.000000000000000000e+00 1.000000000000000000e+00 1.000000000000000000e+00 1.000000000000000000e+00 1.000000000000000000e+00 1.000000000000000000e+00 1.000000000000000000e+00 1.000000000000000000e+00 1.000000000000000000e+00 1.000000000000000000e+00 1.000000000000000000e+00 1.000000000000000000e+00 1.000000000000000000e+00 1.000000000000000000e+00 1.000000000000000000e+00 1.000000000000000000e+00 1.000000000000000000e+00 1.000000000000000000e+00 1.000000000000000000e+00 1.000000000000000000e+00 1.000000000000000000e+00 1.000000000000000000e+00 1.000000000000000000e+00 1.000000000000000000e+00 1.000000000000000000e+00 1.000000000000000000e+00 1.000000000000000000e+00 1.000000000000000000e+00 1.000000000000000000e+00 1.000000000000000000e+00 1.000000000000000000e+00 1.000000000000000000e+00 1.000000000000000000e+00 1.000000000000000000e+00 1.000000000000000000e+00 1.000000000000000000e+00 1.000000000000000000e+00 1.000000000000000000e+00 1.000000000000000000e+00 1.000000000000000000e+00 1.000000000000000000e+00 1.000000000000000000e+00 1.000000000000000000e+00 1.000000000000000000e+00 1.000000000000000000e+00 1.000000000000000000e+00 1.000000000000000000e+00 1.000000000000000000e+00 1.000000000000000000e+00 1.000000000000000000e+00 1.000000000000000000e+00 1.000000000000000000e+00 1.000000000000000000e+00 1.000000000000000000e+00 1.000000000000000000e+00 1.000000000000000000e+00 1.000000000000000000e+00 1.000000000000000000e+00 1.000000000000000000e+00 1.000000000000000000e+00 1.000000000000000000e+00 1.000000000000000000e+00 1.000000000000000000e+00 1.000000000000000000e+00 1.000000000000000000e+00 1.000000000000000000e+00 1.000000000000000000e+00 1.000000000000000000e+00 1.000000000000000000e+00 1.000000000000000000e+00 1.000000000000000000e+00 1.000000000000000000e+00 1.000000000000000000e+00 1.000000000000000000e+00 1.000000000000000000e+00 1.000000000000000000e+00 1.000000000000000000e+00 1.000000000000000000e+00 1.000000000000000000e+00 1.000000000000000000e+00 1.000000000000000000e+00 1.000000000000000000e+00 1.000000000000000000e+00 1.000000000000000000e+00 1.000000000000000000e+00 1.000000000000000000e+00 1.000000000000000000e+00 1.000000000000000000e+00 1.000000000000000000e+00 1.000000000000000000e+00 1.000000000000000000e+00 1.000000000000000000e+00 1.000000000000000000e+00 1.000000000000000000e+00 1.000000000000000000e+00 1.000000000000000000e+00 1.000000000000000000e+00 1.000000000000000000e+00 1.000000000000000000e+00 1.000000000000000000e+00 1.000000000000000000e+00 1.000000000000000000e+00 1.000000000000000000e+00 1.000000000000000000e+00 1.000000000000000000e+00 1.000000000000000000e+00 1.000000000000000000e+00 1.000000000000000000e+00 1.000000000000000000e+00 1.000000000000000000e+00 1.000000000000000000e+00 1.000000000000000000e+00 1.000000000000000000e+00 1.000000000000000000e+00 1.000000000000000000e+00 1.000000000000000000e+00 1.000000000000000000e+00 1.000000000000000000e+00 1.000000000000000000e+00 1.000000000000000000e+00 1.000000000000000000e+00 1.000000000000000000e+00 1.000000000000000000e+00 1.000000000000000000e+00 1.000000000000000000e+00 1.000000000000000000e+00 1.000000000000000000e+00 1.000000000000000000e+00 1.000000000000000000e+00 1.000000000000000000e+00 1.000000000000000000e+00 1.000000000000000000e+00 1.000000000000000000e+00 1.000000000000000000e+00 1.000000000000000000e+00 1.000000000000000000e+00 1.000000000000000000e+00 1.000000000000000000e+00 1.000000000000000000e+00 1.000000000000000000e+00
2.023558277071578482e-02 5.302142084794653210e-01 7.978795743145369324e-01 4.808549771844801146e-01 5.142297795605198507e-01 5.211218847136305232e-01 6.024992619756771584e-01 2.570171584800207687e-01 4.422944803496770549e-01 5.022745762417500925e-01 1.019356961427179797e+00 -3.324058101879671656e-01 1.182532770806593136e+00 5.109183245530257711e-01 5.203908759480424528e-01 4.699796476572777326e-01 9.804983744815775060e-01 6.773088955900720132e-01 2.425753142666948747e-01 5.192133004874727176e-01 3.461150886559919981e-01 8.769660959629255181e-01 3.008584499089183573e-01 4.897674212926599324e-01 7.237119676453946937e-01 7.895897794882302811e-01 5.246566656064750589e-01 5.867978138995892934e-01 4.931574629652051844e-01 9.994925800607696864e-01 5.455764873522146452e-01 3.508269749764172385e-01 8.312246377508136774e-01 4.732847036146524689e-01 7.496027988880585857e-01 5.777225307058361237e-01 5.078494894036802432e-01 1.026086266461196717e+00 1.058804479414573035e-01 5.241560444981718803e-01 4.461565650344675449e-01 -4.107483307241887038e-01 7.512695906746944541e-01 1.969159410493804552e-01 2.366644371400026536e-01 5.198304383230820669e-01 4.868826007864264227e-01 5.102546873347477696e-01 5.925299474899720087e-01 3.274385277440899911e-02 2.811134348405282257e-02 2.770136893118134158e-01 5.353308279752420074e-01 4.889182880368485029e-01 5.097324168086860841e-01 1.166952683090945360e-02 4.921630227586321071e-01 6.541205788492142625e-01 1.596206262268284881e-01 5.128830254255858367e-01 7.586672419605154927e-01 4.921340277904298621e-01 5.411026086443505578e-01 3.008590524964679935e-01 6.070559762650808988e-01 6.508404314260354262e-01 5.174340897236248127e-01 6.416505249001106526e-01 4.481340285653669375e-01 -1.348230935667128934e-02 5.108693227724320218e-01 4.672558280766694327e-01 5.008330417017902159e-01 1.352549525254816837e-02 1.296534441833600448e+00 6.448775020837750338e-01 5.967380453641041305e-01 7.818325066856496308e-01 4.938510254230180641e-01 1.287219918122097129e+00 5.243394699409890114e-01 1.679906682996879508e-01 9.184593585049100062e-01 5.805959136810090460e-01 5.286472167349125506e-01 7.380772976884912850e-01 8.535018321229124183e-01 4.965369897209415129e-01 3.108984241584083485e-01 5.658823410253717157e-01 2.327086549866484166e-01 1.570802327006851185e+00 5.304519681181620872e-01 6.700496330059577121e-02 3.096801415314126005e-01 5.024080612259294032e-01 5.025332331278167253e-01 6.492966424198004516e-01 2.145831853874406170e-01 7.747650759763329287e-01 1.019554890279947612e+00 5.291478639735450740e-01 5.124246507427260289e-01 1.081707089202337047e+00 1.359267473579732488e-01 -1.253719810218314468e+00 -8.656424897636347815e-01 5.566024779458010885e-01 5.235308630359416515e-01 9.254783166701652242e-01 3.860055395966930369e-01 5.551533930878834733e-01 8.394519748406473747e-01 5.190646608556136465e-01 4.563130393633337833e-01 5.177215127831086283e-01 3.832048304317920984e-01 4.696874883632720099e-01 5.380035328135622796e-01 5.821095336106278939e-01 1.131113188586119866e+00 3.244327424978019625e-01 4.769719290413123036e-01 5.827027009811920344e-01 5.375452607519763948e-01 1.614565549074215678e+00 5.350897689687647008e-01 6.170132544599259417e-01 4.851705866849877480e-01 4.998757849540606535e-01 5.197841775743758941e-01 5.023977253221378891e-01 4.467933781908548507e-01 2.115302423075331173e-01 5.302030341572492311e-01 -2.681856356101547031e-02 8.260578692555859970e-01 -7.632507707699841618e-03 8.842564277149546070e-01 5.090273600677619470e-01 5.003504190323196932e-01 7.019597340185301793e-01 5.875084545136306513e-01 6.360931358049823903e-01 5.258265553453062013e-01 -3.209332620562355826e-02 5.170763667859779034e-01 4.828545546152221979e-01 5.132423958920971918e-01 -5.010971569775992673e-01 7.357286543693972725e-01 -1.334399577924967328e-01 5.199985872595087599e-01 4.994259018136735784e-01 8.199454757094053470e-01 4.593337111346850743e-01 9.490391266289187611e-01 5.599735031669832441e-01 8.076570659757880133e-01 7.875997135259700244e-01 4.772098452929501300e-01 4.045779935794472371e-01 4.982993671667065860e-01 5.016677013584456279e-01 1.138867361050892812e+00 -1.271612936697709695e-01 7.748882882504549707e-01 5.103635797791769013e-01 4.510738931394989160e-01 4.193007331127059922e-01 5.306299740444379021e-01 4.811252293070928387e-01 5.196953698719822823e-01 4.978866005770816172e-01 4.277022701363855650e-01 7.750650939430442365e-02 1.456205473375954962e-01 5.181641005240434500e-02 6.166340761802295845e-01 1.059893191045553795e+00 4.782671012588174397e-01 5.742124388370689614e-01 -2.376225916123279047e-01 7.022908756478998260e-01 6.312181217417868195e-01 4.237287535815330020e-01 5.209267404298162374e-01 5.000773548549325431e-01 1.915535084343730654e+00 8.328698959526993351e-01 5.570874817878751495e-01 -3.938930396750263130e-01 5.222424791010902290e-01 4.701722900220900447e-01 1.108784883762799905e-01 5.696664575918434226e-01 8.005193018621117318e-01 5.078360070959239136e-01 4.849089528286720796e-01 5.547389666117783502e-01 5.240277927854235518e-01 5.842080918243970356e-01 1.026543089493825445e+00 5.685768571006396543e-01 5.405508146874299369e-01 4.849091284855641115e-01 5.274315552625234993e-01 1.129429469623517646e+00 5.096678379731659492e-01 5.102947038178776706e-01 3.620269808455162108e-01 9.683645950837375949e-02 5.134182680673093913e-01 3.310738918544925413e-01 5.131174227849264469e-01 4.960072331928317979e-01 4.913334423126864414e-01 5.290675388657088973e-01 4.463750057753381739e-01 5.176805500899585022e-01 4.900877907727021476e-01 6.153069738238520214e-01 -4.327904551730302751e-01 5.655386571184277678e-01 6.883939824258892282e-01 5.534782284479650150e-01 4.910403547379607603e-01 7.686827869103116662e-01 8.111362227063305674e-01 8.152545781988443929e-01 -1.121669792745751265e-01 9.152068693725350368e-01 5.134538699447753762e-01 6.229391234682856160e-01 -6.579328308184345664e-02 5.000240683193596380e-01 4.132489672861330288e-01 3.998817547027055386e-01 -2.518103924350850037e-02 -1.569709165813011065e-01 4.770898606775322293e-01 4.953130301710010341e-01 3.956363527232825000e-02 4.998570644047272138e-01 5.305151205291971372e-01 1.052219591279357047e+00 -1.139923422010618304e-01 4.503794571877168806e-01 -1.223410306826311134e+00 4.628511827201061135e-01 2.774538820141680961e-01 4.804160036883923235e-01 5.132006425109109093e-01 3.008605592633141201e-01 5.073583916722189668e-01 5.073520313271552284e-01 4.598292391220246689e-01 5.051902771093341737e-01 6.340438091858917602e-01 1.484232206338032878e+00 5.633332037718212781e-01 4.704576959313683249e-01 3.054461132368847531e-01 6.877495501076097417e-01 7.609850735647413211e-01 5.134934451395150035e-01 1.942565628020703983e+00 5.135931148208277008e-01 3.678818140105324375e-01 8.568687286606861964e-01 4.925880248143120199e-01 7.676471410414956731e-01 4.921476266621892526e-01 5.062562799836632932e-01 4.960095179083689465e-01 4.742374477706038371e-01 1.592223314419571878e-01 8.852891410590377763e-01 8.489967611479406484e-01 -8.976637343444833494e-02 6.126430445755999266e-01 5.333375085002246552e-01 5.654981623255468381e-01 -4.007792040176485493e-01 3.470898139287060813e-01 8.345953182160592565e-01 4.507137042981050890e-01 5.099640152484355982e-01 5.177218580774550771e-01 6.267939263299884267e-01 5.041837948984284612e-01 2.130858445566061465e-01 4.503173525475259176e-01 5.353865410235653099e-01 2.493896337607412472e-02 4.956713194622113239e-01 1.654344766506354203e+00 7.008766244941434520e-01 5.047546299840038886e-01 5.130444416857324885e-01 -2.364392869486969584e+00 5.357766910132250038e-01 1.312521967841765447e+00 4.803259340411820677e-01 4.592298283453564722e-01 -5.630196683193199325e-01 5.233998452685156844e-01 5.170521466703400515e-01 5.509025567485149599e-01 5.021210048911208812e-01 7.200704915833847641e-01 5.569506194515211339e-01 3.301962613018684101e-01 5.213880646683115572e-01 5.217408635584496190e-01 4.987178391078309070e-01 5.020571262019223324e-01 4.813370590498239898e-01 5.269428710267837213e-01 1.034398912841279827e+00 3.191498969234609490e-02 1.935886111337044024e+00 2.073496025804264509e+00 5.351111390042356808e-01 3.816927843595789571e-02 5.199351042467128536e-01 4.417766038828877528e-01 5.548353359820696884e-01 1.140705387916331803e+00 5.473245945763209885e-01 1.000187254823715399e+00 5.244077804355360417e-01 3.203103307682306777e-01 1.156420746776174235e+00 3.799063533038934959e-01 4.297960003737369972e-01 5.084830896640893938e-01 5.705782242872246002e-01 -2.252911993491771625e+00 1.322019430680420493e+00 5.012724502998711085e-01 6.515083896435567290e-01 4.920974014018548170e-01 1.026086211821658045e+00 4.176988881618434180e-01 4.900284976709524676e-01 2.745546503923549930e-01 4.154310960708658684e-01 1.376822312816874616e+00 3.025191185689793394e-01 4.849087735444544411e-01 4.998560906309424401e-01 5.685768626595871789e-01 4.705826064743282022e-01 4.532357321042544962e-01 7.739942662786091221e-01 5.005427725801558925e-01 4.931651488895963387e-01 5.372125238388852919e-01 5.475461900158332673e-01 5.115660982990595240e-01 3.790580591734927229e-01 4.900283996482560633e-01 5.696989677689439091e-01 5.131067458894569278e-01 5.207055313948812936e-01 1.062416116615434669e+00 8.718391252953848758e-01 5.093042126585707319e-01 6.708668994888142834e-01 7.665111264837396465e-01 -3.882455843658279282e-02 8.239400532033624991e-01 4.528232885282290621e-01 2.586296143153601901e-02 5.506250017445148970e-01 1.090172613817216529e+00 5.444469344342215411e-01 3.697709314181915063e-01 2.261176625785005501e-01 -2.354674080757844790e-01 -1.745738573776111080e+00 4.881634047812717925e-01 5.685768571032001617e-01 5.685768571006689642e-01 4.963470581742712717e-01 2.920129134266511994e-01 4.937255287734570314e-03 4.868230762209207474e-01 5.238360222286478907e-01 1.868981785727923950e-01 5.220989586738045141e-01 1.160379258347528530e+00 4.849091984801630617e-01 5.155272299587865259e-01 4.997192540319994047e-01 5.054397688199341321e-01 5.341103563159023127e-01 4.813365210798183358e-01 4.773249632729564818e-01 7.605673003648678598e-01 5.824025022418514164e-01 4.514982361455865956e-02 5.685768529549402039e-01 5.901149690668693326e-01 5.167832662331103277e-01 7.762153310634014591e-01 7.436377392182339507e-01 6.202010261239180311e-01 5.518082065341354259e-01 1.129733069671600809e+00 4.147953137227535780e-01 -1.624403291413522021e+00 4.812341356812034898e-01 1.248658710610088152e+00 4.897928766247827137e-01 -5.511345822878761513e-01 4.781371885379429587e-01 2.850973324051042090e-01 7.976871838868310194e-01 5.134768802948657118e-01 6.944626861556579822e-01 4.930133182334209274e-01 9.768374047498296076e-01 5.310020967369408762e-01 2.885795736895958030e-01 4.866745958540150130e-01 5.338105673364127446e-01 6.853360506125411034e-01 5.062688566161961390e-01 8.274590111447767127e-01 -5.565776537612238811e-02 5.443029018738796410e-01 5.130630426025328816e-01 5.710224240058469070e-01 5.024492168382063140e-01 7.232314789269224109e-01 5.162547634671478258e-01 5.657319412431763839e-01 8.202482294451262090e-01 4.973526851400474902e-01 2.573028151401215990e-01 8.485916818148740715e-02 1.256885882766240747e-01 8.324245014914712915e-01 4.984612382489900240e-01 2.501933822063183488e+00 5.875736146023309292e-01 5.425780498396635121e-01 5.884126178078156189e-01 7.786887971928359020e-01 1.979366529284370610e-02 5.099244626959248405e-01 5.223062740978569041e-01 4.636781981062385594e-01 1.079506251060084132e+00 7.240130972996073888e-01 5.174667051166712550e-01 3.545886615350716808e-01 9.307199210077410356e-01 5.009627362187898392e-01 5.022836778890761300e-01 5.170923442794218561e-01 5.793352802196954920e-01 5.318690817906207569e-01 7.351475790233795715e-01 4.945719735153499830e-01 5.195492389871744221e-01 2.982976075905151292e-02 4.917937984959973030e-01 9.354231936128460517e-03 5.264968150049862405e-01 4.850965595511536055e-01 5.217871990915272651e-01 6.921491100340522173e-01 4.822934545519739213e-01 5.415595805132529250e-01 1.218152438919891528e-01 5.577156596557638624e-01 5.133854572916863868e-01 3.805852355718734037e-01 2.588350866788874730e-02 5.176570660173311911e-01 6.887172513059891532e-01 4.973864905143237092e-01 5.586560436486718295e-01 8.063756827920468551e-01 3.381042725786663206e-01 5.321440296990295193e-01 5.049533185332907292e-01 5.206501678706568770e-01 5.334406145964494250e-01 8.738657466396960727e-01 6.054649342963285275e-01 6.054212867645830665e-01 5.827810425692089291e-01 1.573085711340282078e+00 5.086301874396936817e-01 5.133036445382982427e-01 6.152809081607009123e-01 4.493812027488056637e-01 3.148151966122952894e-01 4.417452916618802572e-01 -3.851783380462753814e-01 5.810268960404640914e-01 4.907443455614781125e-01 4.749238723390012962e-01 4.314859162779257629e-01 -2.322292600396385909e-01 4.230208046171806124e-01 4.950683988252492229e-01 4.291079936420162944e-01 5.916383588966070972e-01 4.903163854511826680e-01 5.269081858568894772e-01 5.111269025625583273e-01 -2.376613069080573681e-01 5.017967492609043401e-01 8.931665236641002092e-01 5.942573829868480484e-01 8.509544411079104920e-02 5.442901341477468513e-01 1.829192232308096133e-01 5.261246219360183884e-01 5.887340112684951166e-01 9.655556377755030173e-01 8.428794525711200691e-01 5.165753171915575814e-01 5.112859180706608164e-01 1.557413223700420402e-01 4.801273789341007903e-01 5.589253911697339428e-01 6.685472753177325034e-01 9.729765510240764165e-03 6.059642579085233738e-01 6.115119838869108593e-01 5.185219892579400192e-01 5.774992691658048516e-01 7.116198146430674498e-01 2.727618143929784744e-01 -9.783635759158995637e-02 -1.003102662265096534e-01 5.356237715944576205e-01 4.914717018983008057e-01 4.895412101302736851e-01 5.276628864660057872e-01 -4.795624577425110502e-01 2.462942434378873724e+00 2.762950802113778304e-01 5.395646490198398038e-01 1.003394026241587911e+00 5.061902245535443434e-01 4.752356438888074575e-01 5.088634710241294323e-01 4.795306919627304043e-01 4.324940188056200507e-01 5.075409480272271567e-01 4.737637974009940578e-01 3.810310077320409050e-01 5.432394593749350076e-01 5.070917930160633302e-01 4.147596189368136232e-01 5.944174446320912297e-01 4.948918527402279000e-01 5.114757060743645445e-01 7.826889814847595161e-01 1.894324814591375805e+00 4.241538265860093637e-01 4.866440996803153007e-01 5.586888659975313143e-01 3.397332601750265302e-01 4.321020865428831237e-01 5.152300125195022895e-01 5.101214027274908469e-01 5.035723489195601532e-01 4.838242839347224322e-01 4.763788496505562131e-01 4.798242056474170125e-01 5.712189581724750331e-01 4.795109002794427089e-01 9.955781518528776797e-01 9.381503532561736858e-01 2.558642045553568001e-01 7.609422849625780971e-01 4.998929165124576524e-01 4.487190761931826866e-01 1.751226460659180528e+00 2.291780757965496962e-01 5.385524813157737123e-01 5.093095135890473024e-01 3.393263969090509757e-02 5.001385513664107219e-01 1.246018774550712305e+00 4.917836601643667538e-01 9.179462359402589255e-01 5.156212723399442588e-01 4.928188625337541762e-01 4.889067191121487244e-01 4.192805966926874128e-01 5.091076040182272999e-01 5.128056430058107740e-01 5.117688234865301888e-01 5.360856490865778534e-01 9.520906527259904994e-02 5.336105505560599926e-01 4.571894024387604949e-01 5.006142728397747765e-01 5.129711974491624193e-01 7.608992680070458814e-01 6.878153563887694499e-01 6.025241160513393757e-01 8.706748163392440398e-01 -2.186804120151525921e-01 5.087354019197418697e-01 7.648535386186133822e-01 8.767680577430945199e-01 5.377929601956514816e-01 5.123957397161695848e-01 8.727851797396939115e-02 -1.113158084432369188e+00 3.787050963758817335e-01 5.943046646829578394e-01 6.779566089603531465e-01 5.192578552679369963e-01 5.580319600489270782e-01 5.370351754784752352e-01 -1.432274582752576519e-01 7.778315626418017548e-01 5.177214688968120315e-01 6.850398815425710053e-01 4.917507177026755882e-01 -1.306689100290285843e-01 -1.743777737938788930e-01 1.206811616937720100e+00 4.679423816629809108e-01 4.326612475495764110e-01 5.122172631535640841e-01 4.100071269793632567e-01 4.870558128143214205e-01 5.960130346512558797e-01 7.929301859508268713e-01 4.938528136725917062e-01 4.607735105155761901e-01 4.430698126901876921e-01 5.506309606559430803e-01 5.061047331341012034e-01 4.581113194682229217e-01 4.810407004255610186e-01 5.642238415654041717e-01 8.811578029889317598e-01 4.391102793320426079e-01 5.039429563138418944e-01 5.116785174649733925e-01 5.191023239220163843e-01 6.374393038731710481e-01 2.718677085697880288e-02 4.900284867267369338e-01 3.768054788086184215e-01 4.715803114644750993e-01 6.493394669182280809e-01 1.193179594055560289e+00 4.417116682224888069e-01 2.989868757368057892e-02 5.021581553113142471e-01 4.940859453097879439e-01 5.231441719365416132e-01 4.745352076664997032e-01 4.811242308438365978e-01 4.555659404934132573e-01 4.835192039671715181e-01 8.453753782444556331e-01 -4.497661620032852303e-01 1.594334169212687113e+00 6.587856917056954531e-01 7.746723289313939276e-01 2.855970776521795096e-01 4.166703199197774321e-01 3.550493254695316625e-01 1.611170718727149842e-01 4.976354152306210477e-01 5.304132887846165767e-01 5.945615883299087967e-02 5.229112899876393605e-01 5.388528816756967821e-01 5.085228936212717876e-01 1.026789170226349412e+00 5.296493806984079455e-01 3.354935172174328128e-01 2.379663430063166107e-01 5.003565536315823792e-01 2.541872774046491923e-01 5.047118455267705084e-01 5.721018803342324821e-01 5.392598037129107125e-01 -4.573076673134403580e-01 4.472059257554435452e-01 5.809911590080659716e-01 4.983969180837216628e-01 4.801540931706175797e-01 7.643971342711172179e-01 7.568805087535466214e-01 -3.441212266319838564e-01 1.017757109649516600e+00 1.026086258258603667e+00 5.537162313560726190e-01 4.647906715854921433e-01 9.375220263746463223e-01 5.105172097384028662e-01 4.811575283813047665e-01 5.044492785796013123e-01 1.101882746929429890e+00 5.195854472965654169e-01 4.998555417104038612e-01 1.157933595873711585e+00 -5.209559661283789944e-02 7.256649844952233197e-01 -7.097316483573661017e-02 -5.858716777327417358e-01 -1.750722228383931045e-01 6.908404895900981391e-01 5.066238530517609417e-01 4.198692231967215416e-01 -3.178754034062451495e-01 5.131506631585039946e-01 -1.825590963350061380e-03 3.059285404584543566e-01 3.883574522324426681e-01 5.121165215791924075e-01 5.227576301852989715e-01 4.991991681553855642e-01 5.627693793761093799e-01 7.863617069393191716e-01 4.328670797997559438e-02 5.165759901790702990e-01 3.884439195170480974e-01 6.003182039102362699e-01 1.031449501257850399e+00 2.948442190414917730e-01 6.813024933727765964e-01 5.603322961692647208e-01 9.659231861059301705e-02 6.954748906294399013e-01 5.015244959672472413e-01 5.165442072262448336e-01 5.224997750201039182e-01 4.715534281297125152e-01 5.412952501391590232e-01 5.000844184306665330e-01 5.342359423763212156e-01 3.350898093309226944e-01 4.824465397583210247e-01 7.852817710040471688e-01 1.991070753547199645e+00 -1.207713587931671800e-01 6.131842450991821236e-01 5.195491561147369541e-01 4.597325582730704685e-01 7.260101836137785591e-01 2.198945293978701865e-01 -7.735318305110131520e-01 5.121087975745819421e-01 2.057045431031371052e+00 4.931191381914112881e-01 2.007896718549727066e-01 3.519556756501494577e-01 5.177215405654176372e-01 6.985922667575144018e-01 1.172117437070486989e+00 3.538014379394546216e-01 7.684549918161794058e-02 5.248214870246237229e-01 1.070638532073395544e+00 4.031665739118523994e-01 5.102367585751527157e-01 5.294665394269334469e-01 8.147703716349844472e-01 5.770720170685620376e-01 4.026273387291347539e-01 -1.771605700795161886e-02 5.505141086541552875e-01 4.992122838050524480e-01 -3.876187676415344119e-01 5.044202865944057423e-01 1.029954557708803620e+00 2.445173280269718752e-01 2.891168840569014464e-01 8.914256902828215923e-01 4.733267231293971089e-01 1.725582930518108515e+00 4.331410549660045239e-01 1.154262811885721843e-02 5.977684060488624995e-01 5.336408247341386524e-01 5.386941281896160394e-01 4.693126026135729378e-01 6.523016207675569333e-02 5.275544712229744970e-01 -8.028815137536890467e-02 5.106309594985167788e-01 5.684030257780623430e-01 3.799325839591498333e-02 -6.768124419223371657e-02 6.030324135082527626e-01 4.113945654882305014e-01 4.957575480705292414e-01 5.099266495799822385e-01 6.828013108392710917e-01 4.985486155501085981e-01 5.322608960825786495e-01 5.627558366913311128e-01 5.114404699290021616e-01 6.624122732440249628e-01 9.522022847640995158e-01 2.463296672003003618e+00 3.857830548133968640e-01 4.868339922163228972e-01 4.959431493534776636e-01 1.371405470545669081e-01 5.058899040018244309e-01 4.913200822316634020e-01 5.190293651307186229e-01 1.272791957230088089e+00 4.580893316012738525e-01 -3.629431130859560040e-01 7.210687982140176477e-02 6.621474146026071761e-01 5.797729140377958501e-01 5.071051559567725242e-01 5.320839010628862775e-01 6.628391680684045384e-02 5.141263464279401951e-01 5.583326592479432859e-01 -1.737974778797962250e+00 4.975686381897271304e-01 4.977831911402742504e-01 9.684129306253170810e-01 5.498808770571449456e-01 6.935636176706785339e-01 7.891393571559753850e-01 -5.254013234385407349e-01 -4.505294303135696232e-01 2.454015879572445623e-03 4.917439696600625076e-01 5.234771282990923202e-01 1.022670479239196073e+00 5.088199182836692369e-01 -1.577485811795123205e-01 9.098307466148688460e-01 4.942748870352565160e-01 6.573911524954474395e-01 4.875051424927599464e-01 4.710969916373621280e-01 2.945195387025489331e-01 -3.735342421475053021e-01 4.838023557011798537e-01 5.167810049806713657e-01 2.601022161600159976e-01 5.134253044982716174e-01 3.998269756287353149e-01 5.240618148380533636e-01 4.509715700446978448e-01 4.927904664212153230e-01 4.468160819974604236e-01 4.926451974480564044e-01 1.026086264811449045e+00 5.360571883238817170e-01 5.180988577181880883e-01 9.113332610232714737e-02 5.077590156208973138e-01 5.283630398949697993e-01 5.105817229055168438e-01 3.670535704619679040e-01 3.150211617287076438e-01 6.783953071943639168e-01 2.860352904054945244e-01 5.378454224049514787e-01 4.913421829374569616e-01 4.767963489458247328e-01 5.396653616906107453e-01 5.147875012933115224e-01 5.113249706006619544e-01 1.017853595836521574e+00 5.109453268061588949e-01 -2.952333983059314271e-01 3.442872982191920728e-01 8.054709288486081586e-01 4.911994097469831733e-01 2.283437668543244481e-01 5.086090393444342439e-01 1.680524131539874733e-01 -1.960989042451540335e-02 8.175241918447745393e-01 3.713000860477528864e-01 5.325860113558823494e-01 4.472787633464804236e-01 4.901269657266532631e-01 3.936124521047562053e-01 1.234752645573416130e+00 5.192461175601744694e-01 3.978406125555469242e-01 1.129959711941612849e-01 2.621280672703392711e-01 1.051254279357416888e+00 3.685250237053288025e-01 5.233883298308271703e-01 3.674864123140409999e-01 -2.254944155547826123e-01 5.718222666016288258e-01 1.064317664953607245e+00 -6.810602401148514451e-01 5.923553740361139353e-01 5.010391025974904045e-01 -1.452700223604454499e-01 5.076645495263067964e-01 5.369693496483726181e-01 5.005474700101700813e-01 5.133896829809064810e-01 4.172442031795182693e-01 3.124897178053970270e-01 5.208547000932005622e-01 5.056622048797265734e-01 4.846474209692044899e-01 7.823980621369822086e-02 1.024672217414426711e+00 5.212752885697928829e-01 9.812119921560683578e-01 6.234658347812507273e-01 -3.838696787960257928e-01 7.107008933091727432e-01 5.082871947113845046e-01 3.170733918240841720e-01 -2.712798404017148501e-03 6.376282352162423450e-01 5.107281556884991636e-01 5.150076481291460118e-01 3.822822130429732734e-01 4.049329655760784685e-02 5.224222551285678806e-01 3.716391620191298872e-01 5.523629932944431609e-01 1.762124325256774204e+00 6.965247935935303669e-01 3.404526134651340019e-01 5.060785941244961839e-01 1.485507563356601723e+00 2.144335744513051478e-01 5.090076568879301488e-01 7.084518774676433761e-01 4.900284933939590415e-01 5.167909002445558730e-01 5.188363913046503129e-01 5.206605492100073729e-01 5.167838918405038839e-01 5.328027311611542860e-01 5.298894378998292298e-01 -8.716723294007980294e-02 5.025462807171174884e-01 6.738491074061987440e-01 4.401604910647566316e-01 5.479356221205162747e-01 5.165108139132473797e-01 -6.567791167051528767e-02 3.568945041529673068e-01 -5.880485440458448343e-01 -2.422224990947685064e-01 5.202241126163991147e-01 5.094064357597940518e-01 5.852887214949515915e-01 5.080931731902238457e-01 4.739928719313371008e-01 4.199296508587305188e-01 4.900285051614664544e-01 4.991640672300590165e-01 6.113831652597756516e-01 5.591012180810629451e-01 5.210890548797069144e-01 9.300841756351256873e-01 5.783391022839060591e-01 5.171409903151118481e-01 1.578552558077148116e-01 5.124385485712928956e-01 5.129007738026365448e-01 4.980035911176077801e-01 4.468075917335189717e-01 5.028819240159585480e-01 7.577068726605192817e-01 7.324206622602354999e-01 5.178875649346941223e-01 5.191572916223162748e-01 1.532989852894098004e-01 6.929544563589074002e-01 1.644505861479479192e+00 5.024572477807498494e-01 2.563316015582068341e-01 6.077195472734013837e-01 5.071592685576313819e-01 1.010093541793176675e+00 4.550033077824969241e-01 7.977562644706902573e-01 5.224866510245599338e-01
7.121422787763080908e-01 2.712206727857344735e-01 5.154396649344399339e-01 4.579723388931697392e-01 3.014676561247068287e-01 2.805923471454702667e-01 2.763707178066860393e-01 5.278038706741801089e-01 4.207040794578588150e-01 3.155733088451112556e-01 1.653820987493336725e+00 1.431450348674003115e+00 -9.695374243642626011e-01 3.056412485185028283e-01 3.651050423633538378e-01 2.661876033623227777e-01 2.158639733785265302e-01 3.663589148094363313e-01 1.700549325821550384e-01 2.980678001940608723e-01 5.027913988640134724e-01 1.611092373969084335e+00 3.278235687174367308e-01 3.377909474042204985e-01 1.789994426192071941e-01 -5.708042795452372697e-01 2.765059236109796981e-01 2.537112999530780066e-01 3.447967431012282091e-01 -2.323583976697789488e-01 2.505965081597059108e-01 3.819294800283672409e-01 3.521498569649971766e-01 3.196052269568186444e-01 -2.472781848401749138e-01 2.433964227622207877e-01 2.886991262344732467e-01 1.149836223858243800e-01 -2.325576220908679215e+00 3.015772269284837104e-01 4.134916184970976460e-01 1.224284566405865887e-01 -7.805397972174454857e-02 7.009310209733802255e-01 8.990451193842148303e-01 2.963228306838575077e-01 4.593996086150612945e-01 3.040263976686374825e-01 2.243818065728944156e-01 7.998248158236616057e-01 7.845993296248269244e-01 3.216024465101215424e-01 -6.885961487898465405e-01 3.767045921400088426e-01 3.037104233400390041e-01 7.524609641743483790e-01 3.467834947834754211e-01 1.556236261896945250e-01 3.745248214395564545e-01 2.766330892690906929e-01 3.487200350741945787e-01 3.534851268684240377e-01 2.932159026427914039e-01 3.278237711380908581e-01 4.481277111973972632e-02 1.980673871360847937e-01 2.995829947185335018e-01 1.897995381394061709e-01 3.715021438786249575e-01 8.392531623177508227e-01 1.856757345720732311e-01 3.378981738351086728e-01 3.225095615658771786e-01 7.753535905942721129e-01 1.529354999329665787e+00 1.980128621769447206e-01 3.942045368667956851e-01 3.873367067580712475e-01 3.244884752997662658e-01 -9.830644330438170764e-01 2.752719835526795666e-01 9.317566358007428606e-01 1.276652932167452459e+00 2.134395489060325612e-01 3.022040747162839103e-01 -6.806182574076452552e-01 -2.058423115286065613e-02 3.349426882651492243e-01 -4.170609350953790040e-01 -4.964478288837382847e-01 9.028647599244722377e-01 1.096008642365259522e+00 2.307571389987997934e-01 7.556452266861541922e-01 5.636888241929677301e-01 3.464154535398720203e-01 2.012527061531196315e-01 2.795667228859897158e-01 7.778718130306825351e-01 -5.864751577810879413e-01 1.834927024165013132e-02 2.105876702828462510e-01 3.034604635334010037e-01 2.883199586798782521e-01 3.185299695815985155e-01 2.206323389296779069e+00 -1.613427932189040181e-01 -5.696926615064347166e-01 3.017582343877106554e-01 6.984148283443032401e-01 4.546360124781556045e-01 2.763439119165728153e-01 4.236000005742439622e-01 3.022981850975285378e-01 -5.598665462583538588e-01 2.742802716717722133e-01 5.431960248786031897e-01 1.816859475874106067e-01 -2.264759517361996655e-01 3.315615099073748739e-01 -1.100027854040903197e+00 2.859504684246671480e-01 3.564076300028938826e-01 8.018768018081492976e-02 2.526600602538506823e-01 1.657860616376116258e+00 2.944728068192750681e-01 3.089501041961758010e-01 4.392409065121383738e-01 3.248999315348977124e-01 3.115124069965142795e-01 3.306457463507272432e-01 3.226696500119879962e-01 1.476715952066255666e-01 3.161778097917707364e-01 9.273155407309418008e-01 8.082083656649320658e-02 8.043152364767619522e-01 -2.337455807604083280e-01 3.138966106295493774e-01 3.279872722790597162e-01 3.190890124710479281e-01 2.219101339321671584e-01 3.311092238846504721e-01 3.225848715724219939e-01 7.411657498051984483e-01 6.743269820605460874e-01 3.158835098169023858e-01 4.212633752650973840e-01 3.404042164590302955e-01 -5.281676773378117806e-01 6.237543080929806166e-02 2.959638648694555285e-01 3.344895529326933903e-01 4.849516836815836451e-01 4.179578314819180074e-01 -5.157606102957804639e-01 2.922063516479282419e-01 -4.842830503710444101e-01 -5.900312741597316668e-01 3.228993145781005047e-01 1.628482326467082797e-01 3.197081950993002075e-01 3.177142648620204235e-01 1.072565959126528350e-02 -1.201760882981881412e-01 3.843867461570821265e-01 3.441253297274099454e-01 4.123153538866683454e-01 2.085527669817871244e-01 7.376113874353573685e-01 4.573791411362705395e-01 2.965267727183932833e-01 3.246615590513228233e-01 -1.919371919037535124e+00 7.315237162014495143e-01 8.285314539524570865e-01 1.026720935391804979e+00 -3.370053594740637926e-01 1.051869220515561754e+00 3.547091177862065625e-01 2.429110856962354292e-01 1.013133840404101038e+00 2.584540068395977941e-01 2.549852556889082300e-01 4.574460376326144329e-01 2.923137543760405133e-01 3.297703274676153096e-01 -1.584908072375408317e-01 1.312882186678983043e-01 4.604322858382865480e-01 6.153169725126663714e-01 3.044180611074661091e-01 3.839613483199701971e-01 7.985058221826205060e-02 3.228156213235969796e-01 -9.824118701437350998e-01 3.126619613024867461e-01 4.182516404982331015e-01 2.402912393847950467e-01 2.645786256033049733e-01 2.077318801562667017e-01 2.127611390658631640e-01 4.780255676621728705e-02 -9.374239135832256320e-01 4.182516837430879653e-01 2.910389632865292842e-01 -3.523572523107281751e-01 2.946418432253569142e-01 2.440029583974272498e-01 4.939474064122603703e-01 -2.332593653993986216e+00 3.144951185141457994e-01 8.355694255869576814e-01 3.034776248434925550e-01 3.279087725565759670e-01 3.496580278906699646e-01 2.853615371864766659e-01 3.099064810168984385e-01 3.034468201228594508e-01 3.317471972396335844e-01 4.369076574640153865e-01 5.381981196776934873e-01 2.494684224983606535e-01 2.657533022077348539e-01 2.449992811237948764e-01 3.466396917660479748e-01 -4.627147856217303512e-04 1.564489914155150485e+00 -7.083185455349533255e-02 1.052578372394332940e+00 -1.175801190893775772e+00 3.079927218401383726e-01 1.886319935603337217e-01 2.645998676736480704e-01 3.479216945393177052e-01 -2.099279271516197587e-01 5.045738907246551941e-01 2.170189813459011685e-01 5.677292622580245585e-01 5.555355739309586482e-01 3.326784466776454008e-01 -8.779951938472211337e-01 3.179741454403731127e-01 2.752417937332691800e-01 3.868603082818612010e-02 1.051977762944839023e+00 4.730545004629743144e-01 2.066517519860795904e+00 4.111678538381886017e-01 4.982208288098899374e-01 4.189764694320289307e-01 3.089495449536486804e-01 3.278237957787493162e-01 2.992981058757781532e-01 3.369454615651563123e-01 2.090576434162815800e-01 2.927432635421318707e-01 3.439341629032879877e-01 5.277348271954231951e-01 2.459161209377491442e-01 4.289623785466957218e-01 3.833455947503390804e-01 4.833537358514110593e-01 3.457950546698255190e-01 1.451469675291384154e-01 2.220347267650347067e+00 3.123349921194361611e-01 6.711384648876382863e-01 1.590698195239269655e-02 2.960473942920905377e-01 3.704942347514419976e-01 3.506716386076590419e-01 3.344932243393224924e-01 3.351379261472743898e-01 4.074150911697783095e-01 1.960669209474396046e-01 2.825165119670678959e-01 -2.430411677012489849e-02 8.541913234823778067e-02 1.220325583701370453e+00 2.857253541497199456e-01 3.228700541049890627e-02 1.724729801249356598e+00 3.613406219732057112e-01 7.253165088256926518e-01 4.205102004835394869e-01 2.981099644276701266e-01 2.742786759322677903e-01 -1.640947395563276512e+00 3.266737174053665482e-01 5.623647154156818928e-01 4.788341787909210501e-01 -4.404043478694436575e-01 7.320289709817212609e-01 3.152521465369713671e-01 -5.244796313173581970e-01 1.794127575650854289e-01 2.989795871008562034e-01 4.217149248522366056e-01 -2.020623687159605608e-01 2.853447253699368247e-01 -5.533290019663917869e-01 4.572218715780826948e-01 3.379067641937338884e-01 6.500829051003198522e-01 3.026043592005781546e-01 2.921553470284405929e-01 3.008183101180726404e-01 3.191834390154854040e-01 2.138040753422859597e-02 -5.690663504823740837e-01 7.763108482093881990e-02 2.891560611403482528e-01 2.999611719950325828e-01 3.337047633490740073e-01 3.181960644274579586e-01 4.570866760989094613e-01 3.186551624630455937e-01 1.863840802102363803e+00 8.008830600578091818e-01 2.423758084746421293e-01 -7.674375009417823135e-01 2.481429507416516023e-01 3.180510650581040544e+00 2.825947214240702721e-01 1.627904332719850578e-01 5.231506981296532022e-01 -3.977693996046911096e+00 2.915052921934189745e-01 1.105808243771819077e+00 3.100499074761207674e-01 5.752901100635391396e-01 -3.271576416566241985e-01 3.206993048508831046e-01 3.835584453456732379e-01 3.032886003729077240e-01 3.340377683929596775e-01 2.008436590027323110e+00 -2.247942544277016230e-01 3.266175079323104247e-01 -1.594104637562792526e+00 3.115103996560188993e-01 1.149836204608350454e-01 5.459481094111521271e-01 3.600645378743087544e-01 4.140953773891977163e-01 4.942350602385154890e-01 1.342854528809814818e+00 4.328237469701958773e-01 4.182516128335210803e-01 3.179628231069747679e-01 4.780255327056555370e-02 1.525758717881940674e-01 4.199655472740440043e-01 -4.452684542088252706e-01 3.337073740952379852e-01 5.556929755384345526e-01 2.649820803898751409e-01 2.760726737211194881e-01 3.118396694135172065e-01 1.570230478285295495e-01 3.600644280030504962e-01 5.069397735481816492e-01 2.996502901515840644e-01 2.960635424915418756e-01 7.352590944007187934e-01 1.960876808144931260e+00 3.132703097464992203e-01 4.325042309989992617e-01 3.466892686680350666e-01 9.238630628463050387e-01 3.573260129065941038e-01 4.118713686159149456e-01 7.983825294264798034e-01 1.292040521001162900e-01 1.699602716228329480e-01 2.654239990602603738e-01 3.729464227837319679e-01 8.970188546939207308e-01 6.075169613864465079e-01 7.014477105102343568e-01 3.140231739333871896e-01 4.780255677723985186e-02 4.780255676768978973e-02 3.295681155932693729e-01 4.290173406120088573e-01 1.098587465107575101e+00 -1.431169086650896372e-01 3.266923546886353891e-01 3.947788289909288095e-01 3.023541262918802430e-01 9.060368874711625109e-01 4.182517319618312412e-01 2.998369414359139951e-01 3.319625802452879082e-01 7.580544675464195858e-02 -4.922216902796766047e-01 4.746480637305092176e-01 3.095927492880280463e-01 2.217048783108754306e-01 2.690723492343700674e-01 7.429897894084772636e-01 4.780256788756814812e-02 -3.408253180208000721e-01 3.137833938620029350e-01 2.643788034968971509e-03 -4.391083474198214653e-01 2.297802039888490744e-01 -2.530870074856857777e+00 1.086863093375768807e+00 3.146025540805342247e-01 -1.473129284362057478e-01 4.573824716253643841e-01 1.540317182379943972e+00 2.989402652711388164e-01 4.959772145740439786e-01 8.151334601386369672e-01 4.650666694168978932e-01 1.500779766615785438e-01 3.197175556793032114e-01 6.522192229848711165e-01 3.498564297621472030e-01 1.569610381654164666e+00 2.941865735923386849e-01 1.121931823314963050e-01 3.484039670894399920e-01 2.813831596946062552e-01 -1.144747559438519025e+00 3.144822280286159732e-01 4.455337039541720084e-02 3.881728008179570755e-01 3.142036270573353995e-01 2.996924407152616876e-01 2.383751878501821075e-01 3.195216569864087752e-01 -1.337380207817225886e-01 3.084869796577001111e-01 2.493483986981185341e-01 3.166329857401877224e-01 3.322779265458871145e-01 6.843534368581569716e-01 7.180520853219005684e-01 8.522901832654867782e-01 -8.820012044306115850e-01 5.095747102893568581e-01 -9.488598043044024072e-03 -3.421739258881643098e-01 2.145786184098481542e-01 3.456081479904373754e-01 3.252848829631244110e-01 7.664153221843374997e-01 3.219561327869968625e-01 2.744518139285042069e-01 3.760920149350764907e-01 1.117901301703164707e-01 -1.345647048672809210e-01 2.982525991171822155e-01 5.180176340488858999e-01 4.256672964191788311e-01 3.042089993666430292e-01 3.180179205265271092e-01 3.104978091457262224e-01 4.602132881888287286e-01 2.864437289094003969e-01 4.477476913818665416e-01 3.313101945085253908e-01 3.134233222441663025e-01 7.862075517194466734e-01 3.311654971113915935e-01 7.549870654626422706e-01 6.649930213395136014e-02 3.027460690860472869e-01 3.131006196477093551e-01 -1.128292268707530743e+00 3.226117183800118471e-01 2.236049467882748332e-01 5.289368393422602121e-01 2.491734604371997341e-01 3.069902859760262892e-01 5.210194095438122064e-01 7.923627425949620884e-01 3.158058251814558903e-01 3.116857634005603117e-01 3.333575362067374703e-01 3.238373795009341638e-02 4.382569213560684185e-01 1.674335780050503208e-01 3.056929413619161040e-01 4.467025905608353054e-02 2.968267363346910881e-01 1.557051878348320872e-01 1.196297451470398787e+00 2.356404182510432044e-01 2.522167502198897626e-01 2.792927050394189981e-01 -5.286775720761983655e-01 2.990833156854964536e-01 2.888372401469922468e-01 3.079570026035691188e-01 4.798020436073296979e-01 4.885639751585203472e-01 4.033771539741687340e-02 8.108870751129301224e-01 5.155347056401056172e-01 2.454948325132690901e-01 3.609071291900369793e-01 4.010722042361614670e-01 6.909347011429887164e-01 2.274218592239777514e+00 3.218538359909345892e-01 4.284250579701464057e-01 5.881064378434756046e-01 3.939957700633292537e-01 3.290600066034510829e-01 2.951818367637394358e-01 7.607884125778895390e-01 3.175084333569898054e-01 -5.021936279035614514e-02 2.380960800689367607e-01 3.757649157945264218e-02 6.061380490713409036e-02 5.319773619653157537e-01 3.006655566358374942e-01 4.489939222859927748e-01 1.409254371623168689e+00 4.711440901931594483e-01 3.071870238847420609e-01 4.772909261764755051e-01 3.290802943186671436e-01 4.578513196213309655e-01 3.214911473077201043e-01 2.066706664691824180e-01 7.774838986435237409e-01 2.780088682298064717e-01 3.976365563230933042e-01 3.105215264201625636e-01 3.049039433601289373e-01 1.415340838599622453e-01 3.668540236105294894e-01 9.524205409901002062e-01 3.960160556128787812e-01 3.063062202453153970e-01 2.874089705353210511e-01 2.327219656375036638e-01 3.211734455592243354e-01 5.259766405506051123e-01 6.128253262215269670e-01 3.968416306785375047e-01 3.155427627247858746e-01 4.215991798891107756e-01 3.055887245474223635e-01 2.174513334297981382e-01 3.832090487965588710e-01 3.667973178133683287e-01 1.891718151024423533e-01 3.117579470265738895e-01 2.674210184662254575e-01 5.311099730339863267e-01 2.883034897450235112e-01 3.110994102852309706e-01 1.218138847509790512e+00 2.928204956194028208e-01 3.243757021718236544e-01 3.277747400998630711e-01 9.141190395368041788e-01 9.534169965975286543e-01 1.251528534285806515e-01 -2.297777205010517187e-01 -1.626017742242297504e-01 5.293969083999245928e-01 4.551301972575607091e-01 3.071625432445838078e-01 3.272492661724089036e-01 2.904929015704764694e-01 3.589631353562490190e-01 2.620513124728443555e-01 4.574003693370374823e-01 2.256358580166153982e-01 4.740976678522362819e-01 7.908291196625173436e-01 -1.708543458858153771e-02 6.822255674307435847e-01 3.460736437692482070e-01 3.252439626606240530e-01 2.889592368308802062e-02 4.657819435474537251e-01 9.007402758833171763e-01 2.410667300180151518e-01 5.972310365639611485e-01 1.265325123855562284e+00 3.093105214088458510e-01 1.544891807498542935e+00 5.783418883051472115e-01 1.236429066463121673e-01 3.009352289026830940e-01 3.434313504819876961e-01 3.712564198085803180e-01 2.085585394472243281e-01 3.101367866738669044e-01 3.035269962219462880e-01 3.589109884239336523e-01 3.328515099326710969e-01 2.002674660581076627e-01 2.827427486107176313e-01 4.494213133973282703e-01 3.267580720348245982e-01 4.222462256944372605e-01 3.461460087972377253e-01 2.653081948504913412e-01 3.709607450861832634e-01 -3.910519707765053310e-01 1.516224898175548841e+00 3.028643773878582635e-01 -1.032195960903806720e-01 3.059518919693675620e-01 3.253718955113859557e-01 3.035223549423320399e-01 -3.439927514402366882e+00 2.679234928308656283e+00 5.150322415380278462e-01 2.285041387564329396e-01 1.336366727635055485e-01 3.034745525938539745e-01 2.519872988180845708e-01 1.971426450851284429e+00 5.066525903351679627e-01 3.937987017989882932e-01 2.742798990856480379e-01 7.872172134653886433e-01 3.498229016888200205e-01 9.312421441392677579e-01 -3.464809272445175115e-01 -5.085185541053742764e-01 -7.195311005399223081e-01 6.248563292475053932e-02 2.986203547738689457e-01 4.631093692382897142e-01 2.065559722310302271e-01 2.198125733332187692e-01 1.767146511159126965e-01 3.345503041844044567e-01 4.032723962089997949e-01 3.030464106910376043e-01 1.876286754265614753e-01 3.322631690626161038e-01 4.157706282170645640e-01 3.812918059536600790e-01 2.571720442255270300e-01 1.161903013139689300e-01 4.318188908431307427e-01 3.185286685545994367e-01 3.114096404157945530e-01 3.078964316222203568e-01 2.891493008978603396e-01 8.276683069667269965e-01 3.600645267754207235e-01 2.925604644835664847e-01 2.975223462176370126e-01 1.758195507241700206e-01 1.924845379516917088e-01 4.037992031440328089e-02 1.073792518663346796e+00 3.013718235041391580e-01 3.323462738661511762e-01 2.930712690828892741e-01 3.532089284787475747e-01 1.121145422389329266e-01 8.442221908290761800e-02 3.537720687488746796e-01 2.316968207998473250e-01 6.430310376445244058e-01 6.413981264340128385e-01 1.868804332241888466e-01 1.443616774130829006e+00 2.900811647552312134e-01 2.224716967456966676e-01 2.007621922548032956e-01 -3.960478726908703839e-01 3.184289732144860996e-01 3.096731188469079576e-01 8.068931264923202562e-01 2.976597982931510900e-01 2.565032854017766373e-01 3.108209043208858824e-01 2.686727720529059615e-01 2.896735584004493935e-01 6.732196934036945857e-01 7.047691332966274924e-01 3.346084925606862548e-01 4.678926397882541832e-01 3.046585493419883273e-01 1.330198685020806681e-01 1.728451023797998587e-01 3.454416193225295362e-01 -3.028638326146526061e-01 2.138165949414790601e-01 3.371732468626272849e-01 4.567883223100777657e-01 3.454507283559488107e-01 1.166639451006800998e+00 7.508314967682307994e-01 -7.259317295344973608e-01 1.149836378789955010e-01 2.482305067696099210e-01 -2.418735017220900119e+00 1.355143438938316569e+00 3.298628078127726071e-01 4.577389840527225640e-01 3.022679075366438428e-01 6.100160029355294888e-01 3.061648612344767262e-01 3.179655362857644052e-01 -3.400958721384172989e-01 7.109957212633748469e-01 -2.492886681110201980e-02 9.306297010756708898e-01 1.674898584341390384e+00 -3.465630818323540696e-01 -1.138722381300023123e+00 3.199606692416797626e-01 6.001654159395741761e-01 9.349430517358711112e-01 3.031633363235329282e-01 7.258575278455958735e-01 4.224231217258719306e-01 2.924684623771588998e-01 3.100123054783737175e-01 3.015783838112857107e-01 3.184193402567839226e-01 4.239161703089385641e-02 9.782916664036348520e-01 1.010072896448194868e+00 3.164836402133489046e-01 4.676128585338624188e-01 -1.327618425907977073e-01 -6.481203728669020225e-02 5.286620952652602012e-01 2.488515101753789038e-01 2.437235264770484799e-01 7.091050542507837395e-01 6.511005652726433723e-01 3.347792419725365565e-01 3.380560191975816586e-01 2.988231321916182126e-01 3.032997857834063837e-01 2.204242081120000862e-01 3.273948015541907619e-01 2.942172975334617635e-01 1.057787852641977194e-01 3.179153741792289933e-01 4.782649990379510552e-01 8.778873481966091852e-01 9.811995076251202041e-01 6.720399839875067505e-01 3.351171248399786307e-01 3.891792582271559886e-01 -4.070608628825031494e-02 1.650806009556722576e-01 -1.205787889696461113e+00 3.164072216773640700e-01 5.687030155157373201e-01 3.524730678975568909e-01 7.050749884955539448e-01 1.107723268005890160e+00 2.742804350448447837e-01 4.737643681067908036e-02 3.427412079758391794e-01 3.498522810564589913e-01 6.984594775228145647e-01 2.823129180590653320e-01 -2.002312966982681686e-01 5.337694742639803591e-01 3.891715452293010857e-01 3.080315484528278192e-01 3.467269521639820273e-01 2.576150896587856565e-01 2.183357062925251613e-01 2.472872737476378147e-01 2.769507243972401112e-01 3.418525621710595819e-01 8.125038017270403978e-01 3.341835858376626112e-01 -1.307533719047301590e-01 7.695107904814307842e-01 3.861338054799220432e-01 2.313092710695530962e-01 3.300174746246510304e-01 1.096809607227222649e+00 -1.837791273884556084e-02 7.749452094952377079e-01 3.497884060665771289e-01 2.945797247785936768e-01 2.897710504668606357e-01 3.040584990186961933e-01 6.878879417990191314e-01 3.270012392759175657e-01 8.848676005034383785e-01 3.152650950895467541e-01 2.506132956635463427e-01 7.860301545373875598e-01 -1.935032213846719570e-02 -1.647512880358182441e+00 3.637753186817533346e-01 3.457948071516802058e-01 3.057498379629535190e-01 6.475469783292425729e-01 3.405000441197793548e-01 2.730005229613775564e-01 2.448384653179890846e-01 2.929123195054846307e-01 1.491021592514922278e-01 -1.382700772383559373e+00 6.553815487169558640e-01 3.415428107511266909e-01 3.445640570377507261e-01 3.481679217612254629e-01 7.188684722877551891e-01 2.956918603433171810e-01 3.649428694210444801e-01 2.827160843937028822e-01 1.001511904342560877e+00 4.364432125853701661e-01 4.025281589242253877e-01 1.083616751175183746e+00 3.743322168910966918e-01 1.773592203374382059e+00 2.876812795727130556e-01 2.773717935461074702e-01 7.430589568027502478e-01 3.000072663366535330e-01 3.077921515427404775e-01 -9.839878079891331009e-01 2.337546237911008185e-01 3.279813497105905640e-01 4.594944976571791462e-01 2.225246844018307080e-01 3.446205556392447078e-01 -5.928814757209757147e-01 1.579430282106172090e+00 -4.508472672321103825e-01 5.412711558486720254e-01 2.968728182655331893e-01 3.226965959068798795e-01 3.581800285652960714e-01 3.132553705432020719e-01 1.017170066404269990e+00 -7.669757994988275762e-02 3.419104471970256798e-01 -6.553181911955315853e-01 5.847659187189397922e-01 3.343273936115173650e-01 -2.163011555500958583e+00 2.140453020907748360e+00 2.692536617566022028e-01 3.172758885986241562e-01 -9.530857382605748551e-01 2.971771240941187275e-01 -1.651715943762346178e-02 2.961382208605470301e-01 3.908221511101666046e-01 5.805945684383368999e-01 4.147966395470812362e-01 3.446769665082956569e-01 1.149836223856805922e-01 1.495859889010293098e-01 3.006882340899824091e-01 -9.186076464411112585e-01 3.281680315774421763e-01 -4.759700679298889958e-01 3.027944729732311435e-01 5.881780835194332091e-02 3.560061297456307283e-01 2.751122249700163613e-01 3.841530489056642628e-01 1.791011692197513328e-01 3.306020381140007403e-01 2.914849875510429067e-01 2.020076658566873073e-01 3.358794730924799521e-01 3.025987460143320651e-01 -7.256694762919808639e-01 1.981528243940191836e-01 1.314889990646243234e+00 -3.641882878579767464e-03 2.765272570527410601e-01 3.421441406973892985e-01 1.216808899542356937e+00 3.379637662032840550e-01 2.568974779271073761e-01 9.264872252973583855e-01 1.526781702479237113e-01 1.327870001235574637e+00 2.687170830376018893e-01 3.116530626361853629e-01 3.459969121425421901e-01 5.582715322994201701e-01 1.211831427182945786e+00 2.496503206442846623e-01 4.270127303212893355e-01 5.513440244012437486e-01 4.797946153076433351e-01 6.477460026610298849e-02 -2.618216664368069879e-01 3.586623716301946541e-01 5.497161886437074152e-01 1.639941145632441422e-01 4.762857847020207647e-01 -4.823358884370293476e-02 1.254694762888660664e+00 2.489103670948416280e-01 3.306911159534062228e-01 -1.959951761069731457e+00 3.780982735654886406e-01 3.049809612492367372e-01 3.127007984775242999e-01 -1.095854525056379897e-01 2.609743391729569262e-01 -3.381754417417540126e-01 1.546595755751625223e-01 3.205021568753553263e-01 2.945746258364854153e-01 1.110266278673990747e+00 1.790015246957112061e-01 2.989730338093627982e-01 -1.098948863249741725e+00 2.077660402633296766e-01 8.133177683379120282e-01 7.437068783239835223e-01 3.010818956304344152e-01 -2.054888306189160685e-01 7.448763467682932848e-01 2.549992857269631208e-01 3.019412847060626848e-01 3.180021211637725220e-01 5.886542815051326594e-01 8.047710106829344401e-01 2.998323898999306625e-01 5.850575831161675122e-01 3.001749311709993040e-01 6.187507615354506108e-01 4.394139001692081714e-01 -1.341697719473067041e+00 2.969527654690545804e-01 3.495234818048387204e-02 4.532272818186895424e-01 3.097451556463078348e-01 3.246652454886227446e-01 3.600645429153609967e-01 3.006385679178572579e-01 3.292326470227902591e-01 2.849882866725289565e-01 3.070562879154767333e-01 2.805760077703275956e-01 3.015739281092925661e-01 -3.354780403786388754e-01 3.189282203669815963e-01 3.095386911342785097e-01 3.047964248179523272e-01 2.464220435063226022e-01 3.009890807384910105e-01 4.537482867042788581e-01 3.746866976670528704e-01 7.611143018515647007e-01 4.765479127288643757e-01 2.921007645116741602e-01 3.037941469727223343e-01 -1.639968928291324790e+00 3.337444039333723467e-01 4.238287083093670304e-01 3.203541283475378476e-01 3.600645325582234046e-01 3.329952596370426843e-01 2.541496148170792613e-01 3.147241304343050827e-01 2.917432629243863484e-01 2.153433732644793874e-01 2.619041342947115991e-01 3.028377947719185781e-01 4.489395938274495790e-01 2.992451817767894373e-01 3.073755265392287828e-01 3.287310814435406292e-01 3.134543893540134296e-01 3.161363786359535633e-01 2.327563794232484218e-01 9.462286151197234207e-02 2.945942302816050296e-01 3.156703393231122812e-01 2.988529316179832501e-03 -3.625528209115531642e-01 2.759648044688912449e+00 3.034766266087378650e-01 6.852938516198163743e-01 1.890666843353864257e-01 3.055505309134481373e-01 1.231065222646340329e+00 4.623350112061987982e-01 7.561019684818409692e-01 3.137988227608784486e-01
