# 
#                 ----------------------------------------------------
#                 Data from a 3D direct N-body simulation. 
# 
#                 rows are i-particle; 
#                 coumns are :mass, tag, x ,y, z, vx, vy, vz, ax, ay, az
# 
#                 NTHU, Computational Physics 
# 
#                 ----------------------------------------------------
#                 Time = 0.0
0.000000000000000000e+00 1.000000000000000000e+00 2.000000000000000000e+00 3.000000000000000000e+00 4.000000000000000000e+00 5.000000000000000000e+00 6.000000000000000000e+00 7.000000000000000000e+00 8.000000000000000000e+00 9.000000000000000000e+00 1.000000000000000000e+01 1.100000000000000000e+01 1.200000000000000000e+01 1.300000000000000000e+01 1.400000000000000000e+01 1.500000000000000000e+01 1.600000000000000000e+01 1.700000000000000000e+01 1.800000000000000000e+01 1.900000000000000000e+01 2.000000000000000000e+01 2.100000000000000000e+01 2.200000000000000000e+01 2.300000000000000000e+01 2.400000000000000000e+01 2.500000000000000000e+01 2.600000000000000000e+01 2.700000000000000000e+01 2.800000000000000000e+01 2.900000000000000000e+01 3.000000000000000000e+01 3.100000000000000000e+01 3.200000000000000000e+01 3.300000000000000000e+01 3.400000000000000000e+01 3.500000000000000000e+01 3.600000000000000000e+01 3.700000000000000000e+01 3.800000000000000000e+01 3.900000000000000000e+01 4.000000000000000000e+01 4.100000000000000000e+01 4.200000000000000000e+01 4.300000000000000000e+01 4.400000000000000000e+01 4.500000000000000000e+01 4.600000000000000000e+01 4.700000000000000000e+01 4.800000000000000000e+01 4.900000000000000000e+01 5.000000000000000000e+01 5.100000000000000000e+01 5.200000000000000000e+01 5.300000000000000000e+01 5.400000000000000000e+01 5.500000000000000000e+01 5.600000000000000000e+01 5.700000000000000000e+01 5.800000000000000000e+01 5.900000000000000000e+01 6.000000000000000000e+01 6.100000000000000000e+01 6.200000000000000000e+01 6.300000000000000000e+01 6.400000000000000000e+01 6.500000000000000000e+01 6.600000000000000000e+01 6.700000000000000000e+01 6.800000000000000000e+01 6.900000000000000000e+01 7.000000000000000000e+01 7.100000000000000000e+01 7.200000000000000000e+01 7.300000000000000000e+01 7.400000000000000000e+01 7.500000000000000000e+01 7.600000000000000000e+01 7.700000000000000000e+01 7.800000000000000000e+01 7.900000000000000000e+01 8.000000000000000000e+01 8.100000000000000000e+01 8.200000000000000000e+01 8.300000000000000000e+01 8.400000000000000000e+01 8.500000000000000000e+01 8.600000000000000000e+01 8.700000000000000000e+01 8.800000000000000000e+01 8.900000000000000000e+01 9.000000000000000000e+01 9.100000000000000000e+01 9.200000000000000000e+01 9.300000000000000000e+01 9.400000000000000000e+01 9.500000000000000000e+01 9.600000000000000000e+01 9.700000000000000000e+01 9.800000000000000000e+01 9.900000000000000000e+01 1.000000000000000000e+02 1.010000000000000000e+02 1.020000000000000000e+02 1.030000000000000000e+02 1.040000000000000000e+02 1.050000000000000000e+02 1.060000000000000000e+02 1.070000000000000000e+02 1.080000000000000000e+02 1.090000000000000000e+02 1.100000000000000000e+02 1.110000000000000000e+02 1.120000000000000000e+02 1.130000000000000000e+02 1.140000000000000000e+02 1.150000000000000000e+02 1.160000000000000000e+02 1.170000000000000000e+02 1.180000000000000000e+02 1.190000000000000000e+02 1.200000000000000000e+02 1.210000000000000000e+02 1.220000000000000000e+02 1.230000000000000000e+02 1.240000000000000000e+02 1.250000000000000000e+02 1.260000000000000000e+02 1.270000000000000000e+02 1.280000000000000000e+02 1.290000000000000000e+02 1.300000000000000000e+02 1.310000000000000000e+02 1.320000000000000000e+02 1.330000000000000000e+02 1.340000000000000000e+02 1.350000000000000000e+02 1.360000000000000000e+02 1.370000000000000000e+02 1.380000000000000000e+02 1.390000000000000000e+02 1.400000000000000000e+02 1.410000000000000000e+02 1.420000000000000000e+02 1.430000000000000000e+02 1.440000000000000000e+02 1.450000000000000000e+02 1.460000000000000000e+02 1.470000000000000000e+02 1.480000000000000000e+02 1.490000000000000000e+02 1.500000000000000000e+02 1.510000000000000000e+02 1.520000000000000000e+02 1.530000000000000000e+02 1.540000000000000000e+02 1.550000000000000000e+02 1.560000000000000000e+02 1.570000000000000000e+02 1.580000000000000000e+02 1.590000000000000000e+02 1.600000000000000000e+02 1.610000000000000000e+02 1.620000000000000000e+02 1.630000000000000000e+02 1.640000000000000000e+02 1.650000000000000000e+02 1.660000000000000000e+02 1.670000000000000000e+02 1.680000000000000000e+02 1.690000000000000000e+02 1.700000000000000000e+02 1.710000000000000000e+02 1.720000000000000000e+02 1.730000000000000000e+02 1.740000000000000000e+02 1.750000000000000000e+02 1.760000000000000000e+02 1.770000000000000000e+02 1.780000000000000000e+02 1.790000000000000000e+02 1.800000000000000000e+02 1.810000000000000000e+02 1.820000000000000000e+02 1.830000000000000000e+02 1.840000000000000000e+02 1.850000000000000000e+02 1.860000000000000000e+02 1.870000000000000000e+02 1.880000000000000000e+02 1.890000000000000000e+02 1.900000000000000000e+02 1.910000000000000000e+02 1.920000000000000000e+02 1.930000000000000000e+02 1.940000000000000000e+02 1.950000000000000000e+02 1.960000000000000000e+02 1.970000000000000000e+02 1.980000000000000000e+02 1.990000000000000000e+02 2.000000000000000000e+02 2.010000000000000000e+02 2.020000000000000000e+02 2.030000000000000000e+02 2.040000000000000000e+02 2.050000000000000000e+02 2.060000000000000000e+02 2.070000000000000000e+02 2.080000000000000000e+02 2.090000000000000000e+02 2.100000000000000000e+02 2.110000000000000000e+02 2.120000000000000000e+02 2.130000000000000000e+02 2.140000000000000000e+02 2.150000000000000000e+02 2.160000000000000000e+02 2.170000000000000000e+02 2.180000000000000000e+02 2.190000000000000000e+02 2.200000000000000000e+02 2.210000000000000000e+02 2.220000000000000000e+02 2.230000000000000000e+02 2.240000000000000000e+02 2.250000000000000000e+02 2.260000000000000000e+02 2.270000000000000000e+02 2.280000000000000000e+02 2.290000000000000000e+02 2.300000000000000000e+02 2.310000000000000000e+02 2.320000000000000000e+02 2.330000000000000000e+02 2.340000000000000000e+02 2.350000000000000000e+02 2.360000000000000000e+02 2.370000000000000000e+02 2.380000000000000000e+02 2.390000000000000000e+02 2.400000000000000000e+02 2.410000000000000000e+02 2.420000000000000000e+02 2.430000000000000000e+02 2.440000000000000000e+02 2.450000000000000000e+02 2.460000000000000000e+02 2.470000000000000000e+02 2.480000000000000000e+02 2.490000000000000000e+02 2.500000000000000000e+02 2.510000000000000000e+02 2.520000000000000000e+02 2.530000000000000000e+02 2.540000000000000000e+02 2.550000000000000000e+02 2.560000000000000000e+02 2.570000000000000000e+02 2.580000000000000000e+02 2.590000000000000000e+02 2.600000000000000000e+02 2.610000000000000000e+02 2.620000000000000000e+02 2.630000000000000000e+02 2.640000000000000000e+02 2.650000000000000000e+02 2.660000000000000000e+02 2.670000000000000000e+02 2.680000000000000000e+02 2.690000000000000000e+02 2.700000000000000000e+02 2.710000000000000000e+02 2.720000000000000000e+02 2.730000000000000000e+02 2.740000000000000000e+02 2.750000000000000000e+02 2.760000000000000000e+02 2.770000000000000000e+02 2.780000000000000000e+02 2.790000000000000000e+02 2.800000000000000000e+02 2.810000000000000000e+02 2.820000000000000000e+02 2.830000000000000000e+02 2.840000000000000000e+02 2.850000000000000000e+02 2.860000000000000000e+02 2.870000000000000000e+02 2.880000000000000000e+02 2.890000000000000000e+02 2.900000000000000000e+02 2.910000000000000000e+02 2.920000000000000000e+02 2.930000000000000000e+02 2.940000000000000000e+02 2.950000000000000000e+02 2.960000000000000000e+02 2.970000000000000000e+02 2.980000000000000000e+02 2.990000000000000000e+02 3.000000000000000000e+02 3.010000000000000000e+02 3.020000000000000000e+02 3.030000000000000000e+02 3.040000000000000000e+02 3.050000000000000000e+02 3.060000000000000000e+02 3.070000000000000000e+02 3.080000000000000000e+02 3.090000000000000000e+02 3.100000000000000000e+02 3.110000000000000000e+02 3.120000000000000000e+02 3.130000000000000000e+02 3.140000000000000000e+02 3.150000000000000000e+02 3.160000000000000000e+02 3.170000000000000000e+02 3.180000000000000000e+02 3.190000000000000000e+02 3.200000000000000000e+02 3.210000000000000000e+02 3.220000000000000000e+02 3.230000000000000000e+02 3.240000000000000000e+02 3.250000000000000000e+02 3.260000000000000000e+02 3.270000000000000000e+02 3.280000000000000000e+02 3.290000000000000000e+02 3.300000000000000000e+02 3.310000000000000000e+02 3.320000000000000000e+02 3.330000000000000000e+02 3.340000000000000000e+02 3.350000000000000000e+02 3.360000000000000000e+02 3.370000000000000000e+02 3.380000000000000000e+02 3.390000000000000000e+02 3.400000000000000000e+02 3.410000000000000000e+02 3.420000000000000000e+02 3.430000000000000000e+02 3.440000000000000000e+02 3.450000000000000000e+02 3.460000000000000000e+02 3.470000000000000000e+02 3.480000000000000000e+02 3.490000000000000000e+02 3.500000000000000000e+02 3.510000000000000000e+02 3.520000000000000000e+02 3.530000000000000000e+02 3.540000000000000000e+02 3.550000000000000000e+02 3.560000000000000000e+02 3.570000000000000000e+02 3.580000000000000000e+02 3.590000000000000000e+02 3.600000000000000000e+02 3.610000000000000000e+02 3.620000000000000000e+02 3.630000000000000000e+02 3.640000000000000000e+02 3.650000000000000000e+02 3.660000000000000000e+02 3.670000000000000000e+02 3.680000000000000000e+02 3.690000000000000000e+02 3.700000000000000000e+02 3.710000000000000000e+02 3.720000000000000000e+02 3.730000000000000000e+02 3.740000000000000000e+02 3.750000000000000000e+02 3.760000000000000000e+02 3.770000000000000000e+02 3.780000000000000000e+02 3.790000000000000000e+02 3.800000000000000000e+02 3.810000000000000000e+02 3.820000000000000000e+02 3.830000000000000000e+02 3.840000000000000000e+02 3.850000000000000000e+02 3.860000000000000000e+02 3.870000000000000000e+02 3.880000000000000000e+02 3.890000000000000000e+02 3.900000000000000000e+02 3.910000000000000000e+02 3.920000000000000000e+02 3.930000000000000000e+02 3.940000000000000000e+02 3.950000000000000000e+02 3.960000000000000000e+02 3.970000000000000000e+02 3.980000000000000000e+02 3.990000000000000000e+02 4.000000000000000000e+02 4.010000000000000000e+02 4.020000000000000000e+02 4.030000000000000000e+02 4.040000000000000000e+02 4.050000000000000000e+02 4.060000000000000000e+02 4.070000000000000000e+02 4.080000000000000000e+02 4.090000000000000000e+02 4.100000000000000000e+02 4.110000000000000000e+02 4.120000000000000000e+02 4.130000000000000000e+02 4.140000000000000000e+02 4.150000000000000000e+02 4.160000000000000000e+02 4.170000000000000000e+02 4.180000000000000000e+02 4.190000000000000000e+02 4.200000000000000000e+02 4.210000000000000000e+02 4.220000000000000000e+02 4.230000000000000000e+02 4.240000000000000000e+02 4.250000000000000000e+02 4.260000000000000000e+02 4.270000000000000000e+02 4.280000000000000000e+02 4.290000000000000000e+02 4.300000000000000000e+02 4.310000000000000000e+02 4.320000000000000000e+02 4.330000000000000000e+02 4.340000000000000000e+02 4.350000000000000000e+02 4.360000000000000000e+02 4.370000000000000000e+02 4.380000000000000000e+02 4.390000000000000000e+02 4.400000000000000000e+02 4.410000000000000000e+02 4.420000000000000000e+02 4.430000000000000000e+02 4.440000000000000000e+02 4.450000000000000000e+02 4.460000000000000000e+02 4.470000000000000000e+02 4.480000000000000000e+02 4.490000000000000000e+02 4.500000000000000000e+02 4.510000000000000000e+02 4.520000000000000000e+02 4.530000000000000000e+02 4.540000000000000000e+02 4.550000000000000000e+02 4.560000000000000000e+02 4.570000000000000000e+02 4.580000000000000000e+02 4.590000000000000000e+02 4.600000000000000000e+02 4.610000000000000000e+02 4.620000000000000000e+02 4.630000000000000000e+02 4.640000000000000000e+02 4.650000000000000000e+02 4.660000000000000000e+02 4.670000000000000000e+02 4.680000000000000000e+02 4.690000000000000000e+02 4.700000000000000000e+02 4.710000000000000000e+02 4.720000000000000000e+02 4.730000000000000000e+02 4.740000000000000000e+02 4.750000000000000000e+02 4.760000000000000000e+02 4.770000000000000000e+02 4.780000000000000000e+02 4.790000000000000000e+02 4.800000000000000000e+02 4.810000000000000000e+02 4.820000000000000000e+02 4.830000000000000000e+02 4.840000000000000000e+02 4.850000000000000000e+02 4.860000000000000000e+02 4.870000000000000000e+02 4.880000000000000000e+02 4.890000000000000000e+02 4.900000000000000000e+02 4.910000000000000000e+02 4.920000000000000000e+02 4.930000000000000000e+02 4.940000000000000000e+02 4.950000000000000000e+02 4.960000000000000000e+02 4.970000000000000000e+02 4.980000000000000000e+02 4.990000000000000000e+02 5.000000000000000000e+02 5.010000000000000000e+02 5.020000000000000000e+02 5.030000000000000000e+02 5.040000000000000000e+02 5.050000000000000000e+02 5.060000000000000000e+02 5.070000000000000000e+02 5.080000000000000000e+02 5.090000000000000000e+02 5.100000000000000000e+02 5.110000000000000000e+02 5.120000000000000000e+02 5.130000000000000000e+02 5.140000000000000000e+02 5.150000000000000000e+02 5.160000000000000000e+02 5.170000000000000000e+02 5.180000000000000000e+02 5.190000000000000000e+02 5.200000000000000000e+02 5.210000000000000000e+02 5.220000000000000000e+02 5.230000000000000000e+02 5.240000000000000000e+02 5.250000000000000000e+02 5.260000000000000000e+02 5.270000000000000000e+02 5.280000000000000000e+02 5.290000000000000000e+02 5.300000000000000000e+02 5.310000000000000000e+02 5.320000000000000000e+02 5.330000000000000000e+02 5.340000000000000000e+02 5.350000000000000000e+02 5.360000000000000000e+02 5.370000000000000000e+02 5.380000000000000000e+02 5.390000000000000000e+02 5.400000000000000000e+02 5.410000000000000000e+02 5.420000000000000000e+02 5.430000000000000000e+02 5.440000000000000000e+02 5.450000000000000000e+02 5.460000000000000000e+02 5.470000000000000000e+02 5.480000000000000000e+02 5.490000000000000000e+02 5.500000000000000000e+02 5.510000000000000000e+02 5.520000000000000000e+02 5.530000000000000000e+02 5.540000000000000000e+02 5.550000000000000000e+02 5.560000000000000000e+02 5.570000000000000000e+02 5.580000000000000000e+02 5.590000000000000000e+02 5.600000000000000000e+02 5.610000000000000000e+02 5.620000000000000000e+02 5.630000000000000000e+02 5.640000000000000000e+02 5.650000000000000000e+02 5.660000000000000000e+02 5.670000000000000000e+02 5.680000000000000000e+02 5.690000000000000000e+02 5.700000000000000000e+02 5.710000000000000000e+02 5.720000000000000000e+02 5.730000000000000000e+02 5.740000000000000000e+02 5.750000000000000000e+02 5.760000000000000000e+02 5.770000000000000000e+02 5.780000000000000000e+02 5.790000000000000000e+02 5.800000000000000000e+02 5.810000000000000000e+02 5.820000000000000000e+02 5.830000000000000000e+02 5.840000000000000000e+02 5.850000000000000000e+02 5.860000000000000000e+02 5.870000000000000000e+02 5.880000000000000000e+02 5.890000000000000000e+02 5.900000000000000000e+02 5.910000000000000000e+02 5.920000000000000000e+02 5.930000000000000000e+02 5.940000000000000000e+02 5.950000000000000000e+02 5.960000000000000000e+02 5.970000000000000000e+02 5.980000000000000000e+02 5.990000000000000000e+02 6.000000000000000000e+02 6.010000000000000000e+02 6.020000000000000000e+02 6.030000000000000000e+02 6.040000000000000000e+02 6.050000000000000000e+02 6.060000000000000000e+02 6.070000000000000000e+02 6.080000000000000000e+02 6.090000000000000000e+02 6.100000000000000000e+02 6.110000000000000000e+02 6.120000000000000000e+02 6.130000000000000000e+02 6.140000000000000000e+02 6.150000000000000000e+02 6.160000000000000000e+02 6.170000000000000000e+02 6.180000000000000000e+02 6.190000000000000000e+02 6.200000000000000000e+02 6.210000000000000000e+02 6.220000000000000000e+02 6.230000000000000000e+02 6.240000000000000000e+02 6.250000000000000000e+02 6.260000000000000000e+02 6.270000000000000000e+02 6.280000000000000000e+02 6.290000000000000000e+02 6.300000000000000000e+02 6.310000000000000000e+02 6.320000000000000000e+02 6.330000000000000000e+02 6.340000000000000000e+02 6.350000000000000000e+02 6.360000000000000000e+02 6.370000000000000000e+02 6.380000000000000000e+02 6.390000000000000000e+02 6.400000000000000000e+02 6.410000000000000000e+02 6.420000000000000000e+02 6.430000000000000000e+02 6.440000000000000000e+02 6.450000000000000000e+02 6.460000000000000000e+02 6.470000000000000000e+02 6.480000000000000000e+02 6.490000000000000000e+02 6.500000000000000000e+02 6.510000000000000000e+02 6.520000000000000000e+02 6.530000000000000000e+02 6.540000000000000000e+02 6.550000000000000000e+02 6.560000000000000000e+02 6.570000000000000000e+02 6.580000000000000000e+02 6.590000000000000000e+02 6.600000000000000000e+02 6.610000000000000000e+02 6.620000000000000000e+02 6.630000000000000000e+02 6.640000000000000000e+02 6.650000000000000000e+02 6.660000000000000000e+02 6.670000000000000000e+02 6.680000000000000000e+02 6.690000000000000000e+02 6.700000000000000000e+02 6.710000000000000000e+02 6.720000000000000000e+02 6.730000000000000000e+02 6.740000000000000000e+02 6.750000000000000000e+02 6.760000000000000000e+02 6.770000000000000000e+02 6.780000000000000000e+02 6.790000000000000000e+02 6.800000000000000000e+02 6.810000000000000000e+02 6.820000000000000000e+02 6.830000000000000000e+02 6.840000000000000000e+02 6.850000000000000000e+02 6.860000000000000000e+02 6.870000000000000000e+02 6.880000000000000000e+02 6.890000000000000000e+02 6.900000000000000000e+02 6.910000000000000000e+02 6.920000000000000000e+02 6.930000000000000000e+02 6.940000000000000000e+02 6.950000000000000000e+02 6.960000000000000000e+02 6.970000000000000000e+02 6.980000000000000000e+02 6.990000000000000000e+02 7.000000000000000000e+02 7.010000000000000000e+02 7.020000000000000000e+02 7.030000000000000000e+02 7.040000000000000000e+02 7.050000000000000000e+02 7.060000000000000000e+02 7.070000000000000000e+02 7.080000000000000000e+02 7.090000000000000000e+02 7.100000000000000000e+02 7.110000000000000000e+02 7.120000000000000000e+02 7.130000000000000000e+02 7.140000000000000000e+02 7.150000000000000000e+02 7.160000000000000000e+02 7.170000000000000000e+02 7.180000000000000000e+02 7.190000000000000000e+02 7.200000000000000000e+02 7.210000000000000000e+02 7.220000000000000000e+02 7.230000000000000000e+02 7.240000000000000000e+02 7.250000000000000000e+02 7.260000000000000000e+02 7.270000000000000000e+02 7.280000000000000000e+02 7.290000000000000000e+02 7.300000000000000000e+02 7.310000000000000000e+02 7.320000000000000000e+02 7.330000000000000000e+02 7.340000000000000000e+02 7.350000000000000000e+02 7.360000000000000000e+02 7.370000000000000000e+02 7.380000000000000000e+02 7.390000000000000000e+02 7.400000000000000000e+02 7.410000000000000000e+02 7.420000000000000000e+02 7.430000000000000000e+02 7.440000000000000000e+02 7.450000000000000000e+02 7.460000000000000000e+02 7.470000000000000000e+02 7.480000000000000000e+02 7.490000000000000000e+02 7.500000000000000000e+02 7.510000000000000000e+02 7.520000000000000000e+02 7.530000000000000000e+02 7.540000000000000000e+02 7.550000000000000000e+02 7.560000000000000000e+02 7.570000000000000000e+02 7.580000000000000000e+02 7.590000000000000000e+02 7.600000000000000000e+02 7.610000000000000000e+02 7.620000000000000000e+02 7.630000000000000000e+02 7.640000000000000000e+02 7.650000000000000000e+02 7.660000000000000000e+02 7.670000000000000000e+02 7.680000000000000000e+02 7.690000000000000000e+02 7.700000000000000000e+02 7.710000000000000000e+02 7.720000000000000000e+02 7.730000000000000000e+02 7.740000000000000000e+02 7.750000000000000000e+02 7.760000000000000000e+02 7.770000000000000000e+02 7.780000000000000000e+02 7.790000000000000000e+02 7.800000000000000000e+02 7.810000000000000000e+02 7.820000000000000000e+02 7.830000000000000000e+02 7.840000000000000000e+02 7.850000000000000000e+02 7.860000000000000000e+02 7.870000000000000000e+02 7.880000000000000000e+02 7.890000000000000000e+02 7.900000000000000000e+02 7.910000000000000000e+02 7.920000000000000000e+02 7.930000000000000000e+02 7.940000000000000000e+02 7.950000000000000000e+02 7.960000000000000000e+02 7.970000000000000000e+02 7.980000000000000000e+02 7.990000000000000000e+02 8.000000000000000000e+02 8.010000000000000000e+02 8.020000000000000000e+02 8.030000000000000000e+02 8.040000000000000000e+02 8.050000000000000000e+02 8.060000000000000000e+02 8.070000000000000000e+02 8.080000000000000000e+02 8.090000000000000000e+02 8.100000000000000000e+02 8.110000000000000000e+02 8.120000000000000000e+02 8.130000000000000000e+02 8.140000000000000000e+02 8.150000000000000000e+02 8.160000000000000000e+02 8.170000000000000000e+02 8.180000000000000000e+02 8.190000000000000000e+02 8.200000000000000000e+02 8.210000000000000000e+02 8.220000000000000000e+02 8.230000000000000000e+02 8.240000000000000000e+02 8.250000000000000000e+02 8.260000000000000000e+02 8.270000000000000000e+02 8.280000000000000000e+02 8.290000000000000000e+02 8.300000000000000000e+02 8.310000000000000000e+02 8.320000000000000000e+02 8.330000000000000000e+02 8.340000000000000000e+02 8.350000000000000000e+02 8.360000000000000000e+02 8.370000000000000000e+02 8.380000000000000000e+02 8.390000000000000000e+02 8.400000000000000000e+02 8.410000000000000000e+02 8.420000000000000000e+02 8.430000000000000000e+02 8.440000000000000000e+02 8.450000000000000000e+02 8.460000000000000000e+02 8.470000000000000000e+02 8.480000000000000000e+02 8.490000000000000000e+02 8.500000000000000000e+02 8.510000000000000000e+02 8.520000000000000000e+02 8.530000000000000000e+02 8.540000000000000000e+02 8.550000000000000000e+02 8.560000000000000000e+02 8.570000000000000000e+02 8.580000000000000000e+02 8.590000000000000000e+02 8.600000000000000000e+02 8.610000000000000000e+02 8.620000000000000000e+02 8.630000000000000000e+02 8.640000000000000000e+02 8.650000000000000000e+02 8.660000000000000000e+02 8.670000000000000000e+02 8.680000000000000000e+02 8.690000000000000000e+02 8.700000000000000000e+02 8.710000000000000000e+02 8.720000000000000000e+02 8.730000000000000000e+02 8.740000000000000000e+02 8.750000000000000000e+02 8.760000000000000000e+02 8.770000000000000000e+02 8.780000000000000000e+02 8.790000000000000000e+02 8.800000000000000000e+02 8.810000000000000000e+02 8.820000000000000000e+02 8.830000000000000000e+02 8.840000000000000000e+02 8.850000000000000000e+02 8.860000000000000000e+02 8.870000000000000000e+02 8.880000000000000000e+02 8.890000000000000000e+02 8.900000000000000000e+02 8.910000000000000000e+02 8.920000000000000000e+02 8.930000000000000000e+02 8.940000000000000000e+02 8.950000000000000000e+02 8.960000000000000000e+02 8.970000000000000000e+02 8.980000000000000000e+02 8.990000000000000000e+02 9.000000000000000000e+02 9.010000000000000000e+02 9.020000000000000000e+02 9.030000000000000000e+02 9.040000000000000000e+02 9.050000000000000000e+02 9.060000000000000000e+02 9.070000000000000000e+02 9.080000000000000000e+02 9.090000000000000000e+02 9.100000000000000000e+02 9.110000000000000000e+02 9.120000000000000000e+02 9.130000000000000000e+02 9.140000000000000000e+02 9.150000000000000000e+02 9.160000000000000000e+02 9.170000000000000000e+02 9.180000000000000000e+02 9.190000000000000000e+02 9.200000000000000000e+02 9.210000000000000000e+02 9.220000000000000000e+02 9.230000000000000000e+02 9.240000000000000000e+02 9.250000000000000000e+02 9.260000000000000000e+02 9.270000000000000000e+02 9.280000000000000000e+02 9.290000000000000000e+02 9.300000000000000000e+02 9.310000000000000000e+02 9.320000000000000000e+02 9.330000000000000000e+02 9.340000000000000000e+02 9.350000000000000000e+02 9.360000000000000000e+02 9.370000000000000000e+02 9.380000000000000000e+02 9.390000000000000000e+02 9.400000000000000000e+02 9.410000000000000000e+02 9.420000000000000000e+02 9.430000000000000000e+02 9.440000000000000000e+02 9.450000000000000000e+02 9.460000000000000000e+02 9.470000000000000000e+02 9.480000000000000000e+02 9.490000000000000000e+02 9.500000000000000000e+02 9.510000000000000000e+02 9.520000000000000000e+02 9.530000000000000000e+02 9.540000000000000000e+02 9.550000000000000000e+02 9.560000000000000000e+02 9.570000000000000000e+02 9.580000000000000000e+02 9.590000000000000000e+02 9.600000000000000000e+02 9.610000000000000000e+02 9.620000000000000000e+02 9.630000000000000000e+02 9.640000000000000000e+02 9.650000000000000000e+02 9.660000000000000000e+02 9.670000000000000000e+02 9.680000000000000000e+02 9.690000000000000000e+02 9.700000000000000000e+02 9.710000000000000000e+02 9.720000000000000000e+02 9.730000000000000000e+02 9.740000000000000000e+02 9.750000000000000000e+02 9.760000000000000000e+02 9.770000000000000000e+02 9.780000000000000000e+02 9.790000000000000000e+02 9.800000000000000000e+02 9.810000000000000000e+02 9.820000000000000000e+02 9.830000000000000000e+02 9.840000000000000000e+02 9.850000000000000000e+02 9.860000000000000000e+02 9.870000000000000000e+02 9.880000000000000000e+02 9.890000000000000000e+02 9.900000000000000000e+02 9.910000000000000000e+02 9.920000000000000000e+02 9.930000000000000000e+02 9.940000000000000000e+02 9.950000000000000000e+02 9.960000000000000000e+02 9.970000000000000000e+02 9.980000000000000000e+02 9.990000000000000000e+02
1.000000000000000000e+00 1.000000000000000000e+00 1.000000000000000000e+00 1.000000000000000000e+00 1.000000000000000000e+00 1.000000000000000000e+00 1.000000000000000000e+00 1.000000000000000000e+00 1.000000000000000000e+00 1.000000000000000000e+00 1.000000000000000000e+00 1.000000000000000000e+00 1.000000000000000000e+00 1.000000000000000000e+00 1.000000000000000000e+00 1.000000000000000000e+00 1.000000000000000000e+00 1.000000000000000000e+00 1.000000000000000000e+00 1.000000000000000000e+00 1.000000000000000000e+00 1.000000000000000000e+00 1.000000000000000000e+00 1.000000000000000000e+00 1.000000000000000000e+00 1.000000000000000000e+00 1.000000000000000000e+00 1.000000000000000000e+00 1.000000000000000000e+00 1.000000000000000000e+00 1.000000000000000000e+00 1.000000000000000000e+00 1.000000000000000000e+00 1.000000000000000000e+00 1.000000000000000000e+00 1.000000000000000000e+00 1.000000000000000000e+00 1.000000000000000000e+00 1.000000000000000000e+00 1.000000000000000000e+00 1.000000000000000000e+00 1.000000000000000000e+00 1.000000000000000000e+00 1.000000000000000000e+00 1.000000000000000000e+00 1.000000000000000000e+00 1.000000000000000000e+00 1.000000000000000000e+00 1.000000000000000000e+00 1.000000000000000000e+00 1.000000000000000000e+00 1.000000000000000000e+00 1.000000000000000000e+00 1.000000000000000000e+00 1.000000000000000000e+00 1.000000000000000000e+00 1.000000000000000000e+00 1.000000000000000000e+00 1.000000000000000000e+00 1.000000000000000000e+00 1.000000000000000000e+00 1.000000000000000000e+00 1.000000000000000000e+00 1.000000000000000000e+00 1.000000000000000000e+00 1.000000000000000000e+00 1.000000000000000000e+00 1.000000000000000000e+00 1.000000000000000000e+00 1.000000000000000000e+00 1.000000000000000000e+00 1.000000000000000000e+00 1.000000000000000000e+00 1.000000000000000000e+00 1.000000000000000000e+00 1.000000000000000000e+00 1.000000000000000000e+00 1.000000000000000000e+00 1.000000000000000000e+00 1.000000000000000000e+00 1.000000000000000000e+00 1.000000000000000000e+00 1.000000000000000000e+00 1.000000000000000000e+00 1.000000000000000000e+00 1.000000000000000000e+00 1.000000000000000000e+00 1.000000000000000000e+00 1.000000000000000000e+00 1.000000000000000000e+00 1.000000000000000000e+00 1.000000000000000000e+00 1.000000000000000000e+00 1.000000000000000000e+00 1.000000000000000000e+00 1.000000000000000000e+00 1.000000000000000000e+00 1.000000000000000000e+00 1.000000000000000000e+00 1.000000000000000000e+00 1.000000000000000000e+00 1.000000000000000000e+00 1.000000000000000000e+00 1.000000000000000000e+00 1.000000000000000000e+00 1.000000000000000000e+00 1.000000000000000000e+00 1.000000000000000000e+00 1.000000000000000000e+00 1.000000000000000000e+00 1.000000000000000000e+00 1.000000000000000000e+00 1.000000000000000000e+00 1.000000000000000000e+00 1.000000000000000000e+00 1.000000000000000000e+00 1.000000000000000000e+00 1.000000000000000000e+00 1.000000000000000000e+00 1.000000000000000000e+00 1.000000000000000000e+00 1.000000000000000000e+00 1.000000000000000000e+00 1.000000000000000000e+00 1.000000000000000000e+00 1.000000000000000000e+00 1.000000000000000000e+00 1.000000000000000000e+00 1.000000000000000000e+00 1.000000000000000000e+00 1.000000000000000000e+00 1.000000000000000000e+00 1.000000000000000000e+00 1.000000000000000000e+00 1.000000000000000000e+00 1.000000000000000000e+00 1.000000000000000000e+00 1.000000000000000000e+00 1.000000000000000000e+00 1.000000000000000000e+00 1.000000000000000000e+00 1.000000000000000000e+00 1.000000000000000000e+00 1.000000000000000000e+00 1.000000000000000000e+00 1.000000000000000000e+00 1.000000000000000000e+00 1.000000000000000000e+00 1.000000000000000000e+00 1.000000000000000000e+00 1.000000000000000000e+00 1.000000000000000000e+00 1.000000000000000000e+00 1.000000000000000000e+00 1.000000000000000000e+00 1.000000000000000000e+00 1.000000000000000000e+00 1.000000000000000000e+00 1.000000000000000000e+00 1.000000000000000000e+00 1.000000000000000000e+00 1.000000000000000000e+00 1.000000000000000000e+00 1.000000000000000000e+00 1.000000000000000000e+00 1.000000000000000000e+00 1.000000000000000000e+00 1.000000000000000000e+00 1.000000000000000000e+00 1.000000000000000000e+00 1.000000000000000000e+00 1.000000000000000000e+00 1.000000000000000000e+00 1.000000000000000000e+00 1.000000000000000000e+00 1.000000000000000000e+00 1.000000000000000000e+00 1.000000000000000000e+00 1.000000000000000000e+00 1.000000000000000000e+00 1.000000000000000000e+00 1.000000000000000000e+00 1.000000000000000000e+00 1.000000000000000000e+00 1.000000000000000000e+00 1.000000000000000000e+00 1.000000000000000000e+00 1.000000000000000000e+00 1.000000000000000000e+00 1.000000000000000000e+00 1.000000000000000000e+00 1.000000000000000000e+00 1.000000000000000000e+00 1.000000000000000000e+00 1.000000000000000000e+00 1.000000000000000000e+00 1.000000000000000000e+00 1.000000000000000000e+00 1.000000000000000000e+00 1.000000000000000000e+00 1.000000000000000000e+00 1.000000000000000000e+00 1.000000000000000000e+00 1.000000000000000000e+00 1.000000000000000000e+00 1.000000000000000000e+00 1.000000000000000000e+00 1.000000000000000000e+00 1.000000000000000000e+00 1.000000000000000000e+00 1.000000000000000000e+00 1.000000000000000000e+00 1.000000000000000000e+00 1.000000000000000000e+00 1.000000000000000000e+00 1.000000000000000000e+00 1.000000000000000000e+00 1.000000000000000000e+00 1.000000000000000000e+00 1.000000000000000000e+00 1.000000000000000000e+00 1.000000000000000000e+00 1.000000000000000000e+00 1.000000000000000000e+00 1.000000000000000000e+00 1.000000000000000000e+00 1.000000000000000000e+00 1.000000000000000000e+00 1.000000000000000000e+00 1.000000000000000000e+00 1.000000000000000000e+00 1.000000000000000000e+00 1.000000000000000000e+00 1.000000000000000000e+00 1.000000000000000000e+00 1.000000000000000000e+00 1.000000000000000000e+00 1.000000000000000000e+00 1.000000000000000000e+00 1.000000000000000000e+00 1.000000000000000000e+00 1.000000000000000000e+00 1.000000000000000000e+00 1.000000000000000000e+00 1.000000000000000000e+00 1.000000000000000000e+00 1.000000000000000000e+00 1.000000000000000000e+00 1.000000000000000000e+00 1.000000000000000000e+00 1.000000000000000000e+00 1.000000000000000000e+00 1.000000000000000000e+00 1.000000000000000000e+00 1.000000000000000000e+00 1.000000000000000000e+00 1.000000000000000000e+00 1.000000000000000000e+00 1.000000000000000000e+00 1.000000000000000000e+00 1.000000000000000000e+00 1.000000000000000000e+00 1.000000000000000000e+00 1.000000000000000000e+00 1.000000000000000000e+00 1.000000000000000000e+00 1.000000000000000000e+00 1.000000000000000000e+00 1.000000000000000000e+00 1.000000000000000000e+00 1.000000000000000000e+00 1.000000000000000000e+00 1.000000000000000000e+00 1.000000000000000000e+00 1.000000000000000000e+00 1.000000000000000000e+00 1.000000000000000000e+00 1.000000000000000000e+00 1.000000000000000000e+00 1.000000000000000000e+00 1.000000000000000000e+00 1.000000000000000000e+00 1.000000000000000000e+00 1.000000000000000000e+00 1.000000000000000000e+00 1.000000000000000000e+00 1.000000000000000000e+00 1.000000000000000000e+00 1.000000000000000000e+00 1.000000000000000000e+00 1.000000000000000000e+00 1.000000000000000000e+00 1.000000000000000000e+00 1.000000000000000000e+00 1.000000000000000000e+00 1.000000000000000000e+00 1.000000000000000000e+00 1.000000000000000000e+00 1.000000000000000000e+00 1.000000000000000000e+00 1.000000000000000000e+00 1.000000000000000000e+00 1.000000000000000000e+00 1.000000000000000000e+00 1.000000000000000000e+00 1.000000000000000000e+00 1.000000000000000000e+00 1.000000000000000000e+00 1.000000000000000000e+00 1.000000000000000000e+00 1.000000000000000000e+00 1.000000000000000000e+00 1.000000000000000000e+00 1.000000000000000000e+00 1.000000000000000000e+00 1.000000000000000000e+00 1.000000000000000000e+00 1.000000000000000000e+00 1.000000000000000000e+00 1.000000000000000000e+00 1.000000000000000000e+00 1.000000000000000000e+00 1.000000000000000000e+00 1.000000000000000000e+00 1.000000000000000000e+00 1.000000000000000000e+00 1.000000000000000000e+00 1.000000000000000000e+00 1.000000000000000000e+00 1.000000000000000000e+00 1.000000000000000000e+00 1.000000000000000000e+00 1.000000000000000000e+00 1.000000000000000000e+00 1.000000000000000000e+00 1.000000000000000000e+00 1.000000000000000000e+00 1.000000000000000000e+00 1.000000000000000000e+00 1.000000000000000000e+00 1.000000000000000000e+00 1.000000000000000000e+00 1.000000000000000000e+00 1.000000000000000000e+00 1.000000000000000000e+00 1.000000000000000000e+00 1.000000000000000000e+00 1.000000000000000000e+00 1.000000000000000000e+00 1.000000000000000000e+00 1.000000000000000000e+00 1.000000000000000000e+00 1.000000000000000000e+00 1.000000000000000000e+00 1.000000000000000000e+00 1.000000000000000000e+00 1.000000000000000000e+00 1.000000000000000000e+00 1.000000000000000000e+00 1.000000000000000000e+00 1.000000000000000000e+00 1.000000000000000000e+00 1.000000000000000000e+00 1.000000000000000000e+00 1.000000000000000000e+00 1.000000000000000000e+00 1.000000000000000000e+00 1.000000000000000000e+00 1.000000000000000000e+00 1.000000000000000000e+00 1.000000000000000000e+00 1.000000000000000000e+00 1.000000000000000000e+00 1.000000000000000000e+00 1.000000000000000000e+00 1.000000000000000000e+00 1.000000000000000000e+00 1.000000000000000000e+00 1.000000000000000000e+00 1.000000000000000000e+00 1.000000000000000000e+00 1.000000000000000000e+00 1.000000000000000000e+00 1.000000000000000000e+00 1.000000000000000000e+00 1.000000000000000000e+00 1.000000000000000000e+00 1.000000000000000000e+00 1.000000000000000000e+00 1.000000000000000000e+00 1.000000000000000000e+00 1.000000000000000000e+00 1.000000000000000000e+00 1.000000000000000000e+00 1.000000000000000000e+00 1.000000000000000000e+00 1.000000000000000000e+00 1.000000000000000000e+00 1.000000000000000000e+00 1.000000000000000000e+00 1.000000000000000000e+00 1.000000000000000000e+00 1.000000000000000000e+00 1.000000000000000000e+00 1.000000000000000000e+00 1.000000000000000000e+00 1.000000000000000000e+00 1.000000000000000000e+00 1.000000000000000000e+00 1.000000000000000000e+00 1.000000000000000000e+00 1.000000000000000000e+00 1.000000000000000000e+00 1.000000000000000000e+00 1.000000000000000000e+00 1.000000000000000000e+00 1.000000000000000000e+00 1.000000000000000000e+00 1.000000000000000000e+00 1.000000000000000000e+00 1.000000000000000000e+00 1.000000000000000000e+00 1.000000000000000000e+00 1.000000000000000000e+00 1.000000000000000000e+00 1.000000000000000000e+00 1.000000000000000000e+00 1.000000000000000000e+00 1.000000000000000000e+00 1.000000000000000000e+00 1.000000000000000000e+00 1.000000000000000000e+00 1.000000000000000000e+00 1.000000000000000000e+00 1.000000000000000000e+00 1.000000000000000000e+00 1.000000000000000000e+00 1.000000000000000000e+00 1.000000000000000000e+00 1.000000000000000000e+00 1.000000000000000000e+00 1.000000000000000000e+00 1.000000000000000000e+00 1.000000000000000000e+00 1.000000000000000000e+00 1.000000000000000000e+00 1.000000000000000000e+00 1.000000000000000000e+00 1.000000000000000000e+00 1.000000000000000000e+00 1.000000000000000000e+00 1.000000000000000000e+00 1.000000000000000000e+00 1.000000000000000000e+00 1.000000000000000000e+00 1.000000000000000000e+00 1.000000000000000000e+00 1.000000000000000000e+00 1.000000000000000000e+00 1.000000000000000000e+00 1.000000000000000000e+00 1.000000000000000000e+00 1.000000000000000000e+00 1.000000000000000000e+00 1.000000000000000000e+00 1.000000000000000000e+00 1.000000000000000000e+00 1.000000000000000000e+00 1.000000000000000000e+00 1.000000000000000000e+00 1.000000000000000000e+00 1.000000000000000000e+00 1.000000000000000000e+00 1.000000000000000000e+00 1.000000000000000000e+00 1.000000000000000000e+00 1.000000000000000000e+00 1.000000000000000000e+00 1.000000000000000000e+00 1.000000000000000000e+00 1.000000000000000000e+00 1.000000000000000000e+00 1.000000000000000000e+00 1.000000000000000000e+00 1.000000000000000000e+00 1.000000000000000000e+00 1.000000000000000000e+00 1.000000000000000000e+00 1.000000000000000000e+00 1.000000000000000000e+00 1.000000000000000000e+00 1.000000000000000000e+00 1.000000000000000000e+00 1.000000000000000000e+00 1.000000000000000000e+00 1.000000000000000000e+00 1.000000000000000000e+00 1.000000000000000000e+00 1.000000000000000000e+00 1.000000000000000000e+00 1.000000000000000000e+00 1.000000000000000000e+00 1.000000000000000000e+00 1.000000000000000000e+00 1.000000000000000000e+00 1.000000000000000000e+00 1.000000000000000000e+00 1.000000000000000000e+00 1.000000000000000000e+00 1.000000000000000000e+00 1.000000000000000000e+00 1.000000000000000000e+00 1.000000000000000000e+00 1.000000000000000000e+00 1.000000000000000000e+00 1.000000000000000000e+00 1.000000000000000000e+00 1.000000000000000000e+00 1.000000000000000000e+00 1.000000000000000000e+00 1.000000000000000000e+00 1.000000000000000000e+00 1.000000000000000000e+00 1.000000000000000000e+00 1.000000000000000000e+00 1.000000000000000000e+00 1.000000000000000000e+00 1.000000000000000000e+00 1.000000000000000000e+00 1.000000000000000000e+00 1.000000000000000000e+00 1.000000000000000000e+00 1.000000000000000000e+00 1.000000000000000000e+00 1.000000000000000000e+00 1.000000000000000000e+00 1.000000000000000000e+00 1.000000000000000000e+00 1.000000000000000000e+00 1.000000000000000000e+00 1.000000000000000000e+00 1.000000000000000000e+00 1.000000000000000000e+00 1.000000000000000000e+00 1.000000000000000000e+00 1.000000000000000000e+00 1.000000000000000000e+00 1.000000000000000000e+00 1.000000000000000000e+00 1.000000000000000000e+00 1.000000000000000000e+00 1.000000000000000000e+00 1.000000000000000000e+00 1.000000000000000000e+00 1.000000000000000000e+00 1.000000000000000000e+00 1.000000000000000000e+00 1.000000000000000000e+00 1.000000000000000000e+00 1.000000000000000000e+00 1.000000000000000000e+00 1.000000000000000000e+00 1.000000000000000000e+00 1.000000000000000000e+00 1.000000000000000000e+00 1.000000000000000000e+00 1.000000000000000000e+00 1.000000000000000000e+00 1.000000000000000000e+00 1.000000000000000000e+00 1.000000000000000000e+00 1.000000000000000000e+00 1.000000000000000000e+00 1.000000000000000000e+00 1.000000000000000000e+00 1.000000000000000000e+00 1.000000000000000000e+00 1.000000000000000000e+00 1.000000000000000000e+00 1.000000000000000000e+00 1.000000000000000000e+00 1.000000000000000000e+00 1.000000000000000000e+00 1.000000000000000000e+00 1.000000000000000000e+00 1.000000000000000000e+00 1.000000000000000000e+00 1.000000000000000000e+00 1.000000000000000000e+00 1.000000000000000000e+00 1.000000000000000000e+00 1.000000000000000000e+00 1.000000000000000000e+00 1.000000000000000000e+00 1.000000000000000000e+00 1.000000000000000000e+00 1.000000000000000000e+00 1.000000000000000000e+00 1.000000000000000000e+00 1.000000000000000000e+00 1.000000000000000000e+00 1.000000000000000000e+00 1.000000000000000000e+00 1.000000000000000000e+00 1.000000000000000000e+00 1.000000000000000000e+00 1.000000000000000000e+00 1.000000000000000000e+00 1.000000000000000000e+00 1.000000000000000000e+00 1.000000000000000000e+00 1.000000000000000000e+00 1.000000000000000000e+00 1.000000000000000000e+00 1.000000000000000000e+00 1.000000000000000000e+00 1.000000000000000000e+00 1.000000000000000000e+00 1.000000000000000000e+00 1.000000000000000000e+00 1.000000000000000000e+00 1.000000000000000000e+00 1.000000000000000000e+00 1.000000000000000000e+00 1.000000000000000000e+00 1.000000000000000000e+00 1.000000000000000000e+00 1.000000000000000000e+00 1.000000000000000000e+00 1.000000000000000000e+00 1.000000000000000000e+00 1.000000000000000000e+00 1.000000000000000000e+00 1.000000000000000000e+00 1.000000000000000000e+00 1.000000000000000000e+00 1.000000000000000000e+00 1.000000000000000000e+00 1.000000000000000000e+00 1.000000000000000000e+00 1.000000000000000000e+00 1.000000000000000000e+00 1.000000000000000000e+00 1.000000000000000000e+00 1.000000000000000000e+00 1.000000000000000000e+00 1.000000000000000000e+00 1.000000000000000000e+00 1.000000000000000000e+00 1.000000000000000000e+00 1.000000000000000000e+00 1.000000000000000000e+00 1.000000000000000000e+00 1.000000000000000000e+00 1.000000000000000000e+00 1.000000000000000000e+00 1.000000000000000000e+00 1.000000000000000000e+00 1.000000000000000000e+00 1.000000000000000000e+00 1.000000000000000000e+00 1.000000000000000000e+00 1.000000000000000000e+00 1.000000000000000000e+00 1.000000000000000000e+00 1.000000000000000000e+00 1.000000000000000000e+00 1.000000000000000000e+00 1.000000000000000000e+00 1.000000000000000000e+00 1.000000000000000000e+00 1.000000000000000000e+00 1.000000000000000000e+00 1.000000000000000000e+00 1.000000000000000000e+00 1.000000000000000000e+00 1.000000000000000000e+00 1.000000000000000000e+00 1.000000000000000000e+00 1.000000000000000000e+00 1.000000000000000000e+00 1.000000000000000000e+00 1.000000000000000000e+00 1.000000000000000000e+00 1.000000000000000000e+00 1.000000000000000000e+00 1.000000000000000000e+00 1.000000000000000000e+00 1.000000000000000000e+00 1.000000000000000000e+00 1.000000000000000000e+00 1.000000000000000000e+00 1.000000000000000000e+00 1.000000000000000000e+00 1.000000000000000000e+00 1.000000000000000000e+00 1.000000000000000000e+00 1.000000000000000000e+00 1.000000000000000000e+00 1.000000000000000000e+00 1.000000000000000000e+00 1.000000000000000000e+00 1.000000000000000000e+00 1.000000000000000000e+00 1.000000000000000000e+00 1.000000000000000000e+00 1.000000000000000000e+00 1.000000000000000000e+00 1.000000000000000000e+00 1.000000000000000000e+00 1.000000000000000000e+00 1.000000000000000000e+00 1.000000000000000000e+00 1.000000000000000000e+00 1.000000000000000000e+00 1.000000000000000000e+00 1.000000000000000000e+00 1.000000000000000000e+00 1.000000000000000000e+00 1.000000000000000000e+00 1.000000000000000000e+00 1.000000000000000000e+00 1.000000000000000000e+00 1.000000000000000000e+00 1.000000000000000000e+00 1.000000000000000000e+00 1.000000000000000000e+00 1.000000000000000000e+00 1.000000000000000000e+00 1.000000000000000000e+00 1.000000000000000000e+00 1.000000000000000000e+00 1.000000000000000000e+00 1.000000000000000000e+00 1.000000000000000000e+00 1.000000000000000000e+00 1.000000000000000000e+00 1.000000000000000000e+00 1.000000000000000000e+00 1.000000000000000000e+00 1.000000000000000000e+00 1.000000000000000000e+00 1.000000000000000000e+00 1.000000000000000000e+00 1.000000000000000000e+00 1.000000000000000000e+00 1.000000000000000000e+00 1.000000000000000000e+00 1.000000000000000000e+00 1.000000000000000000e+00 1.000000000000000000e+00 1.000000000000000000e+00 1.000000000000000000e+00 1.000000000000000000e+00 1.000000000000000000e+00 1.000000000000000000e+00 1.000000000000000000e+00 1.000000000000000000e+00 1.000000000000000000e+00 1.000000000000000000e+00 1.000000000000000000e+00 1.000000000000000000e+00 1.000000000000000000e+00 1.000000000000000000e+00 1.000000000000000000e+00 1.000000000000000000e+00 1.000000000000000000e+00 1.000000000000000000e+00 1.000000000000000000e+00 1.000000000000000000e+00 1.000000000000000000e+00 1.000000000000000000e+00 1.000000000000000000e+00 1.000000000000000000e+00 1.000000000000000000e+00 1.000000000000000000e+00 1.000000000000000000e+00 1.000000000000000000e+00 1.000000000000000000e+00 1.000000000000000000e+00 1.000000000000000000e+00 1.000000000000000000e+00 1.000000000000000000e+00 1.000000000000000000e+00 1.000000000000000000e+00 1.000000000000000000e+00 1.000000000000000000e+00 1.000000000000000000e+00 1.000000000000000000e+00 1.000000000000000000e+00 1.000000000000000000e+00 1.000000000000000000e+00 1.000000000000000000e+00 1.000000000000000000e+00 1.000000000000000000e+00 1.000000000000000000e+00 1.000000000000000000e+00 1.000000000000000000e+00 1.000000000000000000e+00 1.000000000000000000e+00 1.000000000000000000e+00 1.000000000000000000e+00 1.000000000000000000e+00 1.000000000000000000e+00 1.000000000000000000e+00 1.000000000000000000e+00 1.000000000000000000e+00 1.000000000000000000e+00 1.000000000000000000e+00 1.000000000000000000e+00 1.000000000000000000e+00 1.000000000000000000e+00 1.000000000000000000e+00 1.000000000000000000e+00 1.000000000000000000e+00 1.000000000000000000e+00 1.000000000000000000e+00 1.000000000000000000e+00 1.000000000000000000e+00 1.000000000000000000e+00 1.000000000000000000e+00 1.000000000000000000e+00 1.000000000000000000e+00 1.000000000000000000e+00 1.000000000000000000e+00 1.000000000000000000e+00 1.000000000000000000e+00 1.000000000000000000e+00 1.000000000000000000e+00 1.000000000000000000e+00 1.000000000000000000e+00 1.000000000000000000e+00 1.000000000000000000e+00 1.000000000000000000e+00 1.000000000000000000e+00 1.000000000000000000e+00 1.000000000000000000e+00 1.000000000000000000e+00 1.000000000000000000e+00 1.000000000000000000e+00 1.000000000000000000e+00 1.000000000000000000e+00 1.000000000000000000e+00 1.000000000000000000e+00 1.000000000000000000e+00 1.000000000000000000e+00 1.000000000000000000e+00 1.000000000000000000e+00 1.000000000000000000e+00 1.000000000000000000e+00 1.000000000000000000e+00 1.000000000000000000e+00 1.000000000000000000e+00 1.000000000000000000e+00 1.000000000000000000e+00 1.000000000000000000e+00 1.000000000000000000e+00 1.000000000000000000e+00 1.000000000000000000e+00 1.000000000000000000e+00 1.000000000000000000e+00 1.000000000000000000e+00 1.000000000000000000e+00 1.000000000000000000e+00 1.000000000000000000e+00 1.000000000000000000e+00 1.000000000000000000e+00 1.000000000000000000e+00 1.000000000000000000e+00 1.000000000000000000e+00 1.000000000000000000e+00 1.000000000000000000e+00 1.000000000000000000e+00 1.000000000000000000e+00 1.000000000000000000e+00 1.000000000000000000e+00 1.000000000000000000e+00 1.000000000000000000e+00 1.000000000000000000e+00 1.000000000000000000e+00 1.000000000000000000e+00 1.000000000000000000e+00 1.000000000000000000e+00 1.000000000000000000e+00 1.000000000000000000e+00 1.000000000000000000e+00 1.000000000000000000e+00 1.000000000000000000e+00 1.000000000000000000e+00 1.000000000000000000e+00 1.000000000000000000e+00 1.000000000000000000e+00 1.000000000000000000e+00 1.000000000000000000e+00 1.000000000000000000e+00 1.000000000000000000e+00 1.000000000000000000e+00 1.000000000000000000e+00 1.000000000000000000e+00 1.000000000000000000e+00 1.000000000000000000e+00 1.000000000000000000e+00 1.000000000000000000e+00 1.000000000000000000e+00 1.000000000000000000e+00 1.000000000000000000e+00 1.000000000000000000e+00 1.000000000000000000e+00 1.000000000000000000e+00 1.000000000000000000e+00 1.000000000000000000e+00 1.000000000000000000e+00 1.000000000000000000e+00 1.000000000000000000e+00 1.000000000000000000e+00 1.000000000000000000e+00 1.000000000000000000e+00 1.000000000000000000e+00 1.000000000000000000e+00 1.000000000000000000e+00 1.000000000000000000e+00 1.000000000000000000e+00 1.000000000000000000e+00 1.000000000000000000e+00 1.000000000000000000e+00 1.000000000000000000e+00 1.000000000000000000e+00 1.000000000000000000e+00 1.000000000000000000e+00 1.000000000000000000e+00 1.000000000000000000e+00 1.000000000000000000e+00 1.000000000000000000e+00 1.000000000000000000e+00 1.000000000000000000e+00 1.000000000000000000e+00 1.000000000000000000e+00 1.000000000000000000e+00 1.000000000000000000e+00 1.000000000000000000e+00 1.000000000000000000e+00 1.000000000000000000e+00 1.000000000000000000e+00 1.000000000000000000e+00 1.000000000000000000e+00 1.000000000000000000e+00 1.000000000000000000e+00 1.000000000000000000e+00 1.000000000000000000e+00 1.000000000000000000e+00 1.000000000000000000e+00 1.000000000000000000e+00 1.000000000000000000e+00 1.000000000000000000e+00 1.000000000000000000e+00 1.000000000000000000e+00 1.000000000000000000e+00 1.000000000000000000e+00 1.000000000000000000e+00 1.000000000000000000e+00 1.000000000000000000e+00 1.000000000000000000e+00 1.000000000000000000e+00 1.000000000000000000e+00 1.000000000000000000e+00 1.000000000000000000e+00 1.000000000000000000e+00 1.000000000000000000e+00 1.000000000000000000e+00 1.000000000000000000e+00 1.000000000000000000e+00 1.000000000000000000e+00 1.000000000000000000e+00 1.000000000000000000e+00 1.000000000000000000e+00 1.000000000000000000e+00 1.000000000000000000e+00 1.000000000000000000e+00 1.000000000000000000e+00 1.000000000000000000e+00 1.000000000000000000e+00 1.000000000000000000e+00 1.000000000000000000e+00 1.000000000000000000e+00 1.000000000000000000e+00 1.000000000000000000e+00 1.000000000000000000e+00 1.000000000000000000e+00 1.000000000000000000e+00 1.000000000000000000e+00 1.000000000000000000e+00 1.000000000000000000e+00 1.000000000000000000e+00 1.000000000000000000e+00 1.000000000000000000e+00 1.000000000000000000e+00 1.000000000000000000e+00 1.000000000000000000e+00 1.000000000000000000e+00 1.000000000000000000e+00
1.681023674204189938e-02 5.511620554906369041e-01 -2.287406796968075029e-01 7.448600738554070899e-01 5.146217493898868067e-01 5.253192979894187875e-01 6.197500792690129323e-01 2.882090084667851548e-01 5.248729932740878734e-01 5.075905902150967819e-01 1.079589310008447489e+00 -6.897956785257309820e-01 1.401169834879144593e+00 4.517816933778569521e-01 5.168971235945943876e-01 3.945203016055249257e-01 8.907656515935596930e-01 9.758612880222542474e-01 6.997435145894655983e-01 5.114684129122003542e-01 4.000641807284670559e-01 9.818793235899975214e-01 4.297113559466896326e-01 4.804155592828585619e-01 9.713120875766409479e-02 6.744178882111150353e-01 3.727690018806441574e-01 6.490943837523438509e-01 5.486988351021722110e-01 1.568335282750131121e+00 5.201302518314061540e-01 6.115676212344796081e-01 7.196982304014932774e-01 4.982306505071279479e-01 7.070966395540385641e-01 4.504673438199507385e-01 5.253404535319248225e-01 1.777752910393942010e+00 -6.831098682783749709e-02 5.294835279356864266e-01 -1.639266607724628733e-01 -5.607111770562288600e-01 7.496009398888399122e-01 2.257564678486235210e-01 2.769318429205888665e-01 5.257640190893151377e-01 7.451252471040338277e-01 5.173127669277308716e-01 6.137735972586749744e-01 2.063785703805399649e-02 5.648844328234145680e-03 8.240127632239989675e-01 6.744874248765325708e-01 4.497808099510203772e-01 4.560036130305583635e-01 1.801477185921648849e-02 4.823351922934546732e-01 5.330439844876162514e-01 1.898850697924969189e-01 4.642710534535955391e-01 9.134250790500531014e-01 5.302072026051962705e-01 5.408302669056462841e-01 4.297113754785415463e-01 6.811321755318908711e-01 5.698790311886895443e-01 5.160923118702365198e-01 3.100914073642173086e-01 5.565969668461794306e-01 1.526634414507463096e-03 4.181811807382017632e-01 5.280019285521267980e-01 5.137670713709541204e-01 2.166701430268446957e-02 1.503556173107388094e+00 5.550329209813851250e-01 6.341440165416503127e-01 7.349429159206714024e-01 5.183994065120973715e-01 1.382346590204835746e+00 5.135838671621562046e-01 3.101736219288929730e-01 1.395031732428042126e+00 7.098296971213775564e-01 4.919961356464450652e-01 7.562670562725372081e-01 8.089110003806250226e-01 5.473625082353800186e-01 4.108238659653552505e-01 5.758340679993458888e-01 2.779663806888224564e-01 2.167881603851648187e+00 7.414772104161743149e-01 -2.722837815168402398e-02 5.446092471846699645e-01 4.930819001306600557e-01 5.581613395328883787e-01 4.758859399419908542e-01 1.894954101805928215e-01 6.705718585153958022e-01 1.599227306421000971e+00 6.888819546659747939e-01 5.510372476795424301e-01 7.220076960454437920e-01 8.601102339981832046e-01 -2.052975689717849050e+00 -1.211568189790713346e+00 5.426665994217045874e-01 5.840051095075651233e-01 9.717688871922681715e-01 5.508813561140488702e-01 4.445495785865363758e-01 1.666962568374116271e-01 4.857355961419955737e-01 5.208815684930944157e-01 5.023992985241523268e-01 4.954493197357840439e-01 5.445478193628189301e-01 9.124462370508954479e-01 5.148335563686503580e-01 1.300263793809684820e+00 5.547457483762975317e-01 5.780649289654541390e-01 -4.188169889649475119e-01 5.130882679159869397e-01 1.940596843544111216e+00 5.583714386792901774e-01 5.408681146628946390e-01 6.861812503794650908e-01 5.146218651228656737e-01 5.012736692696051488e-01 5.127726996170617335e-01 4.187943847183864809e-01 3.238746613430819599e-01 -2.720125210067861343e-01 -1.624762286739198092e-01 6.376988512708190449e-01 4.858334098615847696e-02 9.978501922667657453e-01 6.445177741745268252e-01 5.199686070582576480e-01 8.627594086282320829e-01 6.163482768710083493e-01 5.894076846811134862e-01 5.170557576815224543e-01 5.076602044938444830e-02 9.066256748751547745e-01 1.337474258405795327e-02 4.545889622470648539e-01 -8.821221408064938707e-01 7.721122574901505553e-01 -2.957199391995270488e-01 5.257622930010981133e-01 5.551270134715923232e-01 4.582354244676389854e-01 5.186319175014781901e-01 1.928993034581807375e+00 -9.426016530281013106e-02 8.129934059113337330e-01 6.931374607971130253e-01 5.243028814448279507e-01 4.130676990621553468e-01 4.989579602025016047e-01 5.156613405553549523e-01 1.082937388337041673e+00 1.799453490627992147e-01 8.486678549929613791e-01 3.835413704309578731e-01 5.235916573638471627e-01 6.489520333921510176e-01 4.869258261537767196e-01 7.442114054915565102e-01 5.257701410118276186e-01 5.194218825879213242e-01 4.051400354437040829e-01 4.101357313617546435e-02 1.892908741480464618e-01 8.670673503076681277e-02 7.449295649111535855e-01 1.141659249208031079e+00 7.037063905526544927e-01 5.240960519656918670e-01 -1.797716126784516533e-01 4.459081740786619563e-01 6.447581745149861820e-01 5.300771677421382000e-01 5.120667126393744217e-01 5.201794646397334132e-01 2.776060843318177263e+00 5.552832335905407701e-01 5.320662892066064797e-01 -8.837125603632542958e-01 4.912418539162678455e-01 5.624479599069281965e-01 1.857569087473540936e-01 5.192120124533605718e-01 9.326389024342501832e-01 5.056871067285793053e-01 6.304053793145948381e-01 4.269837258049919981e-01 6.255889256059571357e-01 5.221781465415824552e-01 9.313169108073646729e-01 6.006212629893724619e-01 5.432338833460437222e-01 6.304053335515851231e-01 2.543724327946159103e-01 1.285660542358998626e+00 5.386929307997476712e-01 3.853218834331872955e-01 4.352288951166112252e-01 -7.934520633251895827e-02 4.796666851053651426e-01 1.596838220439909251e-01 5.307761082633323246e-01 5.190228922042774418e-01 5.136285187451243850e-01 5.115473185424919134e-01 5.126991566647990384e-01 5.191661322949397972e-01 4.390236602739852056e-01 6.008495792528856239e-01 -7.038799605885351918e-01 5.910843919589940931e-01 3.624874475426237419e-01 3.823122255019121840e-01 1.073557379758592750e-01 1.297394779842126811e+00 9.564420017585659739e-01 4.983853819089155701e-01 -1.037774660339606803e-01 1.053097573071337223e+00 5.154835746302547372e-01 4.442790442215122648e-01 5.530212365120679152e-01 4.138902347125709147e-01 3.516477044739126923e-01 1.884493820437315170e-01 -1.518981221039640284e-01 -1.044927684476367330e-01 3.627916869260092159e-01 5.141177402032166555e-01 -1.047089946348215700e-01 4.404629300494755650e-01 5.128800137516771329e-01 4.743009245442220689e-01 -1.011644114155561686e-01 7.503158054604793792e-01 -2.258722261941189746e+00 6.061889399473657791e-01 -5.863737633471098887e-01 4.968841084730388213e-01 5.172387490231517004e-01 4.297096940201886595e-01 4.733720165095940957e-01 5.592923445854115494e-01 5.366743856387251599e-01 7.531492536886591482e-01 5.499516065380145591e-01 1.688624269398635080e+00 6.769241693845967633e-01 6.936320876862032137e-01 4.864310652858584993e-01 3.499712471257573898e-01 9.134250507188630408e-01 4.011972121827721560e-01 2.662827292709872395e+00 5.209388919796408279e-01 2.353807063408011047e-01 7.152194058050858061e-01 5.108755015410454403e-01 9.135512810490099556e-01 5.166875896172378191e-01 5.501354675654031023e-01 5.171859359442634307e-01 1.088536645307825790e+00 7.682583964158419265e-01 8.638933275579032678e-01 8.085006992156490435e-01 4.220057802190630425e-01 6.777818061798822624e-01 5.317936692944286170e-01 3.883493833121810512e-01 -7.147714844052880379e-01 3.846054132280612436e-01 6.335381944881851579e-01 5.597921927940150422e-01 5.107380185768422010e-01 5.023992795900334984e-01 6.072736497458808280e-01 5.478617912444319060e-01 -8.180993620924720267e-01 7.132796226532421846e-01 5.353833669225290803e-01 3.185977030189449111e-02 5.580190680153787053e-01 1.847301974031290595e+00 5.005133663613799966e-01 5.173970429891374678e-01 4.545829683395155030e-01 -3.391542198060467861e+00 5.122591469436504896e-01 2.780900390908631170e+00 7.442078362600287322e-01 5.386557355425450888e-01 -5.785172777713721848e-01 5.200800799172791145e-01 5.155576035573318228e-01 4.360727031645232898e-01 4.545028698625834807e-01 3.676898511784275070e-01 6.404866048961039837e-01 3.145109500006615377e-01 5.193653948242444862e-01 5.160695706941419436e-01 3.557035367609468479e-01 5.119459353916734345e-01 7.442677697331355757e-01 5.140361713338340577e-01 1.195814271573549803e+00 5.436112339676541123e-03 2.213534865676573204e+00 2.626479384651652094e+00 5.229951142803082043e-01 -2.082569220058854420e-01 4.257401096448178435e-01 4.026520395780910366e-01 7.284579599853957532e-01 1.371571750074049634e+00 5.364267832313729389e-01 1.123388752694948201e+00 5.160549546306422153e-01 1.252328764020601837e-01 1.250425582924374890e+00 4.301460000666635919e-01 5.297700509126399560e-01 5.033735081912823484e-01 8.892578833420708984e-01 -3.684544493440278234e+00 1.625962314265795072e+00 5.428696454721650966e-01 6.383095865909446109e-01 5.157768259816956080e-01 1.777752914882871460e+00 3.059103218060335583e-01 5.463645362067187650e-01 5.370560324700957011e-01 4.421926740148145463e-01 1.379358590498565462e+00 5.923302848913719609e-01 6.304056422743448129e-01 4.404656682588138361e-01 6.006212650030525735e-01 5.879567299334403918e-01 5.651550232460798018e-01 8.944034028608452980e-01 5.144943935043467809e-01 3.887203372560125714e-01 1.990599544500981088e-01 6.567934774938943843e-01 5.146109140545822580e-01 3.968022605462621089e-01 5.463645313010575544e-01 6.606392156608814625e-01 5.131037966687866936e-01 1.011730262235048583e+00 9.840967407712164494e-01 1.131241293874068576e+00 5.110300096896909228e-01 2.324228324661867795e-01 9.134248574242457286e-01 -1.090227530714565490e-01 9.333678207705257135e-01 6.285260102832104234e-01 5.095193808630858918e-03 5.819526618013720620e-01 9.702675445195730886e-01 3.893081896962690136e-01 5.157534776145548117e-01 2.809765046794419074e-01 -3.329141285278775508e-01 -2.448777034826654653e+00 4.802255077901891878e-01 6.006212660730554376e-01 6.006213163015153844e-01 5.037973139734415184e-01 4.232640465240281036e-01 -2.152253150375920965e-01 3.181108328501446314e-01 5.110985149277904593e-01 6.776488377165277299e-01 5.176124775163110092e-01 1.051105681797906088e+00 6.304055575060850680e-01 5.165629491842375076e-01 4.824318825888979090e-01 2.694298235012107523e-01 6.529278279241557126e-01 5.194083874091408592e-01 5.136124403396731264e-01 5.459772574506647214e-01 2.819629454154419235e-01 2.036696139739404762e-02 6.006212663128380758e-01 6.587643325509457970e-01 5.188732142402689984e-01 4.183832481662500546e-01 8.582381702808160595e-01 7.019661450081078335e-01 5.634721542448943854e-01 1.841081587607624082e+00 5.138091326815000803e-01 -3.038271209783099724e+00 7.452835562750305121e-01 1.514732461074333791e+00 5.293856543382758906e-01 -1.059406303966978546e+00 7.513907632682781390e-01 4.559461480280827539e-01 5.208646598002810713e-01 5.081889716259448964e-01 -3.199396161751308920e-01 5.105249372481228676e-01 1.067932185926914412e+00 5.825032475336603399e-01 -3.456905568439534449e-01 5.159098477342114464e-01 5.141220444119130040e-01 7.758844716937319808e-01 5.428712902599437395e-01 5.378248650547906573e-01 -5.166749467645851412e-01 5.618148346410056782e-01 5.167041683403819086e-01 6.748224100200449493e-01 5.350165924904553005e-01 7.660920893470708481e-01 5.233212359596827179e-01 5.910005266716025218e-01 6.593863986898186313e-01 5.366597630420668619e-01 3.052072254089514547e-01 2.844759026470996544e-01 3.257072606272741755e-01 9.591888761052086432e-01 5.490369246203310460e-01 3.182710295505385645e+00 6.599197773601914729e-01 6.247924210316020410e-01 5.557448572232037698e-01 6.101573905249664254e-01 2.733790496699509825e-02 4.856092307615985093e-01 5.514966687323308303e-01 5.126240259205591121e-01 1.163584403324631422e+00 7.660800477747929937e-01 5.045851288403758739e-01 4.464331870293628546e-01 1.116362842955665124e+00 4.981553273855309771e-01 5.538980287836182681e-01 5.182043253571844144e-01 7.633261135487314775e-01 5.199780087274472606e-01 9.269076223171784923e-01 5.016619258501949785e-01 5.166399273909193512e-01 6.163008866982106967e-03 5.074550379305584613e-01 1.335801007493763598e-02 3.397576574213149736e-01 4.112962283050494716e-01 5.681033106650721365e-01 7.760408100921093455e-01 5.158747987417614533e-01 3.938491010661154257e-01 6.534389422409318804e-02 5.277704937195137891e-01 5.519154041804819055e-01 4.762101860384288510e-01 4.581054957063195043e-02 5.200709325562945518e-01 2.458692473689017277e-01 5.193651783159634050e-01 4.201306200371655586e-01 1.255125060139545834e+00 7.836025731221433199e-01 5.461654070750876500e-01 2.656885026089837454e-01 6.870808162175935374e-01 4.249853722758909491e-01 9.909752032770601238e-01 5.998189158845890212e-01 5.717006892987802624e-01 6.907048356439577930e-01 1.983533161090091479e+00 4.580693477369645050e-01 4.470113200198134185e-01 5.135550591338211568e-01 7.135988243249749008e-01 4.646451659602103268e-01 8.362137881266550332e-01 -5.689727981111115662e-01 3.359531239380727508e-01 5.172403113397823216e-01 4.277839777875682703e-01 3.705534471457033185e-01 -6.101947093744289896e-01 3.888959045010940141e-01 5.144224465417757131e-01 7.375756900703769325e-01 6.658719347779351594e-01 1.458601003993445389e+00 5.133135121390141054e-01 5.145444551208468997e-01 -6.955094338373426499e-01 5.193128613849150588e-01 1.211161336235998753e+00 7.034839847555051096e-01 2.631403436707421273e-01 2.675781072106143688e-01 -1.645909909149504857e+00 4.954355921663683437e-01 1.864843875923931638e-01 1.096968015292450804e+00 8.153904069102752006e-01 5.125581793517463014e-01 5.132938140285259188e-01 6.295570381433165386e-01 7.451940206035410075e-01 4.517616739084139299e-01 5.616349222578378431e-01 2.849297531610845910e-02 5.004462389451402871e-01 6.217016755699831254e-01 6.013700152362480011e-01 5.038889103053902918e-01 5.489940043961322180e-01 1.201690594607753182e+00 -1.059322762829897624e-01 -2.322238866283514169e-01 4.293338024350253357e-01 5.436537468538444884e-01 5.506886622891413730e-01 4.936090887070231914e-01 -8.465734670851555732e-01 3.147798796891867923e+00 5.663399137188044330e-01 4.508945697221714566e-01 4.172329337078424238e-01 5.165007226977611499e-01 5.134323892098496822e-01 6.017347123989243984e-01 3.258740763297312548e-01 5.879664188731050789e-01 5.175370912637520249e-01 6.189311932401029281e-01 3.572337249619715882e-01 4.434645541225545884e-01 5.396745777149900558e-01 4.059390577606916128e-01 4.918969328189750079e-01 5.460735986149811705e-01 6.545133013476500672e-01 1.006912126405275387e+00 2.306593816367791483e+00 5.513040538833841042e-01 4.958025201923091374e-01 4.699769331210785772e-01 5.154843276882180581e-01 3.651164248510354038e-01 5.135366682258701854e-01 5.101713041993455322e-01 5.271720398807607788e-01 5.044817560312269134e-01 4.767521463521299241e-01 7.447327424619346603e-01 3.669355249236659899e-01 5.027427101947476995e-01 4.805460272565253987e-01 5.523409870949705924e-01 1.200596055132655687e-01 9.134250597881996558e-01 5.574551782711492098e-01 1.283084122546904182e-01 1.909716883112258845e+00 2.782569820252958070e-01 4.369724479891270996e-01 5.882247915624498891e-01 6.202418863549909178e-02 5.075517519184161719e-01 1.507230671390743737e+00 7.690243372132552491e-01 7.627205190447468031e-01 5.149034382759245521e-01 5.489133741060566729e-01 4.791787543093628532e-01 6.489480659043713739e-01 4.980125057007895872e-01 5.155301428890796123e-01 -1.930159502378303304e-01 5.556845594931199006e-01 -1.438464799800731608e+00 5.018334495936001005e-01 4.998896917319225475e-01 5.449824699121261773e-01 4.545711650396278003e-01 9.134250597254469639e-01 2.218993981614430788e-01 5.531880595552083335e-01 1.328578968787848869e+00 -5.471889307190510587e-01 5.202164106082579620e-01 1.128572778119275588e+00 1.500983780668412537e+00 4.350401271122918967e-01 5.214750666419504244e-01 -5.087935025887589668e-02 -1.663207950424008930e+00 2.790516231133756686e-01 7.718063442516187589e-01 5.216107214578752371e-01 5.181449352780120865e-01 5.507953225961338406e-01 4.859651338854573122e-01 -3.999229527044991239e-01 8.153578027764711855e-01 5.023996432617894303e-01 3.355370796165755842e-01 5.531470934147572072e-01 -1.591288439890970602e-02 -1.730451671831441662e-01 1.776149933164469452e+00 4.151017333880240856e-01 4.796848406489495065e-01 5.161149924579866433e-01 3.287640655413126001e-01 6.026854507157288765e-01 -5.334546508332972670e-02 -1.095185776386186749e+00 5.169818892153928980e-01 5.170460365844361528e-01 5.436196916613189600e-01 6.155498285262118729e-01 5.429481053944721358e-01 5.439865130994618880e-01 5.579168774316125567e-01 5.763740789705265044e-01 1.028927366197568194e+00 7.258413724055635674e-01 5.431199701254639800e-01 5.760782133615303113e-01 4.537438720323905827e-01 4.255895920221194340e-01 2.165744492001477062e-02 5.463645246557797819e-01 5.096435892502702014e-01 4.686671688505589239e-01 7.541383572188169460e-01 9.359826082302920014e-01 8.362335695870477537e-01 -4.896640374193232947e-01 5.433391508918254953e-01 4.720230399308876224e-01 5.120186969889299888e-01 5.839304615100535667e-01 9.033514730485352473e-01 5.621287748559428143e-01 5.222668986088192522e-01 -2.347861285987004054e-01 -8.567894236809489028e-01 2.277442215522027524e+00 5.137775539153243143e-01 8.925586998789546422e-01 4.501459968179487015e-01 5.717259802320224793e-01 3.720939587852937769e-01 1.497674331659888391e-01 5.151134917682478331e-01 5.497702984532567561e-01 -2.248952840129355216e-03 5.219167584069946964e-01 4.267251404279328031e-01 5.232580295576927387e-01 6.862909379082514638e-01 5.147243526673310754e-01 6.018158561432798148e-01 3.991607413221543443e-01 4.834239467755411246e-01 3.930440292611135367e-01 5.097909795348798401e-01 4.246734801039987461e-01 5.007294634762281538e-01 -2.807204542806588377e-01 5.096412654321854641e-01 6.428202432781838782e-01 4.845692839636676075e-01 7.449305047563703486e-01 9.134250264208833014e-01 7.325238230255227689e-01 -5.905214208558241529e-01 9.894366988162311971e-01 1.777752910367047079e+00 4.857592269914097205e-01 4.638402839411495671e-01 1.074099143337309492e+00 5.543349328986183489e-01 7.449333660967545345e-01 5.146679541583305539e-01 1.811807373342305683e+00 5.207357772478591329e-01 4.404627880482026581e-01 1.233974040193308142e+00 -5.774143919849026446e-02 5.618955875418666368e-01 -1.650951898656664307e-01 -9.498408924524086583e-01 -1.729682307699300092e-01 7.770991785294124599e-01 5.566254804918707721e-01 5.368674142516076664e-01 -3.307620559218052980e-01 5.105677928648788555e-01 4.036736474399042068e-02 -3.672424166378115973e-01 4.828664221919686805e-01 5.175731291483018914e-01 5.121687344082046511e-01 5.612974577714014979e-01 5.558105192305199393e-01 9.063946144526185966e-01 -3.985437355864766551e-01 5.139561337386032713e-01 5.662125335951022631e-01 6.187160087620834359e-01 1.163188378267017598e+00 5.056229970136973950e-01 6.335558324882645254e-01 5.143594190652073239e-01 3.591802867679855932e-02 -3.194599022069076200e-01 5.254478831249352888e-01 4.962714561037381844e-01 6.734381346680092806e-01 5.158690250780129105e-01 3.412541013297958892e-01 5.192463003011423828e-01 5.149866529999528320e-01 3.551123055905398562e-01 5.162320016020024438e-01 8.383802109525357871e-01 2.540077520907854769e+00 -2.400127321305937089e-01 6.653286505256538197e-01 3.314028744121094716e-01 2.145283906248301453e-01 6.767807670230621131e-01 -5.735040217242259875e-02 -1.513848416208334546e+00 5.169368323878847926e-01 2.601266179730151062e+00 5.073706199215736179e-01 1.521400214066208900e-01 1.734931037600980219e-01 5.023992985857850258e-01 5.720945311392456878e-01 1.550247417695141294e+00 4.907513090526402499e-01 1.259461694118500508e-01 4.359757326446870307e-01 1.685621407565741414e+00 5.881425032271015985e-01 7.397269127284866741e-01 5.403244001103388872e-01 7.403797986918847496e-01 4.564379942867353157e-01 5.651337825298531348e-01 1.466492569556958510e-02 5.111097674707261174e-01 4.918641668400639544e-01 -5.693148829047558479e-01 -5.239069894975595387e-02 1.172546879501355166e+00 2.362162876485077168e-01 4.879924038868372893e-01 6.893268993626825436e-01 5.475926445968203327e-01 1.996578436998405648e+00 6.972570895585593620e-01 2.854193290049632237e-02 2.841083098033851950e-01 3.991709978794024671e-01 1.108854290548618726e+00 5.153959746848033596e-01 -2.539680102241001838e-02 5.212466513614244512e-01 -1.922556829730451278e-02 5.107581074533430465e-01 5.106547857914853772e-01 4.080920582467218588e-03 -5.922885441260662687e-02 6.673455237783031402e-01 6.095490155461558146e-01 5.498857007570447930e-01 2.723509521082485563e-01 4.777739077413956648e-01 4.914348198181325289e-01 5.585287735007338217e-01 5.592473537212580004e-01 4.800038259640337368e-01 6.241676325647722567e-01 1.015324065916212382e+00 3.109452640313643546e+00 9.167471502599391364e-01 5.122867817582613670e-01 6.418754760715552621e-01 2.128894381206693776e-01 5.134153369787699539e-01 8.426242746611596335e-01 4.914970295712477455e-01 1.316369500647945889e+00 4.553500107590776058e-01 -5.717097383108628028e-01 -1.524305311482342627e-02 4.084922085433264072e-01 6.122349765827398427e-01 4.944338431398512812e-01 5.245600144539763754e-01 2.472707518233456872e-02 5.488237964919052692e-01 3.989090671940360711e-01 -3.628306240662825921e+00 4.845016638272730547e-01 5.136562896771891262e-01 1.123680684587275769e+00 5.142313340436425184e-01 5.549126374611502710e-01 6.817880360828255659e-01 -8.749594263006764683e-01 -5.050625869308017490e-01 4.707619090791300559e-02 5.140456735719645120e-01 4.244121605668970121e-01 2.204628137163381907e-01 4.965997602149167522e-01 -3.348438663256704251e-01 6.271991385202734248e-01 5.027472768189138463e-01 6.943355966097600751e-01 5.401305884243071675e-01 4.739347336779368702e-01 1.599566980756602919e-01 -7.447369577319080669e-01 6.534488646523189948e-01 4.961302722457923697e-01 1.631991889664796691e-01 5.127254857977349145e-01 5.803956128087774946e-01 5.265828004955561692e-01 6.711340134077590225e-01 5.702948211064501338e-01 5.405306092370530946e-01 4.996182356147169101e-01 1.777752914068392309e+00 3.657372281937452674e-01 5.493139495239521830e-01 -1.140496377362656827e-01 5.509831631818490338e-01 6.241860429879365624e-01 5.177927947296937505e-01 4.971552239795084538e-01 3.501498946767182541e-01 9.237117318818418576e-01 1.192902996284661121e+00 5.571129553342901719e-01 5.704516054106065770e-01 5.959050421467845249e-01 4.648016182157422849e-01 4.866599758777233053e-01 5.167008436055388065e-01 9.893810264182396619e-01 7.230992882013084211e-01 -4.527827310804321548e-01 4.492269328782386162e-01 9.162497556686941547e-01 4.998737709983865907e-01 -1.124429135673098330e-02 5.110039537300015144e-01 1.274927411749781081e+00 -1.386384481200158003e-01 5.731476280937395362e-01 2.477861825305709420e-01 5.436744796277950265e-01 8.258518732646772387e-01 5.152004791812987428e-01 3.683201779018288047e-01 1.395633677753637558e+00 4.838548757126498456e-01 5.278147072911321125e-01 -6.396271313345486265e-01 4.549336487374628923e-01 1.042850403006684967e+00 5.956960077805318887e-01 9.130556246069689019e-02 9.592311885120045067e-01 -5.154919394039948061e-02 6.112575574610300544e-01 1.604716393672603880e+00 -8.544188142848045953e-01 5.522887063916420702e-01 5.150290842044181749e-01 -4.472673367478700035e-01 3.207670643963748680e-01 5.907576127228766349e-01 4.744558758093042061e-01 5.203332897109707034e-01 3.628875797916198409e-01 2.636431390665868735e-01 3.449476109132035284e-01 5.546448939765786790e-01 5.141753780523968809e-01 5.755304935168022162e-03 -8.687906629798833325e-02 5.262671017678559604e-01 1.061233767092342628e+00 4.329524113027163335e-01 -5.690629597658587446e-01 5.663407812170071498e-01 5.205660013886199700e-01 5.094940682113153763e-01 3.661522078930639496e-02 3.356224862818426580e-01 5.154874647496694440e-01 5.297023477115551104e-01 4.530373909563903401e-01 3.062683608671832106e-02 4.678279172687800358e-01 5.122834131333598995e-01 6.434682245002992795e-01 2.076418308886289754e+00 1.428155497830443932e-02 3.835325626161794621e-01 4.920600775592413045e-01 1.821889233777402861e+00 5.798925987979622887e-01 4.789199993709864489e-01 1.527480767733620931e-02 5.463645396408172150e-01 5.136123905977186821e-01 4.735409481749671134e-01 3.806746732886493456e-01 5.086908145176446405e-01 5.274672220849597748e-01 5.673283746638626557e-01 -5.206755928813601164e-01 5.159679674594117582e-01 5.387514676182367790e-01 5.198502766933366104e-01 1.044144443334696692e+00 5.108157441113545527e-01 -2.421752032234729957e-01 1.066612287531795600e+00 -1.246090091065684691e+00 -5.140927032564860388e-01 5.198555517826233263e-01 5.176580717098774320e-01 6.501801937198834480e-01 5.135502455062360694e-01 3.907374683098676083e-01 6.057222625830217533e-01 5.463645407188206793e-01 5.160015538045724659e-01 5.544416824933061649e-01 5.819336996817050522e-01 5.142931271408669458e-01 2.904329715488733754e-01 4.981064859017552138e-01 4.817483184064759172e-01 3.742283844645835633e-01 5.107845318859847161e-01 5.199434982925211779e-01 5.480425644124320428e-01 6.429202957668138652e-01 5.204793021074889392e-01 6.747089421683405419e-01 4.849600156337851575e-01 5.212346254700126469e-01 5.441327518938943175e-01 3.549185266915736436e-01 4.230882277951546477e-01 2.392892743741396711e+00 5.163632597392272539e-01 5.819270670575761306e-01 3.110153703008047832e-01 5.831919051403439136e-01 1.109060603873481599e+00 4.972174175194759571e-01 7.081441227455292919e-01 5.160582621876093068e-01
6.916667202847697205e-01 2.819048854138949123e-01 4.199486128636455984e-01 2.053782996197862920e-02 3.167934842443984045e-01 2.977487479357159850e-01 5.306608593181313394e-01 4.402660415790037862e-01 2.442653950985522182e-01 2.975029146341545694e-01 2.040083869368797931e+00 1.706801522533118343e+00 -1.430115655174030831e+00 6.219911712013568295e-01 3.137792678140020608e-01 4.147437337202585228e-01 1.294557148479960340e-01 4.292846645090382385e-01 4.426133100172572887e-01 3.106862166554881233e-01 4.665870753174717889e-01 2.099617341391313730e+00 3.936814511628605184e-01 3.721580741608584986e-01 7.199823248546469712e-01 -2.348023695099964725e-01 4.545748621769046816e-01 2.325833815240148650e-01 2.791467737144183170e-01 -8.616120878454217591e-01 2.879368903289041826e-01 -1.200150156028182286e-01 2.890773832567889445e-01 2.678768896180762638e-01 -4.255163791158454445e-01 4.581060383225785126e-01 3.031931181359237559e-01 -3.443251482857710433e-01 -3.206814346871175392e+00 3.433317105718308171e-01 1.133976151566761681e+00 1.407645444357014386e-01 -1.650237684259032445e-01 7.917230451950917347e-01 6.298678557193456706e-01 2.916371222352930337e-01 2.029634396735504817e-02 3.279800094323107595e-01 2.327842344710777667e-01 6.814560804539380179e-01 6.799616102995346134e-01 4.693436052411039117e-01 -2.458011772466369982e-01 2.059608729979486574e-01 6.043920492408914047e-01 6.607298072457992166e-01 3.624443666654078577e-01 2.597736040732805396e-01 3.471381291377226841e-01 3.551693348327086830e-01 4.246599864398430957e-01 3.896020764440332185e-01 2.994304253570954644e-01 3.936814516115503815e-01 -3.465213789086750151e-01 1.806615501918375777e-01 2.984622234050234857e-01 3.313621637134679387e-01 2.154006799307444375e-01 7.286074525704284710e-01 1.187002097250231675e-01 2.885245419109174203e-01 3.157959555480263081e-01 7.226210112352875470e-01 1.905905065342609062e+00 4.949516798759536762e-01 4.697726133547493466e-01 4.800543776160313136e-01 3.160181538300858017e-01 -1.327725884422877201e+00 3.108835185345710794e-01 6.165698718326504402e-01 2.291923013225174888e+00 1.068118409359617577e-01 2.749588307347019533e-01 -4.097044235465897577e-01 1.249429893678182107e-01 2.702782808804238268e-01 -5.735505001703401495e-01 -8.767866107702728673e-01 6.302003502805479940e-01 1.562936590579345753e+00 8.547367926087348633e-02 6.966651034354682803e-01 2.797815804094382908e-01 3.094904563191753777e-01 2.753150990698373657e-01 7.417570858963395963e-01 7.383032511782727791e-01 -2.401563255060166768e-01 -1.700977471938553143e-01 5.522829300528923901e-02 2.726458359956865918e-01 2.153992103581265638e-01 -6.201311520571588590e-03 3.075355378354170721e+00 -2.822218879140648284e-01 1.287635049540380161e-01 1.557576895419463259e-01 8.084538737737748670e-01 2.373533031243583447e-01 4.477180983841149153e-01 1.666609415307286068e-01 4.579398040395832314e-01 -4.884451094537650140e-01 2.048461773526976948e-01 2.379920444460759121e-01 4.206123175791214863e-01 1.022985358340335882e+00 3.177788674228123056e-01 -1.440679711923204653e+00 2.289738956492377020e-01 1.706336919102297012e-01 1.343839498528743182e+00 3.202520410286218144e-01 2.151275405599264889e+00 2.128543364552377415e-01 3.367406173637209621e-01 2.976197040227139823e-01 3.108622374237124397e-01 2.976730419657281357e-01 3.163511471543393183e-01 6.748884992171169106e-01 4.118327460998382206e-01 1.775793150527755770e-01 8.731568236773932234e-01 7.051619292920465742e-01 7.229241760581642806e-01 -3.314258119344608011e-01 2.004799509006828795e-01 3.635806586447813959e-01 3.215403298274006616e-01 2.722632918136584368e-01 2.934196713279972890e-01 3.220388720926513626e-01 6.930365490403124218e-01 -1.338351820228575462e-01 3.187339100508007061e-01 4.494644488881850419e-01 3.971167362683878932e-01 -2.638580116563444267e-01 2.198994992147976571e-02 2.916397926425254861e-01 2.652500486276135883e-01 3.447760591306017197e-01 3.216952050850718225e-01 -2.302317421795196051e+00 4.508621661919381407e-01 -5.902319262597135463e-01 -2.415526384497746482e-01 2.787719149871778490e-01 2.372384036413396624e-01 3.334890923015798037e-01 3.136312888551456846e-01 1.137321022384570196e-01 7.270335661490838486e-02 3.149986092437882523e-01 4.292030217957594207e-01 3.048553687858446826e-01 3.498187940419315578e-01 1.786066215754155140e-01 1.965805020257383601e-02 2.916060047789156839e-01 3.130202564048113478e-01 -2.480666323025356945e+00 7.056344099417722893e-01 6.207157328076342573e-01 9.707631809498163955e-01 -4.545217719599654038e-01 1.170076602109237474e+00 -8.384175517482911344e-03 3.050807901099912844e-01 1.231580798543891575e+00 2.803556526640701430e-01 3.058205576107215218e-01 2.576019478416570752e-01 3.363570077906103961e-01 3.285451111266097790e-01 -4.676958101710073090e-01 3.286048070995043480e-01 2.336328648465973157e-01 8.077059504170430726e-01 3.184053636954088939e-01 2.598635755837043204e-01 2.286047353091900380e-01 3.184215432651549826e-01 -1.631644711420642713e+00 3.200357817512229364e-01 2.224035987186626373e-01 3.529454268033085373e-01 9.257219658693265074e-02 2.728941157473369628e-01 3.805709661353269269e-01 1.332732386174869110e-01 -7.925945231125118839e-01 2.224036212933126477e-01 4.600484056639546626e-01 -5.080097224649838816e-01 3.597576256256180827e-01 1.613149333776826011e-01 2.568019315274274739e-01 -3.214132152122496588e+00 4.466944163615539920e-01 9.326586335923211513e-01 3.112110301293996018e-01 3.053227666953020614e-01 3.143314837410173812e-01 3.361837707046611556e-01 3.192738046019089615e-01 3.137355351570518813e-01 3.342302524663107732e-01 1.506827051162274445e-01 6.609699669039139636e-01 1.233189524605821374e-01 5.147582851235749102e-01 4.656512267740086086e-01 3.877810738636335297e-01 -6.513765738942792760e-01 2.258667906451515162e+00 3.866814411678743957e-01 1.233290465809945946e+00 -1.382967195851314113e+00 3.199465085033271206e-01 2.116706160333707565e-01 3.508278404303187270e-01 1.156477427016145088e+00 4.937177764872537344e-01 8.013469577765016671e-01 2.805740987878855841e-01 6.701212421169236988e-01 3.078569017469275915e-01 2.844310197059577994e-01 -1.155511276006880639e+00 3.791319965608077602e-01 3.154537643354956566e-01 4.803046892952530511e-01 9.071949109670207623e-01 -3.488728596960459227e-01 3.108670596351574833e+00 4.802849498809697026e-01 1.236014633122590078e+00 -1.455776104782310065e-01 3.070150953165114993e-01 3.936782171338554792e-01 3.150311248259453079e-01 2.541273850600356821e-01 3.654001556356197278e-01 -1.070242937399342870e-01 1.398250482580377374e-01 5.612045164176927559e-01 2.758283720012055795e-01 9.232955343631257805e-02 2.591978590155517015e-01 3.706921526468957007e-01 4.246599979931939273e-01 2.651822239656528302e-01 3.192443028338601607e+00 3.770791516158268908e-01 6.548019015768976603e-01 5.416465343262579779e-01 2.546884578138439714e-01 4.246117544482552186e-01 3.210100157908488128e-01 2.718041191779806964e-01 3.156594398618502439e-01 -5.318147342774730557e-01 4.634299681567112805e-01 2.854448629445595076e-01 1.233171791608686785e-01 2.608957062409622552e-01 1.521565259184104901e+00 2.660620638618247935e-01 2.886952917505122840e-01 1.985523709894900790e+00 4.954832151698222442e-01 3.135394696908585521e-01 2.675779410012297244e-01 2.875761431749000452e-01 2.048460526623163969e-01 -2.049970595590696387e+00 2.716861737348675865e-01 1.498222548507984975e+00 -1.555912263278004699e-02 3.011450189045028480e-01 7.054055216969041808e-01 2.697268301177441763e-01 -7.161530214193920774e-01 4.267726763742795137e-01 3.249553971275886410e-01 4.494492297383133605e-01 -3.832939652740762759e-01 3.286977225955428072e-01 -2.171443215898721135e+00 1.964077683583750900e-02 2.858281149916771513e-01 6.047071186177209734e-01 3.086186084809839913e-01 3.195998879096410561e-01 4.651689986661353138e-01 2.067694046077521997e-01 -1.168221715172707148e-01 -7.570145086585163829e-01 3.627592761455039876e-03 6.840291131700156901e-01 3.282637554959094706e-01 4.931883823957672330e-01 3.197942310288874879e-01 1.982468802106936850e-02 3.210464364765242551e-01 2.416664310108150193e+00 6.963696671918674364e-01 2.466845255739153753e-01 -1.142580102691341581e+00 2.197374899275707782e-01 4.620612066820332764e+00 3.404951146891583846e-01 -1.284196035558964055e-01 5.692225279171948538e-01 -5.513926891370735106e+00 5.076871979569264060e-01 1.528630916865238110e+00 3.145646554456970057e-01 5.384613301577105826e-01 -4.372953005878854049e-01 3.958130026163201309e-01 3.331212527164540416e-01 2.852937227764820172e-01 2.445028539567084824e-01 2.890628510172994936e+00 -3.665449158602617774e-01 2.933570940006952621e-01 -1.901213017716661513e+00 3.388540377796708247e-01 -3.443251482394534269e-01 7.438854838741493225e-01 5.432850577670541581e-01 3.091766623118717416e-01 3.160727494789190017e-01 1.281867589253987694e+00 1.388226823065882853e-01 2.224033798914356319e-01 3.791277648361371377e-01 1.332732407793242035e-01 2.746207714825731894e-01 3.958070565298599242e-01 -6.035470995653073878e-01 3.183285132244128013e-01 5.429900400592895249e-01 3.772488058758863838e-01 1.667806150441634716e-01 3.168360070602860845e-01 4.662620487688842741e-01 5.432850707701984971e-01 3.979452017197725455e-01 3.181920710880059566e-01 1.962685133426952389e-01 4.381885042040897238e-01 3.356037686526124553e+00 3.108111915846297202e-01 1.532255974870236626e-01 4.246601276685633142e-01 8.507862315823055965e-01 4.650472721099405682e-01 -1.923754577354630513e-01 6.863163345102376578e-01 2.700779562121568556e-01 1.146705598405177717e-01 3.964666076060191502e-01 6.600553788167707880e-01 6.367157507657834614e-01 7.774581869553203184e-01 8.099917572793977616e-01 3.788289733419362704e-01 1.332732386238357769e-01 1.332731563991307322e-01 2.688868600130047137e-01 1.306761924478871406e-01 1.120048861552075614e+00 4.092086160257969452e-01 3.091615083251947893e-01 3.554128131460178586e-01 3.119585371078091862e-01 7.775862855748274516e-01 2.224031636387072408e-01 3.181275694852825908e-01 4.418497755714220210e-01 2.803164309957895117e-01 -6.319202304582643981e-01 3.229173896235754126e-01 3.228239628536302974e-01 3.709078716484381366e-01 6.985524953786405034e-01 7.330483476822484690e-01 1.332732397984365547e-01 6.067446471647002654e-02 3.163516381282609480e-01 4.557783982968240388e-01 -5.902877054333547369e-01 2.014528843281257198e-01 -3.469957057209378970e+00 1.928387963615050049e+00 6.303990305550249973e-01 -4.479500558925083586e-01 2.062165206030239228e-02 2.035157400872720679e+00 3.095171625620978251e-01 6.349175745014861150e-01 2.369032632115492323e-02 3.134738229434809176e-01 4.465991521340902937e-01 2.910787510029990699e-01 -4.431687053545523280e-01 2.532300438403574105e-01 2.037369360770557858e+00 3.525845633600065976e-01 -4.093113286434293951e-01 3.190982143493039103e-01 3.153834516173508185e-01 -1.447798863170609573e+00 3.166156935302997799e-01 3.517430273350721781e-01 4.028936751818141815e-01 1.890243128643945281e-01 3.162570464949118754e-01 2.231893116550761058e-01 3.192799128892647720e-01 -1.605950476060717391e-01 3.048481136186193541e-01 1.233569959117791354e-01 3.308283610819324205e-01 2.933270697566018326e-01 2.030758480035619803e-02 4.300942398838430991e-01 6.020120303571895315e-01 -1.365622691540896438e+00 -5.271033005684438999e-01 -1.075585513487492678e-01 6.875188634116745356e-02 2.772073957571188907e-01 4.269186516463257530e-01 3.625413586320067605e-01 7.281169652192224229e-01 -1.118959684711539893e-01 3.200857079065426714e-01 3.157173292523797192e-01 9.248487103194501235e-02 -1.603526505252159395e-01 2.995777888247016518e-01 4.457955747675034774e-01 4.790546474277522782e-01 3.185644790455286479e-01 2.613567453517084416e-01 3.120333051204665087e-01 2.574443655816751608e-01 3.103938315036509632e-01 5.100210237799344126e-01 4.257384186173169272e-01 3.140657976078448654e-01 6.849041905623862725e-01 3.247960366904450447e-01 7.291990033591064790e-01 7.572293644618603714e-02 5.054372767907434616e-01 2.280490445410478240e-01 -1.438684262884325271e+00 2.950283260101800864e-01 6.447400728627366018e-01 3.812934766659729635e-01 2.716870791599108048e-01 2.813045882998168601e-01 2.417931001346681763e-01 6.922750196958614710e-01 3.090963300277997372e-01 3.784509170304134473e-01 3.158913688821015087e-01 2.875247832950902360e-01 2.115513844633865603e-01 5.180029143096804845e-01 2.862550995652977659e-01 2.494715052593791671e-01 1.588608779095301293e-01 5.020040093411165527e-02 1.619635622114750317e+00 2.810376594691655350e-01 3.711421002108275524e-01 3.768459504483210876e-01 -8.302788125223112825e-01 4.140996430451793775e-01 3.150166795831815802e-01 4.913056696163079495e-01 -1.551704123626763791e-02 3.249646657706314334e-01 1.540074030502680102e+00 8.879140086377439456e-01 4.106682834821852590e-01 2.856313403833357079e-01 3.740931307595513622e-01 3.300846000044618811e-01 9.134911680646444765e-01 3.004056996813388114e+00 3.188053098021289555e-01 4.790882367661244284e-02 5.936482915524409210e-01 -1.805376433708487383e-01 3.142501311869919101e-01 3.178044526219084842e-01 1.060077127116016316e+00 3.051826258740276132e-01 -3.145421858228830136e-01 3.738508871344018991e-01 1.191861755619233881e-01 6.542462946550269276e-01 1.719100056450747704e+00 3.406155082322988581e-01 2.454346840735806834e-01 1.649601628288994926e+00 4.091587065862618000e-01 3.202808805736784281e-01 2.338472003363172569e-01 3.147989160503597006e-01 2.000835832515959062e-02 4.665736638120093760e-01 2.369211908766473973e-01 7.287287756339544398e-01 2.709901944306429278e-01 3.024190667914262165e-01 3.016687731980586817e-01 4.553606048204904000e-01 2.852337107853238352e-01 2.547209728720332689e-01 9.145542197827009057e-01 5.046948492744643966e-01 4.241364284822725095e-01 2.814616215199061688e-01 2.965909642185529660e-01 2.984604249683880939e-01 5.851005306051069166e-01 7.680284448691838683e-01 3.404710902789518379e-01 2.858442138684289535e-01 4.570705249955612781e-01 3.128052091555522107e-01 7.363619520621103032e-01 2.197896141095762312e-01 4.473889903882694585e-01 -3.164506666553554282e-01 3.169761778233708971e-01 2.699832455829874189e-01 4.165834544689311914e-01 3.201424315151796818e-01 2.397155118280160646e-01 1.760707499774545104e+00 1.036398868800901124e-01 2.693721285372304708e-01 -1.628170782834826302e-01 1.615872371385981054e+00 1.142500232790374159e+00 5.946678720775540328e-02 -4.600894168008511920e-01 3.866174616351089610e-01 3.672488112215518408e-01 5.154442338182478878e-01 3.166550201266841724e-01 3.182302365335244465e-01 1.947417089211849195e-01 3.429620822772198041e-01 3.742603005398615346e-01 2.046454191107887829e-02 -1.868709307867145730e-01 3.799548554926119870e-01 3.305947635763945014e-01 2.046545382692089576e-01 8.614498903879214131e-01 4.246599939140947022e-01 2.296835345086277180e-01 8.317395251119666932e-01 4.761221636946393332e-01 6.297444336150419542e-01 4.497401808843185522e-01 6.881121421478072486e-01 1.463131539546338455e+00 3.058561604604771444e-01 2.054011408984059539e+00 -1.959146591352654149e-02 1.376180227138872059e-01 3.176960754665639763e-01 2.710367383913217521e-01 3.314082663541675911e-01 3.497900686646625013e-01 3.178374531725782215e-01 3.171492210606557394e-01 3.566181109507658986e-01 1.845944539274833318e-01 -2.952190530798107782e-01 2.561699283566062357e-01 -7.713652369862569746e-02 2.938892573749716797e-01 4.494261314305832422e-01 4.246599939724275408e-01 2.041096426090261151e-01 2.103543499134326034e-01 -1.209018334969580444e+00 1.936322298228538852e+00 3.157131105495938339e-01 -7.051732610201398854e-01 2.977492079924758950e-01 3.108772093161466521e-01 3.131321495697002022e-01 -4.705683532149227410e+00 3.488806543526337567e+00 6.217855485319456754e-01 8.792221310080325369e-02 3.132094323275127490e-01 3.162911060408061803e-01 3.028838428860916587e-01 2.584217674693832567e+00 6.175975879369826060e-01 3.200712158830851806e-01 2.048460944568344655e-01 2.554183036209944357e-01 2.616532717169808842e-01 8.710027226218417518e-01 -3.781270881371058268e-01 -1.155752168566899440e+00 -1.194559383253955831e+00 3.125144924997303453e-01 3.148446961571504388e-01 7.114154322795132046e-01 3.505859569133644160e-01 1.315855185661390481e+00 4.677253225388285918e-01 3.105653657972762827e-01 3.036426435638839849e-01 3.254402001408304157e-01 2.849152732164229040e-01 2.937382480136596641e-01 6.506330147877791292e-01 2.764353982435992507e-01 6.474781511235798703e-01 2.190637085849659327e-01 2.685929768689729324e-02 2.936756230738262752e-01 1.975445178543178137e-01 3.496636772862860565e-01 3.163908406593139433e-01 6.805428523708310085e-01 5.432850608559690597e-01 4.485962057504255251e-01 3.773700787724471595e-01 3.160803590473835190e-01 2.582787216553418252e-01 1.540059895846342286e+00 1.845556418959926503e+00 2.945396641843349150e-01 3.624358327026785398e-01 3.225585395236310049e-01 1.672676025257929244e-01 2.350087851604571454e-01 2.309993711934409943e-01 2.987537489876773700e-01 3.217827757814691880e-01 7.923143877733269669e-01 8.702746434018119315e-01 2.390831956022203275e-01 1.844049085023788059e+00 2.162501977722922075e-01 -1.755235810397715590e-01 -2.722495230188882176e-01 -3.200108159198440938e-01 3.152888628153350803e-01 2.728465812443697791e-01 7.065271680254326947e-01 3.082472045075611011e-01 4.571294344053406511e-01 3.240318489651635159e-01 3.753748776790560293e-01 4.014815620477381608e-01 2.286802827628311996e-02 1.021487578765276405e+00 3.148277953604484147e-01 4.673949214966840460e-01 3.200929436622806379e-01 3.625052141435884945e-01 3.215898279769784374e-01 3.885086966938413044e-01 -1.120514228292496944e-01 2.232245593048778898e-01 3.219649929558112134e-01 2.037363412208689079e-02 4.246600990796434716e-01 1.115584039269241323e+00 9.478588966172740715e-01 -7.353925917341017637e-01 -3.443251483014334036e-01 6.467498274756072751e-01 -3.274309602329196434e+00 1.558610300555123951e+00 2.627207770503353079e-01 2.094736408259653335e-02 3.169972641617637144e-01 8.758367240784655783e-01 3.136885364303297896e-01 3.791316359215399778e-01 -4.359545980057384917e-01 8.277492119169697071e-01 2.644651905238266099e-01 8.850331221196259257e-01 2.066994618772368675e+00 -3.782868774782766064e-01 -1.437128736028028708e+00 2.600834974417433054e-01 2.846183960886449760e-01 7.733841324045296339e-01 3.264832667385105802e-01 7.018679714290810834e-01 4.690634419728960114e-01 1.692639102050415012e-01 3.159645227113191956e-01 3.183827430269399184e-01 2.205106334294528181e-01 3.418384549629943647e-01 1.386366280592008060e+00 1.599516750700593626e+00 3.106830375618416240e-01 2.542399265415449805e-01 6.326120429872027218e-02 -2.378134987589309024e-01 2.036080055051925075e-01 -3.817902395905079307e-04 3.088642777002277295e-01 7.075717198003820263e-01 -4.434460282361176175e-01 2.854864305632722199e-01 3.351494884403722341e-01 1.552459653535355477e-01 3.102520714497893906e-01 2.556694119946009147e-01 3.110349184115576149e-01 3.148179645483163425e-01 -1.528438783251673608e-02 2.571183403139312706e-01 4.401556055880779250e-01 1.107872859382851960e+00 1.099270531409615614e+00 9.355236277400295064e-01 1.944195869895359585e-01 7.732420168665961047e-01 1.297820214968295194e-01 4.643908843247801510e-01 -2.077744244441710020e+00 2.886668808795611607e-01 6.525283885830117647e-01 2.712499772937699283e-01 9.570130282191435800e-01 1.358888063922616629e+00 2.048461778300535718e-01 2.831943672854202454e-01 3.728021838836351187e-01 2.639943965743166698e-01 5.545926890963780442e-01 8.352758277059513237e-01 -7.596607980684504380e-01 1.566757706838151909e-01 1.064988770931172418e-01 2.978747960852301535e-01 3.430869653363446403e-01 7.706897868446676014e-01 -1.784587274277178170e-01 3.918840478415027695e-01 3.227458653507006558e-01 2.998582156594744585e-01 8.878002247461603824e-01 4.241543833794980123e-01 -2.068175233407933133e-01 8.594114349156466437e-01 -4.580038525344225231e-02 5.731377298489999106e-01 2.724681858189936801e-01 1.277083508978233306e+00 5.567389350137248449e-01 7.276135701187259608e-01 4.379237455805706780e-01 4.830818192958105661e-01 -5.280354206002085826e-01 2.731874280313766334e-01 7.637484546820474396e-01 3.333271761583268544e-01 6.379629780066505829e-01 2.745619038174774151e-01 3.193839110442134865e-01 7.311457569009708335e-01 1.305540916818249686e-01 -2.026212758045288442e+00 2.592830500567952501e-01 2.809559959430760201e-01 7.776328370271708978e-01 3.994123909205603007e-01 4.027182132960428484e-01 2.939742203367349260e-01 2.595410419026756288e-01 3.720611476564198994e-01 4.016984405752282994e-02 -1.611691078707788938e+00 7.470239435372534320e-01 2.602904470939161885e-01 3.298587474444278356e-01 1.929712085115511955e-01 8.236115679870990025e-01 3.132868967038150432e-01 -1.344765730304346152e-01 3.202881544550976178e-01 1.116389609471322153e+00 2.820288316381630023e-01 4.148944065568256900e-01 1.061195106604392091e+00 3.430281367997847775e-01 2.732950824629627906e+00 3.123039122403307721e-01 2.939632834592047494e-01 6.894147713291923774e-01 2.932313503793332887e-01 2.994239284933259415e-01 -2.046300812656169477e+00 3.976809829439547084e-01 3.184438779709167222e-01 5.133831414421072825e-01 3.248025229909742295e-01 2.706069342604726646e-01 -2.319876827268826380e-01 2.029209284494116972e+00 -5.202953557218934488e-01 8.285841073676817325e-01 3.153655855164203548e-01 3.589420690622948107e-01 7.765257910831953048e-01 3.628491169631654634e-01 1.320782454921339166e+00 1.725965656891261246e-01 2.976662958832119177e-01 -8.797818264078358652e-01 -1.313234525417998899e-01 -3.353145120779824628e-01 -3.861972016022950704e+00 2.913025470389535965e+00 5.910029240150088681e-02 3.358978870838010833e-01 -1.597923867640938633e+00 3.110266303330736504e-01 2.523579245653300163e-01 2.966996628747208264e-01 1.449035510013235439e-01 6.386755131694329402e-01 5.944069278012104052e-01 1.005918839376345852e+00 -3.443251499958768225e-01 -2.179628070843475651e-01 2.111131790055245927e-01 -1.177469454705771135e+00 2.787005532802133145e-01 -6.350303867287451220e-01 2.846543285157291936e-01 4.736374294071970525e-01 5.383487371798841015e-02 4.321084723093097657e-01 2.711982829435458098e-01 -9.131134130827719964e-02 2.049342366701736584e-01 2.997225401533994416e-01 3.549421872091039765e-01 3.077798044828733981e-01 3.119428481483336180e-01 -7.352510887752404800e-01 5.573247837585031395e-01 1.530088774572569754e+00 5.899814249686469170e-02 2.407945318711932903e-01 4.017322787745733481e-01 1.212503593782783939e+00 3.147116321783426374e-01 1.463699765637588301e-01 8.955065643228897754e-01 3.085033074530500463e-01 1.840237384955370814e+00 3.537294467049164615e-01 1.219899872627017379e+00 3.135301758754258095e-01 7.368461652993510969e-01 1.344389997141258064e+00 3.099225447760928787e-01 4.038953431843241848e-01 9.143754811939797111e-01 -1.872232674172103761e-01 -5.234448600816082181e-02 1.734369665838604579e-01 2.975490323953690619e-01 3.486972758763463021e-01 1.419956191615156516e-01 2.104235443341598011e-01 -3.553559726015294573e-01 1.292562748854702459e+00 2.674018545507494959e-01 3.146322562741387108e-01 -3.122287955112520663e+00 5.025730015579846777e-01 3.521866178883026888e-01 4.476667500332662808e-01 4.292035688782006586e-01 4.950370861217676666e-01 -1.054017369875104526e+00 6.036082892334111438e-01 2.705067897039094005e-01 3.192149563967688342e-01 1.039346527721603630e+00 4.494265229747151924e-01 3.062314694546496296e-01 -1.388300708123831440e+00 4.374413773250777071e-01 8.878672953397518386e-01 2.977867537424628841e-01 3.056037777778156661e-01 3.503753782729390198e-01 7.032844295432322257e-01 -7.850713150906268867e-02 3.172334440165650027e-01 2.874503483749653032e-01 7.313061003428827922e-02 6.918988188066740319e-01 3.535072776343221590e-01 7.306962993372598802e-01 1.724938828384697809e-01 6.863775197443822140e-01 -2.158059490348391007e-01 -1.502879056068383790e+00 3.393074728045158417e-01 -1.595162937988225255e-02 3.251217416011721872e-01 3.579422453979661523e-01 5.515824294691173968e-02 5.432850759173412092e-01 3.203708607354992521e-01 8.579720596239638619e-02 4.566678201540581017e-01 2.548889159103817637e-01 3.325293509754788657e-01 2.709520952205218269e-01 -8.159564459505125322e-01 3.160270499086691998e-01 3.576740060641787622e-01 2.891567596510529747e-01 -1.413140036634724095e-01 3.147355106138085556e-01 8.022463304050923005e-01 -5.145628870771481456e-01 1.097851508235154538e+00 6.049818675645414201e-01 2.576973730398169904e-01 3.148615652060084980e-01 -2.026249666940391769e+00 3.140363112584815819e-01 1.849311751811940074e-01 2.404034380921359071e-01 5.432850501830066570e-01 3.174591963095622082e-01 2.641361041135974475e-01 1.032273006884057848e-01 3.131960599164895220e-01 4.361069167242086486e-01 4.104082416518326504e-01 3.660974025282109356e-01 2.989400133297312467e-01 3.190181681702307648e-01 3.054635244132585803e-01 2.699285207960938626e-01 3.328675326727063843e-02 3.156020808939547506e-01 5.977908247061887170e-01 2.114165137494999069e-01 3.311890285910535914e-01 -1.261441155822384808e-01 1.398687569063608582e-01 5.286408513406218868e-01 4.380431984576462767e+00 3.008109775667501262e-01 1.196596137850688968e-01 5.322816100976190956e-01 2.074810389191815430e-01 1.537580185160929869e+00 3.511031288641944248e-01 6.559641045468103115e-01 3.153018510952917408e-01
