# 
#                 ----------------------------------------------------
#                 Data from a 3D direct N-body simulation. 
# 
#                 rows are i-particle; 
#                 coumns are :mass, tag, x ,y, z, vx, vy, vz, ax, ay, az
# 
#                 NTHU, Computational Physics 
# 
#                 ----------------------------------------------------
#                 Time = 0.0
0.000000000000000000e+00 1.000000000000000000e+00 2.000000000000000000e+00 3.000000000000000000e+00 4.000000000000000000e+00 5.000000000000000000e+00 6.000000000000000000e+00 7.000000000000000000e+00 8.000000000000000000e+00 9.000000000000000000e+00 1.000000000000000000e+01 1.100000000000000000e+01 1.200000000000000000e+01 1.300000000000000000e+01 1.400000000000000000e+01 1.500000000000000000e+01 1.600000000000000000e+01 1.700000000000000000e+01 1.800000000000000000e+01 1.900000000000000000e+01 2.000000000000000000e+01 2.100000000000000000e+01 2.200000000000000000e+01 2.300000000000000000e+01 2.400000000000000000e+01 2.500000000000000000e+01 2.600000000000000000e+01 2.700000000000000000e+01 2.800000000000000000e+01 2.900000000000000000e+01 3.000000000000000000e+01 3.100000000000000000e+01 3.200000000000000000e+01 3.300000000000000000e+01 3.400000000000000000e+01 3.500000000000000000e+01 3.600000000000000000e+01 3.700000000000000000e+01 3.800000000000000000e+01 3.900000000000000000e+01 4.000000000000000000e+01 4.100000000000000000e+01 4.200000000000000000e+01 4.300000000000000000e+01 4.400000000000000000e+01 4.500000000000000000e+01 4.600000000000000000e+01 4.700000000000000000e+01 4.800000000000000000e+01 4.900000000000000000e+01 5.000000000000000000e+01 5.100000000000000000e+01 5.200000000000000000e+01 5.300000000000000000e+01 5.400000000000000000e+01 5.500000000000000000e+01 5.600000000000000000e+01 5.700000000000000000e+01 5.800000000000000000e+01 5.900000000000000000e+01 6.000000000000000000e+01 6.100000000000000000e+01 6.200000000000000000e+01 6.300000000000000000e+01 6.400000000000000000e+01 6.500000000000000000e+01 6.600000000000000000e+01 6.700000000000000000e+01 6.800000000000000000e+01 6.900000000000000000e+01 7.000000000000000000e+01 7.100000000000000000e+01 7.200000000000000000e+01 7.300000000000000000e+01 7.400000000000000000e+01 7.500000000000000000e+01 7.600000000000000000e+01 7.700000000000000000e+01 7.800000000000000000e+01 7.900000000000000000e+01 8.000000000000000000e+01 8.100000000000000000e+01 8.200000000000000000e+01 8.300000000000000000e+01 8.400000000000000000e+01 8.500000000000000000e+01 8.600000000000000000e+01 8.700000000000000000e+01 8.800000000000000000e+01 8.900000000000000000e+01 9.000000000000000000e+01 9.100000000000000000e+01 9.200000000000000000e+01 9.300000000000000000e+01 9.400000000000000000e+01 9.500000000000000000e+01 9.600000000000000000e+01 9.700000000000000000e+01 9.800000000000000000e+01 9.900000000000000000e+01 1.000000000000000000e+02 1.010000000000000000e+02 1.020000000000000000e+02 1.030000000000000000e+02 1.040000000000000000e+02 1.050000000000000000e+02 1.060000000000000000e+02 1.070000000000000000e+02 1.080000000000000000e+02 1.090000000000000000e+02 1.100000000000000000e+02 1.110000000000000000e+02 1.120000000000000000e+02 1.130000000000000000e+02 1.140000000000000000e+02 1.150000000000000000e+02 1.160000000000000000e+02 1.170000000000000000e+02 1.180000000000000000e+02 1.190000000000000000e+02 1.200000000000000000e+02 1.210000000000000000e+02 1.220000000000000000e+02 1.230000000000000000e+02 1.240000000000000000e+02 1.250000000000000000e+02 1.260000000000000000e+02 1.270000000000000000e+02 1.280000000000000000e+02 1.290000000000000000e+02 1.300000000000000000e+02 1.310000000000000000e+02 1.320000000000000000e+02 1.330000000000000000e+02 1.340000000000000000e+02 1.350000000000000000e+02 1.360000000000000000e+02 1.370000000000000000e+02 1.380000000000000000e+02 1.390000000000000000e+02 1.400000000000000000e+02 1.410000000000000000e+02 1.420000000000000000e+02 1.430000000000000000e+02 1.440000000000000000e+02 1.450000000000000000e+02 1.460000000000000000e+02 1.470000000000000000e+02 1.480000000000000000e+02 1.490000000000000000e+02 1.500000000000000000e+02 1.510000000000000000e+02 1.520000000000000000e+02 1.530000000000000000e+02 1.540000000000000000e+02 1.550000000000000000e+02 1.560000000000000000e+02 1.570000000000000000e+02 1.580000000000000000e+02 1.590000000000000000e+02 1.600000000000000000e+02 1.610000000000000000e+02 1.620000000000000000e+02 1.630000000000000000e+02 1.640000000000000000e+02 1.650000000000000000e+02 1.660000000000000000e+02 1.670000000000000000e+02 1.680000000000000000e+02 1.690000000000000000e+02 1.700000000000000000e+02 1.710000000000000000e+02 1.720000000000000000e+02 1.730000000000000000e+02 1.740000000000000000e+02 1.750000000000000000e+02 1.760000000000000000e+02 1.770000000000000000e+02 1.780000000000000000e+02 1.790000000000000000e+02 1.800000000000000000e+02 1.810000000000000000e+02 1.820000000000000000e+02 1.830000000000000000e+02 1.840000000000000000e+02 1.850000000000000000e+02 1.860000000000000000e+02 1.870000000000000000e+02 1.880000000000000000e+02 1.890000000000000000e+02 1.900000000000000000e+02 1.910000000000000000e+02 1.920000000000000000e+02 1.930000000000000000e+02 1.940000000000000000e+02 1.950000000000000000e+02 1.960000000000000000e+02 1.970000000000000000e+02 1.980000000000000000e+02 1.990000000000000000e+02 2.000000000000000000e+02 2.010000000000000000e+02 2.020000000000000000e+02 2.030000000000000000e+02 2.040000000000000000e+02 2.050000000000000000e+02 2.060000000000000000e+02 2.070000000000000000e+02 2.080000000000000000e+02 2.090000000000000000e+02 2.100000000000000000e+02 2.110000000000000000e+02 2.120000000000000000e+02 2.130000000000000000e+02 2.140000000000000000e+02 2.150000000000000000e+02 2.160000000000000000e+02 2.170000000000000000e+02 2.180000000000000000e+02 2.190000000000000000e+02 2.200000000000000000e+02 2.210000000000000000e+02 2.220000000000000000e+02 2.230000000000000000e+02 2.240000000000000000e+02 2.250000000000000000e+02 2.260000000000000000e+02 2.270000000000000000e+02 2.280000000000000000e+02 2.290000000000000000e+02 2.300000000000000000e+02 2.310000000000000000e+02 2.320000000000000000e+02 2.330000000000000000e+02 2.340000000000000000e+02 2.350000000000000000e+02 2.360000000000000000e+02 2.370000000000000000e+02 2.380000000000000000e+02 2.390000000000000000e+02 2.400000000000000000e+02 2.410000000000000000e+02 2.420000000000000000e+02 2.430000000000000000e+02 2.440000000000000000e+02 2.450000000000000000e+02 2.460000000000000000e+02 2.470000000000000000e+02 2.480000000000000000e+02 2.490000000000000000e+02 2.500000000000000000e+02 2.510000000000000000e+02 2.520000000000000000e+02 2.530000000000000000e+02 2.540000000000000000e+02 2.550000000000000000e+02 2.560000000000000000e+02 2.570000000000000000e+02 2.580000000000000000e+02 2.590000000000000000e+02 2.600000000000000000e+02 2.610000000000000000e+02 2.620000000000000000e+02 2.630000000000000000e+02 2.640000000000000000e+02 2.650000000000000000e+02 2.660000000000000000e+02 2.670000000000000000e+02 2.680000000000000000e+02 2.690000000000000000e+02 2.700000000000000000e+02 2.710000000000000000e+02 2.720000000000000000e+02 2.730000000000000000e+02 2.740000000000000000e+02 2.750000000000000000e+02 2.760000000000000000e+02 2.770000000000000000e+02 2.780000000000000000e+02 2.790000000000000000e+02 2.800000000000000000e+02 2.810000000000000000e+02 2.820000000000000000e+02 2.830000000000000000e+02 2.840000000000000000e+02 2.850000000000000000e+02 2.860000000000000000e+02 2.870000000000000000e+02 2.880000000000000000e+02 2.890000000000000000e+02 2.900000000000000000e+02 2.910000000000000000e+02 2.920000000000000000e+02 2.930000000000000000e+02 2.940000000000000000e+02 2.950000000000000000e+02 2.960000000000000000e+02 2.970000000000000000e+02 2.980000000000000000e+02 2.990000000000000000e+02 3.000000000000000000e+02 3.010000000000000000e+02 3.020000000000000000e+02 3.030000000000000000e+02 3.040000000000000000e+02 3.050000000000000000e+02 3.060000000000000000e+02 3.070000000000000000e+02 3.080000000000000000e+02 3.090000000000000000e+02 3.100000000000000000e+02 3.110000000000000000e+02 3.120000000000000000e+02 3.130000000000000000e+02 3.140000000000000000e+02 3.150000000000000000e+02 3.160000000000000000e+02 3.170000000000000000e+02 3.180000000000000000e+02 3.190000000000000000e+02 3.200000000000000000e+02 3.210000000000000000e+02 3.220000000000000000e+02 3.230000000000000000e+02 3.240000000000000000e+02 3.250000000000000000e+02 3.260000000000000000e+02 3.270000000000000000e+02 3.280000000000000000e+02 3.290000000000000000e+02 3.300000000000000000e+02 3.310000000000000000e+02 3.320000000000000000e+02 3.330000000000000000e+02 3.340000000000000000e+02 3.350000000000000000e+02 3.360000000000000000e+02 3.370000000000000000e+02 3.380000000000000000e+02 3.390000000000000000e+02 3.400000000000000000e+02 3.410000000000000000e+02 3.420000000000000000e+02 3.430000000000000000e+02 3.440000000000000000e+02 3.450000000000000000e+02 3.460000000000000000e+02 3.470000000000000000e+02 3.480000000000000000e+02 3.490000000000000000e+02 3.500000000000000000e+02 3.510000000000000000e+02 3.520000000000000000e+02 3.530000000000000000e+02 3.540000000000000000e+02 3.550000000000000000e+02 3.560000000000000000e+02 3.570000000000000000e+02 3.580000000000000000e+02 3.590000000000000000e+02 3.600000000000000000e+02 3.610000000000000000e+02 3.620000000000000000e+02 3.630000000000000000e+02 3.640000000000000000e+02 3.650000000000000000e+02 3.660000000000000000e+02 3.670000000000000000e+02 3.680000000000000000e+02 3.690000000000000000e+02 3.700000000000000000e+02 3.710000000000000000e+02 3.720000000000000000e+02 3.730000000000000000e+02 3.740000000000000000e+02 3.750000000000000000e+02 3.760000000000000000e+02 3.770000000000000000e+02 3.780000000000000000e+02 3.790000000000000000e+02 3.800000000000000000e+02 3.810000000000000000e+02 3.820000000000000000e+02 3.830000000000000000e+02 3.840000000000000000e+02 3.850000000000000000e+02 3.860000000000000000e+02 3.870000000000000000e+02 3.880000000000000000e+02 3.890000000000000000e+02 3.900000000000000000e+02 3.910000000000000000e+02 3.920000000000000000e+02 3.930000000000000000e+02 3.940000000000000000e+02 3.950000000000000000e+02 3.960000000000000000e+02 3.970000000000000000e+02 3.980000000000000000e+02 3.990000000000000000e+02 4.000000000000000000e+02 4.010000000000000000e+02 4.020000000000000000e+02 4.030000000000000000e+02 4.040000000000000000e+02 4.050000000000000000e+02 4.060000000000000000e+02 4.070000000000000000e+02 4.080000000000000000e+02 4.090000000000000000e+02 4.100000000000000000e+02 4.110000000000000000e+02 4.120000000000000000e+02 4.130000000000000000e+02 4.140000000000000000e+02 4.150000000000000000e+02 4.160000000000000000e+02 4.170000000000000000e+02 4.180000000000000000e+02 4.190000000000000000e+02 4.200000000000000000e+02 4.210000000000000000e+02 4.220000000000000000e+02 4.230000000000000000e+02 4.240000000000000000e+02 4.250000000000000000e+02 4.260000000000000000e+02 4.270000000000000000e+02 4.280000000000000000e+02 4.290000000000000000e+02 4.300000000000000000e+02 4.310000000000000000e+02 4.320000000000000000e+02 4.330000000000000000e+02 4.340000000000000000e+02 4.350000000000000000e+02 4.360000000000000000e+02 4.370000000000000000e+02 4.380000000000000000e+02 4.390000000000000000e+02 4.400000000000000000e+02 4.410000000000000000e+02 4.420000000000000000e+02 4.430000000000000000e+02 4.440000000000000000e+02 4.450000000000000000e+02 4.460000000000000000e+02 4.470000000000000000e+02 4.480000000000000000e+02 4.490000000000000000e+02 4.500000000000000000e+02 4.510000000000000000e+02 4.520000000000000000e+02 4.530000000000000000e+02 4.540000000000000000e+02 4.550000000000000000e+02 4.560000000000000000e+02 4.570000000000000000e+02 4.580000000000000000e+02 4.590000000000000000e+02 4.600000000000000000e+02 4.610000000000000000e+02 4.620000000000000000e+02 4.630000000000000000e+02 4.640000000000000000e+02 4.650000000000000000e+02 4.660000000000000000e+02 4.670000000000000000e+02 4.680000000000000000e+02 4.690000000000000000e+02 4.700000000000000000e+02 4.710000000000000000e+02 4.720000000000000000e+02 4.730000000000000000e+02 4.740000000000000000e+02 4.750000000000000000e+02 4.760000000000000000e+02 4.770000000000000000e+02 4.780000000000000000e+02 4.790000000000000000e+02 4.800000000000000000e+02 4.810000000000000000e+02 4.820000000000000000e+02 4.830000000000000000e+02 4.840000000000000000e+02 4.850000000000000000e+02 4.860000000000000000e+02 4.870000000000000000e+02 4.880000000000000000e+02 4.890000000000000000e+02 4.900000000000000000e+02 4.910000000000000000e+02 4.920000000000000000e+02 4.930000000000000000e+02 4.940000000000000000e+02 4.950000000000000000e+02 4.960000000000000000e+02 4.970000000000000000e+02 4.980000000000000000e+02 4.990000000000000000e+02 5.000000000000000000e+02 5.010000000000000000e+02 5.020000000000000000e+02 5.030000000000000000e+02 5.040000000000000000e+02 5.050000000000000000e+02 5.060000000000000000e+02 5.070000000000000000e+02 5.080000000000000000e+02 5.090000000000000000e+02 5.100000000000000000e+02 5.110000000000000000e+02 5.120000000000000000e+02 5.130000000000000000e+02 5.140000000000000000e+02 5.150000000000000000e+02 5.160000000000000000e+02 5.170000000000000000e+02 5.180000000000000000e+02 5.190000000000000000e+02 5.200000000000000000e+02 5.210000000000000000e+02 5.220000000000000000e+02 5.230000000000000000e+02 5.240000000000000000e+02 5.250000000000000000e+02 5.260000000000000000e+02 5.270000000000000000e+02 5.280000000000000000e+02 5.290000000000000000e+02 5.300000000000000000e+02 5.310000000000000000e+02 5.320000000000000000e+02 5.330000000000000000e+02 5.340000000000000000e+02 5.350000000000000000e+02 5.360000000000000000e+02 5.370000000000000000e+02 5.380000000000000000e+02 5.390000000000000000e+02 5.400000000000000000e+02 5.410000000000000000e+02 5.420000000000000000e+02 5.430000000000000000e+02 5.440000000000000000e+02 5.450000000000000000e+02 5.460000000000000000e+02 5.470000000000000000e+02 5.480000000000000000e+02 5.490000000000000000e+02 5.500000000000000000e+02 5.510000000000000000e+02 5.520000000000000000e+02 5.530000000000000000e+02 5.540000000000000000e+02 5.550000000000000000e+02 5.560000000000000000e+02 5.570000000000000000e+02 5.580000000000000000e+02 5.590000000000000000e+02 5.600000000000000000e+02 5.610000000000000000e+02 5.620000000000000000e+02 5.630000000000000000e+02 5.640000000000000000e+02 5.650000000000000000e+02 5.660000000000000000e+02 5.670000000000000000e+02 5.680000000000000000e+02 5.690000000000000000e+02 5.700000000000000000e+02 5.710000000000000000e+02 5.720000000000000000e+02 5.730000000000000000e+02 5.740000000000000000e+02 5.750000000000000000e+02 5.760000000000000000e+02 5.770000000000000000e+02 5.780000000000000000e+02 5.790000000000000000e+02 5.800000000000000000e+02 5.810000000000000000e+02 5.820000000000000000e+02 5.830000000000000000e+02 5.840000000000000000e+02 5.850000000000000000e+02 5.860000000000000000e+02 5.870000000000000000e+02 5.880000000000000000e+02 5.890000000000000000e+02 5.900000000000000000e+02 5.910000000000000000e+02 5.920000000000000000e+02 5.930000000000000000e+02 5.940000000000000000e+02 5.950000000000000000e+02 5.960000000000000000e+02 5.970000000000000000e+02 5.980000000000000000e+02 5.990000000000000000e+02 6.000000000000000000e+02 6.010000000000000000e+02 6.020000000000000000e+02 6.030000000000000000e+02 6.040000000000000000e+02 6.050000000000000000e+02 6.060000000000000000e+02 6.070000000000000000e+02 6.080000000000000000e+02 6.090000000000000000e+02 6.100000000000000000e+02 6.110000000000000000e+02 6.120000000000000000e+02 6.130000000000000000e+02 6.140000000000000000e+02 6.150000000000000000e+02 6.160000000000000000e+02 6.170000000000000000e+02 6.180000000000000000e+02 6.190000000000000000e+02 6.200000000000000000e+02 6.210000000000000000e+02 6.220000000000000000e+02 6.230000000000000000e+02 6.240000000000000000e+02 6.250000000000000000e+02 6.260000000000000000e+02 6.270000000000000000e+02 6.280000000000000000e+02 6.290000000000000000e+02 6.300000000000000000e+02 6.310000000000000000e+02 6.320000000000000000e+02 6.330000000000000000e+02 6.340000000000000000e+02 6.350000000000000000e+02 6.360000000000000000e+02 6.370000000000000000e+02 6.380000000000000000e+02 6.390000000000000000e+02 6.400000000000000000e+02 6.410000000000000000e+02 6.420000000000000000e+02 6.430000000000000000e+02 6.440000000000000000e+02 6.450000000000000000e+02 6.460000000000000000e+02 6.470000000000000000e+02 6.480000000000000000e+02 6.490000000000000000e+02 6.500000000000000000e+02 6.510000000000000000e+02 6.520000000000000000e+02 6.530000000000000000e+02 6.540000000000000000e+02 6.550000000000000000e+02 6.560000000000000000e+02 6.570000000000000000e+02 6.580000000000000000e+02 6.590000000000000000e+02 6.600000000000000000e+02 6.610000000000000000e+02 6.620000000000000000e+02 6.630000000000000000e+02 6.640000000000000000e+02 6.650000000000000000e+02 6.660000000000000000e+02 6.670000000000000000e+02 6.680000000000000000e+02 6.690000000000000000e+02 6.700000000000000000e+02 6.710000000000000000e+02 6.720000000000000000e+02 6.730000000000000000e+02 6.740000000000000000e+02 6.750000000000000000e+02 6.760000000000000000e+02 6.770000000000000000e+02 6.780000000000000000e+02 6.790000000000000000e+02 6.800000000000000000e+02 6.810000000000000000e+02 6.820000000000000000e+02 6.830000000000000000e+02 6.840000000000000000e+02 6.850000000000000000e+02 6.860000000000000000e+02 6.870000000000000000e+02 6.880000000000000000e+02 6.890000000000000000e+02 6.900000000000000000e+02 6.910000000000000000e+02 6.920000000000000000e+02 6.930000000000000000e+02 6.940000000000000000e+02 6.950000000000000000e+02 6.960000000000000000e+02 6.970000000000000000e+02 6.980000000000000000e+02 6.990000000000000000e+02 7.000000000000000000e+02 7.010000000000000000e+02 7.020000000000000000e+02 7.030000000000000000e+02 7.040000000000000000e+02 7.050000000000000000e+02 7.060000000000000000e+02 7.070000000000000000e+02 7.080000000000000000e+02 7.090000000000000000e+02 7.100000000000000000e+02 7.110000000000000000e+02 7.120000000000000000e+02 7.130000000000000000e+02 7.140000000000000000e+02 7.150000000000000000e+02 7.160000000000000000e+02 7.170000000000000000e+02 7.180000000000000000e+02 7.190000000000000000e+02 7.200000000000000000e+02 7.210000000000000000e+02 7.220000000000000000e+02 7.230000000000000000e+02 7.240000000000000000e+02 7.250000000000000000e+02 7.260000000000000000e+02 7.270000000000000000e+02 7.280000000000000000e+02 7.290000000000000000e+02 7.300000000000000000e+02 7.310000000000000000e+02 7.320000000000000000e+02 7.330000000000000000e+02 7.340000000000000000e+02 7.350000000000000000e+02 7.360000000000000000e+02 7.370000000000000000e+02 7.380000000000000000e+02 7.390000000000000000e+02 7.400000000000000000e+02 7.410000000000000000e+02 7.420000000000000000e+02 7.430000000000000000e+02 7.440000000000000000e+02 7.450000000000000000e+02 7.460000000000000000e+02 7.470000000000000000e+02 7.480000000000000000e+02 7.490000000000000000e+02 7.500000000000000000e+02 7.510000000000000000e+02 7.520000000000000000e+02 7.530000000000000000e+02 7.540000000000000000e+02 7.550000000000000000e+02 7.560000000000000000e+02 7.570000000000000000e+02 7.580000000000000000e+02 7.590000000000000000e+02 7.600000000000000000e+02 7.610000000000000000e+02 7.620000000000000000e+02 7.630000000000000000e+02 7.640000000000000000e+02 7.650000000000000000e+02 7.660000000000000000e+02 7.670000000000000000e+02 7.680000000000000000e+02 7.690000000000000000e+02 7.700000000000000000e+02 7.710000000000000000e+02 7.720000000000000000e+02 7.730000000000000000e+02 7.740000000000000000e+02 7.750000000000000000e+02 7.760000000000000000e+02 7.770000000000000000e+02 7.780000000000000000e+02 7.790000000000000000e+02 7.800000000000000000e+02 7.810000000000000000e+02 7.820000000000000000e+02 7.830000000000000000e+02 7.840000000000000000e+02 7.850000000000000000e+02 7.860000000000000000e+02 7.870000000000000000e+02 7.880000000000000000e+02 7.890000000000000000e+02 7.900000000000000000e+02 7.910000000000000000e+02 7.920000000000000000e+02 7.930000000000000000e+02 7.940000000000000000e+02 7.950000000000000000e+02 7.960000000000000000e+02 7.970000000000000000e+02 7.980000000000000000e+02 7.990000000000000000e+02 8.000000000000000000e+02 8.010000000000000000e+02 8.020000000000000000e+02 8.030000000000000000e+02 8.040000000000000000e+02 8.050000000000000000e+02 8.060000000000000000e+02 8.070000000000000000e+02 8.080000000000000000e+02 8.090000000000000000e+02 8.100000000000000000e+02 8.110000000000000000e+02 8.120000000000000000e+02 8.130000000000000000e+02 8.140000000000000000e+02 8.150000000000000000e+02 8.160000000000000000e+02 8.170000000000000000e+02 8.180000000000000000e+02 8.190000000000000000e+02 8.200000000000000000e+02 8.210000000000000000e+02 8.220000000000000000e+02 8.230000000000000000e+02 8.240000000000000000e+02 8.250000000000000000e+02 8.260000000000000000e+02 8.270000000000000000e+02 8.280000000000000000e+02 8.290000000000000000e+02 8.300000000000000000e+02 8.310000000000000000e+02 8.320000000000000000e+02 8.330000000000000000e+02 8.340000000000000000e+02 8.350000000000000000e+02 8.360000000000000000e+02 8.370000000000000000e+02 8.380000000000000000e+02 8.390000000000000000e+02 8.400000000000000000e+02 8.410000000000000000e+02 8.420000000000000000e+02 8.430000000000000000e+02 8.440000000000000000e+02 8.450000000000000000e+02 8.460000000000000000e+02 8.470000000000000000e+02 8.480000000000000000e+02 8.490000000000000000e+02 8.500000000000000000e+02 8.510000000000000000e+02 8.520000000000000000e+02 8.530000000000000000e+02 8.540000000000000000e+02 8.550000000000000000e+02 8.560000000000000000e+02 8.570000000000000000e+02 8.580000000000000000e+02 8.590000000000000000e+02 8.600000000000000000e+02 8.610000000000000000e+02 8.620000000000000000e+02 8.630000000000000000e+02 8.640000000000000000e+02 8.650000000000000000e+02 8.660000000000000000e+02 8.670000000000000000e+02 8.680000000000000000e+02 8.690000000000000000e+02 8.700000000000000000e+02 8.710000000000000000e+02 8.720000000000000000e+02 8.730000000000000000e+02 8.740000000000000000e+02 8.750000000000000000e+02 8.760000000000000000e+02 8.770000000000000000e+02 8.780000000000000000e+02 8.790000000000000000e+02 8.800000000000000000e+02 8.810000000000000000e+02 8.820000000000000000e+02 8.830000000000000000e+02 8.840000000000000000e+02 8.850000000000000000e+02 8.860000000000000000e+02 8.870000000000000000e+02 8.880000000000000000e+02 8.890000000000000000e+02 8.900000000000000000e+02 8.910000000000000000e+02 8.920000000000000000e+02 8.930000000000000000e+02 8.940000000000000000e+02 8.950000000000000000e+02 8.960000000000000000e+02 8.970000000000000000e+02 8.980000000000000000e+02 8.990000000000000000e+02 9.000000000000000000e+02 9.010000000000000000e+02 9.020000000000000000e+02 9.030000000000000000e+02 9.040000000000000000e+02 9.050000000000000000e+02 9.060000000000000000e+02 9.070000000000000000e+02 9.080000000000000000e+02 9.090000000000000000e+02 9.100000000000000000e+02 9.110000000000000000e+02 9.120000000000000000e+02 9.130000000000000000e+02 9.140000000000000000e+02 9.150000000000000000e+02 9.160000000000000000e+02 9.170000000000000000e+02 9.180000000000000000e+02 9.190000000000000000e+02 9.200000000000000000e+02 9.210000000000000000e+02 9.220000000000000000e+02 9.230000000000000000e+02 9.240000000000000000e+02 9.250000000000000000e+02 9.260000000000000000e+02 9.270000000000000000e+02 9.280000000000000000e+02 9.290000000000000000e+02 9.300000000000000000e+02 9.310000000000000000e+02 9.320000000000000000e+02 9.330000000000000000e+02 9.340000000000000000e+02 9.350000000000000000e+02 9.360000000000000000e+02 9.370000000000000000e+02 9.380000000000000000e+02 9.390000000000000000e+02 9.400000000000000000e+02 9.410000000000000000e+02 9.420000000000000000e+02 9.430000000000000000e+02 9.440000000000000000e+02 9.450000000000000000e+02 9.460000000000000000e+02 9.470000000000000000e+02 9.480000000000000000e+02 9.490000000000000000e+02 9.500000000000000000e+02 9.510000000000000000e+02 9.520000000000000000e+02 9.530000000000000000e+02 9.540000000000000000e+02 9.550000000000000000e+02 9.560000000000000000e+02 9.570000000000000000e+02 9.580000000000000000e+02 9.590000000000000000e+02 9.600000000000000000e+02 9.610000000000000000e+02 9.620000000000000000e+02 9.630000000000000000e+02 9.640000000000000000e+02 9.650000000000000000e+02 9.660000000000000000e+02 9.670000000000000000e+02 9.680000000000000000e+02 9.690000000000000000e+02 9.700000000000000000e+02 9.710000000000000000e+02 9.720000000000000000e+02 9.730000000000000000e+02 9.740000000000000000e+02 9.750000000000000000e+02 9.760000000000000000e+02 9.770000000000000000e+02 9.780000000000000000e+02 9.790000000000000000e+02 9.800000000000000000e+02 9.810000000000000000e+02 9.820000000000000000e+02 9.830000000000000000e+02 9.840000000000000000e+02 9.850000000000000000e+02 9.860000000000000000e+02 9.870000000000000000e+02 9.880000000000000000e+02 9.890000000000000000e+02 9.900000000000000000e+02 9.910000000000000000e+02 9.920000000000000000e+02 9.930000000000000000e+02 9.940000000000000000e+02 9.950000000000000000e+02 9.960000000000000000e+02 9.970000000000000000e+02 9.980000000000000000e+02 9.990000000000000000e+02
1.000000000000000000e+00 1.000000000000000000e+00 1.000000000000000000e+00 1.000000000000000000e+00 1.000000000000000000e+00 1.000000000000000000e+00 1.000000000000000000e+00 1.000000000000000000e+00 1.000000000000000000e+00 1.000000000000000000e+00 1.000000000000000000e+00 1.000000000000000000e+00 1.000000000000000000e+00 1.000000000000000000e+00 1.000000000000000000e+00 1.000000000000000000e+00 1.000000000000000000e+00 1.000000000000000000e+00 1.000000000000000000e+00 1.000000000000000000e+00 1.000000000000000000e+00 1.000000000000000000e+00 1.000000000000000000e+00 1.000000000000000000e+00 1.000000000000000000e+00 1.000000000000000000e+00 1.000000000000000000e+00 1.000000000000000000e+00 1.000000000000000000e+00 1.000000000000000000e+00 1.000000000000000000e+00 1.000000000000000000e+00 1.000000000000000000e+00 1.000000000000000000e+00 1.000000000000000000e+00 1.000000000000000000e+00 1.000000000000000000e+00 1.000000000000000000e+00 1.000000000000000000e+00 1.000000000000000000e+00 1.000000000000000000e+00 1.000000000000000000e+00 1.000000000000000000e+00 1.000000000000000000e+00 1.000000000000000000e+00 1.000000000000000000e+00 1.000000000000000000e+00 1.000000000000000000e+00 1.000000000000000000e+00 1.000000000000000000e+00 1.000000000000000000e+00 1.000000000000000000e+00 1.000000000000000000e+00 1.000000000000000000e+00 1.000000000000000000e+00 1.000000000000000000e+00 1.000000000000000000e+00 1.000000000000000000e+00 1.000000000000000000e+00 1.000000000000000000e+00 1.000000000000000000e+00 1.000000000000000000e+00 1.000000000000000000e+00 1.000000000000000000e+00 1.000000000000000000e+00 1.000000000000000000e+00 1.000000000000000000e+00 1.000000000000000000e+00 1.000000000000000000e+00 1.000000000000000000e+00 1.000000000000000000e+00 1.000000000000000000e+00 1.000000000000000000e+00 1.000000000000000000e+00 1.000000000000000000e+00 1.000000000000000000e+00 1.000000000000000000e+00 1.000000000000000000e+00 1.000000000000000000e+00 1.000000000000000000e+00 1.000000000000000000e+00 1.000000000000000000e+00 1.000000000000000000e+00 1.000000000000000000e+00 1.000000000000000000e+00 1.000000000000000000e+00 1.000000000000000000e+00 1.000000000000000000e+00 1.000000000000000000e+00 1.000000000000000000e+00 1.000000000000000000e+00 1.000000000000000000e+00 1.000000000000000000e+00 1.000000000000000000e+00 1.000000000000000000e+00 1.000000000000000000e+00 1.000000000000000000e+00 1.000000000000000000e+00 1.000000000000000000e+00 1.000000000000000000e+00 1.000000000000000000e+00 1.000000000000000000e+00 1.000000000000000000e+00 1.000000000000000000e+00 1.000000000000000000e+00 1.000000000000000000e+00 1.000000000000000000e+00 1.000000000000000000e+00 1.000000000000000000e+00 1.000000000000000000e+00 1.000000000000000000e+00 1.000000000000000000e+00 1.000000000000000000e+00 1.000000000000000000e+00 1.000000000000000000e+00 1.000000000000000000e+00 1.000000000000000000e+00 1.000000000000000000e+00 1.000000000000000000e+00 1.000000000000000000e+00 1.000000000000000000e+00 1.000000000000000000e+00 1.000000000000000000e+00 1.000000000000000000e+00 1.000000000000000000e+00 1.000000000000000000e+00 1.000000000000000000e+00 1.000000000000000000e+00 1.000000000000000000e+00 1.000000000000000000e+00 1.000000000000000000e+00 1.000000000000000000e+00 1.000000000000000000e+00 1.000000000000000000e+00 1.000000000000000000e+00 1.000000000000000000e+00 1.000000000000000000e+00 1.000000000000000000e+00 1.000000000000000000e+00 1.000000000000000000e+00 1.000000000000000000e+00 1.000000000000000000e+00 1.000000000000000000e+00 1.000000000000000000e+00 1.000000000000000000e+00 1.000000000000000000e+00 1.000000000000000000e+00 1.000000000000000000e+00 1.000000000000000000e+00 1.000000000000000000e+00 1.000000000000000000e+00 1.000000000000000000e+00 1.000000000000000000e+00 1.000000000000000000e+00 1.000000000000000000e+00 1.000000000000000000e+00 1.000000000000000000e+00 1.000000000000000000e+00 1.000000000000000000e+00 1.000000000000000000e+00 1.000000000000000000e+00 1.000000000000000000e+00 1.000000000000000000e+00 1.000000000000000000e+00 1.000000000000000000e+00 1.000000000000000000e+00 1.000000000000000000e+00 1.000000000000000000e+00 1.000000000000000000e+00 1.000000000000000000e+00 1.000000000000000000e+00 1.000000000000000000e+00 1.000000000000000000e+00 1.000000000000000000e+00 1.000000000000000000e+00 1.000000000000000000e+00 1.000000000000000000e+00 1.000000000000000000e+00 1.000000000000000000e+00 1.000000000000000000e+00 1.000000000000000000e+00 1.000000000000000000e+00 1.000000000000000000e+00 1.000000000000000000e+00 1.000000000000000000e+00 1.000000000000000000e+00 1.000000000000000000e+00 1.000000000000000000e+00 1.000000000000000000e+00 1.000000000000000000e+00 1.000000000000000000e+00 1.000000000000000000e+00 1.000000000000000000e+00 1.000000000000000000e+00 1.000000000000000000e+00 1.000000000000000000e+00 1.000000000000000000e+00 1.000000000000000000e+00 1.000000000000000000e+00 1.000000000000000000e+00 1.000000000000000000e+00 1.000000000000000000e+00 1.000000000000000000e+00 1.000000000000000000e+00 1.000000000000000000e+00 1.000000000000000000e+00 1.000000000000000000e+00 1.000000000000000000e+00 1.000000000000000000e+00 1.000000000000000000e+00 1.000000000000000000e+00 1.000000000000000000e+00 1.000000000000000000e+00 1.000000000000000000e+00 1.000000000000000000e+00 1.000000000000000000e+00 1.000000000000000000e+00 1.000000000000000000e+00 1.000000000000000000e+00 1.000000000000000000e+00 1.000000000000000000e+00 1.000000000000000000e+00 1.000000000000000000e+00 1.000000000000000000e+00 1.000000000000000000e+00 1.000000000000000000e+00 1.000000000000000000e+00 1.000000000000000000e+00 1.000000000000000000e+00 1.000000000000000000e+00 1.000000000000000000e+00 1.000000000000000000e+00 1.000000000000000000e+00 1.000000000000000000e+00 1.000000000000000000e+00 1.000000000000000000e+00 1.000000000000000000e+00 1.000000000000000000e+00 1.000000000000000000e+00 1.000000000000000000e+00 1.000000000000000000e+00 1.000000000000000000e+00 1.000000000000000000e+00 1.000000000000000000e+00 1.000000000000000000e+00 1.000000000000000000e+00 1.000000000000000000e+00 1.000000000000000000e+00 1.000000000000000000e+00 1.000000000000000000e+00 1.000000000000000000e+00 1.000000000000000000e+00 1.000000000000000000e+00 1.000000000000000000e+00 1.000000000000000000e+00 1.000000000000000000e+00 1.000000000000000000e+00 1.000000000000000000e+00 1.000000000000000000e+00 1.000000000000000000e+00 1.000000000000000000e+00 1.000000000000000000e+00 1.000000000000000000e+00 1.000000000000000000e+00 1.000000000000000000e+00 1.000000000000000000e+00 1.000000000000000000e+00 1.000000000000000000e+00 1.000000000000000000e+00 1.000000000000000000e+00 1.000000000000000000e+00 1.000000000000000000e+00 1.000000000000000000e+00 1.000000000000000000e+00 1.000000000000000000e+00 1.000000000000000000e+00 1.000000000000000000e+00 1.000000000000000000e+00 1.000000000000000000e+00 1.000000000000000000e+00 1.000000000000000000e+00 1.000000000000000000e+00 1.000000000000000000e+00 1.000000000000000000e+00 1.000000000000000000e+00 1.000000000000000000e+00 1.000000000000000000e+00 1.000000000000000000e+00 1.000000000000000000e+00 1.000000000000000000e+00 1.000000000000000000e+00 1.000000000000000000e+00 1.000000000000000000e+00 1.000000000000000000e+00 1.000000000000000000e+00 1.000000000000000000e+00 1.000000000000000000e+00 1.000000000000000000e+00 1.000000000000000000e+00 1.000000000000000000e+00 1.000000000000000000e+00 1.000000000000000000e+00 1.000000000000000000e+00 1.000000000000000000e+00 1.000000000000000000e+00 1.000000000000000000e+00 1.000000000000000000e+00 1.000000000000000000e+00 1.000000000000000000e+00 1.000000000000000000e+00 1.000000000000000000e+00 1.000000000000000000e+00 1.000000000000000000e+00 1.000000000000000000e+00 1.000000000000000000e+00 1.000000000000000000e+00 1.000000000000000000e+00 1.000000000000000000e+00 1.000000000000000000e+00 1.000000000000000000e+00 1.000000000000000000e+00 1.000000000000000000e+00 1.000000000000000000e+00 1.000000000000000000e+00 1.000000000000000000e+00 1.000000000000000000e+00 1.000000000000000000e+00 1.000000000000000000e+00 1.000000000000000000e+00 1.000000000000000000e+00 1.000000000000000000e+00 1.000000000000000000e+00 1.000000000000000000e+00 1.000000000000000000e+00 1.000000000000000000e+00 1.000000000000000000e+00 1.000000000000000000e+00 1.000000000000000000e+00 1.000000000000000000e+00 1.000000000000000000e+00 1.000000000000000000e+00 1.000000000000000000e+00 1.000000000000000000e+00 1.000000000000000000e+00 1.000000000000000000e+00 1.000000000000000000e+00 1.000000000000000000e+00 1.000000000000000000e+00 1.000000000000000000e+00 1.000000000000000000e+00 1.000000000000000000e+00 1.000000000000000000e+00 1.000000000000000000e+00 1.000000000000000000e+00 1.000000000000000000e+00 1.000000000000000000e+00 1.000000000000000000e+00 1.000000000000000000e+00 1.000000000000000000e+00 1.000000000000000000e+00 1.000000000000000000e+00 1.000000000000000000e+00 1.000000000000000000e+00 1.000000000000000000e+00 1.000000000000000000e+00 1.000000000000000000e+00 1.000000000000000000e+00 1.000000000000000000e+00 1.000000000000000000e+00 1.000000000000000000e+00 1.000000000000000000e+00 1.000000000000000000e+00 1.000000000000000000e+00 1.000000000000000000e+00 1.000000000000000000e+00 1.000000000000000000e+00 1.000000000000000000e+00 1.000000000000000000e+00 1.000000000000000000e+00 1.000000000000000000e+00 1.000000000000000000e+00 1.000000000000000000e+00 1.000000000000000000e+00 1.000000000000000000e+00 1.000000000000000000e+00 1.000000000000000000e+00 1.000000000000000000e+00 1.000000000000000000e+00 1.000000000000000000e+00 1.000000000000000000e+00 1.000000000000000000e+00 1.000000000000000000e+00 1.000000000000000000e+00 1.000000000000000000e+00 1.000000000000000000e+00 1.000000000000000000e+00 1.000000000000000000e+00 1.000000000000000000e+00 1.000000000000000000e+00 1.000000000000000000e+00 1.000000000000000000e+00 1.000000000000000000e+00 1.000000000000000000e+00 1.000000000000000000e+00 1.000000000000000000e+00 1.000000000000000000e+00 1.000000000000000000e+00 1.000000000000000000e+00 1.000000000000000000e+00 1.000000000000000000e+00 1.000000000000000000e+00 1.000000000000000000e+00 1.000000000000000000e+00 1.000000000000000000e+00 1.000000000000000000e+00 1.000000000000000000e+00 1.000000000000000000e+00 1.000000000000000000e+00 1.000000000000000000e+00 1.000000000000000000e+00 1.000000000000000000e+00 1.000000000000000000e+00 1.000000000000000000e+00 1.000000000000000000e+00 1.000000000000000000e+00 1.000000000000000000e+00 1.000000000000000000e+00 1.000000000000000000e+00 1.000000000000000000e+00 1.000000000000000000e+00 1.000000000000000000e+00 1.000000000000000000e+00 1.000000000000000000e+00 1.000000000000000000e+00 1.000000000000000000e+00 1.000000000000000000e+00 1.000000000000000000e+00 1.000000000000000000e+00 1.000000000000000000e+00 1.000000000000000000e+00 1.000000000000000000e+00 1.000000000000000000e+00 1.000000000000000000e+00 1.000000000000000000e+00 1.000000000000000000e+00 1.000000000000000000e+00 1.000000000000000000e+00 1.000000000000000000e+00 1.000000000000000000e+00 1.000000000000000000e+00 1.000000000000000000e+00 1.000000000000000000e+00 1.000000000000000000e+00 1.000000000000000000e+00 1.000000000000000000e+00 1.000000000000000000e+00 1.000000000000000000e+00 1.000000000000000000e+00 1.000000000000000000e+00 1.000000000000000000e+00 1.000000000000000000e+00 1.000000000000000000e+00 1.000000000000000000e+00 1.000000000000000000e+00 1.000000000000000000e+00 1.000000000000000000e+00 1.000000000000000000e+00 1.000000000000000000e+00 1.000000000000000000e+00 1.000000000000000000e+00 1.000000000000000000e+00 1.000000000000000000e+00 1.000000000000000000e+00 1.000000000000000000e+00 1.000000000000000000e+00 1.000000000000000000e+00 1.000000000000000000e+00 1.000000000000000000e+00 1.000000000000000000e+00 1.000000000000000000e+00 1.000000000000000000e+00 1.000000000000000000e+00 1.000000000000000000e+00 1.000000000000000000e+00 1.000000000000000000e+00 1.000000000000000000e+00 1.000000000000000000e+00 1.000000000000000000e+00 1.000000000000000000e+00 1.000000000000000000e+00 1.000000000000000000e+00 1.000000000000000000e+00 1.000000000000000000e+00 1.000000000000000000e+00 1.000000000000000000e+00 1.000000000000000000e+00 1.000000000000000000e+00 1.000000000000000000e+00 1.000000000000000000e+00 1.000000000000000000e+00 1.000000000000000000e+00 1.000000000000000000e+00 1.000000000000000000e+00 1.000000000000000000e+00 1.000000000000000000e+00 1.000000000000000000e+00 1.000000000000000000e+00 1.000000000000000000e+00 1.000000000000000000e+00 1.000000000000000000e+00 1.000000000000000000e+00 1.000000000000000000e+00 1.000000000000000000e+00 1.000000000000000000e+00 1.000000000000000000e+00 1.000000000000000000e+00 1.000000000000000000e+00 1.000000000000000000e+00 1.000000000000000000e+00 1.000000000000000000e+00 1.000000000000000000e+00 1.000000000000000000e+00 1.000000000000000000e+00 1.000000000000000000e+00 1.000000000000000000e+00 1.000000000000000000e+00 1.000000000000000000e+00 1.000000000000000000e+00 1.000000000000000000e+00 1.000000000000000000e+00 1.000000000000000000e+00 1.000000000000000000e+00 1.000000000000000000e+00 1.000000000000000000e+00 1.000000000000000000e+00 1.000000000000000000e+00 1.000000000000000000e+00 1.000000000000000000e+00 1.000000000000000000e+00 1.000000000000000000e+00 1.000000000000000000e+00 1.000000000000000000e+00 1.000000000000000000e+00 1.000000000000000000e+00 1.000000000000000000e+00 1.000000000000000000e+00 1.000000000000000000e+00 1.000000000000000000e+00 1.000000000000000000e+00 1.000000000000000000e+00 1.000000000000000000e+00 1.000000000000000000e+00 1.000000000000000000e+00 1.000000000000000000e+00 1.000000000000000000e+00 1.000000000000000000e+00 1.000000000000000000e+00 1.000000000000000000e+00 1.000000000000000000e+00 1.000000000000000000e+00 1.000000000000000000e+00 1.000000000000000000e+00 1.000000000000000000e+00 1.000000000000000000e+00 1.000000000000000000e+00 1.000000000000000000e+00 1.000000000000000000e+00 1.000000000000000000e+00 1.000000000000000000e+00 1.000000000000000000e+00 1.000000000000000000e+00 1.000000000000000000e+00 1.000000000000000000e+00 1.000000000000000000e+00 1.000000000000000000e+00 1.000000000000000000e+00 1.000000000000000000e+00 1.000000000000000000e+00 1.000000000000000000e+00 1.000000000000000000e+00 1.000000000000000000e+00 1.000000000000000000e+00 1.000000000000000000e+00 1.000000000000000000e+00 1.000000000000000000e+00 1.000000000000000000e+00 1.000000000000000000e+00 1.000000000000000000e+00 1.000000000000000000e+00 1.000000000000000000e+00 1.000000000000000000e+00 1.000000000000000000e+00 1.000000000000000000e+00 1.000000000000000000e+00 1.000000000000000000e+00 1.000000000000000000e+00 1.000000000000000000e+00 1.000000000000000000e+00 1.000000000000000000e+00 1.000000000000000000e+00 1.000000000000000000e+00 1.000000000000000000e+00 1.000000000000000000e+00 1.000000000000000000e+00 1.000000000000000000e+00 1.000000000000000000e+00 1.000000000000000000e+00 1.000000000000000000e+00 1.000000000000000000e+00 1.000000000000000000e+00 1.000000000000000000e+00 1.000000000000000000e+00 1.000000000000000000e+00 1.000000000000000000e+00 1.000000000000000000e+00 1.000000000000000000e+00 1.000000000000000000e+00 1.000000000000000000e+00 1.000000000000000000e+00 1.000000000000000000e+00 1.000000000000000000e+00 1.000000000000000000e+00 1.000000000000000000e+00 1.000000000000000000e+00 1.000000000000000000e+00 1.000000000000000000e+00 1.000000000000000000e+00 1.000000000000000000e+00 1.000000000000000000e+00 1.000000000000000000e+00 1.000000000000000000e+00 1.000000000000000000e+00 1.000000000000000000e+00 1.000000000000000000e+00 1.000000000000000000e+00 1.000000000000000000e+00 1.000000000000000000e+00 1.000000000000000000e+00 1.000000000000000000e+00 1.000000000000000000e+00 1.000000000000000000e+00 1.000000000000000000e+00 1.000000000000000000e+00 1.000000000000000000e+00 1.000000000000000000e+00 1.000000000000000000e+00 1.000000000000000000e+00 1.000000000000000000e+00 1.000000000000000000e+00 1.000000000000000000e+00 1.000000000000000000e+00 1.000000000000000000e+00 1.000000000000000000e+00 1.000000000000000000e+00 1.000000000000000000e+00 1.000000000000000000e+00 1.000000000000000000e+00 1.000000000000000000e+00 1.000000000000000000e+00 1.000000000000000000e+00 1.000000000000000000e+00 1.000000000000000000e+00 1.000000000000000000e+00 1.000000000000000000e+00 1.000000000000000000e+00 1.000000000000000000e+00 1.000000000000000000e+00 1.000000000000000000e+00 1.000000000000000000e+00 1.000000000000000000e+00 1.000000000000000000e+00 1.000000000000000000e+00 1.000000000000000000e+00 1.000000000000000000e+00 1.000000000000000000e+00 1.000000000000000000e+00 1.000000000000000000e+00 1.000000000000000000e+00 1.000000000000000000e+00 1.000000000000000000e+00 1.000000000000000000e+00 1.000000000000000000e+00 1.000000000000000000e+00 1.000000000000000000e+00 1.000000000000000000e+00 1.000000000000000000e+00 1.000000000000000000e+00 1.000000000000000000e+00 1.000000000000000000e+00 1.000000000000000000e+00 1.000000000000000000e+00 1.000000000000000000e+00 1.000000000000000000e+00 1.000000000000000000e+00 1.000000000000000000e+00 1.000000000000000000e+00 1.000000000000000000e+00 1.000000000000000000e+00 1.000000000000000000e+00 1.000000000000000000e+00 1.000000000000000000e+00 1.000000000000000000e+00 1.000000000000000000e+00 1.000000000000000000e+00 1.000000000000000000e+00 1.000000000000000000e+00 1.000000000000000000e+00 1.000000000000000000e+00 1.000000000000000000e+00 1.000000000000000000e+00 1.000000000000000000e+00 1.000000000000000000e+00 1.000000000000000000e+00 1.000000000000000000e+00 1.000000000000000000e+00 1.000000000000000000e+00 1.000000000000000000e+00 1.000000000000000000e+00 1.000000000000000000e+00 1.000000000000000000e+00 1.000000000000000000e+00 1.000000000000000000e+00 1.000000000000000000e+00 1.000000000000000000e+00 1.000000000000000000e+00 1.000000000000000000e+00 1.000000000000000000e+00 1.000000000000000000e+00 1.000000000000000000e+00 1.000000000000000000e+00 1.000000000000000000e+00 1.000000000000000000e+00 1.000000000000000000e+00 1.000000000000000000e+00 1.000000000000000000e+00 1.000000000000000000e+00 1.000000000000000000e+00 1.000000000000000000e+00 1.000000000000000000e+00 1.000000000000000000e+00 1.000000000000000000e+00 1.000000000000000000e+00 1.000000000000000000e+00 1.000000000000000000e+00 1.000000000000000000e+00 1.000000000000000000e+00 1.000000000000000000e+00 1.000000000000000000e+00 1.000000000000000000e+00 1.000000000000000000e+00 1.000000000000000000e+00 1.000000000000000000e+00 1.000000000000000000e+00 1.000000000000000000e+00 1.000000000000000000e+00 1.000000000000000000e+00 1.000000000000000000e+00 1.000000000000000000e+00 1.000000000000000000e+00 1.000000000000000000e+00 1.000000000000000000e+00 1.000000000000000000e+00 1.000000000000000000e+00 1.000000000000000000e+00 1.000000000000000000e+00 1.000000000000000000e+00 1.000000000000000000e+00 1.000000000000000000e+00 1.000000000000000000e+00 1.000000000000000000e+00 1.000000000000000000e+00 1.000000000000000000e+00 1.000000000000000000e+00 1.000000000000000000e+00 1.000000000000000000e+00 1.000000000000000000e+00 1.000000000000000000e+00 1.000000000000000000e+00 1.000000000000000000e+00 1.000000000000000000e+00 1.000000000000000000e+00 1.000000000000000000e+00 1.000000000000000000e+00 1.000000000000000000e+00 1.000000000000000000e+00 1.000000000000000000e+00 1.000000000000000000e+00 1.000000000000000000e+00 1.000000000000000000e+00 1.000000000000000000e+00 1.000000000000000000e+00 1.000000000000000000e+00 1.000000000000000000e+00 1.000000000000000000e+00 1.000000000000000000e+00 1.000000000000000000e+00 1.000000000000000000e+00 1.000000000000000000e+00 1.000000000000000000e+00 1.000000000000000000e+00 1.000000000000000000e+00 1.000000000000000000e+00 1.000000000000000000e+00 1.000000000000000000e+00 1.000000000000000000e+00 1.000000000000000000e+00 1.000000000000000000e+00 1.000000000000000000e+00 1.000000000000000000e+00 1.000000000000000000e+00 1.000000000000000000e+00 1.000000000000000000e+00 1.000000000000000000e+00 1.000000000000000000e+00 1.000000000000000000e+00 1.000000000000000000e+00 1.000000000000000000e+00 1.000000000000000000e+00 1.000000000000000000e+00 1.000000000000000000e+00 1.000000000000000000e+00 1.000000000000000000e+00 1.000000000000000000e+00 1.000000000000000000e+00 1.000000000000000000e+00 1.000000000000000000e+00 1.000000000000000000e+00 1.000000000000000000e+00 1.000000000000000000e+00 1.000000000000000000e+00 1.000000000000000000e+00 1.000000000000000000e+00 1.000000000000000000e+00 1.000000000000000000e+00 1.000000000000000000e+00 1.000000000000000000e+00 1.000000000000000000e+00 1.000000000000000000e+00 1.000000000000000000e+00 1.000000000000000000e+00 1.000000000000000000e+00 1.000000000000000000e+00 1.000000000000000000e+00 1.000000000000000000e+00 1.000000000000000000e+00 1.000000000000000000e+00 1.000000000000000000e+00 1.000000000000000000e+00 1.000000000000000000e+00 1.000000000000000000e+00 1.000000000000000000e+00 1.000000000000000000e+00 1.000000000000000000e+00 1.000000000000000000e+00 1.000000000000000000e+00 1.000000000000000000e+00 1.000000000000000000e+00 1.000000000000000000e+00 1.000000000000000000e+00 1.000000000000000000e+00 1.000000000000000000e+00 1.000000000000000000e+00 1.000000000000000000e+00 1.000000000000000000e+00 1.000000000000000000e+00 1.000000000000000000e+00 1.000000000000000000e+00 1.000000000000000000e+00 1.000000000000000000e+00 1.000000000000000000e+00 1.000000000000000000e+00 1.000000000000000000e+00 1.000000000000000000e+00 1.000000000000000000e+00 1.000000000000000000e+00 1.000000000000000000e+00 1.000000000000000000e+00 1.000000000000000000e+00 1.000000000000000000e+00 1.000000000000000000e+00 1.000000000000000000e+00 1.000000000000000000e+00 1.000000000000000000e+00 1.000000000000000000e+00 1.000000000000000000e+00 1.000000000000000000e+00 1.000000000000000000e+00 1.000000000000000000e+00 1.000000000000000000e+00 1.000000000000000000e+00 1.000000000000000000e+00 1.000000000000000000e+00 1.000000000000000000e+00 1.000000000000000000e+00 1.000000000000000000e+00 1.000000000000000000e+00 1.000000000000000000e+00 1.000000000000000000e+00 1.000000000000000000e+00 1.000000000000000000e+00 1.000000000000000000e+00 1.000000000000000000e+00 1.000000000000000000e+00 1.000000000000000000e+00 1.000000000000000000e+00 1.000000000000000000e+00 1.000000000000000000e+00 1.000000000000000000e+00 1.000000000000000000e+00 1.000000000000000000e+00 1.000000000000000000e+00 1.000000000000000000e+00 1.000000000000000000e+00 1.000000000000000000e+00 1.000000000000000000e+00 1.000000000000000000e+00 1.000000000000000000e+00 1.000000000000000000e+00 1.000000000000000000e+00 1.000000000000000000e+00 1.000000000000000000e+00 1.000000000000000000e+00 1.000000000000000000e+00 1.000000000000000000e+00 1.000000000000000000e+00 1.000000000000000000e+00 1.000000000000000000e+00 1.000000000000000000e+00 1.000000000000000000e+00 1.000000000000000000e+00 1.000000000000000000e+00 1.000000000000000000e+00 1.000000000000000000e+00 1.000000000000000000e+00 1.000000000000000000e+00 1.000000000000000000e+00 1.000000000000000000e+00 1.000000000000000000e+00 1.000000000000000000e+00 1.000000000000000000e+00 1.000000000000000000e+00 1.000000000000000000e+00 1.000000000000000000e+00 1.000000000000000000e+00 1.000000000000000000e+00 1.000000000000000000e+00 1.000000000000000000e+00 1.000000000000000000e+00 1.000000000000000000e+00 1.000000000000000000e+00 1.000000000000000000e+00 1.000000000000000000e+00 1.000000000000000000e+00 1.000000000000000000e+00 1.000000000000000000e+00 1.000000000000000000e+00 1.000000000000000000e+00 1.000000000000000000e+00 1.000000000000000000e+00 1.000000000000000000e+00 1.000000000000000000e+00 1.000000000000000000e+00 1.000000000000000000e+00 1.000000000000000000e+00 1.000000000000000000e+00 1.000000000000000000e+00 1.000000000000000000e+00 1.000000000000000000e+00 1.000000000000000000e+00 1.000000000000000000e+00 1.000000000000000000e+00 1.000000000000000000e+00 1.000000000000000000e+00 1.000000000000000000e+00 1.000000000000000000e+00 1.000000000000000000e+00 1.000000000000000000e+00 1.000000000000000000e+00 1.000000000000000000e+00 1.000000000000000000e+00 1.000000000000000000e+00 1.000000000000000000e+00 1.000000000000000000e+00 1.000000000000000000e+00 1.000000000000000000e+00 1.000000000000000000e+00 1.000000000000000000e+00 1.000000000000000000e+00 1.000000000000000000e+00 1.000000000000000000e+00 1.000000000000000000e+00 1.000000000000000000e+00 1.000000000000000000e+00 1.000000000000000000e+00 1.000000000000000000e+00 1.000000000000000000e+00 1.000000000000000000e+00 1.000000000000000000e+00 1.000000000000000000e+00 1.000000000000000000e+00
6.752188449564337780e-02 5.058522895765918959e-01 8.721015731077849109e-01 4.946848045531075933e-01 4.916290542847943645e-01 5.592932657285025755e-01 2.621791272897172065e-01 3.315686809704323501e-01 4.412788081112387628e-01 4.970277116363710501e-01 1.006049484792868265e+00 -2.556871765873180435e-01 1.127103122268252822e+00 5.069483736046471734e-01 4.967203164473896759e-01 5.307510131273593945e-01 9.315301791093056893e-01 6.658146009055984083e-01 4.137583953030460893e-01 5.121887075349589313e-01 3.830400098895689331e-01 8.550619439400057864e-01 3.372773594825159704e-01 4.779039941702991068e-01 6.711474419531278102e-01 7.884615485157189241e-01 4.416373291313124283e-01 5.134180330689954719e-01 5.323002259841252970e-01 8.677492522941548936e-01 5.070874940675960119e-01 4.931701200483298297e-01 8.109867899023317506e-01 5.050993573908599821e-01 7.322377053592954432e-01 4.765203534746557112e-01 7.137759406489422309e-01 8.353566529379212735e-01 1.326227803690297746e-01 5.149707656321198534e-01 5.759867409915596648e-01 -3.435245934969001769e-01 7.428045009994226344e-01 2.028699014135918188e-01 2.292412160620558026e-01 4.845933727299673310e-01 4.831164716553577043e-01 4.989679311671736395e-01 4.996368074658160130e-01 7.534501865432470524e-02 3.357110894603752838e-02 3.222305626599132333e-01 5.054552513067955832e-01 5.253962415326619562e-01 4.981308147645205908e-01 6.389699472350127141e-02 4.771009092153233322e-01 8.105493448675652468e-01 1.712952651301250795e-01 4.858230367080922929e-01 7.376636539988077335e-01 5.458193982346501993e-01 4.485977532393238265e-01 3.372791526442290300e-01 5.166999756026295909e-01 5.418292179628133587e-01 4.987236807036425357e-01 4.711862674520360117e-01 5.809308913921990003e-01 1.664280082309855385e-02 4.817248652434040213e-01 5.078193362767844388e-01 5.238859483188792465e-01 2.419479392983356347e-02 1.250888166755787845e+00 5.607704634978488700e-01 5.889862667921513806e-01 7.634998603158177355e-01 5.016747542372067548e-01 1.255719078398795263e+00 5.525385055293881020e-01 2.016257671729299039e-01 8.099030894804953862e-01 4.755871553408580477e-01 5.124274366127706815e-01 7.277666641368270017e-01 8.510715395982488829e-01 5.256955130092642037e-01 2.973021017727333071e-01 5.627216252408442365e-01 2.256033204004262160e-01 1.439077171826336432e+00 5.309951733476283575e-01 7.933625418152959186e-02 3.308162212955057524e-01 5.209551349402985476e-01 5.444980916524180259e-01 6.801604910427708761e-01 2.194425121461676120e-01 7.957464789191627252e-01 8.227557034170398520e-01 4.865897112411672887e-01 5.147380896859378163e-01 1.054433087877871378e+00 1.373683753993345524e-01 -1.084503895793343942e+00 -7.901087560716499869e-01 5.502782869317756065e-01 4.255503910927611599e-01 8.938473403413415008e-01 3.568098329328818208e-01 4.847762284975040692e-01 9.039276723984208672e-01 5.000358000129313529e-01 4.428624804026391470e-01 5.551858859426113124e-01 4.341211362653989436e-01 5.998354554827857177e-01 5.739234658187688520e-01 4.265315350779587122e-01 1.092099681386651921e+00 3.666735449184320705e-01 5.739902871624159575e-01 5.797556579409017807e-01 4.744081947846809921e-01 1.545556376340555094e+00 3.560583109845926741e-01 7.705652370276835361e-01 4.866916069547681523e-01 5.072261328584026785e-01 4.779555580393481939e-01 5.053773359587345748e-01 5.001245742870279454e-01 3.715064491366347199e-01 4.847175909781658576e-01 -1.437049163714026329e-02 9.201381577023397540e-01 -2.296904669526892914e-02 8.591526446477634193e-01 5.088406911520332310e-01 4.922308389408380225e-01 6.307603463555808698e-01 4.693026128048114476e-01 5.055989652328354289e-01 5.085917645476784044e-01 -2.238622946850438861e-02 5.435741515138254876e-01 4.552465856757927365e-01 4.295977758419210479e-01 -4.208227909013329548e-01 7.449860625593283103e-01 -3.569494248900287325e-02 4.845960883899415039e-01 5.198231383024609631e-01 7.867425456961822938e-01 4.950217381003011452e-01 7.276094945654342228e-01 5.812166604541657566e-01 7.907217532083026246e-01 7.803708569071263756e-01 3.351802353700482628e-01 4.784060088551636558e-01 5.310713572438465757e-01 5.091167021049846086e-01 1.128268338746551969e+00 -1.399990355944100151e-01 7.689196662441755148e-01 5.192634447784838514e-01 5.556794664029105490e-01 5.858784198044449942e-01 5.896387905231432747e-01 4.948008039907952349e-01 4.846774424093941991e-01 4.827078520945469742e-01 4.330220592726116147e-01 3.070262724813423161e-02 1.649624326520480466e-01 8.014044541372450370e-02 5.853943401839538652e-01 1.027358707007293814e+00 4.981802404018402797e-01 4.746479698302901729e-01 -2.307123065321464161e-01 7.782413936759222661e-01 4.753336215245504981e-01 5.895622439970598094e-01 4.906162497708409509e-01 4.855495302908112154e-01 1.718315978756779216e+00 7.674703488340259838e-01 4.322955371130357549e-01 -2.475436299024691700e-01 5.128789483074774891e-01 6.525561981626520902e-01 1.056683453011279528e-01 5.162559644376074619e-01 7.675935062597594172e-01 5.041657805423446215e-01 4.891055976734858812e-01 4.723734895429171909e-01 3.894003116818837706e-01 5.499199898823202703e-01 9.510743829347364509e-01 5.587611358546983320e-01 5.388527947326806622e-01 4.891059887423592212e-01 5.070600383558240276e-01 1.091544840329254917e+00 4.818806905562412757e-01 4.518192864532690756e-01 3.600171877726826009e-01 1.442612493969691878e-01 5.136293268390652589e-01 3.905101632781107224e-01 4.960393605726138855e-01 5.350027497801935761e-01 5.181292337196480302e-01 5.033796648972277410e-01 4.978763239528659623e-01 4.937991024929724859e-01 4.729498085590266299e-01 5.221043772449411868e-01 -3.441175610925381601e-01 6.165621583289975227e-01 7.796094762716142546e-01 4.209156372052831885e-01 6.378313652083852370e-01 5.490813446911763096e-01 7.788772930587269938e-01 8.289443084319896293e-01 -1.115918585852564426e-01 8.835137488293587360e-01 5.001644171055025234e-01 5.204738828799273520e-01 -4.798908863557969917e-02 6.614619430260501032e-01 3.856467590297001924e-01 4.460931165803286857e-01 3.487758093075735144e-03 -9.503670657664130272e-02 5.908797796414816395e-01 4.862536929196690227e-01 8.103572118038719629e-02 4.399801162013249889e-01 5.019699565925255236e-01 1.067065572043806920e+00 -1.004020214273692868e-01 4.372982831972555551e-01 -1.001885086360355004e+00 6.144800047835472512e-01 5.892363494055403716e-01 5.475969569687189065e-01 4.987349693204079504e-01 3.372840211912870867e-01 4.994609526905681163e-01 5.262174720063390598e-01 4.536516362713100547e-01 4.377251654017112470e-01 6.261107436349450106e-01 1.417673135464987189e+00 4.223762308937741849e-01 4.700598606192616380e-01 2.736857965256437875e-01 4.532536908596287994e-01 7.330143016350507690e-01 4.829883728600827819e-01 1.788219867143798769e+00 5.094176466029367578e-01 3.943981021469786241e-01 9.375463459677559896e-01 5.490985148843934294e-01 7.297375078273151683e-01 5.184077310543953043e-01 5.283005140683489920e-01 4.882217671896295075e-01 4.870017991644692290e-01 1.326583414449498399e-01 8.786326217653914750e-01 8.494701560864087453e-01 -8.292640084445984661e-02 5.988702075712025730e-01 5.302749941686362156e-01 6.041821607255921656e-01 -3.298751974328055780e-01 3.436019617607045662e-01 7.735352092029158522e-01 5.438710827106282286e-01 5.011451732993867925e-01 5.551853328375546681e-01 6.005999607338421420e-01 5.327328235162362979e-01 5.606506681204583842e-01 4.656563492264340631e-01 5.488861313890337490e-01 -6.221567987111402062e-04 4.809864474121726130e-01 1.592627982091809224e+00 5.978719247720127861e-01 4.988741228177328568e-01 4.296002460116307153e-01 -2.144071157803673522e+00 4.763540893551909128e-01 9.910854477163001386e-01 4.856390805124631282e-01 5.827880481399320134e-01 -5.385593766926123349e-01 5.004073807689016773e-01 4.985802553917315638e-01 4.055495349239220948e-01 5.312908819842232511e-01 7.635000517885935922e-01 5.420929441373164570e-01 3.362950409564859910e-01 4.971579546231943980e-01 5.132813359311269030e-01 5.046425233868754301e-01 5.120594304544987541e-01 4.949399401485325978e-01 4.989932467888967271e-01 9.998548316521244095e-01 7.273055762273226976e-02 1.867899954153538156e+00 1.946337333549255311e+00 4.780481770946051201e-01 9.038477431183955524e-02 5.185168654831836532e-01 3.930189193776866818e-01 5.133316677778230197e-01 1.092412237113410844e+00 5.040393044684844392e-01 9.739087516547192402e-01 5.070281729297687612e-01 3.982851839835251928e-01 1.120171005082803761e+00 5.214709815005206250e-01 6.390899045603256612e-01 5.025458639369632108e-01 6.667860286629201383e-01 -1.950214753396282585e+00 1.257678454924957556e+00 5.154020756712937024e-01 6.418503835809112879e-01 4.963642431846738701e-01 8.353566485849155399e-01 4.473555349878872711e-01 5.191319372133805787e-01 3.442371505028073431e-01 5.157761314807404185e-01 1.358713912553303427e+00 2.891158488880390953e-01 4.891050439690583507e-01 4.399728425723024028e-01 5.587611358547027729e-01 3.856631585601634216e-01 4.307498595451856871e-01 7.665270884174782973e-01 5.215440320373840866e-01 5.199801146895776105e-01 4.729631359956485981e-01 6.253225440711978056e-01 5.049425142904327979e-01 3.817605352478226632e-01 5.191312526836140417e-01 6.050015476468386666e-01 4.931588089129487207e-01 6.473162187040181204e-01 1.014349206138333459e+00 8.144402836781534649e-01 4.915184272734628435e-01 5.553321024312974918e-01 7.402515197361585475e-01 1.270085376279184164e-02 7.247178244266522240e-01 5.569944933493737871e-01 7.090614117706060815e-02 5.010338465508645811e-01 9.993278305677890661e-01 5.578872465549741255e-01 3.697404020892689491e-01 2.428767246972812766e-01 -2.081666368492982033e-01 -1.594425354282769991e+00 4.737947017592231136e-01 5.587611358553996599e-01 5.587611358551318741e-01 5.337208522925654952e-01 2.880406286475927224e-01 5.465029902278870783e-02 4.905216878611364240e-01 5.015684838872095375e-01 3.561577972070270048e-01 5.029784047970300431e-01 1.158199489398105797e+00 4.891059802830363679e-01 4.811546220796056872e-01 5.345856579834994404e-01 4.058751980927887693e-01 4.975861143444909596e-01 5.509449548507546757e-01 3.484860160195628609e-01 7.349251479932803477e-01 4.806651390330417550e-01 2.705896913220693159e-02 5.587611358561019870e-01 5.747750098654466067e-01 5.139779774598088880e-01 6.852935309219366777e-01 7.104970946679514121e-01 7.219612997305224766e-01 5.489131449511182037e-01 9.742373983126663139e-01 5.105748531821195924e-01 -1.322312150259295160e+00 4.929887614473185686e-01 1.187355774429833755e+00 4.822815602593731876e-01 -4.352906397203568090e-01 4.811210391530055808e-01 3.683118235020464426e-01 9.113553257248654393e-01 5.052277368658515400e-01 7.128640422820321509e-01 5.110957192916391056e-01 9.574371978759850244e-01 5.059485680902316984e-01 5.593737337029607293e-01 5.335627391441493117e-01 4.958458630855928639e-01 6.758912365050178117e-01 5.026850334483965455e-01 8.299202222836398191e-01 1.143852745762302392e-01 4.111685349870947692e-01 5.091241707927987026e-01 6.821604240268649422e-01 5.343126185245209436e-01 7.135975363004153360e-01 4.863932623271359224e-01 6.168743172363803096e-01 6.143533898405530991e-01 4.989276031745058515e-01 1.773600528431255874e-01 9.624017930894157580e-02 1.392945529951307992e-01 8.052627937066959563e-01 5.007831371550893751e-01 2.357786488626278487e+00 5.641145451750957385e-01 6.665927297951610431e-01 5.780209322730678334e-01 7.479253258622416967e-01 2.104091518224680130e-02 5.080813462816915482e-01 5.018613254625881037e-01 5.406544480468883362e-01 1.021317660543344275e+00 7.142278918011308875e-01 5.049985264189245093e-01 3.991247556481914427e-01 8.268152108531610089e-01 4.690662796012223246e-01 5.168886505753541583e-01 4.898218160593962867e-01 4.767543851150780609e-01 4.948630708548460988e-01 7.092981526566821682e-01 5.102997619790959893e-01 4.961811054339142490e-01 7.725528029073763792e-02 5.416779954716939294e-01 1.698202602235788020e-02 5.209022280620522194e-01 4.762447808921403403e-01 5.014125315071638056e-01 6.709185748492342283e-01 5.025144506191342453e-01 4.774918062773121363e-01 2.693516929748875910e-01 5.074129009504100285e-01 5.303744569409351017e-01 4.331943576635785553e-01 6.212514690545985901e-02 5.362731632411447125e-01 4.927775825756262051e-01 4.799630204564121483e-01 5.042102825586377568e-01 5.062335527773320631e-01 3.882695889839481995e-01 5.169012028479887944e-01 4.467895283487967051e-01 4.364745324509456958e-01 5.846750277521216566e-01 8.461075971455676026e-01 6.563580088912647215e-01 4.208993420995066348e-01 5.745640930017801296e-01 1.487014812758516547e+00 4.884250758320574093e-01 4.732795382682564167e-01 6.495577344291318944e-01 4.648873892819705422e-01 2.188541966161720587e-01 4.350907075195089013e-01 -3.384448544880616083e-01 4.032910798456553758e-01 5.290833657193397821e-01 5.913811773948807193e-01 5.933893753603162180e-01 -1.168324300843566477e-01 4.302719856920732000e-01 5.019246772800558531e-01 5.663764108860835922e-01 5.654319133458516333e-01 4.970084232568332538e-01 5.037872413645306802e-01 4.967995906830172670e-01 -9.715456669909869336e-02 4.874644471265510703e-01 8.214759367547058710e-01 4.876592799254608757e-01 7.093587283567553969e-02 4.728931224977209191e-01 6.210529295972225805e-01 4.963035105451003015e-01 4.288759990744838158e-01 9.333159034704063828e-01 8.472767433046004548e-01 4.941610329103363064e-01 4.412096403850578330e-01 2.398916730717142731e-01 4.889518039317983233e-01 3.870627580986011895e-01 6.851785075929173185e-01 2.869621945500428623e-02 4.826729121141557499e-01 4.581496588889585331e-01 6.609383984801785461e-01 6.502068077256892842e-01 7.449472859840042815e-01 1.908312642720458308e-01 -5.246281548861985583e-02 -7.059023964238407556e-02 5.008854188127092044e-01 5.142714152594511923e-01 5.670902610531856070e-01 5.203682857351535906e-01 -4.022393771250163397e-01 2.327187947062065554e+00 4.720685924787213494e-01 5.525115900891878207e-01 1.040754781743858048e+00 4.937403295226759359e-01 5.204630343625749056e-01 5.605286039244574692e-01 5.945238253187188349e-01 4.970019755239578618e-01 5.295869894253295573e-01 3.757362007357721856e-01 3.748069950994918353e-01 4.973843967689652312e-01 5.128187855119279437e-01 4.170127271102554434e-01 5.856701086202567019e-01 5.146280885049787646e-01 5.334837182137868172e-01 7.076304926107178650e-01 1.795457631713229585e+00 5.662032772459134611e-01 4.946430478903096062e-01 5.465886645082677076e-01 3.341478442547334282e-01 3.981238514578711585e-01 5.080607921770373681e-01 5.128135007567603543e-01 5.288722635639107050e-01 5.341686062602082341e-01 4.876246506567403771e-01 4.893278944284037979e-01 4.767305708999544089e-01 6.069532684363538877e-01 1.023472337107055985e+00 9.641058997016380694e-01 2.859081660350341614e-01 7.359757236557973314e-01 5.286683607129650797e-01 4.247440150647246448e-01 1.688173841268124420e+00 2.211708520178006510e-01 3.961682231622506989e-01 4.929723457537116826e-01 3.050286010314576246e-02 5.887679482683830789e-01 1.196676454480750884e+00 4.505534763001018961e-01 8.520190426568542419e-01 4.942890420407015095e-01 5.102153895336916101e-01 5.279624797975671635e-01 5.859337253874016271e-01 5.039409750942618338e-01 4.893036713649320801e-01 4.928038177120399599e-01 5.977961285132329383e-01 4.620193737459836747e-01 5.124725923455435428e-01 4.222158933209158582e-01 5.273386792385372779e-01 4.293676915539737515e-01 7.360914403522336169e-01 6.197544149436237104e-01 4.084487717720060584e-01 7.488402345668423443e-01 -1.488171003581509888e-01 4.794434326311962646e-01 6.369318115693370919e-01 7.027863858688813137e-01 5.707701817902801622e-01 5.132901295255940521e-01 1.164285338536312636e-01 -9.950370057216753050e-01 3.995746134224286150e-01 4.961562551071336258e-01 6.947221804243668419e-01 5.004447558722182610e-01 4.799196828499242562e-01 5.476634451025603756e-01 -8.727512661932650129e-02 7.783069844844378027e-01 5.551870898562378809e-01 6.591948703463559323e-01 5.144026397851078070e-01 -1.226695529246416144e-01 -1.568439225511431834e-01 1.068468852497302501e+00 4.830226052664886582e-01 4.700901454585946770e-01 5.205677433758286732e-01 4.332611515402043367e-01 4.518913797964532186e-01 4.872476019940956693e-01 7.924159288703692683e-01 5.478969069291430571e-01 5.312619362978989734e-01 5.411583513658484446e-01 6.173009742702627589e-01 5.336248687782048084e-01 5.275698056280442305e-01 5.202679148675185550e-01 6.182936464050821090e-01 8.359526163225384776e-01 5.101565179619811374e-01 5.361380182422168517e-01 4.999106741860263048e-01 4.257434621461552715e-01 4.968642744206359096e-01 1.581014578449225702e-02 5.191318848186091683e-01 2.525252854017642767e-01 4.828998231530108320e-01 5.311504138221492255e-01 1.152282943193132958e+00 4.350436602597350655e-01 1.429876781324862789e-01 4.619905095834099806e-01 4.837068027080687060e-01 5.200610303141950386e-01 5.824270266426661014e-01 5.866411565484300761e-01 4.687096953555018874e-01 4.867954264770035788e-01 8.893723080776639867e-01 -3.647147051609196944e-01 1.429465036112846699e+00 8.220419601930495368e-01 7.498107376985813088e-01 2.016884437691239262e-01 3.771889582177781475e-01 6.465857209550067708e-01 1.723319899380404974e-01 4.818125948144848514e-01 5.728754784483242046e-01 2.249947275989469878e-02 5.099908367106370521e-01 3.929001840869871809e-01 4.972486984438287960e-01 9.636093617848479065e-01 5.003384676164615019e-01 3.048732897010685838e-01 2.690996944582927930e-01 4.565613607555119025e-01 5.073018787153275033e-01 4.972309220118180106e-01 4.499838274482093059e-01 5.499805651704690046e-01 -4.679368955531221230e-01 4.368274114027103638e-01 5.634898098075473705e-01 5.489861524308625729e-01 4.866343265264221341e-01 7.349340258913915624e-01 7.536103736886803350e-01 -2.906631219985924552e-01 1.006587167498708135e+00 8.353567284121190539e-01 4.441701205754892690e-01 4.650451457808881806e-01 9.080526352929828571e-01 5.407181502509353921e-01 4.954627804204356778e-01 5.408255596669480081e-01 9.299293337186057551e-01 5.040408419361236403e-01 4.399788068364771654e-01 1.144887592126874853e+00 1.744023638896165934e-03 6.928753730838269620e-01 -2.634591165747975777e-02 -5.069594012728534382e-01 -1.574267606514962725e-01 6.671931999046266659e-01 4.945816666530780670e-01 4.204718005263306524e-01 -2.861629218384547646e-01 5.226063283589259534e-01 5.295480990154507323e-02 6.132913819250435106e-01 4.143226581427093547e-01 5.071736092170737731e-01 5.051784053600355540e-01 5.055526834475189135e-01 5.965336257256891317e-01 7.589440553526148880e-01 1.465868617061039103e-01 4.861499475974426221e-01 4.904424977023008614e-01 5.556866798402639862e-01 9.942822879639033884e-01 3.422361208559114298e-01 7.052207226563572684e-01 4.435163646459390208e-01 8.465671783806368034e-02 7.132460914407342534e-01 5.238936933798482576e-01 5.127715266396710714e-01 4.992008417185726521e-01 4.839814827490437898e-01 4.170047302655671140e-01 4.817609365406346211e-01 5.292761822899010316e-01 5.696951129365376287e-01 6.106808872752718109e-01 7.664558781130466070e-01 1.869183226464922631e+00 -8.913573245483159824e-02 5.534906505033196922e-01 5.120695940428892090e-01 5.169188705301076547e-01 7.066182565157497208e-01 3.793231567485214617e-01 -6.127243407434326272e-01 5.050425846282363684e-01 1.941843235924954003e+00 5.126544141379878461e-01 2.926373280361371787e-01 3.906989178427527354e-01 5.551864349602236848e-01 7.058145961467633400e-01 1.075185036242772174e+00 3.906172253803556482e-01 4.030978224731465720e-02 5.406825773092822640e-01 9.016173906385479553e-01 3.450574983026756803e-01 6.021708318445663233e-01 5.115926629264164749e-01 7.598164040455309687e-01 5.021518580752387662e-01 3.896992566797846669e-01 -7.378093789120033705e-03 5.203126266488898866e-01 5.364948865895035057e-01 -3.392669098572508868e-01 6.334509299534928362e-01 9.929638227174865106e-01 2.595874309675731406e-01 3.999046245626975971e-01 9.307473862913138163e-01 4.977449925048529344e-01 1.662007019447221623e+00 3.667849044190198415e-01 3.115053554038870950e-02 4.470166019099717225e-01 5.182324051303960344e-01 3.127905578035825029e-01 5.331430204835367892e-01 4.277486269353348441e-02 4.910484204295307298e-01 -7.299605127796100768e-02 5.036977448624789799e-01 4.835779244569324842e-01 8.807206127159643294e-02 1.588692702684732505e-03 6.056707893680373100e-01 5.197811790332279580e-01 5.185843835805044044e-01 4.703937471047559549e-01 7.295517192641357562e-01 5.151555398419501719e-01 5.065451839043573212e-01 4.110982233367019845e-01 4.581342264103857587e-01 3.909078130157863096e-01 9.361526265909166922e-01 2.317617168224872071e+00 4.602272355467329490e-01 5.373746056301965668e-01 5.173779163803747805e-01 8.829282653253955893e-02 5.049299533545109631e-01 4.709392517900788944e-01 5.069069649311752634e-01 1.254650489757525023e+00 6.090507725280330797e-01 -3.157580157285185818e-01 9.804183229021187773e-02 5.348895537507507569e-01 5.728428141652478489e-01 5.180578339139495503e-01 5.030052893753118592e-01 5.748061344509866610e-02 5.028190543757780073e-01 4.539382065028347291e-01 -1.338213836830665082e+00 4.836133992519344726e-01 5.123911233999148829e-01 9.335140230311478327e-01 5.890962157761744367e-01 6.645578371280652652e-01 7.851928782068107182e-01 -4.511088720854095624e-01 -4.125393964377454536e-01 -1.634398166332695287e-02 5.339326802355672807e-01 4.495155399503628635e-01 1.134431568975848847e+00 4.942861733905291599e-01 -9.816911694510560560e-02 9.162444011400442401e-01 5.202689129339561624e-01 6.447681730691581237e-01 4.487446461478143411e-01 5.122308596068722020e-01 3.232294961431017577e-01 -2.926306410500295607e-01 4.892075993862513017e-01 4.860334090095526638e-01 2.875056529694506868e-01 5.656175421850955232e-01 3.666336211223969466e-01 5.115298035519774134e-01 5.264100349738018991e-01 4.811654504484043637e-01 4.907837715002626444e-01 5.233611659519509240e-01 8.353566350347950697e-01 4.421896252761898238e-01 5.063589423545264978e-01 1.264664913319438477e-01 5.248432920035718263e-01 5.248957890449427177e-01 5.093236153463002180e-01 3.075198572429884147e-01 2.208529344997703925e-01 6.692023366585728716e-01 3.203531266787273402e-01 3.967308901870867932e-01 5.193746079940402272e-01 4.490787705802756213e-01 4.191093614976056370e-01 5.155487638459953503e-01 5.146879069558448760e-01 1.006761837482065713e+00 6.730329359438333992e-01 -2.492481507344512515e-01 3.324616460173814292e-01 7.202224007611935930e-01 5.659215157176171740e-01 2.781738171540958371e-01 5.293427682948589341e-01 1.529258165577827844e-01 -1.972790739543805322e-02 8.399503234802616625e-01 4.000708982535826630e-01 4.873954040539826837e-01 6.584910416417661949e-01 5.267618747065258011e-01 4.547393922845699432e-01 1.196167065377847116e+00 4.309022660377569425e-01 4.557352592632782362e-01 3.428397020672399043e-01 2.353326894488262100e-01 1.044184880292405415e+00 3.378938189956251503e-01 4.308754860477953530e-01 3.529865829934611399e-01 -2.319284677502863323e-01 6.212709297160254884e-01 9.220886054098588192e-01 -6.312238801901695062e-01 5.255499756969710390e-01 5.305391853986147765e-01 -7.932040114355429217e-02 5.562774553230093177e-01 6.864164458610603203e-01 4.781213706245142636e-01 5.150534863252803630e-01 3.171773072158518003e-01 3.443456734433117394e-01 4.933865668065862686e-01 5.193269913420127670e-01 5.119433432677845675e-01 1.114860321606661320e-01 1.118613618443834667e+00 5.105412668792120856e-01 9.607342082755322421e-01 6.683547870332258167e-01 -3.351652235761138354e-01 7.031407289944897610e-01 4.967159381438934207e-01 3.168336216922981174e-01 4.205479520269932159e-02 3.913972307459108180e-01 4.993242575481348644e-01 4.988060722448979245e-01 3.300355949129267774e-01 7.705154905363206796e-02 5.178214171621461359e-01 4.084912428513527982e-01 4.976445902175787306e-01 1.690142959308876591e+00 8.658971836657243237e-01 3.340210901964452139e-01 4.989363961678717763e-01 1.408294703112494384e+00 2.738777214749320565e-01 5.075614199830116302e-01 8.776306916183131968e-01 5.191319279097862394e-01 4.924316762124616997e-01 4.084240123400865174e-01 4.846888428096758905e-01 4.881939856694687552e-01 4.096827894415552285e-01 5.108161406203335364e-01 2.924810974719575796e-02 5.381472949856577204e-01 6.943369177164103734e-01 5.148644779056025245e-01 4.958407897139973652e-01 4.706028696379594978e-01 1.850635352147443277e-02 3.187076581590687074e-01 -4.447358865294365748e-01 -1.844387379734327703e-01 4.948388317061521158e-01 4.956597816347402263e-01 5.954437090912301223e-01 5.268324763158855895e-01 4.869242064305529527e-01 4.558678515762090711e-01 5.191319721471032711e-01 4.958092421772535285e-01 5.802996276181398017e-01 4.188771859897758021e-01 4.980013468172388991e-01 1.046131666687312167e+00 4.805465090010802576e-01 5.004203272593688023e-01 1.332510677332682802e-01 4.879580651155127624e-01 5.064880754042614397e-01 5.218526848291294984e-01 7.714628252004844811e-01 5.187797489246777083e-01 8.312835865592108631e-01 7.731529443889545439e-01 5.098317436145075598e-01 4.013939326433666466e-01 2.263721155390225337e-01 7.034115779599922069e-01 1.486922587364441828e+00 5.157801326085521554e-01 2.508715616394970871e-01 5.248389169560268019e-01 4.849839824993714688e-01 9.890231781718978876e-01 4.119412656230577174e-01 8.028902481546060788e-01 5.000120324096467561e-01
7.416477149946524294e-01 3.184665602016367170e-01 6.682951250795687859e-01 3.873934079771136352e-01 3.402540896224844902e-01 2.520282141373069162e-01 2.686983427438979222e-01 5.084405284610994391e-01 3.406031763845057680e-01 3.354234536833046176e-01 1.569785941862364087e+00 1.371095734416420520e+00 -8.551253374658959183e-01 3.355506657925648728e-01 1.252944948830619909e-01 3.977989737902512535e-01 2.525868595394573646e-01 3.529367621938743205e-01 2.037794825108757979e-01 3.062545820395399798e-01 5.482671405332013581e-01 1.507676581429056695e+00 4.596118554791162047e-01 3.125316639783888295e-01 1.604434139676490512e-01 -6.223309982157384512e-01 4.364161506411340374e-01 3.839142081331793355e-01 3.075434747322740581e-01 -8.884899400599882702e-02 3.058603383356072181e-01 3.081716734926951973e-01 3.379310270615682454e-01 2.654533016585249316e-01 -1.452216091578641677e-01 3.818314739152288695e-01 1.706491158812309117e-01 2.203666937928378255e-01 -2.148090140779226775e+00 3.092887944143055678e-01 6.744893523941511426e-02 1.273201819578018701e-01 -4.634832605747167544e-02 6.791937194449740867e-01 9.000040298239623260e-01 3.544737008645214571e-01 3.826705002273191325e-01 3.377350311539324967e-01 3.240371603453268690e-01 7.704043923887344825e-01 7.854498130497443720e-01 5.044762828475045646e-01 -7.225835083253241420e-01 3.174127367144217171e-01 3.226559193652936419e-01 8.238191951611636421e-01 3.584455620268225395e-01 1.482915404057348896e-01 3.852084120796028799e-01 3.138736226111077943e-01 3.606930626658235717e-01 3.442409704069923082e-01 3.438311230384148431e-01 4.596109443337683675e-01 3.181882863663278438e-01 2.145622080403250531e-01 3.385091261218323155e-01 2.345734480631105623e-01 2.239531478999965963e-01 8.130135154551935139e-01 4.634862056206411340e-01 2.969944723549166610e-01 2.767151728430510826e-01 7.440258818263152385e-01 1.448214952674905742e+00 2.555554931384486639e-01 3.783180813514274154e-01 3.520507265976580147e-01 3.130316744311821830e-01 -8.927902596411209091e-01 3.175861310271484439e-01 9.275830457263199991e-01 1.044729313747313926e+00 3.416801857583421920e-01 3.347443825881517010e-01 -6.969333771849760550e-01 -4.521721707016039538e-02 2.785272890992522843e-01 -3.678270544323333779e-01 -3.959827183132333950e-01 9.092542763982474074e-01 9.931801684722750823e-01 1.954600642611737660e-01 7.012984510802066085e-01 5.379127033549782055e-01 3.153373082581915621e-01 1.613652989253090420e-01 2.074447925047262498e-01 7.723683382400694519e-01 -6.146657982462091496e-01 9.759783632640292583e-02 2.863154168245060083e-01 3.321290906995969516e-01 3.041258995096362550e-01 2.902043394597804693e-01 2.022433578358761697e+00 -1.348385288640447377e-01 -6.231757997303266627e-01 3.887462781118874999e-01 6.550726776943025520e-01 4.700590133585716424e-01 3.595210810461295647e-01 4.104333966512170306e-01 3.187761535686028935e-01 -5.577831965893476074e-01 3.477727483605914660e-01 4.374530110639920366e-01 4.539482195323653602e-01 -2.872769439092915378e-01 2.789048345633595716e-01 -1.022894413151480775e+00 2.849836957791753722e-01 2.392174944574210205e-01 2.830446521443140406e-02 3.897141947291520303e-01 1.554086250342074926e+00 5.157567315115061390e-01 3.631610854488382945e-01 4.046762850957484892e-01 3.172926414842031639e-01 3.187034195254814239e-01 3.261735338428876085e-01 2.435463897210016770e-01 1.654463866174713527e-01 3.305592743271740241e-01 9.185966540255496859e-01 7.707775292540881840e-02 8.222272168628559363e-01 -2.093287511253982547e-01 3.132107105774601385e-01 3.070800270025354495e-01 3.204311831113099140e-01 3.631242455002948732e-01 3.279833649411953433e-01 3.319820227081356490e-01 7.588224856123555462e-01 6.833841033959257016e-01 3.697158048930376251e-01 2.348801631042004290e-01 3.288392603660515445e-01 -5.523371793060676271e-01 9.325608369549732990e-02 3.541592221372122928e-01 2.948700995754988119e-01 4.415367436533923495e-01 3.099712014119974657e-01 -1.116547160886913748e-01 2.813028009164995624e-01 -4.537910815386788088e-01 -6.097238011023782267e-01 3.145683128276063334e-01 3.199007964128346149e-02 2.824512170021613588e-01 3.198876394373360577e-01 4.079342944908991020e-04 -1.241538386264389726e-01 3.329931568232702976e-01 5.029703568776918710e-01 2.461997530590211980e-01 3.288714291297468728e-01 7.350037592176763557e-01 3.869339684252312006e-01 3.544738585516774010e-01 3.507785385444972537e-01 -1.790765112718138097e+00 7.682679739910006633e-01 8.402638479307462660e-01 9.803646346098535691e-01 -2.930852351634140596e-01 1.006496547067836422e+00 3.365174906865640581e-01 4.013743701353164606e-01 9.472597120327712616e-01 2.245196149428370369e-01 3.256882479844967482e-01 2.288485233657368834e-01 3.434153986167804984e-01 3.487070540513214634e-01 -8.852927544211475208e-02 1.432919545716632437e-01 2.864541677420534560e-01 5.622298848612415911e-01 3.284791655059128845e-01 1.841183310393066097e-01 4.887419701587748105e-02 3.325683058957101257e-01 -8.214016279713129975e-01 3.355171254817045368e-01 4.206418879293683522e-01 3.838685759282236543e-01 3.380516884720790038e-01 2.341919499939063287e-01 1.848332644656297541e-01 4.820918435615879905e-02 -9.326952412310967055e-01 4.206396833524233547e-01 3.164273632400574354e-01 -3.168879112891865302e-01 3.194495112934607195e-01 1.208905844636021798e-01 5.643992055120806706e-01 -2.138977631157827908e+00 3.009126450545043796e-01 7.468837142718294242e-01 3.272342763643134034e-01 2.861666101352727254e-01 3.047992775796604104e-01 3.349719046768401265e-01 2.563842257143442716e-01 3.198997295337491220e-01 3.953520540360296875e-01 4.081126498575045614e-01 5.063508464300363610e-01 1.062420737926826481e-01 2.252081896975361985e-01 4.301303874473694222e-01 1.162205470662801554e-01 2.655989919984863556e-01 1.412888845097272750e+00 -6.009989685056051079e-02 1.011855517311038843e+00 -1.122728765148086838e+00 3.476854217055210805e-01 2.412298781964548888e-01 2.606530721534491279e-01 1.875990926287382232e-01 -1.639856537167158346e-01 4.377862885537953108e-01 2.055738197334941453e-01 5.192366809264913341e-01 4.508285927917344282e-01 3.463011838634362238e-01 -8.257713218412644496e-01 4.419175989560296669e-01 3.256689134330898461e-01 4.644015698905697154e-02 1.039610165671374320e+00 4.076200124084214949e-01 1.843532648886414549e+00 1.579084926251134446e-01 2.325233904731649204e-01 2.963640825980309867e-01 3.101862475316501389e-01 4.596092273274738349e-01 2.874869541776369775e-01 3.026263557434225593e-01 -1.966087329308349382e-02 3.818243979046114789e-01 2.846655557059359909e-01 5.152727003168036113e-01 3.394685128016726727e-01 3.755892312444100156e-01 3.297276247222684642e-01 4.059660858213642309e-01 3.681311934616814385e-01 4.347488623906785310e-02 2.012294812661891363e+00 3.439536807941344643e-01 6.706442533266584460e-01 6.175309614514722795e-02 2.483030319427897703e-01 3.381065588704147418e-01 3.029907714888535608e-01 2.926693597340169761e-01 3.384679507096557405e-01 3.868345487815071371e-01 1.341753841072312603e-01 2.805806546539256208e-01 -4.783042495622343016e-02 9.193771044061153919e-02 1.154537044445084648e+00 3.268212367232675164e-01 -1.255271541341891096e-02 1.662164387851747582e+00 3.334615438579719982e-01 7.223670979415454108e-01 2.857295721443321446e-01 3.217464997927189652e-01 3.477711910561215314e-01 -1.519506226227171020e+00 2.918915131537935803e-01 2.802295558719246071e-01 3.814764670508329347e-01 -5.018875134257826387e-01 7.938008446815250085e-01 3.318868367542808229e-01 -4.700181065162389316e-01 2.341318211904793445e-01 3.152152995097931010e-01 2.336230782961921659e-01 -1.631514806153803732e-01 3.535323807614499381e-01 -2.002328425129258349e-01 3.827084800149003208e-01 2.792356593574299439e-01 6.544788529721233816e-01 3.215663940265695020e-01 3.108508402260842796e-01 3.446037133200637315e-01 3.012281517800750041e-01 1.467992095477093084e-01 -5.234871671452443476e-01 9.617141738127805983e-02 3.643063855778513327e-01 3.287163193924053650e-01 3.194861688172144776e-01 3.210874358878194057e-01 3.864120418458681927e-01 3.187672706741891959e-01 1.746124541497956040e+00 7.702068591700991229e-01 2.417408521513212394e-01 -6.816585242287618307e-01 3.821057806708762494e-01 2.874687437306050253e+00 2.982444248848672430e-01 5.862971903721325706e-02 5.136216595154877718e-01 -3.656329774468500826e+00 3.424127850267955075e-01 1.021034668751252816e+00 3.360685805628053635e-01 5.437420224712601335e-01 -2.983804964049261432e-01 1.947063643114302356e-01 2.385745608066867918e-01 3.127917853884905619e-01 3.717734299657201591e-01 1.822003853078747682e+00 -1.944637187491138897e-01 2.925259874552435524e-01 -1.533352120696422904e+00 3.261319535877792442e-01 2.203666940671428764e-01 4.759209791439379944e-01 3.072215670362372086e-01 3.559587333761244921e-01 4.817111535447938242e-01 1.335518017420157966e+00 4.328985633492115070e-01 4.206436613096828370e-01 4.419417279409301735e-01 4.820918435611857428e-02 1.778089984560932146e-01 4.206239356320549128e-01 -4.159520221105363347e-01 2.981890327755074011e-01 4.933147532553355807e-01 4.831499303270831436e-01 2.018142420175870477e-01 3.272915819510414104e-01 2.536645608430981302e-01 3.072219344519478978e-01 4.196390529351411436e-01 3.411501995756144323e-01 3.058534051558394196e-01 7.530808661790669989e-01 1.655789053052107995e+00 3.398326990996377583e-01 2.704240516514962445e-01 3.527349164277981397e-01 9.100801518585420746e-01 3.392646452708552585e-01 2.660456437844590516e-01 7.686781455872905289e-01 2.526526648124152175e-01 2.072400088638216564e-01 2.156139238219815513e-01 5.406223705633282917e-01 9.171366653784359668e-01 5.708984306882936011e-01 6.781248953377664312e-01 3.256604010693052720e-01 4.820918435455699702e-02 4.820918437281659225e-02 3.032014524994516846e-01 2.562592324911667219e-01 1.086609552899894471e+00 -1.099656427640473416e-01 3.139054230470323392e-01 3.208605460450822400e-01 3.073610250338361105e-01 9.116193242933180452e-01 4.206388157987405729e-01 3.303132573747830092e-01 2.523823164934623220e-01 -3.404961665404236670e-02 -4.479068780504296132e-01 2.354898263987647566e-01 2.615034285819633486e-01 1.466588201435070626e-01 2.868140267563770718e-01 7.294563959145836662e-01 4.820918435094553867e-02 -3.982139626024570056e-01 3.248615044022234444e-01 1.094834864639581684e-01 -4.021680282165328024e-01 1.503247215432551853e-01 -2.332942600100511132e+00 9.032868611690385574e-01 2.474280338398040235e-01 -8.296580280777482441e-02 3.867361501042946847e-01 1.455617947395809075e+00 3.202422436126670657e-01 4.670490604285768010e-01 7.707058478329019691e-01 3.053486161869121140e-01 1.549268333652589757e-01 3.464660321126470932e-01 7.570582636298702761e-01 3.111182129768610416e-01 1.471216013212953921e+00 3.772882202188919676e-01 3.443704751938621023e-01 2.901872339469912521e-01 3.267706139186330461e-01 -1.054465872346240563e+00 3.219058590811520459e-01 9.182939857876053213e-02 3.778128172989555500e-01 4.536633275155664835e-01 3.267485452581472827e-01 2.834218308667997288e-01 2.876591911176855643e-01 -1.231099092210893586e-01 3.055567284924617932e-01 1.060731637525431231e-01 2.746283026503651414e-01 3.143324748743804298e-01 6.256077139782585395e-01 7.366599810357971068e-01 8.518664739659512763e-01 -7.785962847021777877e-01 4.480891473871354558e-01 1.153736178651607741e-02 -3.847929892952635655e-01 1.504183120627886894e-01 3.298258010425194064e-01 3.135203712052533898e-01 7.573177564115308735e-01 3.480549696945373084e-01 3.207070185999269518e-01 2.939426473456048794e-01 1.296545457033018156e-01 -1.242391905610805425e-01 3.170519553812582436e-01 4.608597697527533898e-01 3.950119182566049769e-01 3.244499595457060459e-01 2.720259150868198361e-01 3.161100326929395798e-01 2.396051693325464971e-01 3.378587630706164635e-01 3.749801456363585084e-01 2.842265907328292429e-01 3.418641581605731394e-01 7.796193607504910972e-01 2.169479518920882366e-01 7.640191095397532717e-01 -1.789660476127619831e-02 3.266412630611501000e-01 3.305618232953040914e-01 -1.069799074797996630e+00 3.116489918526843539e-01 3.537478449041618900e-01 5.047623089978561239e-01 3.388067719993528848e-01 3.061059053894965576e-01 4.521055655188075950e-01 8.002217676048325457e-01 2.770545488147527213e-01 4.352861731352044017e-01 3.489701291383638937e-01 2.356017216603341069e-01 3.930850932271970910e-01 1.703113848413256026e-01 3.356811320297295453e-01 -4.251226356564850872e-02 3.955060694272752309e-01 2.468305141216231569e-01 1.100575841187135584e+00 2.711295216802960817e-01 3.946222841718340923e-01 2.655137074538968522e-01 -4.653728140174694938e-01 3.264424395655833311e-01 4.486364503360666389e-01 4.102515056696933726e-01 3.825549054661785409e-01 5.297666909373706101e-01 -5.138105306992169635e-02 7.903408246162236805e-01 5.155774358537846824e-01 3.268652951663518769e-01 2.576195901446979297e-01 2.174602228287258188e-01 6.280133697537093607e-01 2.121303488379719049e+00 3.123143165702529922e-01 2.786467650485174863e-01 5.686361258516643424e-01 2.792262381366125146e-01 3.176484227556709006e-01 3.334753005409897275e-01 6.723858217940019699e-01 3.106579034848221399e-01 1.058902857272119892e-02 3.284313656879629950e-01 4.421954278535317889e-02 -9.782677662975014510e-02 2.148792860886895584e-01 3.107143828554090326e-01 3.742585800769186455e-01 1.348500157268497590e+00 4.610585497529846033e-01 3.471961021057957675e-01 5.716934088519040058e-01 2.674922612385299825e-01 3.824387437960707903e-01 2.839007224523785178e-01 2.086647400920077222e-01 7.480877871345127383e-01 3.154099208393208453e-01 4.056678042097293102e-01 1.919284864770657573e-01 2.676985853449724839e-01 1.294637745722659883e-01 4.631786153389079175e-01 9.111758121301564151e-01 3.725064894440654473e-01 3.426142069656924471e-01 2.921145055226034293e-01 4.185030210573679188e-01 3.403506487484122545e-01 5.151661682614985249e-01 5.924945977164364219e-01 4.055261242554174528e-01 2.840379904572197800e-01 4.805819406800106997e-01 3.295178428885369715e-01 3.813011126589311850e-01 2.498354118676560098e-01 2.570039766494240374e-01 4.926396761293865278e-01 3.032410180279447864e-01 4.352726042664202821e-01 4.440134282333673132e-01 2.093211615810124937e-01 3.046546103261207339e-01 1.099753135075264066e+00 1.527975482475270319e-01 2.827189126442006262e-01 3.124438605207439656e-01 7.061637793434804022e-01 9.081407190372594584e-01 2.597989140190020141e-01 -6.995640974286342073e-02 -9.626723659683056322e-02 4.388698715209053969e-01 3.990423753284114139e-01 3.330047633718526967e-01 3.003965045653500532e-01 3.480004384260257377e-01 3.017754348056699287e-01 2.846011843857084722e-01 3.825422102642845879e-01 4.519741129973042781e-01 3.877138062330965362e-01 8.072609288672684125e-01 -3.560981363765070712e-02 6.418162832816393104e-01 3.621905406876210765e-01 2.835253119735016147e-01 -6.397873468278676354e-03 4.592971202003263143e-01 9.056321912648522821e-01 3.958779039039958536e-01 5.783292781480936506e-01 1.216295836476764203e+00 2.905004016885930351e-01 1.419232070598828388e+00 5.309126021140523344e-01 1.558055666087889424e-01 3.377665666004389666e-01 3.273023993011374144e-01 3.192243963094870685e-01 3.288972447937249521e-01 3.349549101813607543e-01 3.426062510421379326e-01 1.289765864964517728e-01 2.644974829863466215e-01 3.164993735885625048e-01 2.931188791153527262e-01 4.161377155831038621e-01 2.948146843438900766e-01 2.315064981672492750e-01 3.619513894328762471e-01 3.218373585351651522e-01 3.358770311613327730e-01 -1.713328582545007306e-01 1.426167082412068909e+00 3.207217581055537003e-01 1.098424660153922983e-01 3.078191445718084784e-01 1.645386795476244945e-01 3.232624109014589076e-01 -3.173257923915874468e+00 2.505229888278479589e+00 4.923272173802715201e-01 3.249320017027393370e-01 1.536775428114615372e-01 3.165799682217844691e-01 3.852237911649170066e-01 1.843134628824776966e+00 4.830037427026475094e-01 3.646053233910886981e-01 3.477747882676094360e-01 8.538569270285492063e-01 3.133907062917046238e-01 9.133792678290919564e-01 -3.229988924730944344e-01 -3.546158470569789611e-01 -5.844638425719292929e-01 2.218346436258282206e-01 3.341719880134985110e-01 4.016518128021707712e-01 3.975108278972239728e-01 3.315375311092419452e-01 1.458963441921472537e-01 2.250306102033095557e-01 2.899644972518468089e-01 2.825387688108125239e-01 1.393337500696562870e-01 2.900678492825755628e-01 2.842832614080161302e-01 3.259361554388690019e-01 3.588742405908438848e-01 1.026698364615810655e-01 2.901746109814883345e-01 2.840121937958975384e-01 3.408894300821962431e-01 3.826190172412282098e-01 2.817832918485610461e-01 8.082010850847927141e-01 3.072216030701876988e-01 4.395482318369186014e-01 3.330634906002880591e-01 2.308749411305364152e-01 1.915407839794828482e-01 -5.134829407897972819e-02 9.052563131415388709e-01 3.300597005364324099e-01 3.436517800874993034e-01 3.376191528122108321e-01 2.036185823311202903e-01 1.761292210815603998e-01 7.893588040673586714e-02 3.516849146628236444e-01 1.970315052723802529e-01 6.100304090842229021e-01 5.862961130457986503e-01 1.892561466761522593e-01 1.358847795802335279e+00 1.884499212435190585e-01 1.319849344905593136e-01 4.303169091358635123e-01 -3.995444782746948031e-01 3.329387568709428202e-01 3.464073477483203267e-01 7.451305146361911769e-01 3.158661528001684426e-01 3.956882590419354973e-01 3.217927817405030200e-01 2.349861102221544040e-01 3.382553046836537236e-01 6.834107523146693008e-01 5.140089748837846084e-01 4.466875795139110816e-01 3.201182969744611473e-01 3.186018945337017461e-01 4.028508580087665769e-01 1.861557070470973574e-01 3.397554821896995314e-01 -3.275911587329654595e-01 2.067872222910379920e-01 2.960622144006341272e-01 3.874550293924769462e-01 3.519094474498674074e-01 1.155227901937965207e+00 7.084806373930770951e-01 -6.932104342340775771e-01 2.203666776606432454e-01 3.428750571010473203e-01 -2.237203126105040685e+00 1.311068318843292335e+00 2.905059765815645734e-01 3.863703598324373378e-01 3.073575516230938054e-01 5.421746173097045096e-01 3.163858996142187574e-01 4.419220347852226838e-01 -3.157112929475481278e-01 7.823226216423191381e-01 9.751962274248276302e-03 9.427805975073317857e-01 1.589392352338303338e+00 -3.227096894925643444e-01 -1.074755733551226999e+00 3.321857779332113569e-01 6.331271944193199719e-01 9.593130153543436567e-01 2.681496754215823008e-01 7.368927213805556153e-01 2.086983849195616636e-01 2.437357510933619298e-01 3.216695592305234830e-01 3.172278988885255391e-01 3.281586320025264292e-01 -1.723838759502394069e-02 8.891584425892904431e-01 8.729788995013592068e-01 3.468207471725980318e-01 3.496118073925962300e-01 6.710750323581711474e-03 -2.098893775786939836e-02 4.783876969549379354e-01 1.875034389641167809e-01 4.129809193128101685e-01 7.457929713481967759e-01 7.564374471022377033e-01 2.806950102722449714e-01 3.416998298707611958e-01 3.335995894887240354e-01 3.275030334941372301e-01 5.156101688878698963e-02 3.505527666261282760e-01 3.134599768029874278e-01 3.807599999231326970e-01 1.967739838440261957e-01 4.810650951522028040e-01 8.270746760361405991e-01 9.493674388834935085e-01 4.533341940858392483e-01 3.472378079044815546e-01 3.227368442389191294e-01 -4.989567731602283923e-02 1.473082619070389399e-01 -1.016500423292365118e+00 3.233428466006083024e-01 5.511202233566641073e-01 3.179807262075135532e-01 5.401994827494125406e-01 1.039584567686600458e+00 3.477740814125390711e-01 1.196746491338271379e-01 3.352834533095848668e-01 2.041452246130183168e-01 7.624455215523611162e-01 4.312848397928628619e-01 -4.700722333065138203e-02 5.183836911850517870e-01 2.398023748764585850e-01 3.226964677738837217e-01 3.695636514979850351e-01 3.504879908878870132e-01 1.401189662595360430e-01 2.212055842125434657e-01 3.263449333187549151e-01 2.782576674028343078e-01 7.922798015839207508e-01 1.832620996031926186e-01 -1.136275203087138835e-01 7.212360834001659837e-01 3.250430825697631643e-01 2.633117272973997114e-01 3.155859670680062345e-01 1.055319644065902507e+00 4.221658324941068505e-03 7.420742353137275149e-01 3.068789326659035477e-01 3.228916547312690732e-01 4.781359905397261634e-01 2.623274910680701288e-01 7.795072694227633825e-01 3.192059372703990872e-01 9.430530613673994145e-01 3.107482328456950271e-01 3.532824859576497167e-01 7.192072412097070266e-01 -1.049728362334756936e-02 -1.546021360908256259e+00 1.881768877832911135e-01 3.052568324588161297e-01 3.540813200994221699e-01 7.181094436223502964e-01 3.051470851361100523e-01 2.895302815511111016e-01 4.336517919760815576e-01 4.325407062507950484e-01 4.046315373346011657e-01 -1.323097105207221125e+00 6.233717874639352896e-01 3.225795490631749307e-01 2.867887005165777325e-01 3.020377292184993623e-01 6.882595335322085894e-01 3.215426712752961769e-01 3.758886631234303888e-01 3.122973487639763568e-01 9.694011859726024971e-01 3.866788384109634547e-01 4.000650677137344013e-01 1.077154448191296243e+00 4.074018415290015516e-01 1.567954101135846212e+00 3.206384949513766958e-01 3.237008485159539872e-01 7.685061733930085293e-01 3.221233853526597191e-01 3.092435052616209767e-01 -7.592306478920715085e-01 3.022501456987822799e-01 2.794124916022002192e-01 4.471927453632770777e-01 1.659286862996643408e-01 4.747535145095048148e-01 -6.093399725481715157e-01 1.483953842286811042e+00 -4.154287753199503719e-01 4.838793814011730365e-01 2.310494003446429689e-01 4.280058318871028389e-01 3.930101118004086236e-01 3.226717946280229232e-01 9.290952043074208744e-01 -7.583082851816594361e-02 3.092061289790788980e-01 -5.648595324424846575e-01 5.289148941539939530e-01 3.114181206389579626e-01 -1.802806631815146332e+00 1.971663081355023772e+00 3.744786729847265905e-01 3.447944514460898335e-01 -7.927972122163080559e-01 2.650705060715361494e-01 2.118598045769996829e-02 3.100884259943603727e-01 2.980777919994255232e-01 5.624735164783480901e-01 3.450083449798920787e-01 3.031686928049803775e-01 2.203666947125169639e-01 4.630179423803694183e-01 3.130966898383363284e-01 -8.485775440255447499e-01 3.001651683128108150e-01 -4.509751679682625358e-01 3.259155311101300523e-01 -3.960153941372510783e-02 3.019704951902031365e-01 2.786697429874181453e-01 4.510930083914629907e-01 4.645216818803351022e-01 3.011753197648140423e-01 3.326067883387414104e-01 4.284171004644529712e-01 3.426207823899887761e-01 3.119181417707085902e-01 -6.933954666801577238e-01 1.280725323055303955e-01 1.252042291446651356e+00 -4.750863634838252848e-04 2.804091811916958887e-01 2.656283488472357956e-01 1.200373931629415525e+00 3.004432650727330567e-01 2.497356156088025025e-01 9.161641645739118101e-01 1.557623392224203596e-01 1.187900399104841576e+00 2.976078548018934455e-01 3.646093730686264522e-01 2.989433383727356230e-01 3.892636031173390410e-01 1.179320987282794331e+00 4.543205062379652714e-01 2.372441773749611460e-01 4.375201357586581130e-01 4.397369004169057738e-01 8.823719293319230716e-02 -3.034987091051024044e-01 3.944272012880805089e-01 6.437283320415795318e-01 1.778537494262559526e-01 4.383489199650633106e-01 3.715882516677401770e-02 1.236490542735869225e+00 2.659848280023959788e-01 2.736806713962834370e-01 -1.708774383020733145e+00 2.906404739493314016e-01 3.056867791533821044e-01 3.194189675476494239e-01 -8.734126335155398269e-03 3.135578005179082695e-01 -1.298612779352114610e-01 1.352812944153037877e-01 2.777675329863084075e-01 3.263183556552474718e-01 1.084004790820012332e+00 1.327759899787477327e-01 3.191198382655343613e-01 -1.030491785965138574e+00 2.059808542611631099e-01 7.945603233585293301e-01 8.124999847399737574e-01 3.300864718791902686e-01 -2.419027045789057251e-01 7.703676465623559011e-01 4.122195919076617754e-01 3.235880064512027254e-01 3.226780686447308644e-01 6.364328918857466988e-01 7.732730521187816120e-01 3.094240212096096010e-01 3.831595869823568035e-01 3.473974519448662091e-01 6.030874303324453845e-01 5.399456978182386457e-01 -1.287646978717665869e+00 3.250594577270888297e-01 4.768154470768606878e-02 4.576229071520373504e-01 3.133387762293234347e-01 2.908951776200410788e-01 3.072215729633886450e-01 3.380739451706255561e-01 3.918238512262277040e-01 3.264764409164284120e-01 3.120374644529186892e-01 3.957148302566061426e-01 3.344538452529201011e-01 -2.072262172522977286e-01 2.860474733464624664e-01 2.765119673872981076e-01 2.572837890405960670e-01 2.593340177824783321e-01 3.467225023044592236e-01 3.700134917285232694e-01 3.529215984805333384e-01 6.891080677275039923e-01 4.496483481869595344e-01 3.345189224196710720e-01 3.146491555411368157e-01 -1.557936309414964970e+00 2.948481054701276305e-01 2.132149618738491126e-01 2.748077284317289037e-01 3.072215474580469730e-01 3.410270322166651935e-01 2.047611701692095554e-01 3.065842334059987184e-01 3.084824548460253779e-01 1.938835762627620918e-01 3.766248146293006416e-01 3.162386726258411551e-01 4.747482983374003429e-01 3.337804113759672009e-01 3.315009454994835569e-01 2.839728285902820004e-01 4.372243719589634092e-01 3.081000598307963023e-01 3.042727133456479272e-01 1.795147419787245652e-02 3.098483451470397387e-01 3.742052111193100439e-01 7.500463807540765082e-02 -4.069979241611442755e-01 2.418501993009049666e+00 2.693080066279431306e-01 7.139432090463159186e-01 2.364364439035921972e-01 3.561156055538957643e-01 1.162869090149882378e+00 5.672034705938843180e-01 7.612456693858977719e-01 3.086199785535241880e-01
