# 
#                 ----------------------------------------------------
#                 Data from a 3D direct N-body simulation. 
# 
#                 rows are i-particle; 
#                 coumns are :mass, tag, x ,y, z, vx, vy, vz, ax, ay, az
# 
#                 NTHU, Computational Physics 
# 
#                 ----------------------------------------------------
#                 Time = 0.0
0.000000000000000000e+00 1.000000000000000000e+00 2.000000000000000000e+00 3.000000000000000000e+00 4.000000000000000000e+00 5.000000000000000000e+00 6.000000000000000000e+00 7.000000000000000000e+00 8.000000000000000000e+00 9.000000000000000000e+00 1.000000000000000000e+01 1.100000000000000000e+01 1.200000000000000000e+01 1.300000000000000000e+01 1.400000000000000000e+01 1.500000000000000000e+01 1.600000000000000000e+01 1.700000000000000000e+01 1.800000000000000000e+01 1.900000000000000000e+01 2.000000000000000000e+01 2.100000000000000000e+01 2.200000000000000000e+01 2.300000000000000000e+01 2.400000000000000000e+01 2.500000000000000000e+01 2.600000000000000000e+01 2.700000000000000000e+01 2.800000000000000000e+01 2.900000000000000000e+01 3.000000000000000000e+01 3.100000000000000000e+01 3.200000000000000000e+01 3.300000000000000000e+01 3.400000000000000000e+01 3.500000000000000000e+01 3.600000000000000000e+01 3.700000000000000000e+01 3.800000000000000000e+01 3.900000000000000000e+01 4.000000000000000000e+01 4.100000000000000000e+01 4.200000000000000000e+01 4.300000000000000000e+01 4.400000000000000000e+01 4.500000000000000000e+01 4.600000000000000000e+01 4.700000000000000000e+01 4.800000000000000000e+01 4.900000000000000000e+01 5.000000000000000000e+01 5.100000000000000000e+01 5.200000000000000000e+01 5.300000000000000000e+01 5.400000000000000000e+01 5.500000000000000000e+01 5.600000000000000000e+01 5.700000000000000000e+01 5.800000000000000000e+01 5.900000000000000000e+01 6.000000000000000000e+01 6.100000000000000000e+01 6.200000000000000000e+01 6.300000000000000000e+01 6.400000000000000000e+01 6.500000000000000000e+01 6.600000000000000000e+01 6.700000000000000000e+01 6.800000000000000000e+01 6.900000000000000000e+01 7.000000000000000000e+01 7.100000000000000000e+01 7.200000000000000000e+01 7.300000000000000000e+01 7.400000000000000000e+01 7.500000000000000000e+01 7.600000000000000000e+01 7.700000000000000000e+01 7.800000000000000000e+01 7.900000000000000000e+01 8.000000000000000000e+01 8.100000000000000000e+01 8.200000000000000000e+01 8.300000000000000000e+01 8.400000000000000000e+01 8.500000000000000000e+01 8.600000000000000000e+01 8.700000000000000000e+01 8.800000000000000000e+01 8.900000000000000000e+01 9.000000000000000000e+01 9.100000000000000000e+01 9.200000000000000000e+01 9.300000000000000000e+01 9.400000000000000000e+01 9.500000000000000000e+01 9.600000000000000000e+01 9.700000000000000000e+01 9.800000000000000000e+01 9.900000000000000000e+01 1.000000000000000000e+02 1.010000000000000000e+02 1.020000000000000000e+02 1.030000000000000000e+02 1.040000000000000000e+02 1.050000000000000000e+02 1.060000000000000000e+02 1.070000000000000000e+02 1.080000000000000000e+02 1.090000000000000000e+02 1.100000000000000000e+02 1.110000000000000000e+02 1.120000000000000000e+02 1.130000000000000000e+02 1.140000000000000000e+02 1.150000000000000000e+02 1.160000000000000000e+02 1.170000000000000000e+02 1.180000000000000000e+02 1.190000000000000000e+02 1.200000000000000000e+02 1.210000000000000000e+02 1.220000000000000000e+02 1.230000000000000000e+02 1.240000000000000000e+02 1.250000000000000000e+02 1.260000000000000000e+02 1.270000000000000000e+02 1.280000000000000000e+02 1.290000000000000000e+02 1.300000000000000000e+02 1.310000000000000000e+02 1.320000000000000000e+02 1.330000000000000000e+02 1.340000000000000000e+02 1.350000000000000000e+02 1.360000000000000000e+02 1.370000000000000000e+02 1.380000000000000000e+02 1.390000000000000000e+02 1.400000000000000000e+02 1.410000000000000000e+02 1.420000000000000000e+02 1.430000000000000000e+02 1.440000000000000000e+02 1.450000000000000000e+02 1.460000000000000000e+02 1.470000000000000000e+02 1.480000000000000000e+02 1.490000000000000000e+02 1.500000000000000000e+02 1.510000000000000000e+02 1.520000000000000000e+02 1.530000000000000000e+02 1.540000000000000000e+02 1.550000000000000000e+02 1.560000000000000000e+02 1.570000000000000000e+02 1.580000000000000000e+02 1.590000000000000000e+02 1.600000000000000000e+02 1.610000000000000000e+02 1.620000000000000000e+02 1.630000000000000000e+02 1.640000000000000000e+02 1.650000000000000000e+02 1.660000000000000000e+02 1.670000000000000000e+02 1.680000000000000000e+02 1.690000000000000000e+02 1.700000000000000000e+02 1.710000000000000000e+02 1.720000000000000000e+02 1.730000000000000000e+02 1.740000000000000000e+02 1.750000000000000000e+02 1.760000000000000000e+02 1.770000000000000000e+02 1.780000000000000000e+02 1.790000000000000000e+02 1.800000000000000000e+02 1.810000000000000000e+02 1.820000000000000000e+02 1.830000000000000000e+02 1.840000000000000000e+02 1.850000000000000000e+02 1.860000000000000000e+02 1.870000000000000000e+02 1.880000000000000000e+02 1.890000000000000000e+02 1.900000000000000000e+02 1.910000000000000000e+02 1.920000000000000000e+02 1.930000000000000000e+02 1.940000000000000000e+02 1.950000000000000000e+02 1.960000000000000000e+02 1.970000000000000000e+02 1.980000000000000000e+02 1.990000000000000000e+02 2.000000000000000000e+02 2.010000000000000000e+02 2.020000000000000000e+02 2.030000000000000000e+02 2.040000000000000000e+02 2.050000000000000000e+02 2.060000000000000000e+02 2.070000000000000000e+02 2.080000000000000000e+02 2.090000000000000000e+02 2.100000000000000000e+02 2.110000000000000000e+02 2.120000000000000000e+02 2.130000000000000000e+02 2.140000000000000000e+02 2.150000000000000000e+02 2.160000000000000000e+02 2.170000000000000000e+02 2.180000000000000000e+02 2.190000000000000000e+02 2.200000000000000000e+02 2.210000000000000000e+02 2.220000000000000000e+02 2.230000000000000000e+02 2.240000000000000000e+02 2.250000000000000000e+02 2.260000000000000000e+02 2.270000000000000000e+02 2.280000000000000000e+02 2.290000000000000000e+02 2.300000000000000000e+02 2.310000000000000000e+02 2.320000000000000000e+02 2.330000000000000000e+02 2.340000000000000000e+02 2.350000000000000000e+02 2.360000000000000000e+02 2.370000000000000000e+02 2.380000000000000000e+02 2.390000000000000000e+02 2.400000000000000000e+02 2.410000000000000000e+02 2.420000000000000000e+02 2.430000000000000000e+02 2.440000000000000000e+02 2.450000000000000000e+02 2.460000000000000000e+02 2.470000000000000000e+02 2.480000000000000000e+02 2.490000000000000000e+02 2.500000000000000000e+02 2.510000000000000000e+02 2.520000000000000000e+02 2.530000000000000000e+02 2.540000000000000000e+02 2.550000000000000000e+02 2.560000000000000000e+02 2.570000000000000000e+02 2.580000000000000000e+02 2.590000000000000000e+02 2.600000000000000000e+02 2.610000000000000000e+02 2.620000000000000000e+02 2.630000000000000000e+02 2.640000000000000000e+02 2.650000000000000000e+02 2.660000000000000000e+02 2.670000000000000000e+02 2.680000000000000000e+02 2.690000000000000000e+02 2.700000000000000000e+02 2.710000000000000000e+02 2.720000000000000000e+02 2.730000000000000000e+02 2.740000000000000000e+02 2.750000000000000000e+02 2.760000000000000000e+02 2.770000000000000000e+02 2.780000000000000000e+02 2.790000000000000000e+02 2.800000000000000000e+02 2.810000000000000000e+02 2.820000000000000000e+02 2.830000000000000000e+02 2.840000000000000000e+02 2.850000000000000000e+02 2.860000000000000000e+02 2.870000000000000000e+02 2.880000000000000000e+02 2.890000000000000000e+02 2.900000000000000000e+02 2.910000000000000000e+02 2.920000000000000000e+02 2.930000000000000000e+02 2.940000000000000000e+02 2.950000000000000000e+02 2.960000000000000000e+02 2.970000000000000000e+02 2.980000000000000000e+02 2.990000000000000000e+02 3.000000000000000000e+02 3.010000000000000000e+02 3.020000000000000000e+02 3.030000000000000000e+02 3.040000000000000000e+02 3.050000000000000000e+02 3.060000000000000000e+02 3.070000000000000000e+02 3.080000000000000000e+02 3.090000000000000000e+02 3.100000000000000000e+02 3.110000000000000000e+02 3.120000000000000000e+02 3.130000000000000000e+02 3.140000000000000000e+02 3.150000000000000000e+02 3.160000000000000000e+02 3.170000000000000000e+02 3.180000000000000000e+02 3.190000000000000000e+02 3.200000000000000000e+02 3.210000000000000000e+02 3.220000000000000000e+02 3.230000000000000000e+02 3.240000000000000000e+02 3.250000000000000000e+02 3.260000000000000000e+02 3.270000000000000000e+02 3.280000000000000000e+02 3.290000000000000000e+02 3.300000000000000000e+02 3.310000000000000000e+02 3.320000000000000000e+02 3.330000000000000000e+02 3.340000000000000000e+02 3.350000000000000000e+02 3.360000000000000000e+02 3.370000000000000000e+02 3.380000000000000000e+02 3.390000000000000000e+02 3.400000000000000000e+02 3.410000000000000000e+02 3.420000000000000000e+02 3.430000000000000000e+02 3.440000000000000000e+02 3.450000000000000000e+02 3.460000000000000000e+02 3.470000000000000000e+02 3.480000000000000000e+02 3.490000000000000000e+02 3.500000000000000000e+02 3.510000000000000000e+02 3.520000000000000000e+02 3.530000000000000000e+02 3.540000000000000000e+02 3.550000000000000000e+02 3.560000000000000000e+02 3.570000000000000000e+02 3.580000000000000000e+02 3.590000000000000000e+02 3.600000000000000000e+02 3.610000000000000000e+02 3.620000000000000000e+02 3.630000000000000000e+02 3.640000000000000000e+02 3.650000000000000000e+02 3.660000000000000000e+02 3.670000000000000000e+02 3.680000000000000000e+02 3.690000000000000000e+02 3.700000000000000000e+02 3.710000000000000000e+02 3.720000000000000000e+02 3.730000000000000000e+02 3.740000000000000000e+02 3.750000000000000000e+02 3.760000000000000000e+02 3.770000000000000000e+02 3.780000000000000000e+02 3.790000000000000000e+02 3.800000000000000000e+02 3.810000000000000000e+02 3.820000000000000000e+02 3.830000000000000000e+02 3.840000000000000000e+02 3.850000000000000000e+02 3.860000000000000000e+02 3.870000000000000000e+02 3.880000000000000000e+02 3.890000000000000000e+02 3.900000000000000000e+02 3.910000000000000000e+02 3.920000000000000000e+02 3.930000000000000000e+02 3.940000000000000000e+02 3.950000000000000000e+02 3.960000000000000000e+02 3.970000000000000000e+02 3.980000000000000000e+02 3.990000000000000000e+02 4.000000000000000000e+02 4.010000000000000000e+02 4.020000000000000000e+02 4.030000000000000000e+02 4.040000000000000000e+02 4.050000000000000000e+02 4.060000000000000000e+02 4.070000000000000000e+02 4.080000000000000000e+02 4.090000000000000000e+02 4.100000000000000000e+02 4.110000000000000000e+02 4.120000000000000000e+02 4.130000000000000000e+02 4.140000000000000000e+02 4.150000000000000000e+02 4.160000000000000000e+02 4.170000000000000000e+02 4.180000000000000000e+02 4.190000000000000000e+02 4.200000000000000000e+02 4.210000000000000000e+02 4.220000000000000000e+02 4.230000000000000000e+02 4.240000000000000000e+02 4.250000000000000000e+02 4.260000000000000000e+02 4.270000000000000000e+02 4.280000000000000000e+02 4.290000000000000000e+02 4.300000000000000000e+02 4.310000000000000000e+02 4.320000000000000000e+02 4.330000000000000000e+02 4.340000000000000000e+02 4.350000000000000000e+02 4.360000000000000000e+02 4.370000000000000000e+02 4.380000000000000000e+02 4.390000000000000000e+02 4.400000000000000000e+02 4.410000000000000000e+02 4.420000000000000000e+02 4.430000000000000000e+02 4.440000000000000000e+02 4.450000000000000000e+02 4.460000000000000000e+02 4.470000000000000000e+02 4.480000000000000000e+02 4.490000000000000000e+02 4.500000000000000000e+02 4.510000000000000000e+02 4.520000000000000000e+02 4.530000000000000000e+02 4.540000000000000000e+02 4.550000000000000000e+02 4.560000000000000000e+02 4.570000000000000000e+02 4.580000000000000000e+02 4.590000000000000000e+02 4.600000000000000000e+02 4.610000000000000000e+02 4.620000000000000000e+02 4.630000000000000000e+02 4.640000000000000000e+02 4.650000000000000000e+02 4.660000000000000000e+02 4.670000000000000000e+02 4.680000000000000000e+02 4.690000000000000000e+02 4.700000000000000000e+02 4.710000000000000000e+02 4.720000000000000000e+02 4.730000000000000000e+02 4.740000000000000000e+02 4.750000000000000000e+02 4.760000000000000000e+02 4.770000000000000000e+02 4.780000000000000000e+02 4.790000000000000000e+02 4.800000000000000000e+02 4.810000000000000000e+02 4.820000000000000000e+02 4.830000000000000000e+02 4.840000000000000000e+02 4.850000000000000000e+02 4.860000000000000000e+02 4.870000000000000000e+02 4.880000000000000000e+02 4.890000000000000000e+02 4.900000000000000000e+02 4.910000000000000000e+02 4.920000000000000000e+02 4.930000000000000000e+02 4.940000000000000000e+02 4.950000000000000000e+02 4.960000000000000000e+02 4.970000000000000000e+02 4.980000000000000000e+02 4.990000000000000000e+02 5.000000000000000000e+02 5.010000000000000000e+02 5.020000000000000000e+02 5.030000000000000000e+02 5.040000000000000000e+02 5.050000000000000000e+02 5.060000000000000000e+02 5.070000000000000000e+02 5.080000000000000000e+02 5.090000000000000000e+02 5.100000000000000000e+02 5.110000000000000000e+02 5.120000000000000000e+02 5.130000000000000000e+02 5.140000000000000000e+02 5.150000000000000000e+02 5.160000000000000000e+02 5.170000000000000000e+02 5.180000000000000000e+02 5.190000000000000000e+02 5.200000000000000000e+02 5.210000000000000000e+02 5.220000000000000000e+02 5.230000000000000000e+02 5.240000000000000000e+02 5.250000000000000000e+02 5.260000000000000000e+02 5.270000000000000000e+02 5.280000000000000000e+02 5.290000000000000000e+02 5.300000000000000000e+02 5.310000000000000000e+02 5.320000000000000000e+02 5.330000000000000000e+02 5.340000000000000000e+02 5.350000000000000000e+02 5.360000000000000000e+02 5.370000000000000000e+02 5.380000000000000000e+02 5.390000000000000000e+02 5.400000000000000000e+02 5.410000000000000000e+02 5.420000000000000000e+02 5.430000000000000000e+02 5.440000000000000000e+02 5.450000000000000000e+02 5.460000000000000000e+02 5.470000000000000000e+02 5.480000000000000000e+02 5.490000000000000000e+02 5.500000000000000000e+02 5.510000000000000000e+02 5.520000000000000000e+02 5.530000000000000000e+02 5.540000000000000000e+02 5.550000000000000000e+02 5.560000000000000000e+02 5.570000000000000000e+02 5.580000000000000000e+02 5.590000000000000000e+02 5.600000000000000000e+02 5.610000000000000000e+02 5.620000000000000000e+02 5.630000000000000000e+02 5.640000000000000000e+02 5.650000000000000000e+02 5.660000000000000000e+02 5.670000000000000000e+02 5.680000000000000000e+02 5.690000000000000000e+02 5.700000000000000000e+02 5.710000000000000000e+02 5.720000000000000000e+02 5.730000000000000000e+02 5.740000000000000000e+02 5.750000000000000000e+02 5.760000000000000000e+02 5.770000000000000000e+02 5.780000000000000000e+02 5.790000000000000000e+02 5.800000000000000000e+02 5.810000000000000000e+02 5.820000000000000000e+02 5.830000000000000000e+02 5.840000000000000000e+02 5.850000000000000000e+02 5.860000000000000000e+02 5.870000000000000000e+02 5.880000000000000000e+02 5.890000000000000000e+02 5.900000000000000000e+02 5.910000000000000000e+02 5.920000000000000000e+02 5.930000000000000000e+02 5.940000000000000000e+02 5.950000000000000000e+02 5.960000000000000000e+02 5.970000000000000000e+02 5.980000000000000000e+02 5.990000000000000000e+02 6.000000000000000000e+02 6.010000000000000000e+02 6.020000000000000000e+02 6.030000000000000000e+02 6.040000000000000000e+02 6.050000000000000000e+02 6.060000000000000000e+02 6.070000000000000000e+02 6.080000000000000000e+02 6.090000000000000000e+02 6.100000000000000000e+02 6.110000000000000000e+02 6.120000000000000000e+02 6.130000000000000000e+02 6.140000000000000000e+02 6.150000000000000000e+02 6.160000000000000000e+02 6.170000000000000000e+02 6.180000000000000000e+02 6.190000000000000000e+02 6.200000000000000000e+02 6.210000000000000000e+02 6.220000000000000000e+02 6.230000000000000000e+02 6.240000000000000000e+02 6.250000000000000000e+02 6.260000000000000000e+02 6.270000000000000000e+02 6.280000000000000000e+02 6.290000000000000000e+02 6.300000000000000000e+02 6.310000000000000000e+02 6.320000000000000000e+02 6.330000000000000000e+02 6.340000000000000000e+02 6.350000000000000000e+02 6.360000000000000000e+02 6.370000000000000000e+02 6.380000000000000000e+02 6.390000000000000000e+02 6.400000000000000000e+02 6.410000000000000000e+02 6.420000000000000000e+02 6.430000000000000000e+02 6.440000000000000000e+02 6.450000000000000000e+02 6.460000000000000000e+02 6.470000000000000000e+02 6.480000000000000000e+02 6.490000000000000000e+02 6.500000000000000000e+02 6.510000000000000000e+02 6.520000000000000000e+02 6.530000000000000000e+02 6.540000000000000000e+02 6.550000000000000000e+02 6.560000000000000000e+02 6.570000000000000000e+02 6.580000000000000000e+02 6.590000000000000000e+02 6.600000000000000000e+02 6.610000000000000000e+02 6.620000000000000000e+02 6.630000000000000000e+02 6.640000000000000000e+02 6.650000000000000000e+02 6.660000000000000000e+02 6.670000000000000000e+02 6.680000000000000000e+02 6.690000000000000000e+02 6.700000000000000000e+02 6.710000000000000000e+02 6.720000000000000000e+02 6.730000000000000000e+02 6.740000000000000000e+02 6.750000000000000000e+02 6.760000000000000000e+02 6.770000000000000000e+02 6.780000000000000000e+02 6.790000000000000000e+02 6.800000000000000000e+02 6.810000000000000000e+02 6.820000000000000000e+02 6.830000000000000000e+02 6.840000000000000000e+02 6.850000000000000000e+02 6.860000000000000000e+02 6.870000000000000000e+02 6.880000000000000000e+02 6.890000000000000000e+02 6.900000000000000000e+02 6.910000000000000000e+02 6.920000000000000000e+02 6.930000000000000000e+02 6.940000000000000000e+02 6.950000000000000000e+02 6.960000000000000000e+02 6.970000000000000000e+02 6.980000000000000000e+02 6.990000000000000000e+02 7.000000000000000000e+02 7.010000000000000000e+02 7.020000000000000000e+02 7.030000000000000000e+02 7.040000000000000000e+02 7.050000000000000000e+02 7.060000000000000000e+02 7.070000000000000000e+02 7.080000000000000000e+02 7.090000000000000000e+02 7.100000000000000000e+02 7.110000000000000000e+02 7.120000000000000000e+02 7.130000000000000000e+02 7.140000000000000000e+02 7.150000000000000000e+02 7.160000000000000000e+02 7.170000000000000000e+02 7.180000000000000000e+02 7.190000000000000000e+02 7.200000000000000000e+02 7.210000000000000000e+02 7.220000000000000000e+02 7.230000000000000000e+02 7.240000000000000000e+02 7.250000000000000000e+02 7.260000000000000000e+02 7.270000000000000000e+02 7.280000000000000000e+02 7.290000000000000000e+02 7.300000000000000000e+02 7.310000000000000000e+02 7.320000000000000000e+02 7.330000000000000000e+02 7.340000000000000000e+02 7.350000000000000000e+02 7.360000000000000000e+02 7.370000000000000000e+02 7.380000000000000000e+02 7.390000000000000000e+02 7.400000000000000000e+02 7.410000000000000000e+02 7.420000000000000000e+02 7.430000000000000000e+02 7.440000000000000000e+02 7.450000000000000000e+02 7.460000000000000000e+02 7.470000000000000000e+02 7.480000000000000000e+02 7.490000000000000000e+02 7.500000000000000000e+02 7.510000000000000000e+02 7.520000000000000000e+02 7.530000000000000000e+02 7.540000000000000000e+02 7.550000000000000000e+02 7.560000000000000000e+02 7.570000000000000000e+02 7.580000000000000000e+02 7.590000000000000000e+02 7.600000000000000000e+02 7.610000000000000000e+02 7.620000000000000000e+02 7.630000000000000000e+02 7.640000000000000000e+02 7.650000000000000000e+02 7.660000000000000000e+02 7.670000000000000000e+02 7.680000000000000000e+02 7.690000000000000000e+02 7.700000000000000000e+02 7.710000000000000000e+02 7.720000000000000000e+02 7.730000000000000000e+02 7.740000000000000000e+02 7.750000000000000000e+02 7.760000000000000000e+02 7.770000000000000000e+02 7.780000000000000000e+02 7.790000000000000000e+02 7.800000000000000000e+02 7.810000000000000000e+02 7.820000000000000000e+02 7.830000000000000000e+02 7.840000000000000000e+02 7.850000000000000000e+02 7.860000000000000000e+02 7.870000000000000000e+02 7.880000000000000000e+02 7.890000000000000000e+02 7.900000000000000000e+02 7.910000000000000000e+02 7.920000000000000000e+02 7.930000000000000000e+02 7.940000000000000000e+02 7.950000000000000000e+02 7.960000000000000000e+02 7.970000000000000000e+02 7.980000000000000000e+02 7.990000000000000000e+02 8.000000000000000000e+02 8.010000000000000000e+02 8.020000000000000000e+02 8.030000000000000000e+02 8.040000000000000000e+02 8.050000000000000000e+02 8.060000000000000000e+02 8.070000000000000000e+02 8.080000000000000000e+02 8.090000000000000000e+02 8.100000000000000000e+02 8.110000000000000000e+02 8.120000000000000000e+02 8.130000000000000000e+02 8.140000000000000000e+02 8.150000000000000000e+02 8.160000000000000000e+02 8.170000000000000000e+02 8.180000000000000000e+02 8.190000000000000000e+02 8.200000000000000000e+02 8.210000000000000000e+02 8.220000000000000000e+02 8.230000000000000000e+02 8.240000000000000000e+02 8.250000000000000000e+02 8.260000000000000000e+02 8.270000000000000000e+02 8.280000000000000000e+02 8.290000000000000000e+02 8.300000000000000000e+02 8.310000000000000000e+02 8.320000000000000000e+02 8.330000000000000000e+02 8.340000000000000000e+02 8.350000000000000000e+02 8.360000000000000000e+02 8.370000000000000000e+02 8.380000000000000000e+02 8.390000000000000000e+02 8.400000000000000000e+02 8.410000000000000000e+02 8.420000000000000000e+02 8.430000000000000000e+02 8.440000000000000000e+02 8.450000000000000000e+02 8.460000000000000000e+02 8.470000000000000000e+02 8.480000000000000000e+02 8.490000000000000000e+02 8.500000000000000000e+02 8.510000000000000000e+02 8.520000000000000000e+02 8.530000000000000000e+02 8.540000000000000000e+02 8.550000000000000000e+02 8.560000000000000000e+02 8.570000000000000000e+02 8.580000000000000000e+02 8.590000000000000000e+02 8.600000000000000000e+02 8.610000000000000000e+02 8.620000000000000000e+02 8.630000000000000000e+02 8.640000000000000000e+02 8.650000000000000000e+02 8.660000000000000000e+02 8.670000000000000000e+02 8.680000000000000000e+02 8.690000000000000000e+02 8.700000000000000000e+02 8.710000000000000000e+02 8.720000000000000000e+02 8.730000000000000000e+02 8.740000000000000000e+02 8.750000000000000000e+02 8.760000000000000000e+02 8.770000000000000000e+02 8.780000000000000000e+02 8.790000000000000000e+02 8.800000000000000000e+02 8.810000000000000000e+02 8.820000000000000000e+02 8.830000000000000000e+02 8.840000000000000000e+02 8.850000000000000000e+02 8.860000000000000000e+02 8.870000000000000000e+02 8.880000000000000000e+02 8.890000000000000000e+02 8.900000000000000000e+02 8.910000000000000000e+02 8.920000000000000000e+02 8.930000000000000000e+02 8.940000000000000000e+02 8.950000000000000000e+02 8.960000000000000000e+02 8.970000000000000000e+02 8.980000000000000000e+02 8.990000000000000000e+02 9.000000000000000000e+02 9.010000000000000000e+02 9.020000000000000000e+02 9.030000000000000000e+02 9.040000000000000000e+02 9.050000000000000000e+02 9.060000000000000000e+02 9.070000000000000000e+02 9.080000000000000000e+02 9.090000000000000000e+02 9.100000000000000000e+02 9.110000000000000000e+02 9.120000000000000000e+02 9.130000000000000000e+02 9.140000000000000000e+02 9.150000000000000000e+02 9.160000000000000000e+02 9.170000000000000000e+02 9.180000000000000000e+02 9.190000000000000000e+02 9.200000000000000000e+02 9.210000000000000000e+02 9.220000000000000000e+02 9.230000000000000000e+02 9.240000000000000000e+02 9.250000000000000000e+02 9.260000000000000000e+02 9.270000000000000000e+02 9.280000000000000000e+02 9.290000000000000000e+02 9.300000000000000000e+02 9.310000000000000000e+02 9.320000000000000000e+02 9.330000000000000000e+02 9.340000000000000000e+02 9.350000000000000000e+02 9.360000000000000000e+02 9.370000000000000000e+02 9.380000000000000000e+02 9.390000000000000000e+02 9.400000000000000000e+02 9.410000000000000000e+02 9.420000000000000000e+02 9.430000000000000000e+02 9.440000000000000000e+02 9.450000000000000000e+02 9.460000000000000000e+02 9.470000000000000000e+02 9.480000000000000000e+02 9.490000000000000000e+02 9.500000000000000000e+02 9.510000000000000000e+02 9.520000000000000000e+02 9.530000000000000000e+02 9.540000000000000000e+02 9.550000000000000000e+02 9.560000000000000000e+02 9.570000000000000000e+02 9.580000000000000000e+02 9.590000000000000000e+02 9.600000000000000000e+02 9.610000000000000000e+02 9.620000000000000000e+02 9.630000000000000000e+02 9.640000000000000000e+02 9.650000000000000000e+02 9.660000000000000000e+02 9.670000000000000000e+02 9.680000000000000000e+02 9.690000000000000000e+02 9.700000000000000000e+02 9.710000000000000000e+02 9.720000000000000000e+02 9.730000000000000000e+02 9.740000000000000000e+02 9.750000000000000000e+02 9.760000000000000000e+02 9.770000000000000000e+02 9.780000000000000000e+02 9.790000000000000000e+02 9.800000000000000000e+02 9.810000000000000000e+02 9.820000000000000000e+02 9.830000000000000000e+02 9.840000000000000000e+02 9.850000000000000000e+02 9.860000000000000000e+02 9.870000000000000000e+02 9.880000000000000000e+02 9.890000000000000000e+02 9.900000000000000000e+02 9.910000000000000000e+02 9.920000000000000000e+02 9.930000000000000000e+02 9.940000000000000000e+02 9.950000000000000000e+02 9.960000000000000000e+02 9.970000000000000000e+02 9.980000000000000000e+02 9.990000000000000000e+02
1.000000000000000000e+00 1.000000000000000000e+00 1.000000000000000000e+00 1.000000000000000000e+00 1.000000000000000000e+00 1.000000000000000000e+00 1.000000000000000000e+00 1.000000000000000000e+00 1.000000000000000000e+00 1.000000000000000000e+00 1.000000000000000000e+00 1.000000000000000000e+00 1.000000000000000000e+00 1.000000000000000000e+00 1.000000000000000000e+00 1.000000000000000000e+00 1.000000000000000000e+00 1.000000000000000000e+00 1.000000000000000000e+00 1.000000000000000000e+00 1.000000000000000000e+00 1.000000000000000000e+00 1.000000000000000000e+00 1.000000000000000000e+00 1.000000000000000000e+00 1.000000000000000000e+00 1.000000000000000000e+00 1.000000000000000000e+00 1.000000000000000000e+00 1.000000000000000000e+00 1.000000000000000000e+00 1.000000000000000000e+00 1.000000000000000000e+00 1.000000000000000000e+00 1.000000000000000000e+00 1.000000000000000000e+00 1.000000000000000000e+00 1.000000000000000000e+00 1.000000000000000000e+00 1.000000000000000000e+00 1.000000000000000000e+00 1.000000000000000000e+00 1.000000000000000000e+00 1.000000000000000000e+00 1.000000000000000000e+00 1.000000000000000000e+00 1.000000000000000000e+00 1.000000000000000000e+00 1.000000000000000000e+00 1.000000000000000000e+00 1.000000000000000000e+00 1.000000000000000000e+00 1.000000000000000000e+00 1.000000000000000000e+00 1.000000000000000000e+00 1.000000000000000000e+00 1.000000000000000000e+00 1.000000000000000000e+00 1.000000000000000000e+00 1.000000000000000000e+00 1.000000000000000000e+00 1.000000000000000000e+00 1.000000000000000000e+00 1.000000000000000000e+00 1.000000000000000000e+00 1.000000000000000000e+00 1.000000000000000000e+00 1.000000000000000000e+00 1.000000000000000000e+00 1.000000000000000000e+00 1.000000000000000000e+00 1.000000000000000000e+00 1.000000000000000000e+00 1.000000000000000000e+00 1.000000000000000000e+00 1.000000000000000000e+00 1.000000000000000000e+00 1.000000000000000000e+00 1.000000000000000000e+00 1.000000000000000000e+00 1.000000000000000000e+00 1.000000000000000000e+00 1.000000000000000000e+00 1.000000000000000000e+00 1.000000000000000000e+00 1.000000000000000000e+00 1.000000000000000000e+00 1.000000000000000000e+00 1.000000000000000000e+00 1.000000000000000000e+00 1.000000000000000000e+00 1.000000000000000000e+00 1.000000000000000000e+00 1.000000000000000000e+00 1.000000000000000000e+00 1.000000000000000000e+00 1.000000000000000000e+00 1.000000000000000000e+00 1.000000000000000000e+00 1.000000000000000000e+00 1.000000000000000000e+00 1.000000000000000000e+00 1.000000000000000000e+00 1.000000000000000000e+00 1.000000000000000000e+00 1.000000000000000000e+00 1.000000000000000000e+00 1.000000000000000000e+00 1.000000000000000000e+00 1.000000000000000000e+00 1.000000000000000000e+00 1.000000000000000000e+00 1.000000000000000000e+00 1.000000000000000000e+00 1.000000000000000000e+00 1.000000000000000000e+00 1.000000000000000000e+00 1.000000000000000000e+00 1.000000000000000000e+00 1.000000000000000000e+00 1.000000000000000000e+00 1.000000000000000000e+00 1.000000000000000000e+00 1.000000000000000000e+00 1.000000000000000000e+00 1.000000000000000000e+00 1.000000000000000000e+00 1.000000000000000000e+00 1.000000000000000000e+00 1.000000000000000000e+00 1.000000000000000000e+00 1.000000000000000000e+00 1.000000000000000000e+00 1.000000000000000000e+00 1.000000000000000000e+00 1.000000000000000000e+00 1.000000000000000000e+00 1.000000000000000000e+00 1.000000000000000000e+00 1.000000000000000000e+00 1.000000000000000000e+00 1.000000000000000000e+00 1.000000000000000000e+00 1.000000000000000000e+00 1.000000000000000000e+00 1.000000000000000000e+00 1.000000000000000000e+00 1.000000000000000000e+00 1.000000000000000000e+00 1.000000000000000000e+00 1.000000000000000000e+00 1.000000000000000000e+00 1.000000000000000000e+00 1.000000000000000000e+00 1.000000000000000000e+00 1.000000000000000000e+00 1.000000000000000000e+00 1.000000000000000000e+00 1.000000000000000000e+00 1.000000000000000000e+00 1.000000000000000000e+00 1.000000000000000000e+00 1.000000000000000000e+00 1.000000000000000000e+00 1.000000000000000000e+00 1.000000000000000000e+00 1.000000000000000000e+00 1.000000000000000000e+00 1.000000000000000000e+00 1.000000000000000000e+00 1.000000000000000000e+00 1.000000000000000000e+00 1.000000000000000000e+00 1.000000000000000000e+00 1.000000000000000000e+00 1.000000000000000000e+00 1.000000000000000000e+00 1.000000000000000000e+00 1.000000000000000000e+00 1.000000000000000000e+00 1.000000000000000000e+00 1.000000000000000000e+00 1.000000000000000000e+00 1.000000000000000000e+00 1.000000000000000000e+00 1.000000000000000000e+00 1.000000000000000000e+00 1.000000000000000000e+00 1.000000000000000000e+00 1.000000000000000000e+00 1.000000000000000000e+00 1.000000000000000000e+00 1.000000000000000000e+00 1.000000000000000000e+00 1.000000000000000000e+00 1.000000000000000000e+00 1.000000000000000000e+00 1.000000000000000000e+00 1.000000000000000000e+00 1.000000000000000000e+00 1.000000000000000000e+00 1.000000000000000000e+00 1.000000000000000000e+00 1.000000000000000000e+00 1.000000000000000000e+00 1.000000000000000000e+00 1.000000000000000000e+00 1.000000000000000000e+00 1.000000000000000000e+00 1.000000000000000000e+00 1.000000000000000000e+00 1.000000000000000000e+00 1.000000000000000000e+00 1.000000000000000000e+00 1.000000000000000000e+00 1.000000000000000000e+00 1.000000000000000000e+00 1.000000000000000000e+00 1.000000000000000000e+00 1.000000000000000000e+00 1.000000000000000000e+00 1.000000000000000000e+00 1.000000000000000000e+00 1.000000000000000000e+00 1.000000000000000000e+00 1.000000000000000000e+00 1.000000000000000000e+00 1.000000000000000000e+00 1.000000000000000000e+00 1.000000000000000000e+00 1.000000000000000000e+00 1.000000000000000000e+00 1.000000000000000000e+00 1.000000000000000000e+00 1.000000000000000000e+00 1.000000000000000000e+00 1.000000000000000000e+00 1.000000000000000000e+00 1.000000000000000000e+00 1.000000000000000000e+00 1.000000000000000000e+00 1.000000000000000000e+00 1.000000000000000000e+00 1.000000000000000000e+00 1.000000000000000000e+00 1.000000000000000000e+00 1.000000000000000000e+00 1.000000000000000000e+00 1.000000000000000000e+00 1.000000000000000000e+00 1.000000000000000000e+00 1.000000000000000000e+00 1.000000000000000000e+00 1.000000000000000000e+00 1.000000000000000000e+00 1.000000000000000000e+00 1.000000000000000000e+00 1.000000000000000000e+00 1.000000000000000000e+00 1.000000000000000000e+00 1.000000000000000000e+00 1.000000000000000000e+00 1.000000000000000000e+00 1.000000000000000000e+00 1.000000000000000000e+00 1.000000000000000000e+00 1.000000000000000000e+00 1.000000000000000000e+00 1.000000000000000000e+00 1.000000000000000000e+00 1.000000000000000000e+00 1.000000000000000000e+00 1.000000000000000000e+00 1.000000000000000000e+00 1.000000000000000000e+00 1.000000000000000000e+00 1.000000000000000000e+00 1.000000000000000000e+00 1.000000000000000000e+00 1.000000000000000000e+00 1.000000000000000000e+00 1.000000000000000000e+00 1.000000000000000000e+00 1.000000000000000000e+00 1.000000000000000000e+00 1.000000000000000000e+00 1.000000000000000000e+00 1.000000000000000000e+00 1.000000000000000000e+00 1.000000000000000000e+00 1.000000000000000000e+00 1.000000000000000000e+00 1.000000000000000000e+00 1.000000000000000000e+00 1.000000000000000000e+00 1.000000000000000000e+00 1.000000000000000000e+00 1.000000000000000000e+00 1.000000000000000000e+00 1.000000000000000000e+00 1.000000000000000000e+00 1.000000000000000000e+00 1.000000000000000000e+00 1.000000000000000000e+00 1.000000000000000000e+00 1.000000000000000000e+00 1.000000000000000000e+00 1.000000000000000000e+00 1.000000000000000000e+00 1.000000000000000000e+00 1.000000000000000000e+00 1.000000000000000000e+00 1.000000000000000000e+00 1.000000000000000000e+00 1.000000000000000000e+00 1.000000000000000000e+00 1.000000000000000000e+00 1.000000000000000000e+00 1.000000000000000000e+00 1.000000000000000000e+00 1.000000000000000000e+00 1.000000000000000000e+00 1.000000000000000000e+00 1.000000000000000000e+00 1.000000000000000000e+00 1.000000000000000000e+00 1.000000000000000000e+00 1.000000000000000000e+00 1.000000000000000000e+00 1.000000000000000000e+00 1.000000000000000000e+00 1.000000000000000000e+00 1.000000000000000000e+00 1.000000000000000000e+00 1.000000000000000000e+00 1.000000000000000000e+00 1.000000000000000000e+00 1.000000000000000000e+00 1.000000000000000000e+00 1.000000000000000000e+00 1.000000000000000000e+00 1.000000000000000000e+00 1.000000000000000000e+00 1.000000000000000000e+00 1.000000000000000000e+00 1.000000000000000000e+00 1.000000000000000000e+00 1.000000000000000000e+00 1.000000000000000000e+00 1.000000000000000000e+00 1.000000000000000000e+00 1.000000000000000000e+00 1.000000000000000000e+00 1.000000000000000000e+00 1.000000000000000000e+00 1.000000000000000000e+00 1.000000000000000000e+00 1.000000000000000000e+00 1.000000000000000000e+00 1.000000000000000000e+00 1.000000000000000000e+00 1.000000000000000000e+00 1.000000000000000000e+00 1.000000000000000000e+00 1.000000000000000000e+00 1.000000000000000000e+00 1.000000000000000000e+00 1.000000000000000000e+00 1.000000000000000000e+00 1.000000000000000000e+00 1.000000000000000000e+00 1.000000000000000000e+00 1.000000000000000000e+00 1.000000000000000000e+00 1.000000000000000000e+00 1.000000000000000000e+00 1.000000000000000000e+00 1.000000000000000000e+00 1.000000000000000000e+00 1.000000000000000000e+00 1.000000000000000000e+00 1.000000000000000000e+00 1.000000000000000000e+00 1.000000000000000000e+00 1.000000000000000000e+00 1.000000000000000000e+00 1.000000000000000000e+00 1.000000000000000000e+00 1.000000000000000000e+00 1.000000000000000000e+00 1.000000000000000000e+00 1.000000000000000000e+00 1.000000000000000000e+00 1.000000000000000000e+00 1.000000000000000000e+00 1.000000000000000000e+00 1.000000000000000000e+00 1.000000000000000000e+00 1.000000000000000000e+00 1.000000000000000000e+00 1.000000000000000000e+00 1.000000000000000000e+00 1.000000000000000000e+00 1.000000000000000000e+00 1.000000000000000000e+00 1.000000000000000000e+00 1.000000000000000000e+00 1.000000000000000000e+00 1.000000000000000000e+00 1.000000000000000000e+00 1.000000000000000000e+00 1.000000000000000000e+00 1.000000000000000000e+00 1.000000000000000000e+00 1.000000000000000000e+00 1.000000000000000000e+00 1.000000000000000000e+00 1.000000000000000000e+00 1.000000000000000000e+00 1.000000000000000000e+00 1.000000000000000000e+00 1.000000000000000000e+00 1.000000000000000000e+00 1.000000000000000000e+00 1.000000000000000000e+00 1.000000000000000000e+00 1.000000000000000000e+00 1.000000000000000000e+00 1.000000000000000000e+00 1.000000000000000000e+00 1.000000000000000000e+00 1.000000000000000000e+00 1.000000000000000000e+00 1.000000000000000000e+00 1.000000000000000000e+00 1.000000000000000000e+00 1.000000000000000000e+00 1.000000000000000000e+00 1.000000000000000000e+00 1.000000000000000000e+00 1.000000000000000000e+00 1.000000000000000000e+00 1.000000000000000000e+00 1.000000000000000000e+00 1.000000000000000000e+00 1.000000000000000000e+00 1.000000000000000000e+00 1.000000000000000000e+00 1.000000000000000000e+00 1.000000000000000000e+00 1.000000000000000000e+00 1.000000000000000000e+00 1.000000000000000000e+00 1.000000000000000000e+00 1.000000000000000000e+00 1.000000000000000000e+00 1.000000000000000000e+00 1.000000000000000000e+00 1.000000000000000000e+00 1.000000000000000000e+00 1.000000000000000000e+00 1.000000000000000000e+00 1.000000000000000000e+00 1.000000000000000000e+00 1.000000000000000000e+00 1.000000000000000000e+00 1.000000000000000000e+00 1.000000000000000000e+00 1.000000000000000000e+00 1.000000000000000000e+00 1.000000000000000000e+00 1.000000000000000000e+00 1.000000000000000000e+00 1.000000000000000000e+00 1.000000000000000000e+00 1.000000000000000000e+00 1.000000000000000000e+00 1.000000000000000000e+00 1.000000000000000000e+00 1.000000000000000000e+00 1.000000000000000000e+00 1.000000000000000000e+00 1.000000000000000000e+00 1.000000000000000000e+00 1.000000000000000000e+00 1.000000000000000000e+00 1.000000000000000000e+00 1.000000000000000000e+00 1.000000000000000000e+00 1.000000000000000000e+00 1.000000000000000000e+00 1.000000000000000000e+00 1.000000000000000000e+00 1.000000000000000000e+00 1.000000000000000000e+00 1.000000000000000000e+00 1.000000000000000000e+00 1.000000000000000000e+00 1.000000000000000000e+00 1.000000000000000000e+00 1.000000000000000000e+00 1.000000000000000000e+00 1.000000000000000000e+00 1.000000000000000000e+00 1.000000000000000000e+00 1.000000000000000000e+00 1.000000000000000000e+00 1.000000000000000000e+00 1.000000000000000000e+00 1.000000000000000000e+00 1.000000000000000000e+00 1.000000000000000000e+00 1.000000000000000000e+00 1.000000000000000000e+00 1.000000000000000000e+00 1.000000000000000000e+00 1.000000000000000000e+00 1.000000000000000000e+00 1.000000000000000000e+00 1.000000000000000000e+00 1.000000000000000000e+00 1.000000000000000000e+00 1.000000000000000000e+00 1.000000000000000000e+00 1.000000000000000000e+00 1.000000000000000000e+00 1.000000000000000000e+00 1.000000000000000000e+00 1.000000000000000000e+00 1.000000000000000000e+00 1.000000000000000000e+00 1.000000000000000000e+00 1.000000000000000000e+00 1.000000000000000000e+00 1.000000000000000000e+00 1.000000000000000000e+00 1.000000000000000000e+00 1.000000000000000000e+00 1.000000000000000000e+00 1.000000000000000000e+00 1.000000000000000000e+00 1.000000000000000000e+00 1.000000000000000000e+00 1.000000000000000000e+00 1.000000000000000000e+00 1.000000000000000000e+00 1.000000000000000000e+00 1.000000000000000000e+00 1.000000000000000000e+00 1.000000000000000000e+00 1.000000000000000000e+00 1.000000000000000000e+00 1.000000000000000000e+00 1.000000000000000000e+00 1.000000000000000000e+00 1.000000000000000000e+00 1.000000000000000000e+00 1.000000000000000000e+00 1.000000000000000000e+00 1.000000000000000000e+00 1.000000000000000000e+00 1.000000000000000000e+00 1.000000000000000000e+00 1.000000000000000000e+00 1.000000000000000000e+00 1.000000000000000000e+00 1.000000000000000000e+00 1.000000000000000000e+00 1.000000000000000000e+00 1.000000000000000000e+00 1.000000000000000000e+00 1.000000000000000000e+00 1.000000000000000000e+00 1.000000000000000000e+00 1.000000000000000000e+00 1.000000000000000000e+00 1.000000000000000000e+00 1.000000000000000000e+00 1.000000000000000000e+00 1.000000000000000000e+00 1.000000000000000000e+00 1.000000000000000000e+00 1.000000000000000000e+00 1.000000000000000000e+00 1.000000000000000000e+00 1.000000000000000000e+00 1.000000000000000000e+00 1.000000000000000000e+00 1.000000000000000000e+00 1.000000000000000000e+00 1.000000000000000000e+00 1.000000000000000000e+00 1.000000000000000000e+00 1.000000000000000000e+00 1.000000000000000000e+00 1.000000000000000000e+00 1.000000000000000000e+00 1.000000000000000000e+00 1.000000000000000000e+00 1.000000000000000000e+00 1.000000000000000000e+00 1.000000000000000000e+00 1.000000000000000000e+00 1.000000000000000000e+00 1.000000000000000000e+00 1.000000000000000000e+00 1.000000000000000000e+00 1.000000000000000000e+00 1.000000000000000000e+00 1.000000000000000000e+00 1.000000000000000000e+00 1.000000000000000000e+00 1.000000000000000000e+00 1.000000000000000000e+00 1.000000000000000000e+00 1.000000000000000000e+00 1.000000000000000000e+00 1.000000000000000000e+00 1.000000000000000000e+00 1.000000000000000000e+00 1.000000000000000000e+00 1.000000000000000000e+00 1.000000000000000000e+00 1.000000000000000000e+00 1.000000000000000000e+00 1.000000000000000000e+00 1.000000000000000000e+00 1.000000000000000000e+00 1.000000000000000000e+00 1.000000000000000000e+00 1.000000000000000000e+00 1.000000000000000000e+00 1.000000000000000000e+00 1.000000000000000000e+00 1.000000000000000000e+00 1.000000000000000000e+00 1.000000000000000000e+00 1.000000000000000000e+00 1.000000000000000000e+00 1.000000000000000000e+00 1.000000000000000000e+00 1.000000000000000000e+00 1.000000000000000000e+00 1.000000000000000000e+00 1.000000000000000000e+00 1.000000000000000000e+00 1.000000000000000000e+00 1.000000000000000000e+00 1.000000000000000000e+00 1.000000000000000000e+00 1.000000000000000000e+00 1.000000000000000000e+00 1.000000000000000000e+00 1.000000000000000000e+00 1.000000000000000000e+00 1.000000000000000000e+00 1.000000000000000000e+00 1.000000000000000000e+00 1.000000000000000000e+00 1.000000000000000000e+00 1.000000000000000000e+00 1.000000000000000000e+00 1.000000000000000000e+00 1.000000000000000000e+00 1.000000000000000000e+00 1.000000000000000000e+00 1.000000000000000000e+00 1.000000000000000000e+00 1.000000000000000000e+00 1.000000000000000000e+00 1.000000000000000000e+00 1.000000000000000000e+00 1.000000000000000000e+00 1.000000000000000000e+00 1.000000000000000000e+00 1.000000000000000000e+00 1.000000000000000000e+00 1.000000000000000000e+00 1.000000000000000000e+00 1.000000000000000000e+00 1.000000000000000000e+00 1.000000000000000000e+00 1.000000000000000000e+00 1.000000000000000000e+00 1.000000000000000000e+00 1.000000000000000000e+00 1.000000000000000000e+00 1.000000000000000000e+00 1.000000000000000000e+00 1.000000000000000000e+00 1.000000000000000000e+00 1.000000000000000000e+00 1.000000000000000000e+00 1.000000000000000000e+00 1.000000000000000000e+00 1.000000000000000000e+00 1.000000000000000000e+00 1.000000000000000000e+00 1.000000000000000000e+00 1.000000000000000000e+00 1.000000000000000000e+00 1.000000000000000000e+00 1.000000000000000000e+00 1.000000000000000000e+00 1.000000000000000000e+00 1.000000000000000000e+00 1.000000000000000000e+00 1.000000000000000000e+00 1.000000000000000000e+00 1.000000000000000000e+00 1.000000000000000000e+00 1.000000000000000000e+00 1.000000000000000000e+00 1.000000000000000000e+00 1.000000000000000000e+00 1.000000000000000000e+00 1.000000000000000000e+00 1.000000000000000000e+00 1.000000000000000000e+00 1.000000000000000000e+00 1.000000000000000000e+00 1.000000000000000000e+00 1.000000000000000000e+00 1.000000000000000000e+00 1.000000000000000000e+00 1.000000000000000000e+00 1.000000000000000000e+00 1.000000000000000000e+00 1.000000000000000000e+00 1.000000000000000000e+00 1.000000000000000000e+00 1.000000000000000000e+00 1.000000000000000000e+00 1.000000000000000000e+00 1.000000000000000000e+00 1.000000000000000000e+00 1.000000000000000000e+00 1.000000000000000000e+00 1.000000000000000000e+00 1.000000000000000000e+00 1.000000000000000000e+00 1.000000000000000000e+00 1.000000000000000000e+00 1.000000000000000000e+00 1.000000000000000000e+00 1.000000000000000000e+00 1.000000000000000000e+00 1.000000000000000000e+00 1.000000000000000000e+00 1.000000000000000000e+00 1.000000000000000000e+00 1.000000000000000000e+00 1.000000000000000000e+00 1.000000000000000000e+00 1.000000000000000000e+00 1.000000000000000000e+00 1.000000000000000000e+00 1.000000000000000000e+00 1.000000000000000000e+00 1.000000000000000000e+00 1.000000000000000000e+00 1.000000000000000000e+00 1.000000000000000000e+00 1.000000000000000000e+00 1.000000000000000000e+00 1.000000000000000000e+00 1.000000000000000000e+00 1.000000000000000000e+00 1.000000000000000000e+00 1.000000000000000000e+00 1.000000000000000000e+00 1.000000000000000000e+00 1.000000000000000000e+00 1.000000000000000000e+00 1.000000000000000000e+00 1.000000000000000000e+00 1.000000000000000000e+00 1.000000000000000000e+00 1.000000000000000000e+00 1.000000000000000000e+00 1.000000000000000000e+00 1.000000000000000000e+00 1.000000000000000000e+00 1.000000000000000000e+00 1.000000000000000000e+00 1.000000000000000000e+00 1.000000000000000000e+00 1.000000000000000000e+00 1.000000000000000000e+00 1.000000000000000000e+00 1.000000000000000000e+00 1.000000000000000000e+00 1.000000000000000000e+00 1.000000000000000000e+00 1.000000000000000000e+00 1.000000000000000000e+00 1.000000000000000000e+00 1.000000000000000000e+00 1.000000000000000000e+00 1.000000000000000000e+00 1.000000000000000000e+00 1.000000000000000000e+00 1.000000000000000000e+00 1.000000000000000000e+00 1.000000000000000000e+00 1.000000000000000000e+00 1.000000000000000000e+00 1.000000000000000000e+00 1.000000000000000000e+00 1.000000000000000000e+00 1.000000000000000000e+00 1.000000000000000000e+00 1.000000000000000000e+00 1.000000000000000000e+00 1.000000000000000000e+00 1.000000000000000000e+00 1.000000000000000000e+00 1.000000000000000000e+00 1.000000000000000000e+00 1.000000000000000000e+00 1.000000000000000000e+00 1.000000000000000000e+00 1.000000000000000000e+00 1.000000000000000000e+00 1.000000000000000000e+00 1.000000000000000000e+00 1.000000000000000000e+00 1.000000000000000000e+00 1.000000000000000000e+00 1.000000000000000000e+00 1.000000000000000000e+00 1.000000000000000000e+00 1.000000000000000000e+00 1.000000000000000000e+00 1.000000000000000000e+00 1.000000000000000000e+00 1.000000000000000000e+00 1.000000000000000000e+00 1.000000000000000000e+00 1.000000000000000000e+00 1.000000000000000000e+00 1.000000000000000000e+00 1.000000000000000000e+00 1.000000000000000000e+00 1.000000000000000000e+00 1.000000000000000000e+00 1.000000000000000000e+00 1.000000000000000000e+00 1.000000000000000000e+00 1.000000000000000000e+00 1.000000000000000000e+00 1.000000000000000000e+00 1.000000000000000000e+00 1.000000000000000000e+00 1.000000000000000000e+00 1.000000000000000000e+00 1.000000000000000000e+00 1.000000000000000000e+00 1.000000000000000000e+00 1.000000000000000000e+00 1.000000000000000000e+00 1.000000000000000000e+00 1.000000000000000000e+00 1.000000000000000000e+00 1.000000000000000000e+00 1.000000000000000000e+00 1.000000000000000000e+00 1.000000000000000000e+00 1.000000000000000000e+00 1.000000000000000000e+00 1.000000000000000000e+00 1.000000000000000000e+00 1.000000000000000000e+00 1.000000000000000000e+00 1.000000000000000000e+00 1.000000000000000000e+00 1.000000000000000000e+00 1.000000000000000000e+00 1.000000000000000000e+00 1.000000000000000000e+00 1.000000000000000000e+00 1.000000000000000000e+00 1.000000000000000000e+00 1.000000000000000000e+00 1.000000000000000000e+00 1.000000000000000000e+00 1.000000000000000000e+00 1.000000000000000000e+00 1.000000000000000000e+00 1.000000000000000000e+00 1.000000000000000000e+00 1.000000000000000000e+00 1.000000000000000000e+00 1.000000000000000000e+00 1.000000000000000000e+00 1.000000000000000000e+00 1.000000000000000000e+00 1.000000000000000000e+00 1.000000000000000000e+00 1.000000000000000000e+00 1.000000000000000000e+00 1.000000000000000000e+00 1.000000000000000000e+00 1.000000000000000000e+00 1.000000000000000000e+00 1.000000000000000000e+00 1.000000000000000000e+00 1.000000000000000000e+00 1.000000000000000000e+00 1.000000000000000000e+00 1.000000000000000000e+00 1.000000000000000000e+00 1.000000000000000000e+00 1.000000000000000000e+00 1.000000000000000000e+00 1.000000000000000000e+00 1.000000000000000000e+00 1.000000000000000000e+00 1.000000000000000000e+00 1.000000000000000000e+00 1.000000000000000000e+00 1.000000000000000000e+00 1.000000000000000000e+00 1.000000000000000000e+00 1.000000000000000000e+00 1.000000000000000000e+00 1.000000000000000000e+00 1.000000000000000000e+00 1.000000000000000000e+00 1.000000000000000000e+00 1.000000000000000000e+00 1.000000000000000000e+00 1.000000000000000000e+00 1.000000000000000000e+00 1.000000000000000000e+00 1.000000000000000000e+00 1.000000000000000000e+00 1.000000000000000000e+00 1.000000000000000000e+00 1.000000000000000000e+00 1.000000000000000000e+00 1.000000000000000000e+00 1.000000000000000000e+00 1.000000000000000000e+00 1.000000000000000000e+00 1.000000000000000000e+00 1.000000000000000000e+00 1.000000000000000000e+00 1.000000000000000000e+00 1.000000000000000000e+00 1.000000000000000000e+00 1.000000000000000000e+00 1.000000000000000000e+00 1.000000000000000000e+00 1.000000000000000000e+00 1.000000000000000000e+00 1.000000000000000000e+00 1.000000000000000000e+00 1.000000000000000000e+00 1.000000000000000000e+00 1.000000000000000000e+00 1.000000000000000000e+00 1.000000000000000000e+00 1.000000000000000000e+00 1.000000000000000000e+00 1.000000000000000000e+00 1.000000000000000000e+00 1.000000000000000000e+00 1.000000000000000000e+00 1.000000000000000000e+00 1.000000000000000000e+00 1.000000000000000000e+00 1.000000000000000000e+00 1.000000000000000000e+00 1.000000000000000000e+00 1.000000000000000000e+00 1.000000000000000000e+00 1.000000000000000000e+00 1.000000000000000000e+00 1.000000000000000000e+00 1.000000000000000000e+00 1.000000000000000000e+00 1.000000000000000000e+00 1.000000000000000000e+00 1.000000000000000000e+00 1.000000000000000000e+00 1.000000000000000000e+00 1.000000000000000000e+00 1.000000000000000000e+00 1.000000000000000000e+00 1.000000000000000000e+00 1.000000000000000000e+00 1.000000000000000000e+00 1.000000000000000000e+00 1.000000000000000000e+00 1.000000000000000000e+00 1.000000000000000000e+00 1.000000000000000000e+00 1.000000000000000000e+00 1.000000000000000000e+00
6.184954085809449970e-02 5.385826320065780770e-01 -2.994169347915598411e-01 7.825297465332192726e-01 5.187070639346753609e-01 5.637793778003888923e-01 5.610352537795870731e-01 4.264917352976769216e-01 5.670235639927770910e-01 5.168177227905160764e-01 1.088243679286745147e+00 -7.421163131757380071e-01 1.428851049450548194e+00 4.711719183450167048e-01 5.217013337251416027e-01 4.287438812610271932e-01 8.240676076634207980e-01 9.796331691082561521e-01 7.517601231016741714e-01 5.055797307293802278e-01 3.726715796132246128e-01 9.975840549652925660e-01 3.502832184211030486e-01 5.712533037227580657e-01 6.211512027403093272e-02 6.594823890128681532e-01 4.317257571604379285e-01 7.199293829147355162e-01 5.207734573181918014e-01 1.648932996237097104e+00 4.881916640648217842e-01 6.003919105838519954e-01 7.184575281218320564e-01 5.084564122232946293e-01 6.861731009787581659e-01 4.653151217112396210e-01 5.840456949714704082e-01 1.880507344961300564e+00 -9.984019900145810200e-02 5.081147994679321434e-01 -2.372860984412025198e-01 -5.621894835742445862e-01 7.451571030640518067e-01 2.324329129698687324e-01 3.369107591766007936e-01 4.964115682171791333e-01 7.823300414978051620e-01 5.525212212256368494e-01 6.882814281531511869e-01 9.645906037514155942e-03 4.119469394183144367e-02 7.411060576610229989e-01 6.845545315918156737e-01 4.147670623250769295e-01 4.687247324575935514e-01 2.491649198267378157e-02 5.759250714373903568e-01 5.078597840535354901e-01 2.030166873787472293e-01 5.367731347518398533e-01 9.320627470209844612e-01 4.440377531225597196e-01 4.985467960557919409e-01 3.502832199067818508e-01 6.737084108368176505e-01 6.718957637167249919e-01 5.121605348488884601e-01 4.686393257754217223e-01 5.400357182467963035e-01 5.348019499398665860e-02 4.823617542893753329e-01 5.900570343763029690e-01 5.311469844443336141e-01 1.920558539602431475e-02 1.533316567216039372e+00 5.214803997926792389e-01 6.398195644060107323e-01 7.114692397143896896e-01 5.197285761007512939e-01 1.390461157766502476e+00 5.366577517905225525e-01 3.714246412881025972e-01 1.463194022910436320e+00 7.741929851798612372e-01 5.262354448617194702e-01 7.495337996165128969e-01 7.955804474584863284e-01 5.085857107614188966e-01 4.292304256655680716e-01 5.769012475752781643e-01 3.401017247458224535e-01 2.254246248419196075e+00 7.933178739120454459e-01 7.330558302764335343e-02 4.869750260166555433e-01 5.318236306938992630e-01 5.546862522675783946e-01 4.866059783958434082e-01 1.905705715734261063e-01 6.592263966359001026e-01 1.656664569901998396e+00 6.865493132236564211e-01 5.030967563683647059e-01 5.362820344271576056e-01 8.514425346542280337e-01 -2.171562823717268831e+00 -1.261605748875489708e+00 5.020916624677430606e-01 6.312946952563800451e-01 9.665790085697237854e-01 5.871508894365777831e-01 4.170389893641585077e-01 1.912787652245017678e-01 5.175872110113565183e-01 5.302009056443115487e-01 5.145368089083769414e-01 4.495076765188052992e-01 4.806893664544653055e-01 1.023511386462383044e+00 5.126015591697999918e-01 1.323545680666695867e+00 5.329486870198248960e-01 6.550447831796315512e-01 -5.817560407161918024e-01 5.257700262681473946e-01 1.988946793004896962e+00 4.719974418282352757e-01 5.058007399266933879e-01 6.667464405341798628e-01 5.086403557539007636e-01 5.882905531172997193e-01 5.236212028345467173e-01 4.443749001840630597e-01 5.435981939280727371e-01 -4.115583033173678684e-01 -1.724356143529484631e-01 6.839743322310112283e-01 4.464473596532796823e-02 1.014689371581626309e+00 5.145354964638885198e-01 5.441967405657508472e-01 8.783995905484666133e-01 4.535204633007166031e-01 4.675521924976560051e-01 5.219462676856744254e-01 2.460843815503274690e-02 9.931142299239605897e-01 -2.113246689712178494e-01 4.163157227347726863e-01 -9.388139148435560299e-01 7.455155773174672040e-01 -2.799756333248399343e-01 4.963942990432042013e-01 5.031541799892774725e-01 5.785360296053094764e-01 5.176269982465950825e-01 2.071786026684033111e+00 -1.873620280420754680e-01 8.314205346478298342e-01 6.486761845878979971e-01 5.680499043663737035e-01 4.810455517640155887e-01 5.101155644162910230e-01 5.191821241209844118e-01 1.061305005589866512e+00 2.740154758792812117e-01 8.519167701011558513e-01 2.895545537403356740e-01 3.730748275956423665e-01 6.130955248637720567e-01 6.400896872460993814e-01 7.845596354519176474e-01 4.964543400518952598e-01 5.173552585489671340e-01 4.021396600995252313e-01 4.305513330874917444e-02 2.326263167776056184e-01 1.176160264341178791e-01 7.608665697148528917e-01 1.144603101074608498e+00 6.531096715689310717e-01 5.213766840627477306e-01 -1.624506122682871645e-01 4.535219041045777666e-01 4.101676510013768095e-01 5.023329492405750329e-01 5.350217457929682396e-01 5.152058802692136563e-01 2.897126853424402348e+00 4.755338962567626226e-01 5.766979447976477990e-01 -9.368620754328133016e-01 5.159348720053876791e-01 4.922789220816343736e-01 2.062365022776032342e-01 5.210130372156859258e-01 9.499945424873681432e-01 5.462293148552612720e-01 3.878971234619954522e-01 5.696111740574270055e-01 6.335402906140883417e-01 5.415354347043714878e-01 8.208122842034860644e-01 6.026647358187001702e-01 5.432035776375864211e-01 3.878970870071253296e-01 1.792105600071886851e-01 1.306148722163935627e+00 5.364953033482686706e-01 5.212819834201054547e-01 4.192404399992566422e-01 -9.974380658321178872e-02 5.041582291726265375e-01 1.538317221812394719e-01 5.113076666250833124e-01 5.201041621560159589e-01 5.193444705975223119e-01 5.264478063120177076e-01 5.285367672624756707e-01 5.189774194962999410e-01 4.456019658204239953e-01 5.458029967892884526e-01 -7.269457345190903919e-01 6.314009705193935895e-01 5.052752858547088222e-01 3.442262921390876196e-01 -1.867808374408028854e-02 1.352996548359174156e+00 9.774044517019678802e-01 4.880880602522434386e-01 -1.014483089842701247e-01 1.071937126338190494e+00 5.213851120644250603e-01 4.912364100484805651e-01 6.746644341690161140e-01 4.046786403749095817e-01 2.283855517779411759e-01 1.575301646360492691e-01 -1.697377842075705745e-01 -5.185477231077601640e-02 5.616923135341322926e-01 5.282853654815043987e-01 -1.242836982059665613e-01 4.517402570501760084e-01 5.185834806710274414e-01 5.376114931569098143e-01 -9.040207382941463365e-02 7.662170997099597702e-01 -2.411375741750428681e+00 6.146552462050198784e-01 -6.942091685340859852e-01 5.015969043158660101e-01 5.221682809166170447e-01 3.502815239587168117e-01 5.018418935075382725e-01 5.340709603230466840e-01 4.980831088327687950e-01 7.959532802679905039e-01 5.770315845454303538e-01 1.705857891561153528e+00 6.848133033961814053e-01 6.714405984452035403e-01 4.493154285501070877e-01 4.281256636577527308e-01 9.320627728704559134e-01 5.085978942856465013e-01 2.768847542410871387e+00 4.389706695951084425e-01 2.156853209605776589e-01 7.808307741288493808e-01 5.238848142201298907e-01 9.319463358147922483e-01 5.219507012151058944e-01 5.764357103013111328e-01 5.207554758205708012e-01 1.170840939116991608e+00 7.627802625039037387e-01 8.540773014168318022e-01 7.946111879349841978e-01 5.902011685738307589e-01 6.874464798288788536e-01 5.075429774133536354e-01 3.688018351777127002e-01 -7.585941626845735808e-01 3.930280523193633302e-01 4.019549801544602952e-01 5.191378065179311774e-01 4.951507137424702720e-01 5.145367779202131286e-01 6.137535190624202608e-01 5.079330536049319056e-01 -9.570410778001208207e-01 7.762309249868213357e-01 4.889700239779120605e-01 -1.706660982318764300e-02 4.517195507294042289e-01 1.863688862676782021e+00 5.078626673635174837e-01 5.212232285383583408e-01 4.163088067577870310e-01 -3.542322671260143885e+00 5.151927249562565647e-01 2.997184440715231712e+00 7.837940033352808200e-01 5.512848488948892678e-01 -5.672186160697675339e-01 5.271688076700625780e-01 5.201049893724576378e-01 4.601819965597299111e-01 4.497380879479492832e-01 3.299271711070254631e-01 6.545553044343507265e-01 3.136547322054984432e-01 5.266239086557524818e-01 5.223052255842722813e-01 3.625329590911414712e-01 5.193112708438533121e-01 7.832170792958127459e-01 5.223788843559825645e-01 1.219515810404825595e+00 5.233236548246442826e-02 2.249144190966764878e+00 2.703233743730269811e+00 4.779613620244444472e-01 -2.447982587013969591e-01 3.848270811617884868e-01 3.996776531222145934e-01 7.459728326697367962e-01 1.406101488501171337e+00 5.296528942320745115e-01 1.139972311220116552e+00 5.230087717048126361e-01 1.178091395065824776e-01 1.264372226482688877e+00 5.926452236247812255e-01 5.722992543782983166e-01 5.384965952427910318e-01 9.103549754678073036e-01 -3.897203281507011230e+00 1.671024998065272493e+00 5.365276597765338273e-01 6.342443974517594230e-01 5.323910553430807324e-01 1.880507342305741902e+00 2.927246364339707307e-01 5.684287418585395324e-01 4.635639234315110380e-01 6.427974643877151228e-01 1.367181450058453596e+00 5.081014653711126705e-01 3.878968507788532749e-01 4.517417218909712817e-01 6.026647386296264397e-01 3.861290992147993761e-01 5.700576530090856187e-01 9.058131739738338739e-01 5.222303021243013266e-01 3.812023857893007683e-01 1.320986856807516707e-01 6.496847234338347654e-01 5.194687126015933298e-01 2.612662318086990121e-01 5.684287831674476044e-01 6.079262347683549450e-01 5.220775794835866845e-01 1.055366551910797535e+00 9.176178955037469498e-01 1.168858480317468196e+00 5.267802656656322968e-01 2.106036656589145295e-01 9.320629097136876595e-01 -1.101080610598836745e-01 9.340946177453243182e-01 6.307928683259091951e-01 5.072673795912496092e-02 4.133172140146170737e-01 8.669800028980625406e-01 3.829931563892933766e-01 4.715451715775742514e-01 3.324963948390503576e-01 -3.434031028792212670e-01 -2.551607925479413286e+00 5.600616296861241628e-01 6.026647381919060242e-01 6.026647093735642002e-01 5.265569116482632372e-01 3.456987463835821117e-01 -2.457437106536462523e-01 2.738574530278855002e-01 5.203130432174887243e-01 7.094836240184575482e-01 5.189515817137098086e-01 1.013542566188988969e+00 3.878975748618798680e-01 5.212173176720139578e-01 5.028207261880722756e-01 3.024370896724679625e-01 6.636003203238527437e-01 5.174338774802836882e-01 5.260157013061160791e-01 4.861039418482849817e-01 3.291410698082520292e-01 2.472542676213195997e-02 6.026647375458175082e-01 6.637489156127504009e-01 5.226957996695368314e-01 3.881951536196225905e-01 8.603175217235520256e-01 7.723324322132610886e-01 5.649815394894522891e-01 1.945122229121344359e+00 4.822121256164311198e-01 -3.247076072770241684e+00 7.826840208422897183e-01 1.556312954200763210e+00 5.853852307495623908e-01 -1.131178185804530223e+00 8.684514888999734783e-01 4.334438432993422685e-01 5.360875037644798891e-01 5.404841545987379980e-01 -4.747826952898037689e-01 5.051284830391212788e-01 1.081393298125918889e+00 4.448940203909025337e-01 -4.255730685405325064e-01 5.113226547182340154e-01 5.340806418827178659e-01 7.966785005633706396e-01 5.316784274444990022e-01 6.190949811321707630e-01 -5.565840931094730992e-01 5.607043262647863902e-01 5.249150512759885867e-01 4.916493473178303875e-01 5.087716801785814313e-01 7.718760379762831247e-01 5.205907579263624463e-01 6.313747193457313056e-01 3.801933922932644871e-01 5.308132047768407968e-01 2.197122502606431993e-01 3.481409443260594649e-01 3.791278318646556511e-01 9.778477461184420516e-01 5.613235460508519958e-01 3.283599611887053626e+00 6.540748349663075834e-01 6.710795338952585398e-01 5.413223053055784550e-01 5.194356844733288847e-01 1.032088064810927387e-02 4.976792101227581755e-01 5.512003123228177426e-01 5.334145755441934700e-01 1.153534064785808111e+00 7.721769739412323030e-01 5.267410844632329781e-01 4.353110324952735311e-01 1.120381913632708670e+00 5.288079917522926499e-01 5.496105813150943264e-01 5.305374496997428135e-01 8.738129009810695624e-01 5.277989851628964724e-01 9.525525196168409536e-01 4.823015787662221499e-01 5.200557333925843739e-01 5.061279417806369141e-02 5.237143749078189137e-01 2.301462331847678455e-02 2.747859698220201929e-01 3.965962322730470224e-01 5.660041764286459776e-01 7.929762819687102837e-01 5.235977932310079686e-01 3.821180782133706266e-01 1.421974050051916516e-01 5.034562104775924807e-01 4.996289595665293626e-01 4.414320608127599854e-01 -4.158294554466861193e-03 5.238522100396503234e-01 2.779491970500262421e-01 5.187943921542361725e-01 4.079230910622074768e-01 1.265371606153891548e+00 7.412649273587440524e-01 5.204989818726065698e-01 2.428587394559695578e-01 8.387439173124420222e-01 4.595484110761138830e-01 1.007061130694334228e+00 5.587765754511950789e-01 6.194354166167256315e-01 7.134623470581993310e-01 2.044812395209104405e+00 5.260170917590517581e-01 5.891923793219503436e-01 5.369206963339760996e-01 7.762840965042167030e-01 6.114975099472281794e-01 8.802844856741318669e-01 -5.906028172696490275e-01 4.386382470226715125e-01 5.235621657636818638e-01 4.450179206876614391e-01 4.900293187205032597e-01 -6.480997029672950216e-01 3.838506617594537040e-01 5.159165552493637508e-01 7.169522872254820989e-01 6.709570131884958766e-01 1.584689142858762390e+00 5.235750389178639441e-01 5.189559439227364734e-01 -7.448097957890931209e-01 5.312457006438821017e-01 1.256765784181454793e+00 7.316972385771488563e-01 3.003106855322401625e-01 2.233608313591281258e-01 -1.908615478103006691e+00 5.619978693727317731e-01 2.005393467777860095e-01 1.114131263397142080e+00 8.329358572488891888e-01 5.555165362392785466e-01 5.718158924864006343e-01 5.160658993269466865e-01 7.829825311637904628e-01 4.128979891478530839e-01 5.504391660908266593e-01 9.734487839430445294e-03 6.202022203025826519e-01 4.784991352882473348e-01 3.618799798684909641e-01 5.170905549445160565e-01 4.256243398618868579e-01 1.246484778058192466e+00 -9.356515395049300188e-02 -2.507947038451279198e-01 4.101370249256423572e-01 4.984673433129974129e-01 5.245589701716921738e-01 5.411212897637373009e-01 -9.013039358334763440e-01 3.247032324406227133e+00 4.453087235235786978e-01 4.357410955404930064e-01 4.665999604254725264e-01 5.223913770024986025e-01 5.022894930308621220e-01 4.549259209551655414e-01 3.305190419655331668e-01 6.217127430952019695e-01 5.200454278870538793e-01 4.473552933525637987e-01 3.044341084297355615e-01 4.090648147123508438e-01 5.548081129149881052e-01 4.048784203203346088e-01 5.683583337656428203e-01 5.092255333629792657e-01 6.902216287336043754e-01 1.031737813788349722e+00 2.361649907517811009e+00 4.794161689694827477e-01 5.026639923398805720e-01 3.117536654392944473e-01 4.763613922739416418e-01 3.988325765911758247e-01 5.217892696711111666e-01 5.140947181665770360e-01 4.833397281162867265e-01 5.910837179079608816e-01 5.794773435734323908e-01 7.829605123478374784e-01 3.647170058512305690e-01 3.813021103499831255e-01 3.850801437910691405e-01 4.684328417145686707e-01 1.006965161719285129e-01 9.320627651787127821e-01 4.701375538057095960e-01 7.513871639341754283e-02 1.915494012056295547e+00 3.405873370038102199e-01 3.999970458706696985e-01 6.001036346054211545e-01 6.742437850733011551e-02 5.535098883319478080e-01 1.544328211330655787e+00 8.130949782625727096e-01 6.668005318893147626e-01 5.189866077283726842e-01 5.079643577270315236e-01 4.129861458493534476e-01 6.130824470281874827e-01 5.257215712542694375e-01 5.185665538395050067e-01 -2.966156825555210097e-01 4.525292074041602497e-01 -1.663038476859230563e+00 5.364555352152757806e-01 5.308828640221049389e-01 5.340187018174405997e-01 4.162953436893008230e-01 9.320627651962443139e-01 2.302715847910538627e-01 4.986997887875324609e-01 1.387897860216736667e+00 -5.956685473491337701e-01 5.173945104486757929e-01 1.167484678741666615e+00 1.583559627469858455e+00 6.013480087683070741e-01 5.163764687178078461e-01 -7.140932973889389801e-02 -1.743878874756596753e+00 2.643809431517048503e-01 8.625872890166123019e-01 5.412249061836399422e-01 5.217744218985415072e-01 6.160096825538194931e-01 4.783032275555765822e-01 -4.370781066685070493e-01 8.442307240361796028e-01 5.145375942809528036e-01 3.233550336936837355e-01 5.067339956983067939e-01 7.771244630233322195e-03 -1.612340787582248747e-01 1.854052531639551527e+00 4.092571567470534855e-01 4.806144249833763649e-01 5.222012648258217427e-01 3.172213312217651571e-01 4.645690701211098173e-01 -1.699571670087265396e-01 -1.414407404250152211e+00 5.247035270479628588e-01 4.788049081599645151e-01 5.166891405912309443e-01 5.029495431033019770e-01 5.358925595845930312e-01 5.473635424021697782e-01 5.245636383735805541e-01 5.516925969545219965e-01 1.044173307444465459e+00 7.052858376965539522e-01 5.359255395038798886e-01 6.465374194027796451e-01 5.568306413470879290e-01 5.853931147459818796e-01 6.438507560978651290e-02 5.684287306985310595e-01 4.272133648079704527e-01 5.831531499701118060e-01 7.422125703401705188e-01 8.020927171665668265e-01 8.803001434909678569e-01 -5.656082948920000408e-01 5.349120404065732526e-01 5.016393093912951961e-01 5.276320927035412778e-01 5.985041297384736669e-01 9.177473021716336943e-01 4.579050144671686362e-01 5.211288467096232280e-01 -3.294366524613493441e-01 -9.175807537551512461e-01 2.369945848226233664e+00 5.246991860621986747e-01 9.100827862864639961e-01 4.244333307822865109e-01 5.822379988416775953e-01 4.105035573220423006e-01 1.536285201245825016e-01 5.217463082287278064e-01 5.043880147182396856e-01 5.384009748628286463e-03 5.204770766487446521e-01 4.687066745584653193e-01 5.218264257381068916e-01 4.334747175400162633e-01 5.278066167775610218e-01 6.492466887976662271e-01 4.381203345130598725e-01 5.318232230986619236e-01 5.534936601203633844e-01 5.140273450032940561e-01 4.188503817689961384e-01 5.273194197541702932e-01 -2.376711034371772890e-01 5.201070253101364171e-01 6.409617208275237843e-01 5.330920865230454053e-01 7.822840175876961677e-01 9.320628212688664149e-01 7.227603720620600081e-01 -6.263664505238027980e-01 9.746199076062190825e-01 1.880507344962020211e+00 5.165849673427970190e-01 4.637220438082768625e-01 1.093868177874664394e+00 5.505146643105270909e-01 7.820331015095635108e-01 5.212878885754513858e-01 1.909794652231643131e+00 5.170274913880452683e-01 4.517401001117719028e-01 1.238144695899908054e+00 -7.010033488777396571e-02 5.091585280773904820e-01 -1.496572902994605658e-01 -1.002773563977768401e+00 -1.614553743927520935e-01 7.785531005231356438e-01 5.522310755301783614e-01 5.342665941796694851e-01 -3.137213075062814105e-01 5.365574049259229650e-01 4.254981613280939268e-02 -4.291279658562576760e-01 5.543448364174512477e-01 5.173237266099989240e-01 5.221446742466161473e-01 4.981708810687774935e-01 4.694599948123507338e-01 9.234979662393060229e-01 -4.606588904559602016e-01 5.195097156289943952e-01 5.024122140253798330e-01 5.551930845355803612e-01 1.181345898640210557e+00 4.751143712920105067e-01 7.081627476383289821e-01 5.198992118372798288e-01 4.826976791296744979e-02 -4.740867623578071677e-01 5.149338623182175834e-01 4.883130306218708139e-01 6.870739980802859082e-01 5.268767489843750873e-01 3.912860650940842011e-01 5.169287109074841569e-01 5.242014524137412756e-01 4.336119116688056940e-01 5.451436519293725302e-01 8.420889643663401758e-01 2.618678384754832500e+00 -2.547657894803992962e-01 6.531272981028639624e-01 3.625337366910019732e-01 1.963714496640600604e-01 6.440689469514361276e-01 -5.322569631090609543e-02 -1.621904973378955894e+00 5.098549990565570678e-01 2.681928243334028128e+00 5.895514115055985327e-01 1.765275304839042381e-01 1.486653150212996766e-01 5.145368085532805447e-01 5.954764804692169733e-01 1.599031198202143900e+00 5.297728663557388362e-01 1.257524201419557841e-01 4.074135363026439860e-01 1.762632094755518741e+00 5.829310056060140743e-01 8.079524766866783558e-01 5.119950660099834572e-01 7.375629285437688143e-01 4.688594967349398179e-01 5.863650847778865138e-01 3.058815508778225598e-02 5.262579324740183084e-01 6.028929343132046759e-01 -5.909382960026278164e-01 -1.205443061710073926e-01 1.186650176217010078e+00 2.418394356341399265e-01 4.770163915016675249e-01 7.295627406720939234e-01 5.055861330182365165e-01 2.033491852393169985e+00 6.464640292448740055e-01 1.226610933917379569e-02 4.053947351421971490e-01 4.023708536995598273e-01 1.155556850418024029e+00 5.041866606970319964e-01 -1.996776266550761778e-02 5.306227203596501907e-01 -2.706924798725807591e-03 4.972406446309710626e-01 5.161999926850235898e-01 2.112518062685649067e-02 -1.111383068734784173e-02 6.570708915471125122e-01 4.675317126570526227e-01 5.866844390994124803e-01 1.645058452382366643e-01 3.983458645416565469e-01 5.338661678905226582e-01 4.330984116910320814e-01 4.914088550210360951e-01 4.804140664367023139e-01 5.675607663901061084e-01 1.023286991841011906e+00 3.207691303281945405e+00 9.762262629015623361e-01 5.237936185903905306e-01 5.239719841431828007e-01 2.205600756816182006e-01 5.247676724022979355e-01 8.649320153106849762e-01 5.149988904074808138e-01 1.317315160736609814e+00 5.400374147127798841e-01 -6.010627628258214949e-01 -2.140985478866404626e-02 4.412056674270699586e-01 6.170562738472242792e-01 5.830519284827838655e-01 5.179984272835665982e-01 5.650145173247583114e-02 5.087110999574446790e-01 5.858401847621672598e-01 -3.909498546284601694e+00 4.780344348213296790e-01 5.392624118029629710e-01 1.145576735093657428e+00 5.155177917437826496e-01 3.896355158667289542e-01 6.621269719176653412e-01 -9.266249609995417247e-01 -4.964548563303798900e-01 1.773571557542529334e-02 5.224009471888585443e-01 6.369502683105933150e-01 2.081205652364215841e-01 5.087134783692298656e-01 -3.503732977366914025e-01 5.288095857771977215e-01 5.728237511165472640e-01 6.974361278029150846e-01 5.591486382900434648e-01 4.651363554760565289e-01 1.400327170102771690e-01 -7.986675279629132929e-01 6.536932586130687062e-01 5.583745161614590558e-01 1.521871206654542008e-01 5.222735890930740865e-01 4.993735016203250665e-01 5.202834096651892670e-01 6.617448928340364800e-01 5.842898631762738493e-01 5.532006202331982703e-01 5.057336106383730767e-01 1.880507351208259958e+00 3.454115703944514726e-01 5.239058048298683712e-01 -1.444999106865658967e-01 5.049059980879276877e-01 6.481422597008384967e-01 5.244756899395823790e-01 4.789410648853296149e-01 3.830966043752090378e-01 9.663732573729215680e-01 1.236261534422245623e+00 5.527135157143516775e-01 5.763971572290841339e-01 5.972638077588473537e-01 5.070430503128182664e-01 5.099281479296819963e-01 5.212627111857278672e-01 9.746101935953950246e-01 6.658967779516343777e-01 -4.692033033002064313e-01 4.704005850580550985e-01 8.969483809161699073e-01 5.120458099015452458e-01 -4.579085216644015327e-02 5.243504851268891986e-01 1.569810800467455358e+00 -1.375984113448940338e-01 6.753843422642269445e-01 2.309688015820593465e-01 4.855172256440810630e-01 8.837408627089398117e-01 5.203748817197872967e-01 3.759322665491058868e-01 1.416982366054076792e+00 4.711108658648109904e-01 5.121144424271607543e-01 -7.314882482571688493e-01 4.378201210506962315e-01 1.038233412585677584e+00 6.324969897068997149e-01 6.168603199050903124e-02 1.002048205743125475e+00 -7.440779207059842158e-03 7.619231504663706023e-01 1.674148676346147502e+00 -8.717202693289768378e-01 5.620867705260569336e-01 5.209839718818881638e-01 -4.912048014246554462e-01 3.010347986830004818e-01 5.427619097448508345e-01 5.285346261278485169e-01 4.643829806461046705e-01 4.571291320853502760e-01 2.625134200911223847e-01 3.523939903491192793e-01 5.646784708338039582e-01 5.229298941671829404e-01 9.877132398065646690e-03 -1.769162099125407839e-01 5.048348574743177775e-01 1.071262320813435087e+00 5.725945914704709816e-01 -5.906563373288640229e-01 4.245337275464132754e-01 5.194995534575296281e-01 5.700593010422539963e-01 4.874154851777521419e-02 3.228163864694459928e-01 5.173678464725831594e-01 5.129967197346819718e-01 4.550235764603914879e-01 -1.557337457432665662e-02 5.464633838145738221e-01 5.383902478381261680e-01 5.512846110422753299e-01 2.119847550936841518e+00 -2.029606806953086762e-02 3.910948695485040871e-01 5.631178821857676375e-01 1.868056111868454217e+00 4.869328891162336137e-01 5.724038068382791833e-01 3.253324650191673911e-02 5.684287373251838416e-01 5.199965970826450068e-01 4.781486681740417799e-01 4.124447755585405884e-01 5.374664154528937532e-01 4.520793434952651846e-01 5.326795005388924586e-01 -5.744937830072560647e-01 5.191613651849957822e-01 5.098584755398083423e-01 5.354221270896570850e-01 1.319560813488100948e+00 5.294712291452301489e-01 -2.511451543733567715e-01 1.146943957214811016e+00 -1.342306008465342204e+00 -5.542718624280291717e-01 5.161666972922069885e-01 5.207015828526467827e-01 6.710138275264631025e-01 5.302855055158770536e-01 5.470236521574868283e-01 4.995554071575438737e-01 5.684287382135972955e-01 5.228411129627241749e-01 5.472635108242274171e-01 6.089000083219185955e-01 5.230802634395725903e-01 3.293647954633764918e-01 5.279212499139683823e-01 5.373247002244924131e-01 4.182557577005494021e-01 5.217835701914289581e-01 5.201584190832718724e-01 5.072286609615996866e-01 6.523359181101361370e-01 5.218283646565102796e-01 7.315212822285424021e-01 5.241804985386353533e-01 5.305064874753564474e-01 5.353612057799922441e-01 4.393316620566238839e-01 3.418359975642348281e-01 2.504433622734345555e+00 5.415728521886195024e-01 6.391492575858185310e-01 2.970427172895976908e-01 5.759202554138541652e-01 1.125269693722282360e+00 4.197510891981641734e-01 6.846573218851332854e-01 5.201370706956924828e-01
7.173797584242433967e-01 2.902097646694360988e-01 4.588392022942391346e-01 -4.585645128056865805e-02 3.031547273556946531e-01 4.133382695804281859e-01 5.406810435292237482e-01 3.730538602706805484e-01 3.969893731707559437e-01 3.108957759526618791e-01 2.096113177175719322e+00 1.746518259240226412e+00 -1.489617586567007379e+00 5.691941006401225467e-01 2.989213654731032732e-01 4.690184453744494220e-01 1.388572331113873404e-01 4.538347242991970787e-01 3.930136810197541464e-01 3.243755116089297452e-01 3.915115755242593032e-01 2.172024754802778013e+00 3.394176949859824544e-01 3.331758587594577659e-01 7.615279263582884761e-01 -1.507720838565291543e-01 3.887660209837248693e-01 1.772938430400342324e-01 3.489694764402985205e-01 -9.512413322185829800e-01 4.643661907816632461e-01 -1.697183699497842868e-01 2.896549248916169272e-01 2.925799215208404469e-01 -4.045186554320387429e-01 5.084127777164236806e-01 3.324732406177188793e-01 -4.093142762674097934e-01 -3.342746893517233531e+00 3.057231397200865786e-01 1.220407749809318210e+00 1.482223186436293083e-01 -1.704037614515876153e-01 7.912491064405533514e-01 5.282526685699828750e-01 3.100186227080061752e-01 -4.551639367314658929e-02 3.251818305483935578e-01 1.092580676255902050e-01 6.566560579560573041e-01 6.973997768838581246e-01 5.140564237013339755e-01 -1.176333695437128124e-01 2.568822792581324510e-01 5.824974200148558268e-01 6.699038988288518182e-01 2.768049147953262068e-01 2.897935746553458314e-01 3.444369615229403991e-01 2.845480348811197380e-01 4.367386169359747106e-01 4.329975168737342228e-01 3.378109612149802210e-01 3.394177019884369040e-01 -3.386076432349528487e-01 1.104700057573187039e-01 3.093703777402804778e-01 3.030521742318932343e-01 2.811392468067740458e-01 6.919195026960027750e-01 1.901115397827070619e-01 2.563941839240157505e-01 3.074187711598869166e-01 7.138909924484360126e-01 1.960893157706176115e+00 3.761101214686958238e-01 4.810141464170940018e-01 4.833514005116389400e-01 3.027886297545582805e-01 -1.368919049555847200e+00 3.263754870150419318e-01 5.085399829274733774e-01 2.437075437660424448e+00 6.065324585754809650e-02 2.407515068159318816e-01 -3.330656326083757390e-01 1.496869615614307703e-01 3.675767033562874486e-01 -5.879418513343203090e-01 -9.236865426656148959e-01 5.283129099398269357e-01 1.630370567229424195e+00 4.657547162278299901e-02 6.828114650344361269e-01 3.736236554464769100e-01 3.576148866550510896e-01 2.861532671925682836e-01 7.978056068229513187e-01 7.359189003901422943e-01 -1.415122745889217104e-01 -1.858319677963128636e-01 5.745323426175320825e-02 3.490022955755004985e-01 2.261696462566460120e-01 -7.429266023250256923e-02 3.204342464401052748e+00 -2.996504020004276958e-01 4.010241126373299547e-01 6.443449971431124135e-02 8.129968534818724502e-01 2.943984358364952758e-01 5.440084201886515869e-01 1.620666796165670387e-01 3.201327318035209757e-01 -4.679063758090821756e-01 3.267822175211762548e-01 6.069937940638890639e-02 3.797908836771574648e-01 1.229785078312127800e+00 3.348409595407149109e-01 -1.488329427006965799e+00 9.685574208973746213e-02 5.236587776920376830e-02 1.522753513370169953e+00 3.153982389994254287e-01 2.224777303955537633e+00 4.099086720378997128e-01 2.009059643129500194e-01 3.182219414866320206e-01 3.093088744573099791e-01 3.443145707406595202e-01 3.046039840286414724e-01 6.670038572313982117e-01 3.974473198988288103e-01 1.552815127947704543e-01 8.505443396479052121e-01 7.341887703794428566e-01 6.982314244228240430e-01 -3.435477482871693855e-01 2.409898745714733614e-01 3.264619253426328527e-01 3.223002513018041193e-01 3.692535564821306515e-01 2.928826368423578241e-01 3.064412493695470308e-01 7.009246662924761839e-01 -1.949779635113537413e-01 3.195608838708927091e-01 4.082303572740699216e-01 4.057338613648195369e-01 -1.754771718160775817e-01 3.097348979424891999e-02 3.100341446043129445e-01 3.215890311145673253e-01 2.643862784791767284e-01 3.069241960436268624e-01 -2.562916154179731620e+00 4.751329086187057738e-01 -6.150982905158732805e-01 -1.421485803380114210e-01 1.237606206087244060e-01 4.193400794610210869e-01 3.137499312002151597e-01 3.033844953662384603e-01 1.352907621158541684e-01 1.350337438638805898e-01 3.219542318568914818e-01 5.031469241963542061e-01 4.876172660082917498e-01 2.578606155059661176e-01 2.548585601966601444e-01 -4.338722702180631413e-02 3.099259660767383906e-01 2.991672908397017272e-01 -2.558364929266795151e+00 6.643910972545629123e-01 5.574430018620478711e-01 9.217709014311670224e-01 -4.625591452476345844e-01 1.176037721836940442e+00 6.799144834400788762e-02 3.057589159649055643e-01 1.251359688070726950e+00 3.868040571570465769e-01 3.175331154917758192e-01 3.628756146958275752e-01 2.632520037101439558e-01 3.024674144760531314e-01 -5.115925135112719957e-01 3.616983038116461935e-01 3.650813452805382608e-01 8.304416818308872905e-01 3.523578173974805661e-01 3.710992003445078846e-01 2.561954904426576030e-01 3.036558565345727212e-01 -1.717030767894803578e+00 2.924544100942024216e-01 3.823867142036124767e-01 2.374577535956838015e-01 2.322688419927749354e-02 3.858105568374670669e-01 3.917864500180829324e-01 1.577670118683314193e-01 -7.460702247948564070e-01 3.823867492500793719e-01 5.021032486904516423e-01 -5.296984735438154956e-01 3.176814455105844703e-01 2.605200305286988205e-01 2.227255272482735193e-01 -3.340588120855867427e+00 4.023070903257897069e-01 9.054504586889945417e-01 2.880665077553272169e-01 3.015795973132206487e-01 3.048753091617267819e-01 3.358099842751072206e-01 3.061417378287331625e-01 3.081143551417823145e-01 3.858660528063319051e-01 8.048767644615534289e-02 6.758542421169685399e-01 1.120035102767620860e-01 4.136294906409602734e-01 5.423923806387016544e-01 4.170131688071989084e-01 -7.223589371527050496e-01 2.359660091046511976e+00 4.154177885813045701e-01 1.258771073385736905e+00 -1.408480194838555688e+00 3.041393978679551857e-01 2.954021215631666974e-01 3.402214305406727757e-01 1.204897623709010102e+00 5.342729910735595222e-01 8.446912468276811525e-01 2.910350097943402714e-01 6.647641597305401495e-01 2.107823938812793951e-01 3.042610805812618890e-01 -1.204595577429985909e+00 4.182294659070255882e-01 3.020633427231287360e-01 5.076752692391676147e-01 8.662677442985324827e-01 -3.918382578279541173e-01 3.262347490145238282e+00 4.978158530347375210e-01 1.328168722787119949e+00 -3.346785230483653728e-01 3.081422960652068221e-01 3.394144734807398867e-01 3.607822410132903168e-01 2.944385676416546027e-01 2.497611331160775883e-01 -1.687979131468140548e-01 7.934564578329007800e-02 5.631343837965848698e-01 2.269619074696060390e-01 1.088036834265611319e-01 2.421276043751923457e-01 5.081737900640940220e-01 4.367386088033390346e-01 2.601634867087599390e-01 3.335651704604127410e+00 3.304293554717555592e-01 6.497778984154569670e-01 5.137454746248139026e-01 3.049778979536177936e-01 4.367566151025338295e-01 3.018465407951665957e-01 2.991113411567668523e-01 3.035279239142057994e-01 -6.478451106878300170e-01 4.015266294060238494e-01 2.850357396631768570e-01 1.498735376939924480e-01 3.548763510280385503e-01 1.565111390870312036e+00 3.604789346723405452e-01 3.294741881416433094e-01 2.019935137110818513e+00 5.154713143275618803e-01 3.195261248021155631e-01 3.077648796494209527e-01 3.090698038626130129e-01 3.267817436887472948e-01 -2.083330164372863447e+00 3.476493562061478415e-01 1.624709464452807284e+00 -1.033666498132526090e-01 3.538388233823575590e-01 6.541643296571512112e-01 3.415461294630550704e-01 -7.362794441141903290e-01 3.460059372495592478e-01 2.990458439694208548e-01 4.082171039696168013e-01 -4.098782092563311719e-01 3.279427953119760097e-01 -2.410062558130625643e+00 -4.420930483484728640e-02 2.850750077663556925e-01 5.953149797532927279e-01 3.027210626965901041e-01 3.007409596853234390e-01 4.974605966106007693e-01 1.606824289890621538e-01 -6.846282413154433644e-02 -7.815855349105768068e-01 -5.776136261087249334e-03 6.878704087457747640e-01 2.922140628614334767e-01 4.942475139453135213e-01 3.007130023588042156e-01 -4.500298237232995546e-02 2.941292830409037995e-01 2.498216703172511099e+00 6.824624941874239958e-01 2.473348439442409064e-01 -1.194902704617230027e+00 2.478560909304245996e-01 4.833880133585876315e+00 4.209292275018475804e-01 -2.043720969814240285e-01 5.725647280132336592e-01 -5.743687461281253626e+00 5.386743608380608617e-01 1.594780505188907460e+00 3.069602025951276292e-01 5.205889788678841335e-01 -4.591708856236744185e-01 4.221027459771080070e-01 2.370427374631701167e-01 3.491523753741863634e-01 2.080414091328433024e-01 3.021713755340030616e+00 -3.874015890656598571e-01 3.080369095632007337e-01 -1.948068142619526322e+00 2.727600463934647390e-01 -4.093142726911285223e-01 7.627102426853860084e-01 4.843291567144874521e-01 2.598946254881430717e-01 2.863973075534657631e-01 1.259146788574259324e+00 1.628198112050831259e-01 3.823869946717529666e-01 4.182265732662053259e-01 1.577670079101358702e-01 3.937722636451739255e-01 3.834737193314978754e-01 -6.292664928037788874e-01 3.006412003481736539e-01 5.639488772560675711e-01 4.096798509011426170e-01 1.846565387487338894e-01 3.065401881743533563e-01 5.144947724101842645e-01 4.843291810395422003e-01 5.181349224829046030e-01 3.069911546838690608e-01 1.593540496187907662e-01 3.673484862389940764e-01 3.559590110219739589e+00 2.829297018451571999e-01 9.713434108585726479e-02 4.367385815648542891e-01 8.339787580818980306e-01 4.705579894062473789e-01 -1.925705611218857805e-01 6.913705014484435862e-01 3.459764656016520723e-01 1.303387128808017048e-01 4.283457068963595904e-01 6.832445825576625165e-01 5.131884521071256033e-01 8.016381792082103441e-01 8.258909342084487237e-01 2.160677657804689067e-01 1.577670119680883998e-01 1.577670573979379209e-01 2.918434114038335192e-01 2.381282697817009575e-01 1.119509593201269304e+00 3.831155379509058601e-01 3.179977713323424160e-01 2.557010552284278981e-01 3.026468311422620405e-01 7.397929664792201043e-01 3.823869015305436103e-01 3.022895529348454402e-01 4.097504515974245143e-01 1.883123604832932507e-01 -6.443503841886712991e-01 3.080770766682334183e-01 3.073945489814308152e-01 3.581983638131024383e-01 6.608712867131901758e-01 6.527583074701552857e-01 1.577670121843721684e-01 1.515712192036014760e-01 3.097455966604160116e-01 5.178954566750934019e-01 -5.971113910590173379e-01 1.700709310241225736e-01 -3.609642393701323559e+00 2.051607746226352891e+00 6.256759883740692363e-01 -4.923025997823411437e-01 -4.596579135863278903e-02 2.100320539385491792e+00 3.264214300476337982e-01 6.554667927802791949e-01 -7.337899459691249460e-02 4.104606724344852520e-01 3.877015896749881896e-01 3.293364022319740791e-01 -5.754427739543066522e-01 3.458586689767962907e-01 2.107038147117084037e+00 2.046524666292577899e-01 -4.738329654349290321e-01 2.893172370495929457e-01 3.090324318682671212e-01 -1.472430509543594335e+00 3.155164236657186372e-01 3.729612934441156602e-01 4.036781653123071023e-01 1.069789637007882155e-01 3.028666168461872643e-01 2.244335757021464484e-01 2.894927893649260064e-01 -1.615890666567258993e-01 3.173270621856726925e-01 1.119655519211247979e-01 3.006465441722775966e-01 3.056959516221360862e-01 1.219318242309443828e-02 3.647491974732434694e-01 4.807590847708675952e-01 -1.436859558027400396e+00 -6.967986552941431988e-01 -1.219588904259544526e-01 1.589069319052736906e-01 1.376457903988578535e-01 4.373253811899694976e-01 3.560298294442269529e-01 7.072629182830644234e-01 -1.446507981563626422e-01 3.336250704792348420e-01 3.029709744664091930e-01 9.672632642925252378e-02 -1.617197618931602854e-01 2.964169949662370795e-01 4.600602229408164989e-01 4.801416111954214805e-01 3.509900289306105425e-01 2.990017539017233994e-01 2.979878241830730690e-01 2.423132221352298499e-01 3.021619515356750441e-01 4.791100952999476359e-01 2.307285566091971662e-01 3.038333021151485847e-01 6.906846225059829480e-01 3.134556277217651621e-01 7.061807669771246188e-01 -3.649724097902528469e-02 5.873079710345687765e-01 3.083215475860033306e-01 -1.481547138645325834e+00 3.063899932547495819e-01 6.270726211562863694e-01 3.427778919358193122e-01 3.383628425296741349e-01 3.649981705506505913e-01 1.609194736573871243e-01 6.865091363168963623e-01 3.068517539218635903e-01 4.350210980003277883e-01 3.027249155107887280e-01 2.722894698806258007e-01 1.724546960685921781e-01 4.670843478204189658e-01 3.089405988972618311e-01 1.522883810077577671e-01 1.308687421657239378e-02 1.210707761375253155e-01 1.679485149085452544e+00 1.553255390367346001e-01 3.274052555148969090e-01 3.935376817604254174e-01 -8.752786653706117193e-01 2.877275523692963133e-01 2.199560181588915420e-01 2.455715454075338977e-01 -1.028190353061310819e-01 2.621476025403897125e-01 1.725647357490918798e+00 8.967979097708831393e-01 4.753884209551795803e-01 2.583943927194917722e-01 3.085028557933490179e-01 3.459113599244206805e-01 9.382683839005958593e-01 3.113086469900766762e+00 3.028643918657116796e-01 9.165504037424099942e-03 5.827582361518240939e-01 -2.516382097577992694e-01 3.037408961141063735e-01 3.096316019757523463e-01 1.093522571636458496e+00 2.951750509011271117e-01 -3.520602117554763044e-01 3.940940814564675709e-01 1.427629297276219733e-01 6.101408433534623033e-01 1.889273949737848790e+00 2.601027600819422192e-01 2.897007257675978109e-01 1.679002037643058109e+00 3.867962851630483145e-01 2.524089138250273923e-01 1.466070499841190533e-01 1.687946142618519663e-01 -4.586446851489675569e-02 5.265188923562278411e-01 2.469901738914955791e-01 7.080619030048733720e-01 2.845505711054322484e-01 1.967568418511777828e-01 3.357667341768679203e-01 3.260188730750296915e-01 4.492677917521749609e-01 2.656178368201335127e-01 8.723498123991505482e-01 5.203732042782176492e-01 5.191157996846882394e-01 3.468236909746457708e-01 2.430000918360035178e-01 3.089764887263867776e-01 5.948043247488831176e-01 7.825699872329421325e-01 3.740445315402117221e-01 3.359362081551367507e-01 6.178404880902796936e-01 3.079046926737531997e-01 6.863879173900578889e-01 3.549770776396373728e-01 4.865577229250080959e-01 -3.016011581055192958e-01 2.999859273721347530e-01 3.286732078684230784e-01 4.593790576291799099e-01 1.973842385873013361e-01 3.671196791993566744e-01 1.839720604676361893e+00 -1.130768085477739521e-02 3.677879492284246155e-01 -2.305601274881085572e-01 1.700665861618918973e+00 1.167759256671025314e+00 3.865543696774002835e-02 -4.359293041333793806e-01 4.517339153569855936e-01 2.607192248719124583e-01 4.751053271853000193e-01 3.021222073302285427e-01 3.029155283024929091e-01 2.412272860557185816e-01 3.305362625722591541e-01 2.554124736649145966e-01 -4.621315407718223217e-02 -2.415628174501435188e-01 2.982596193739119883e-01 2.162058515898308553e-01 2.604671447192487554e-01 8.867934562864873138e-01 4.367386111885162014e-01 3.230857367681370107e-01 8.636040933667155084e-01 4.750251549069718360e-01 5.278746122396643647e-01 4.467909435207638169e-01 7.017630125705494049e-01 1.488423386859565323e+00 4.032980566307965975e-01 2.138810514262081686e+00 -2.041638307683961429e-02 1.615339375918791731e-01 3.019124136309896955e-01 3.507313058279337703e-01 3.904640905958560726e-01 2.578568124066420997e-01 2.867641410848671968e-01 3.036810457634044336e-01 3.727802721041564848e-01 2.339887125748557617e-01 -3.674470065862554535e-01 3.213131153983614374e-01 -5.016939942390465090e-02 3.080846547802178481e-01 4.081972963696297030e-01 4.367386110885859152e-01 2.383862794170297783e-01 2.420270524656612798e-01 -1.314943328652658394e+00 1.997976352380128384e+00 3.025736526127036918e-01 -7.685319839783312235e-01 2.967207833925910032e-01 3.381890315340688735e-01 2.996587424834524782e-01 -4.893985409424267630e+00 3.607434155210525795e+00 6.373829553667240688e-01 1.205272183305325373e-02 3.275991809527966092e-01 2.988163728553073217e-01 2.492348120735729533e-01 2.675813702913049763e+00 6.339359069366455879e-01 3.192278565776215382e-01 3.267819872788186863e-01 3.173294787913532033e-01 3.403967600095349488e-01 8.526417145721961743e-01 -3.715649855192776352e-01 -1.244997161142532782e+00 -1.247823818797992423e+00 3.023387174616659623e-01 2.977440192412780795e-01 7.457191864290754202e-01 3.594970674803447674e-01 1.530099697508791934e+00 4.957363752541238955e-01 3.060355718552772997e-01 3.417397513876647142e-01 3.019778839023544159e-01 3.423126746482309524e-01 3.079705158225555239e-01 6.356259543933117095e-01 3.404013994353135564e-01 6.603173496286751654e-01 2.371261127957790815e-01 6.990925810858149292e-02 3.079228788529743133e-01 1.761437460994738358e-01 2.442918618011875320e-01 3.036386306366992693e-01 6.273665941533300705e-01 4.843291494481925530e-01 2.421906020396367709e-01 2.361415611694707983e-01 3.021230724793351197e-01 2.791010870145439471e-01 1.725660651335585660e+00 1.958612451371914087e+00 3.073988214509095762e-01 3.058107304136358229e-01 3.039696058457283523e-01 1.722074884795351257e-01 2.198250808104000031e-01 4.399171689713901046e-01 2.878352743021568849e-01 3.297321464290861592e-01 8.136811700887172094e-01 9.012732080197046747e-01 3.375195511891888600e-01 1.903425771651612752e+00 3.783123430680518928e-01 -2.896738153466749677e-01 -2.696604086402756839e-01 -3.004224571811024425e-01 3.044258508402015728e-01 3.540287164192016389e-01 7.092376103776226737e-01 2.924851998007315101e-01 4.348414538251952344e-01 2.831882093989173121e-01 3.014120445981495755e-01 2.641816316859501579e-01 -8.024427525245596271e-02 1.005387920170797811e+00 2.957167761625200120e-01 2.916861431837464713e-01 3.101393923648057549e-01 3.480085009640475624e-01 3.049635533971757906e-01 3.986710699711155104e-01 -7.362967415677658389e-02 2.220453473338283856e-01 2.835687643309693362e-01 -4.527826380860170558e-02 4.367384731572996337e-01 1.091551492841806414e+00 9.767202460393336061e-01 -7.165539317108851058e-01 -4.093142763365914538e-01 6.618863115113171602e-01 -3.400932650094289578e+00 1.588697351822637938e+00 2.991711959899034934e-01 -4.603220665116376092e-02 2.988442702463646183e-01 9.118081135872067033e-01 2.980844363028488653e-01 4.182292450625600400e-01 -4.391482967594311781e-01 8.123286275384096200e-01 3.084627877532745144e-01 8.535721443697177335e-01 2.123738337802489440e+00 -3.717283112879138929e-01 -1.493909328766799938e+00 2.674127644699365591e-01 3.022375452803694462e-01 7.443923685577280569e-01 2.873931792896518012e-01 6.959720326419752690e-01 4.690816172070655932e-01 3.551420157335822281e-01 3.071166317654006050e-01 3.101838648616573879e-01 3.332130965927234678e-01 3.143822013232202006e-01 1.445852531460544599e+00 1.681525609322462866e+00 2.935363096809101013e-01 3.455184556915930627e-01 2.837954558969835173e-01 -2.522336638922805241e-01 2.337309063979613188e-01 -6.544789131517372849e-02 3.042081794418495799e-01 7.045777602115208538e-01 -5.767083167170576896e-01 3.100346538293474730e-01 3.227026714911158667e-01 1.564854727288411962e-01 3.137074834018657721e-01 1.753410844777485988e-01 3.031169905770134676e-01 3.035282623081750897e-01 7.079319117813065443e-02 3.070929917735900627e-01 4.315584666246490286e-01 1.140930267953047306e+00 1.113296752563211367e+00 9.066818411748794881e-01 2.218536472057593412e-01 7.965737924291032002e-01 1.637679491257025000e-01 5.103628127276759185e-01 -2.205066663656230386e+00 2.969620352255252782e-01 6.650368152116271636e-01 3.008568996936222817e-01 9.424952554632514135e-01 1.385866876715069917e+00 3.267822244635532059e-01 2.366673056465363190e-01 3.765195910069087937e-01 4.285421388606497350e-01 5.470330884805162386e-01 9.799679762435309360e-01 -8.305182266598752916e-01 2.892901123315575473e-01 1.127579292032627502e-02 3.169783304678007729e-01 3.400397873628162038e-01 7.578740072183806076e-01 -2.883546511174397975e-01 4.146528585003523282e-01 2.941038112981881891e-01 3.592256745265084428e-01 8.967109207404363458e-01 4.356819288766235476e-01 -2.254770796703118863e-01 8.575565374755647063e-01 -3.152347135031083325e-02 5.562115040602039207e-01 3.472555335032270207e-01 1.302090659109106374e+00 6.046426495828208791e-01 7.066914378278489339e-01 4.304643152437687692e-01 4.798266464057671099e-01 -6.017197920419101731e-01 2.191947998148142951e-01 7.449395131952343263e-01 2.927682121021633055e-01 6.022849316705364275e-01 3.080364257069115319e-01 3.078375708499079266e-01 7.072178006262621608e-01 1.719088609961290093e-01 -2.080378438404027364e+00 2.167081916551201193e-01 2.499321706543380928e-01 9.590881888897431207e-01 3.243537280986548699e-01 3.201160696651136894e-01 3.788113462127861153e-01 3.080581397709648561e-01 4.086959769045546143e-01 1.222216943725229904e-01 -1.639133829002050735e+00 7.690221386289501915e-01 2.379219970949717489e-01 3.104354448254536547e-01 2.840886053771271569e-01 8.177332439008796472e-01 3.081884925616194537e-01 -1.609353601491338992e-01 3.565849802211099595e-01 1.128246661806674878e+00 3.249616016081978698e-01 4.168725595929192451e-01 1.034970903007169429e+00 4.335159558674677172e-01 2.874382696734544052e+00 3.160904473561461092e-01 3.257617824437032406e-01 7.163811264385108180e-01 2.939061362291171542e-01 3.287289069447292822e-01 -2.204284900072438269e+00 4.653161293375759344e-01 3.075694951583305414e-01 5.208060108685701461e-01 2.992651721443197466e-01 1.904638596737683043e-01 -1.555059736925251124e-01 2.095737432396647559e+00 -5.172951557029765723e-01 8.230012948092841896e-01 3.020743770308242926e-01 3.203786796584317531e-01 8.643185106645390192e-01 2.754386841215601400e-01 1.352766154271084265e+00 2.432365843372876202e-01 4.164914012479314920e-01 -8.886275126217573206e-01 -1.275314632447582253e-01 -6.487221364030910653e-01 -4.114196133651542020e+00 3.025107316989852357e+00 1.551767057142881302e-02 2.817099485341725829e-01 -1.682210306778985087e+00 3.006085911783726305e-01 4.694982208144675151e-01 3.175236960854490587e-01 1.932913687393045810e-01 6.438844137863518613e-01 6.060801532036910189e-01 1.117226973081772989e+00 -4.093142788807975219e-01 -2.415884343421496327e-01 2.755693212253647051e-01 -1.202949519667656730e+00 3.733476476307315828e-01 -6.637136520720614552e-01 3.135099431623162847e-01 4.359184422184649854e-01 1.323969932828709117e-01 4.634086215036785639e-01 2.603084743974075077e-01 4.892818567285326520e-03 2.786799832019822287e-01 2.792694019766753244e-01 3.678106684242541391e-01 2.898663408200659597e-01 3.071271749665793194e-01 -7.163203120768956156e-01 4.440828932945526386e-01 1.552150790619054366e+00 8.119234804126125582e-02 2.341041796795794994e-01 2.417586269375886499e-01 1.201311107011377555e+00 3.267039955522043626e-01 7.851137959583547044e-02 8.808159227410956582e-01 2.156022174715148121e-01 1.900970758381024250e+00 3.036222923528117401e-01 1.396202056520711166e+00 2.815467665837019795e-01 7.330424218710007711e-01 1.361554413790048157e+00 4.163376848866580660e-01 2.425070255028983213e-01 9.584350302444516467e-01 -1.808302249398009709e-01 -7.093701992295932401e-02 2.647883728372419365e-01 3.081639414733882698e-01 3.674932094514258840e-01 1.467497720242535719e-01 9.316514124717370504e-02 -3.941249321000159234e-01 1.291970158936177837e+00 2.989904724924812851e-01 3.054376953652634397e-01 -3.292356476475284399e+00 5.716040910791996277e-01 2.056890815459098409e-01 3.215221503234124145e-01 3.526887296382399950e-01 4.026227276408536060e-01 -1.139922899764556963e+00 6.381555427327341157e-01 2.996208731449312435e-01 2.944284639668783843e-01 1.015099286962875658e+00 4.726158742141631230e-01 3.180398538864357416e-01 -1.427120655280014860e+00 3.337804379403492283e-01 8.967903716650624801e-01 3.818970288287055204e-01 3.130204207117810999e-01 2.687197406859299087e-01 7.090081383225158573e-01 -3.710339449817695590e-02 3.015209788768739574e-01 3.168563596672137606e-01 1.075628969308401461e-01 6.658279413480233666e-01 2.413901578616918231e-01 6.767611053982649505e-01 1.976081375292517706e-01 6.955867175925665169e-01 -2.555739455804519333e-01 -1.514444451875788911e+00 2.811562244938792809e-01 -2.238791997262934430e-02 2.576275060159071151e-01 3.375146894870122982e-01 5.691699820987735498e-02 4.843293035413480108e-01 2.947125390540067391e-01 8.530912899417540662e-02 4.122378542377928556e-01 3.269312280598857257e-01 2.784257908781585522e-01 3.565246684745518868e-01 -8.758651994551315267e-01 3.060936670656721481e-01 3.389827645906778875e-01 2.809386458854520319e-01 -3.769688904576827815e-01 2.993656790948041047e-01 8.470437774522883156e-01 -6.411384127837634894e-01 1.147492234812122369e+00 6.241568656273308591e-01 3.341750031283051148e-01 3.073042841916860946e-01 -2.081106478149997496e+00 3.067146910780454983e-01 3.011284181497259627e-01 3.326013493548106159e-01 4.843291443763408366e-01 3.011443625048111916e-01 3.469048152251079653e-01 4.928138980026963017e-02 3.066735591234069913e-01 4.318363326729193763e-01 2.896262627403078938e-01 2.418306487725723763e-01 2.789152308061186858e-01 3.116285301872360747e-01 3.079540505136791340e-01 3.653406864384059483e-01 1.621482869256085924e-01 3.043188216831691495e-01 6.322787544244330427e-01 1.467127313483549134e-01 3.118840088602056748e-01 -1.548649191775662570e-01 2.109356132412428531e-01 6.678685729628458523e-01 4.622052320493332367e+00 3.169361167670917134e-01 5.718028258795406632e-02 5.752661150706457338e-01 1.727563011832862760e-01 1.580264302526844800e+00 3.163581595603031649e-01 6.264873563395961797e-01 3.096878508414425690e-01
