# 
#                 ----------------------------------------------------
#                 Data from a 3D direct N-body simulation. 
# 
#                 rows are i-particle; 
#                 coumns are :mass, tag, x ,y, z, vx, vy, vz, ax, ay, az
# 
#                 NTHU, Computational Physics 
# 
#                 ----------------------------------------------------
#                 Time = 0.0
0.000000000000000000e+00 1.000000000000000000e+00 2.000000000000000000e+00 3.000000000000000000e+00 4.000000000000000000e+00 5.000000000000000000e+00 6.000000000000000000e+00 7.000000000000000000e+00 8.000000000000000000e+00 9.000000000000000000e+00 1.000000000000000000e+01 1.100000000000000000e+01 1.200000000000000000e+01 1.300000000000000000e+01 1.400000000000000000e+01 1.500000000000000000e+01 1.600000000000000000e+01 1.700000000000000000e+01 1.800000000000000000e+01 1.900000000000000000e+01 2.000000000000000000e+01 2.100000000000000000e+01 2.200000000000000000e+01 2.300000000000000000e+01 2.400000000000000000e+01 2.500000000000000000e+01 2.600000000000000000e+01 2.700000000000000000e+01 2.800000000000000000e+01 2.900000000000000000e+01 3.000000000000000000e+01 3.100000000000000000e+01 3.200000000000000000e+01 3.300000000000000000e+01 3.400000000000000000e+01 3.500000000000000000e+01 3.600000000000000000e+01 3.700000000000000000e+01 3.800000000000000000e+01 3.900000000000000000e+01 4.000000000000000000e+01 4.100000000000000000e+01 4.200000000000000000e+01 4.300000000000000000e+01 4.400000000000000000e+01 4.500000000000000000e+01 4.600000000000000000e+01 4.700000000000000000e+01 4.800000000000000000e+01 4.900000000000000000e+01 5.000000000000000000e+01 5.100000000000000000e+01 5.200000000000000000e+01 5.300000000000000000e+01 5.400000000000000000e+01 5.500000000000000000e+01 5.600000000000000000e+01 5.700000000000000000e+01 5.800000000000000000e+01 5.900000000000000000e+01 6.000000000000000000e+01 6.100000000000000000e+01 6.200000000000000000e+01 6.300000000000000000e+01 6.400000000000000000e+01 6.500000000000000000e+01 6.600000000000000000e+01 6.700000000000000000e+01 6.800000000000000000e+01 6.900000000000000000e+01 7.000000000000000000e+01 7.100000000000000000e+01 7.200000000000000000e+01 7.300000000000000000e+01 7.400000000000000000e+01 7.500000000000000000e+01 7.600000000000000000e+01 7.700000000000000000e+01 7.800000000000000000e+01 7.900000000000000000e+01 8.000000000000000000e+01 8.100000000000000000e+01 8.200000000000000000e+01 8.300000000000000000e+01 8.400000000000000000e+01 8.500000000000000000e+01 8.600000000000000000e+01 8.700000000000000000e+01 8.800000000000000000e+01 8.900000000000000000e+01 9.000000000000000000e+01 9.100000000000000000e+01 9.200000000000000000e+01 9.300000000000000000e+01 9.400000000000000000e+01 9.500000000000000000e+01 9.600000000000000000e+01 9.700000000000000000e+01 9.800000000000000000e+01 9.900000000000000000e+01 1.000000000000000000e+02 1.010000000000000000e+02 1.020000000000000000e+02 1.030000000000000000e+02 1.040000000000000000e+02 1.050000000000000000e+02 1.060000000000000000e+02 1.070000000000000000e+02 1.080000000000000000e+02 1.090000000000000000e+02 1.100000000000000000e+02 1.110000000000000000e+02 1.120000000000000000e+02 1.130000000000000000e+02 1.140000000000000000e+02 1.150000000000000000e+02 1.160000000000000000e+02 1.170000000000000000e+02 1.180000000000000000e+02 1.190000000000000000e+02 1.200000000000000000e+02 1.210000000000000000e+02 1.220000000000000000e+02 1.230000000000000000e+02 1.240000000000000000e+02 1.250000000000000000e+02 1.260000000000000000e+02 1.270000000000000000e+02 1.280000000000000000e+02 1.290000000000000000e+02 1.300000000000000000e+02 1.310000000000000000e+02 1.320000000000000000e+02 1.330000000000000000e+02 1.340000000000000000e+02 1.350000000000000000e+02 1.360000000000000000e+02 1.370000000000000000e+02 1.380000000000000000e+02 1.390000000000000000e+02 1.400000000000000000e+02 1.410000000000000000e+02 1.420000000000000000e+02 1.430000000000000000e+02 1.440000000000000000e+02 1.450000000000000000e+02 1.460000000000000000e+02 1.470000000000000000e+02 1.480000000000000000e+02 1.490000000000000000e+02 1.500000000000000000e+02 1.510000000000000000e+02 1.520000000000000000e+02 1.530000000000000000e+02 1.540000000000000000e+02 1.550000000000000000e+02 1.560000000000000000e+02 1.570000000000000000e+02 1.580000000000000000e+02 1.590000000000000000e+02 1.600000000000000000e+02 1.610000000000000000e+02 1.620000000000000000e+02 1.630000000000000000e+02 1.640000000000000000e+02 1.650000000000000000e+02 1.660000000000000000e+02 1.670000000000000000e+02 1.680000000000000000e+02 1.690000000000000000e+02 1.700000000000000000e+02 1.710000000000000000e+02 1.720000000000000000e+02 1.730000000000000000e+02 1.740000000000000000e+02 1.750000000000000000e+02 1.760000000000000000e+02 1.770000000000000000e+02 1.780000000000000000e+02 1.790000000000000000e+02 1.800000000000000000e+02 1.810000000000000000e+02 1.820000000000000000e+02 1.830000000000000000e+02 1.840000000000000000e+02 1.850000000000000000e+02 1.860000000000000000e+02 1.870000000000000000e+02 1.880000000000000000e+02 1.890000000000000000e+02 1.900000000000000000e+02 1.910000000000000000e+02 1.920000000000000000e+02 1.930000000000000000e+02 1.940000000000000000e+02 1.950000000000000000e+02 1.960000000000000000e+02 1.970000000000000000e+02 1.980000000000000000e+02 1.990000000000000000e+02 2.000000000000000000e+02 2.010000000000000000e+02 2.020000000000000000e+02 2.030000000000000000e+02 2.040000000000000000e+02 2.050000000000000000e+02 2.060000000000000000e+02 2.070000000000000000e+02 2.080000000000000000e+02 2.090000000000000000e+02 2.100000000000000000e+02 2.110000000000000000e+02 2.120000000000000000e+02 2.130000000000000000e+02 2.140000000000000000e+02 2.150000000000000000e+02 2.160000000000000000e+02 2.170000000000000000e+02 2.180000000000000000e+02 2.190000000000000000e+02 2.200000000000000000e+02 2.210000000000000000e+02 2.220000000000000000e+02 2.230000000000000000e+02 2.240000000000000000e+02 2.250000000000000000e+02 2.260000000000000000e+02 2.270000000000000000e+02 2.280000000000000000e+02 2.290000000000000000e+02 2.300000000000000000e+02 2.310000000000000000e+02 2.320000000000000000e+02 2.330000000000000000e+02 2.340000000000000000e+02 2.350000000000000000e+02 2.360000000000000000e+02 2.370000000000000000e+02 2.380000000000000000e+02 2.390000000000000000e+02 2.400000000000000000e+02 2.410000000000000000e+02 2.420000000000000000e+02 2.430000000000000000e+02 2.440000000000000000e+02 2.450000000000000000e+02 2.460000000000000000e+02 2.470000000000000000e+02 2.480000000000000000e+02 2.490000000000000000e+02 2.500000000000000000e+02 2.510000000000000000e+02 2.520000000000000000e+02 2.530000000000000000e+02 2.540000000000000000e+02 2.550000000000000000e+02 2.560000000000000000e+02 2.570000000000000000e+02 2.580000000000000000e+02 2.590000000000000000e+02 2.600000000000000000e+02 2.610000000000000000e+02 2.620000000000000000e+02 2.630000000000000000e+02 2.640000000000000000e+02 2.650000000000000000e+02 2.660000000000000000e+02 2.670000000000000000e+02 2.680000000000000000e+02 2.690000000000000000e+02 2.700000000000000000e+02 2.710000000000000000e+02 2.720000000000000000e+02 2.730000000000000000e+02 2.740000000000000000e+02 2.750000000000000000e+02 2.760000000000000000e+02 2.770000000000000000e+02 2.780000000000000000e+02 2.790000000000000000e+02 2.800000000000000000e+02 2.810000000000000000e+02 2.820000000000000000e+02 2.830000000000000000e+02 2.840000000000000000e+02 2.850000000000000000e+02 2.860000000000000000e+02 2.870000000000000000e+02 2.880000000000000000e+02 2.890000000000000000e+02 2.900000000000000000e+02 2.910000000000000000e+02 2.920000000000000000e+02 2.930000000000000000e+02 2.940000000000000000e+02 2.950000000000000000e+02 2.960000000000000000e+02 2.970000000000000000e+02 2.980000000000000000e+02 2.990000000000000000e+02 3.000000000000000000e+02 3.010000000000000000e+02 3.020000000000000000e+02 3.030000000000000000e+02 3.040000000000000000e+02 3.050000000000000000e+02 3.060000000000000000e+02 3.070000000000000000e+02 3.080000000000000000e+02 3.090000000000000000e+02 3.100000000000000000e+02 3.110000000000000000e+02 3.120000000000000000e+02 3.130000000000000000e+02 3.140000000000000000e+02 3.150000000000000000e+02 3.160000000000000000e+02 3.170000000000000000e+02 3.180000000000000000e+02 3.190000000000000000e+02 3.200000000000000000e+02 3.210000000000000000e+02 3.220000000000000000e+02 3.230000000000000000e+02 3.240000000000000000e+02 3.250000000000000000e+02 3.260000000000000000e+02 3.270000000000000000e+02 3.280000000000000000e+02 3.290000000000000000e+02 3.300000000000000000e+02 3.310000000000000000e+02 3.320000000000000000e+02 3.330000000000000000e+02 3.340000000000000000e+02 3.350000000000000000e+02 3.360000000000000000e+02 3.370000000000000000e+02 3.380000000000000000e+02 3.390000000000000000e+02 3.400000000000000000e+02 3.410000000000000000e+02 3.420000000000000000e+02 3.430000000000000000e+02 3.440000000000000000e+02 3.450000000000000000e+02 3.460000000000000000e+02 3.470000000000000000e+02 3.480000000000000000e+02 3.490000000000000000e+02 3.500000000000000000e+02 3.510000000000000000e+02 3.520000000000000000e+02 3.530000000000000000e+02 3.540000000000000000e+02 3.550000000000000000e+02 3.560000000000000000e+02 3.570000000000000000e+02 3.580000000000000000e+02 3.590000000000000000e+02 3.600000000000000000e+02 3.610000000000000000e+02 3.620000000000000000e+02 3.630000000000000000e+02 3.640000000000000000e+02 3.650000000000000000e+02 3.660000000000000000e+02 3.670000000000000000e+02 3.680000000000000000e+02 3.690000000000000000e+02 3.700000000000000000e+02 3.710000000000000000e+02 3.720000000000000000e+02 3.730000000000000000e+02 3.740000000000000000e+02 3.750000000000000000e+02 3.760000000000000000e+02 3.770000000000000000e+02 3.780000000000000000e+02 3.790000000000000000e+02 3.800000000000000000e+02 3.810000000000000000e+02 3.820000000000000000e+02 3.830000000000000000e+02 3.840000000000000000e+02 3.850000000000000000e+02 3.860000000000000000e+02 3.870000000000000000e+02 3.880000000000000000e+02 3.890000000000000000e+02 3.900000000000000000e+02 3.910000000000000000e+02 3.920000000000000000e+02 3.930000000000000000e+02 3.940000000000000000e+02 3.950000000000000000e+02 3.960000000000000000e+02 3.970000000000000000e+02 3.980000000000000000e+02 3.990000000000000000e+02 4.000000000000000000e+02 4.010000000000000000e+02 4.020000000000000000e+02 4.030000000000000000e+02 4.040000000000000000e+02 4.050000000000000000e+02 4.060000000000000000e+02 4.070000000000000000e+02 4.080000000000000000e+02 4.090000000000000000e+02 4.100000000000000000e+02 4.110000000000000000e+02 4.120000000000000000e+02 4.130000000000000000e+02 4.140000000000000000e+02 4.150000000000000000e+02 4.160000000000000000e+02 4.170000000000000000e+02 4.180000000000000000e+02 4.190000000000000000e+02 4.200000000000000000e+02 4.210000000000000000e+02 4.220000000000000000e+02 4.230000000000000000e+02 4.240000000000000000e+02 4.250000000000000000e+02 4.260000000000000000e+02 4.270000000000000000e+02 4.280000000000000000e+02 4.290000000000000000e+02 4.300000000000000000e+02 4.310000000000000000e+02 4.320000000000000000e+02 4.330000000000000000e+02 4.340000000000000000e+02 4.350000000000000000e+02 4.360000000000000000e+02 4.370000000000000000e+02 4.380000000000000000e+02 4.390000000000000000e+02 4.400000000000000000e+02 4.410000000000000000e+02 4.420000000000000000e+02 4.430000000000000000e+02 4.440000000000000000e+02 4.450000000000000000e+02 4.460000000000000000e+02 4.470000000000000000e+02 4.480000000000000000e+02 4.490000000000000000e+02 4.500000000000000000e+02 4.510000000000000000e+02 4.520000000000000000e+02 4.530000000000000000e+02 4.540000000000000000e+02 4.550000000000000000e+02 4.560000000000000000e+02 4.570000000000000000e+02 4.580000000000000000e+02 4.590000000000000000e+02 4.600000000000000000e+02 4.610000000000000000e+02 4.620000000000000000e+02 4.630000000000000000e+02 4.640000000000000000e+02 4.650000000000000000e+02 4.660000000000000000e+02 4.670000000000000000e+02 4.680000000000000000e+02 4.690000000000000000e+02 4.700000000000000000e+02 4.710000000000000000e+02 4.720000000000000000e+02 4.730000000000000000e+02 4.740000000000000000e+02 4.750000000000000000e+02 4.760000000000000000e+02 4.770000000000000000e+02 4.780000000000000000e+02 4.790000000000000000e+02 4.800000000000000000e+02 4.810000000000000000e+02 4.820000000000000000e+02 4.830000000000000000e+02 4.840000000000000000e+02 4.850000000000000000e+02 4.860000000000000000e+02 4.870000000000000000e+02 4.880000000000000000e+02 4.890000000000000000e+02 4.900000000000000000e+02 4.910000000000000000e+02 4.920000000000000000e+02 4.930000000000000000e+02 4.940000000000000000e+02 4.950000000000000000e+02 4.960000000000000000e+02 4.970000000000000000e+02 4.980000000000000000e+02 4.990000000000000000e+02 5.000000000000000000e+02 5.010000000000000000e+02 5.020000000000000000e+02 5.030000000000000000e+02 5.040000000000000000e+02 5.050000000000000000e+02 5.060000000000000000e+02 5.070000000000000000e+02 5.080000000000000000e+02 5.090000000000000000e+02 5.100000000000000000e+02 5.110000000000000000e+02 5.120000000000000000e+02 5.130000000000000000e+02 5.140000000000000000e+02 5.150000000000000000e+02 5.160000000000000000e+02 5.170000000000000000e+02 5.180000000000000000e+02 5.190000000000000000e+02 5.200000000000000000e+02 5.210000000000000000e+02 5.220000000000000000e+02 5.230000000000000000e+02 5.240000000000000000e+02 5.250000000000000000e+02 5.260000000000000000e+02 5.270000000000000000e+02 5.280000000000000000e+02 5.290000000000000000e+02 5.300000000000000000e+02 5.310000000000000000e+02 5.320000000000000000e+02 5.330000000000000000e+02 5.340000000000000000e+02 5.350000000000000000e+02 5.360000000000000000e+02 5.370000000000000000e+02 5.380000000000000000e+02 5.390000000000000000e+02 5.400000000000000000e+02 5.410000000000000000e+02 5.420000000000000000e+02 5.430000000000000000e+02 5.440000000000000000e+02 5.450000000000000000e+02 5.460000000000000000e+02 5.470000000000000000e+02 5.480000000000000000e+02 5.490000000000000000e+02 5.500000000000000000e+02 5.510000000000000000e+02 5.520000000000000000e+02 5.530000000000000000e+02 5.540000000000000000e+02 5.550000000000000000e+02 5.560000000000000000e+02 5.570000000000000000e+02 5.580000000000000000e+02 5.590000000000000000e+02 5.600000000000000000e+02 5.610000000000000000e+02 5.620000000000000000e+02 5.630000000000000000e+02 5.640000000000000000e+02 5.650000000000000000e+02 5.660000000000000000e+02 5.670000000000000000e+02 5.680000000000000000e+02 5.690000000000000000e+02 5.700000000000000000e+02 5.710000000000000000e+02 5.720000000000000000e+02 5.730000000000000000e+02 5.740000000000000000e+02 5.750000000000000000e+02 5.760000000000000000e+02 5.770000000000000000e+02 5.780000000000000000e+02 5.790000000000000000e+02 5.800000000000000000e+02 5.810000000000000000e+02 5.820000000000000000e+02 5.830000000000000000e+02 5.840000000000000000e+02 5.850000000000000000e+02 5.860000000000000000e+02 5.870000000000000000e+02 5.880000000000000000e+02 5.890000000000000000e+02 5.900000000000000000e+02 5.910000000000000000e+02 5.920000000000000000e+02 5.930000000000000000e+02 5.940000000000000000e+02 5.950000000000000000e+02 5.960000000000000000e+02 5.970000000000000000e+02 5.980000000000000000e+02 5.990000000000000000e+02 6.000000000000000000e+02 6.010000000000000000e+02 6.020000000000000000e+02 6.030000000000000000e+02 6.040000000000000000e+02 6.050000000000000000e+02 6.060000000000000000e+02 6.070000000000000000e+02 6.080000000000000000e+02 6.090000000000000000e+02 6.100000000000000000e+02 6.110000000000000000e+02 6.120000000000000000e+02 6.130000000000000000e+02 6.140000000000000000e+02 6.150000000000000000e+02 6.160000000000000000e+02 6.170000000000000000e+02 6.180000000000000000e+02 6.190000000000000000e+02 6.200000000000000000e+02 6.210000000000000000e+02 6.220000000000000000e+02 6.230000000000000000e+02 6.240000000000000000e+02 6.250000000000000000e+02 6.260000000000000000e+02 6.270000000000000000e+02 6.280000000000000000e+02 6.290000000000000000e+02 6.300000000000000000e+02 6.310000000000000000e+02 6.320000000000000000e+02 6.330000000000000000e+02 6.340000000000000000e+02 6.350000000000000000e+02 6.360000000000000000e+02 6.370000000000000000e+02 6.380000000000000000e+02 6.390000000000000000e+02 6.400000000000000000e+02 6.410000000000000000e+02 6.420000000000000000e+02 6.430000000000000000e+02 6.440000000000000000e+02 6.450000000000000000e+02 6.460000000000000000e+02 6.470000000000000000e+02 6.480000000000000000e+02 6.490000000000000000e+02 6.500000000000000000e+02 6.510000000000000000e+02 6.520000000000000000e+02 6.530000000000000000e+02 6.540000000000000000e+02 6.550000000000000000e+02 6.560000000000000000e+02 6.570000000000000000e+02 6.580000000000000000e+02 6.590000000000000000e+02 6.600000000000000000e+02 6.610000000000000000e+02 6.620000000000000000e+02 6.630000000000000000e+02 6.640000000000000000e+02 6.650000000000000000e+02 6.660000000000000000e+02 6.670000000000000000e+02 6.680000000000000000e+02 6.690000000000000000e+02 6.700000000000000000e+02 6.710000000000000000e+02 6.720000000000000000e+02 6.730000000000000000e+02 6.740000000000000000e+02 6.750000000000000000e+02 6.760000000000000000e+02 6.770000000000000000e+02 6.780000000000000000e+02 6.790000000000000000e+02 6.800000000000000000e+02 6.810000000000000000e+02 6.820000000000000000e+02 6.830000000000000000e+02 6.840000000000000000e+02 6.850000000000000000e+02 6.860000000000000000e+02 6.870000000000000000e+02 6.880000000000000000e+02 6.890000000000000000e+02 6.900000000000000000e+02 6.910000000000000000e+02 6.920000000000000000e+02 6.930000000000000000e+02 6.940000000000000000e+02 6.950000000000000000e+02 6.960000000000000000e+02 6.970000000000000000e+02 6.980000000000000000e+02 6.990000000000000000e+02 7.000000000000000000e+02 7.010000000000000000e+02 7.020000000000000000e+02 7.030000000000000000e+02 7.040000000000000000e+02 7.050000000000000000e+02 7.060000000000000000e+02 7.070000000000000000e+02 7.080000000000000000e+02 7.090000000000000000e+02 7.100000000000000000e+02 7.110000000000000000e+02 7.120000000000000000e+02 7.130000000000000000e+02 7.140000000000000000e+02 7.150000000000000000e+02 7.160000000000000000e+02 7.170000000000000000e+02 7.180000000000000000e+02 7.190000000000000000e+02 7.200000000000000000e+02 7.210000000000000000e+02 7.220000000000000000e+02 7.230000000000000000e+02 7.240000000000000000e+02 7.250000000000000000e+02 7.260000000000000000e+02 7.270000000000000000e+02 7.280000000000000000e+02 7.290000000000000000e+02 7.300000000000000000e+02 7.310000000000000000e+02 7.320000000000000000e+02 7.330000000000000000e+02 7.340000000000000000e+02 7.350000000000000000e+02 7.360000000000000000e+02 7.370000000000000000e+02 7.380000000000000000e+02 7.390000000000000000e+02 7.400000000000000000e+02 7.410000000000000000e+02 7.420000000000000000e+02 7.430000000000000000e+02 7.440000000000000000e+02 7.450000000000000000e+02 7.460000000000000000e+02 7.470000000000000000e+02 7.480000000000000000e+02 7.490000000000000000e+02 7.500000000000000000e+02 7.510000000000000000e+02 7.520000000000000000e+02 7.530000000000000000e+02 7.540000000000000000e+02 7.550000000000000000e+02 7.560000000000000000e+02 7.570000000000000000e+02 7.580000000000000000e+02 7.590000000000000000e+02 7.600000000000000000e+02 7.610000000000000000e+02 7.620000000000000000e+02 7.630000000000000000e+02 7.640000000000000000e+02 7.650000000000000000e+02 7.660000000000000000e+02 7.670000000000000000e+02 7.680000000000000000e+02 7.690000000000000000e+02 7.700000000000000000e+02 7.710000000000000000e+02 7.720000000000000000e+02 7.730000000000000000e+02 7.740000000000000000e+02 7.750000000000000000e+02 7.760000000000000000e+02 7.770000000000000000e+02 7.780000000000000000e+02 7.790000000000000000e+02 7.800000000000000000e+02 7.810000000000000000e+02 7.820000000000000000e+02 7.830000000000000000e+02 7.840000000000000000e+02 7.850000000000000000e+02 7.860000000000000000e+02 7.870000000000000000e+02 7.880000000000000000e+02 7.890000000000000000e+02 7.900000000000000000e+02 7.910000000000000000e+02 7.920000000000000000e+02 7.930000000000000000e+02 7.940000000000000000e+02 7.950000000000000000e+02 7.960000000000000000e+02 7.970000000000000000e+02 7.980000000000000000e+02 7.990000000000000000e+02 8.000000000000000000e+02 8.010000000000000000e+02 8.020000000000000000e+02 8.030000000000000000e+02 8.040000000000000000e+02 8.050000000000000000e+02 8.060000000000000000e+02 8.070000000000000000e+02 8.080000000000000000e+02 8.090000000000000000e+02 8.100000000000000000e+02 8.110000000000000000e+02 8.120000000000000000e+02 8.130000000000000000e+02 8.140000000000000000e+02 8.150000000000000000e+02 8.160000000000000000e+02 8.170000000000000000e+02 8.180000000000000000e+02 8.190000000000000000e+02 8.200000000000000000e+02 8.210000000000000000e+02 8.220000000000000000e+02 8.230000000000000000e+02 8.240000000000000000e+02 8.250000000000000000e+02 8.260000000000000000e+02 8.270000000000000000e+02 8.280000000000000000e+02 8.290000000000000000e+02 8.300000000000000000e+02 8.310000000000000000e+02 8.320000000000000000e+02 8.330000000000000000e+02 8.340000000000000000e+02 8.350000000000000000e+02 8.360000000000000000e+02 8.370000000000000000e+02 8.380000000000000000e+02 8.390000000000000000e+02 8.400000000000000000e+02 8.410000000000000000e+02 8.420000000000000000e+02 8.430000000000000000e+02 8.440000000000000000e+02 8.450000000000000000e+02 8.460000000000000000e+02 8.470000000000000000e+02 8.480000000000000000e+02 8.490000000000000000e+02 8.500000000000000000e+02 8.510000000000000000e+02 8.520000000000000000e+02 8.530000000000000000e+02 8.540000000000000000e+02 8.550000000000000000e+02 8.560000000000000000e+02 8.570000000000000000e+02 8.580000000000000000e+02 8.590000000000000000e+02 8.600000000000000000e+02 8.610000000000000000e+02 8.620000000000000000e+02 8.630000000000000000e+02 8.640000000000000000e+02 8.650000000000000000e+02 8.660000000000000000e+02 8.670000000000000000e+02 8.680000000000000000e+02 8.690000000000000000e+02 8.700000000000000000e+02 8.710000000000000000e+02 8.720000000000000000e+02 8.730000000000000000e+02 8.740000000000000000e+02 8.750000000000000000e+02 8.760000000000000000e+02 8.770000000000000000e+02 8.780000000000000000e+02 8.790000000000000000e+02 8.800000000000000000e+02 8.810000000000000000e+02 8.820000000000000000e+02 8.830000000000000000e+02 8.840000000000000000e+02 8.850000000000000000e+02 8.860000000000000000e+02 8.870000000000000000e+02 8.880000000000000000e+02 8.890000000000000000e+02 8.900000000000000000e+02 8.910000000000000000e+02 8.920000000000000000e+02 8.930000000000000000e+02 8.940000000000000000e+02 8.950000000000000000e+02 8.960000000000000000e+02 8.970000000000000000e+02 8.980000000000000000e+02 8.990000000000000000e+02 9.000000000000000000e+02 9.010000000000000000e+02 9.020000000000000000e+02 9.030000000000000000e+02 9.040000000000000000e+02 9.050000000000000000e+02 9.060000000000000000e+02 9.070000000000000000e+02 9.080000000000000000e+02 9.090000000000000000e+02 9.100000000000000000e+02 9.110000000000000000e+02 9.120000000000000000e+02 9.130000000000000000e+02 9.140000000000000000e+02 9.150000000000000000e+02 9.160000000000000000e+02 9.170000000000000000e+02 9.180000000000000000e+02 9.190000000000000000e+02 9.200000000000000000e+02 9.210000000000000000e+02 9.220000000000000000e+02 9.230000000000000000e+02 9.240000000000000000e+02 9.250000000000000000e+02 9.260000000000000000e+02 9.270000000000000000e+02 9.280000000000000000e+02 9.290000000000000000e+02 9.300000000000000000e+02 9.310000000000000000e+02 9.320000000000000000e+02 9.330000000000000000e+02 9.340000000000000000e+02 9.350000000000000000e+02 9.360000000000000000e+02 9.370000000000000000e+02 9.380000000000000000e+02 9.390000000000000000e+02 9.400000000000000000e+02 9.410000000000000000e+02 9.420000000000000000e+02 9.430000000000000000e+02 9.440000000000000000e+02 9.450000000000000000e+02 9.460000000000000000e+02 9.470000000000000000e+02 9.480000000000000000e+02 9.490000000000000000e+02 9.500000000000000000e+02 9.510000000000000000e+02 9.520000000000000000e+02 9.530000000000000000e+02 9.540000000000000000e+02 9.550000000000000000e+02 9.560000000000000000e+02 9.570000000000000000e+02 9.580000000000000000e+02 9.590000000000000000e+02 9.600000000000000000e+02 9.610000000000000000e+02 9.620000000000000000e+02 9.630000000000000000e+02 9.640000000000000000e+02 9.650000000000000000e+02 9.660000000000000000e+02 9.670000000000000000e+02 9.680000000000000000e+02 9.690000000000000000e+02 9.700000000000000000e+02 9.710000000000000000e+02 9.720000000000000000e+02 9.730000000000000000e+02 9.740000000000000000e+02 9.750000000000000000e+02 9.760000000000000000e+02 9.770000000000000000e+02 9.780000000000000000e+02 9.790000000000000000e+02 9.800000000000000000e+02 9.810000000000000000e+02 9.820000000000000000e+02 9.830000000000000000e+02 9.840000000000000000e+02 9.850000000000000000e+02 9.860000000000000000e+02 9.870000000000000000e+02 9.880000000000000000e+02 9.890000000000000000e+02 9.900000000000000000e+02 9.910000000000000000e+02 9.920000000000000000e+02 9.930000000000000000e+02 9.940000000000000000e+02 9.950000000000000000e+02 9.960000000000000000e+02 9.970000000000000000e+02 9.980000000000000000e+02 9.990000000000000000e+02
1.000000000000000000e+00 1.000000000000000000e+00 1.000000000000000000e+00 1.000000000000000000e+00 1.000000000000000000e+00 1.000000000000000000e+00 1.000000000000000000e+00 1.000000000000000000e+00 1.000000000000000000e+00 1.000000000000000000e+00 1.000000000000000000e+00 1.000000000000000000e+00 1.000000000000000000e+00 1.000000000000000000e+00 1.000000000000000000e+00 1.000000000000000000e+00 1.000000000000000000e+00 1.000000000000000000e+00 1.000000000000000000e+00 1.000000000000000000e+00 1.000000000000000000e+00 1.000000000000000000e+00 1.000000000000000000e+00 1.000000000000000000e+00 1.000000000000000000e+00 1.000000000000000000e+00 1.000000000000000000e+00 1.000000000000000000e+00 1.000000000000000000e+00 1.000000000000000000e+00 1.000000000000000000e+00 1.000000000000000000e+00 1.000000000000000000e+00 1.000000000000000000e+00 1.000000000000000000e+00 1.000000000000000000e+00 1.000000000000000000e+00 1.000000000000000000e+00 1.000000000000000000e+00 1.000000000000000000e+00 1.000000000000000000e+00 1.000000000000000000e+00 1.000000000000000000e+00 1.000000000000000000e+00 1.000000000000000000e+00 1.000000000000000000e+00 1.000000000000000000e+00 1.000000000000000000e+00 1.000000000000000000e+00 1.000000000000000000e+00 1.000000000000000000e+00 1.000000000000000000e+00 1.000000000000000000e+00 1.000000000000000000e+00 1.000000000000000000e+00 1.000000000000000000e+00 1.000000000000000000e+00 1.000000000000000000e+00 1.000000000000000000e+00 1.000000000000000000e+00 1.000000000000000000e+00 1.000000000000000000e+00 1.000000000000000000e+00 1.000000000000000000e+00 1.000000000000000000e+00 1.000000000000000000e+00 1.000000000000000000e+00 1.000000000000000000e+00 1.000000000000000000e+00 1.000000000000000000e+00 1.000000000000000000e+00 1.000000000000000000e+00 1.000000000000000000e+00 1.000000000000000000e+00 1.000000000000000000e+00 1.000000000000000000e+00 1.000000000000000000e+00 1.000000000000000000e+00 1.000000000000000000e+00 1.000000000000000000e+00 1.000000000000000000e+00 1.000000000000000000e+00 1.000000000000000000e+00 1.000000000000000000e+00 1.000000000000000000e+00 1.000000000000000000e+00 1.000000000000000000e+00 1.000000000000000000e+00 1.000000000000000000e+00 1.000000000000000000e+00 1.000000000000000000e+00 1.000000000000000000e+00 1.000000000000000000e+00 1.000000000000000000e+00 1.000000000000000000e+00 1.000000000000000000e+00 1.000000000000000000e+00 1.000000000000000000e+00 1.000000000000000000e+00 1.000000000000000000e+00 1.000000000000000000e+00 1.000000000000000000e+00 1.000000000000000000e+00 1.000000000000000000e+00 1.000000000000000000e+00 1.000000000000000000e+00 1.000000000000000000e+00 1.000000000000000000e+00 1.000000000000000000e+00 1.000000000000000000e+00 1.000000000000000000e+00 1.000000000000000000e+00 1.000000000000000000e+00 1.000000000000000000e+00 1.000000000000000000e+00 1.000000000000000000e+00 1.000000000000000000e+00 1.000000000000000000e+00 1.000000000000000000e+00 1.000000000000000000e+00 1.000000000000000000e+00 1.000000000000000000e+00 1.000000000000000000e+00 1.000000000000000000e+00 1.000000000000000000e+00 1.000000000000000000e+00 1.000000000000000000e+00 1.000000000000000000e+00 1.000000000000000000e+00 1.000000000000000000e+00 1.000000000000000000e+00 1.000000000000000000e+00 1.000000000000000000e+00 1.000000000000000000e+00 1.000000000000000000e+00 1.000000000000000000e+00 1.000000000000000000e+00 1.000000000000000000e+00 1.000000000000000000e+00 1.000000000000000000e+00 1.000000000000000000e+00 1.000000000000000000e+00 1.000000000000000000e+00 1.000000000000000000e+00 1.000000000000000000e+00 1.000000000000000000e+00 1.000000000000000000e+00 1.000000000000000000e+00 1.000000000000000000e+00 1.000000000000000000e+00 1.000000000000000000e+00 1.000000000000000000e+00 1.000000000000000000e+00 1.000000000000000000e+00 1.000000000000000000e+00 1.000000000000000000e+00 1.000000000000000000e+00 1.000000000000000000e+00 1.000000000000000000e+00 1.000000000000000000e+00 1.000000000000000000e+00 1.000000000000000000e+00 1.000000000000000000e+00 1.000000000000000000e+00 1.000000000000000000e+00 1.000000000000000000e+00 1.000000000000000000e+00 1.000000000000000000e+00 1.000000000000000000e+00 1.000000000000000000e+00 1.000000000000000000e+00 1.000000000000000000e+00 1.000000000000000000e+00 1.000000000000000000e+00 1.000000000000000000e+00 1.000000000000000000e+00 1.000000000000000000e+00 1.000000000000000000e+00 1.000000000000000000e+00 1.000000000000000000e+00 1.000000000000000000e+00 1.000000000000000000e+00 1.000000000000000000e+00 1.000000000000000000e+00 1.000000000000000000e+00 1.000000000000000000e+00 1.000000000000000000e+00 1.000000000000000000e+00 1.000000000000000000e+00 1.000000000000000000e+00 1.000000000000000000e+00 1.000000000000000000e+00 1.000000000000000000e+00 1.000000000000000000e+00 1.000000000000000000e+00 1.000000000000000000e+00 1.000000000000000000e+00 1.000000000000000000e+00 1.000000000000000000e+00 1.000000000000000000e+00 1.000000000000000000e+00 1.000000000000000000e+00 1.000000000000000000e+00 1.000000000000000000e+00 1.000000000000000000e+00 1.000000000000000000e+00 1.000000000000000000e+00 1.000000000000000000e+00 1.000000000000000000e+00 1.000000000000000000e+00 1.000000000000000000e+00 1.000000000000000000e+00 1.000000000000000000e+00 1.000000000000000000e+00 1.000000000000000000e+00 1.000000000000000000e+00 1.000000000000000000e+00 1.000000000000000000e+00 1.000000000000000000e+00 1.000000000000000000e+00 1.000000000000000000e+00 1.000000000000000000e+00 1.000000000000000000e+00 1.000000000000000000e+00 1.000000000000000000e+00 1.000000000000000000e+00 1.000000000000000000e+00 1.000000000000000000e+00 1.000000000000000000e+00 1.000000000000000000e+00 1.000000000000000000e+00 1.000000000000000000e+00 1.000000000000000000e+00 1.000000000000000000e+00 1.000000000000000000e+00 1.000000000000000000e+00 1.000000000000000000e+00 1.000000000000000000e+00 1.000000000000000000e+00 1.000000000000000000e+00 1.000000000000000000e+00 1.000000000000000000e+00 1.000000000000000000e+00 1.000000000000000000e+00 1.000000000000000000e+00 1.000000000000000000e+00 1.000000000000000000e+00 1.000000000000000000e+00 1.000000000000000000e+00 1.000000000000000000e+00 1.000000000000000000e+00 1.000000000000000000e+00 1.000000000000000000e+00 1.000000000000000000e+00 1.000000000000000000e+00 1.000000000000000000e+00 1.000000000000000000e+00 1.000000000000000000e+00 1.000000000000000000e+00 1.000000000000000000e+00 1.000000000000000000e+00 1.000000000000000000e+00 1.000000000000000000e+00 1.000000000000000000e+00 1.000000000000000000e+00 1.000000000000000000e+00 1.000000000000000000e+00 1.000000000000000000e+00 1.000000000000000000e+00 1.000000000000000000e+00 1.000000000000000000e+00 1.000000000000000000e+00 1.000000000000000000e+00 1.000000000000000000e+00 1.000000000000000000e+00 1.000000000000000000e+00 1.000000000000000000e+00 1.000000000000000000e+00 1.000000000000000000e+00 1.000000000000000000e+00 1.000000000000000000e+00 1.000000000000000000e+00 1.000000000000000000e+00 1.000000000000000000e+00 1.000000000000000000e+00 1.000000000000000000e+00 1.000000000000000000e+00 1.000000000000000000e+00 1.000000000000000000e+00 1.000000000000000000e+00 1.000000000000000000e+00 1.000000000000000000e+00 1.000000000000000000e+00 1.000000000000000000e+00 1.000000000000000000e+00 1.000000000000000000e+00 1.000000000000000000e+00 1.000000000000000000e+00 1.000000000000000000e+00 1.000000000000000000e+00 1.000000000000000000e+00 1.000000000000000000e+00 1.000000000000000000e+00 1.000000000000000000e+00 1.000000000000000000e+00 1.000000000000000000e+00 1.000000000000000000e+00 1.000000000000000000e+00 1.000000000000000000e+00 1.000000000000000000e+00 1.000000000000000000e+00 1.000000000000000000e+00 1.000000000000000000e+00 1.000000000000000000e+00 1.000000000000000000e+00 1.000000000000000000e+00 1.000000000000000000e+00 1.000000000000000000e+00 1.000000000000000000e+00 1.000000000000000000e+00 1.000000000000000000e+00 1.000000000000000000e+00 1.000000000000000000e+00 1.000000000000000000e+00 1.000000000000000000e+00 1.000000000000000000e+00 1.000000000000000000e+00 1.000000000000000000e+00 1.000000000000000000e+00 1.000000000000000000e+00 1.000000000000000000e+00 1.000000000000000000e+00 1.000000000000000000e+00 1.000000000000000000e+00 1.000000000000000000e+00 1.000000000000000000e+00 1.000000000000000000e+00 1.000000000000000000e+00 1.000000000000000000e+00 1.000000000000000000e+00 1.000000000000000000e+00 1.000000000000000000e+00 1.000000000000000000e+00 1.000000000000000000e+00 1.000000000000000000e+00 1.000000000000000000e+00 1.000000000000000000e+00 1.000000000000000000e+00 1.000000000000000000e+00 1.000000000000000000e+00 1.000000000000000000e+00 1.000000000000000000e+00 1.000000000000000000e+00 1.000000000000000000e+00 1.000000000000000000e+00 1.000000000000000000e+00 1.000000000000000000e+00 1.000000000000000000e+00 1.000000000000000000e+00 1.000000000000000000e+00 1.000000000000000000e+00 1.000000000000000000e+00 1.000000000000000000e+00 1.000000000000000000e+00 1.000000000000000000e+00 1.000000000000000000e+00 1.000000000000000000e+00 1.000000000000000000e+00 1.000000000000000000e+00 1.000000000000000000e+00 1.000000000000000000e+00 1.000000000000000000e+00 1.000000000000000000e+00 1.000000000000000000e+00 1.000000000000000000e+00 1.000000000000000000e+00 1.000000000000000000e+00 1.000000000000000000e+00 1.000000000000000000e+00 1.000000000000000000e+00 1.000000000000000000e+00 1.000000000000000000e+00 1.000000000000000000e+00 1.000000000000000000e+00 1.000000000000000000e+00 1.000000000000000000e+00 1.000000000000000000e+00 1.000000000000000000e+00 1.000000000000000000e+00 1.000000000000000000e+00 1.000000000000000000e+00 1.000000000000000000e+00 1.000000000000000000e+00 1.000000000000000000e+00 1.000000000000000000e+00 1.000000000000000000e+00 1.000000000000000000e+00 1.000000000000000000e+00 1.000000000000000000e+00 1.000000000000000000e+00 1.000000000000000000e+00 1.000000000000000000e+00 1.000000000000000000e+00 1.000000000000000000e+00 1.000000000000000000e+00 1.000000000000000000e+00 1.000000000000000000e+00 1.000000000000000000e+00 1.000000000000000000e+00 1.000000000000000000e+00 1.000000000000000000e+00 1.000000000000000000e+00 1.000000000000000000e+00 1.000000000000000000e+00 1.000000000000000000e+00 1.000000000000000000e+00 1.000000000000000000e+00 1.000000000000000000e+00 1.000000000000000000e+00 1.000000000000000000e+00 1.000000000000000000e+00 1.000000000000000000e+00 1.000000000000000000e+00 1.000000000000000000e+00 1.000000000000000000e+00 1.000000000000000000e+00 1.000000000000000000e+00 1.000000000000000000e+00 1.000000000000000000e+00 1.000000000000000000e+00 1.000000000000000000e+00 1.000000000000000000e+00 1.000000000000000000e+00 1.000000000000000000e+00 1.000000000000000000e+00 1.000000000000000000e+00 1.000000000000000000e+00 1.000000000000000000e+00 1.000000000000000000e+00 1.000000000000000000e+00 1.000000000000000000e+00 1.000000000000000000e+00 1.000000000000000000e+00 1.000000000000000000e+00 1.000000000000000000e+00 1.000000000000000000e+00 1.000000000000000000e+00 1.000000000000000000e+00 1.000000000000000000e+00 1.000000000000000000e+00 1.000000000000000000e+00 1.000000000000000000e+00 1.000000000000000000e+00 1.000000000000000000e+00 1.000000000000000000e+00 1.000000000000000000e+00 1.000000000000000000e+00 1.000000000000000000e+00 1.000000000000000000e+00 1.000000000000000000e+00 1.000000000000000000e+00 1.000000000000000000e+00 1.000000000000000000e+00 1.000000000000000000e+00 1.000000000000000000e+00 1.000000000000000000e+00 1.000000000000000000e+00 1.000000000000000000e+00 1.000000000000000000e+00 1.000000000000000000e+00 1.000000000000000000e+00 1.000000000000000000e+00 1.000000000000000000e+00 1.000000000000000000e+00 1.000000000000000000e+00 1.000000000000000000e+00 1.000000000000000000e+00 1.000000000000000000e+00 1.000000000000000000e+00 1.000000000000000000e+00 1.000000000000000000e+00 1.000000000000000000e+00 1.000000000000000000e+00 1.000000000000000000e+00 1.000000000000000000e+00 1.000000000000000000e+00 1.000000000000000000e+00 1.000000000000000000e+00 1.000000000000000000e+00 1.000000000000000000e+00 1.000000000000000000e+00 1.000000000000000000e+00 1.000000000000000000e+00 1.000000000000000000e+00 1.000000000000000000e+00 1.000000000000000000e+00 1.000000000000000000e+00 1.000000000000000000e+00 1.000000000000000000e+00 1.000000000000000000e+00 1.000000000000000000e+00 1.000000000000000000e+00 1.000000000000000000e+00 1.000000000000000000e+00 1.000000000000000000e+00 1.000000000000000000e+00 1.000000000000000000e+00 1.000000000000000000e+00 1.000000000000000000e+00 1.000000000000000000e+00 1.000000000000000000e+00 1.000000000000000000e+00 1.000000000000000000e+00 1.000000000000000000e+00 1.000000000000000000e+00 1.000000000000000000e+00 1.000000000000000000e+00 1.000000000000000000e+00 1.000000000000000000e+00 1.000000000000000000e+00 1.000000000000000000e+00 1.000000000000000000e+00 1.000000000000000000e+00 1.000000000000000000e+00 1.000000000000000000e+00 1.000000000000000000e+00 1.000000000000000000e+00 1.000000000000000000e+00 1.000000000000000000e+00 1.000000000000000000e+00 1.000000000000000000e+00 1.000000000000000000e+00 1.000000000000000000e+00 1.000000000000000000e+00 1.000000000000000000e+00 1.000000000000000000e+00 1.000000000000000000e+00 1.000000000000000000e+00 1.000000000000000000e+00 1.000000000000000000e+00 1.000000000000000000e+00 1.000000000000000000e+00 1.000000000000000000e+00 1.000000000000000000e+00 1.000000000000000000e+00 1.000000000000000000e+00 1.000000000000000000e+00 1.000000000000000000e+00 1.000000000000000000e+00 1.000000000000000000e+00 1.000000000000000000e+00 1.000000000000000000e+00 1.000000000000000000e+00 1.000000000000000000e+00 1.000000000000000000e+00 1.000000000000000000e+00 1.000000000000000000e+00 1.000000000000000000e+00 1.000000000000000000e+00 1.000000000000000000e+00 1.000000000000000000e+00 1.000000000000000000e+00 1.000000000000000000e+00 1.000000000000000000e+00 1.000000000000000000e+00 1.000000000000000000e+00 1.000000000000000000e+00 1.000000000000000000e+00 1.000000000000000000e+00 1.000000000000000000e+00 1.000000000000000000e+00 1.000000000000000000e+00 1.000000000000000000e+00 1.000000000000000000e+00 1.000000000000000000e+00 1.000000000000000000e+00 1.000000000000000000e+00 1.000000000000000000e+00 1.000000000000000000e+00 1.000000000000000000e+00 1.000000000000000000e+00 1.000000000000000000e+00 1.000000000000000000e+00 1.000000000000000000e+00 1.000000000000000000e+00 1.000000000000000000e+00 1.000000000000000000e+00 1.000000000000000000e+00 1.000000000000000000e+00 1.000000000000000000e+00 1.000000000000000000e+00 1.000000000000000000e+00 1.000000000000000000e+00 1.000000000000000000e+00 1.000000000000000000e+00 1.000000000000000000e+00 1.000000000000000000e+00 1.000000000000000000e+00 1.000000000000000000e+00 1.000000000000000000e+00 1.000000000000000000e+00 1.000000000000000000e+00 1.000000000000000000e+00 1.000000000000000000e+00 1.000000000000000000e+00 1.000000000000000000e+00 1.000000000000000000e+00 1.000000000000000000e+00 1.000000000000000000e+00 1.000000000000000000e+00 1.000000000000000000e+00 1.000000000000000000e+00 1.000000000000000000e+00 1.000000000000000000e+00 1.000000000000000000e+00 1.000000000000000000e+00 1.000000000000000000e+00 1.000000000000000000e+00 1.000000000000000000e+00 1.000000000000000000e+00 1.000000000000000000e+00 1.000000000000000000e+00 1.000000000000000000e+00 1.000000000000000000e+00 1.000000000000000000e+00 1.000000000000000000e+00 1.000000000000000000e+00 1.000000000000000000e+00 1.000000000000000000e+00 1.000000000000000000e+00 1.000000000000000000e+00 1.000000000000000000e+00 1.000000000000000000e+00 1.000000000000000000e+00 1.000000000000000000e+00 1.000000000000000000e+00 1.000000000000000000e+00 1.000000000000000000e+00 1.000000000000000000e+00 1.000000000000000000e+00 1.000000000000000000e+00 1.000000000000000000e+00 1.000000000000000000e+00 1.000000000000000000e+00 1.000000000000000000e+00 1.000000000000000000e+00 1.000000000000000000e+00 1.000000000000000000e+00 1.000000000000000000e+00 1.000000000000000000e+00 1.000000000000000000e+00 1.000000000000000000e+00 1.000000000000000000e+00 1.000000000000000000e+00 1.000000000000000000e+00 1.000000000000000000e+00 1.000000000000000000e+00 1.000000000000000000e+00 1.000000000000000000e+00 1.000000000000000000e+00 1.000000000000000000e+00 1.000000000000000000e+00 1.000000000000000000e+00 1.000000000000000000e+00 1.000000000000000000e+00 1.000000000000000000e+00 1.000000000000000000e+00 1.000000000000000000e+00 1.000000000000000000e+00 1.000000000000000000e+00 1.000000000000000000e+00 1.000000000000000000e+00 1.000000000000000000e+00 1.000000000000000000e+00 1.000000000000000000e+00 1.000000000000000000e+00 1.000000000000000000e+00 1.000000000000000000e+00 1.000000000000000000e+00 1.000000000000000000e+00 1.000000000000000000e+00 1.000000000000000000e+00 1.000000000000000000e+00 1.000000000000000000e+00 1.000000000000000000e+00 1.000000000000000000e+00 1.000000000000000000e+00 1.000000000000000000e+00 1.000000000000000000e+00 1.000000000000000000e+00 1.000000000000000000e+00 1.000000000000000000e+00 1.000000000000000000e+00 1.000000000000000000e+00 1.000000000000000000e+00 1.000000000000000000e+00 1.000000000000000000e+00 1.000000000000000000e+00 1.000000000000000000e+00 1.000000000000000000e+00 1.000000000000000000e+00 1.000000000000000000e+00 1.000000000000000000e+00 1.000000000000000000e+00 1.000000000000000000e+00 1.000000000000000000e+00 1.000000000000000000e+00 1.000000000000000000e+00 1.000000000000000000e+00 1.000000000000000000e+00 1.000000000000000000e+00 1.000000000000000000e+00 1.000000000000000000e+00 1.000000000000000000e+00 1.000000000000000000e+00 1.000000000000000000e+00 1.000000000000000000e+00 1.000000000000000000e+00 1.000000000000000000e+00 1.000000000000000000e+00 1.000000000000000000e+00 1.000000000000000000e+00 1.000000000000000000e+00 1.000000000000000000e+00 1.000000000000000000e+00 1.000000000000000000e+00 1.000000000000000000e+00 1.000000000000000000e+00 1.000000000000000000e+00 1.000000000000000000e+00 1.000000000000000000e+00 1.000000000000000000e+00 1.000000000000000000e+00 1.000000000000000000e+00 1.000000000000000000e+00 1.000000000000000000e+00 1.000000000000000000e+00 1.000000000000000000e+00 1.000000000000000000e+00 1.000000000000000000e+00 1.000000000000000000e+00 1.000000000000000000e+00 1.000000000000000000e+00 1.000000000000000000e+00 1.000000000000000000e+00 1.000000000000000000e+00 1.000000000000000000e+00 1.000000000000000000e+00 1.000000000000000000e+00 1.000000000000000000e+00 1.000000000000000000e+00 1.000000000000000000e+00 1.000000000000000000e+00 1.000000000000000000e+00 1.000000000000000000e+00 1.000000000000000000e+00 1.000000000000000000e+00 1.000000000000000000e+00 1.000000000000000000e+00 1.000000000000000000e+00 1.000000000000000000e+00 1.000000000000000000e+00 1.000000000000000000e+00 1.000000000000000000e+00 1.000000000000000000e+00 1.000000000000000000e+00 1.000000000000000000e+00 1.000000000000000000e+00 1.000000000000000000e+00 1.000000000000000000e+00 1.000000000000000000e+00 1.000000000000000000e+00 1.000000000000000000e+00 1.000000000000000000e+00 1.000000000000000000e+00 1.000000000000000000e+00 1.000000000000000000e+00 1.000000000000000000e+00 1.000000000000000000e+00 1.000000000000000000e+00 1.000000000000000000e+00 1.000000000000000000e+00 1.000000000000000000e+00 1.000000000000000000e+00 1.000000000000000000e+00 1.000000000000000000e+00 1.000000000000000000e+00 1.000000000000000000e+00 1.000000000000000000e+00 1.000000000000000000e+00 1.000000000000000000e+00 1.000000000000000000e+00 1.000000000000000000e+00 1.000000000000000000e+00 1.000000000000000000e+00 1.000000000000000000e+00 1.000000000000000000e+00 1.000000000000000000e+00 1.000000000000000000e+00 1.000000000000000000e+00 1.000000000000000000e+00 1.000000000000000000e+00 1.000000000000000000e+00 1.000000000000000000e+00 1.000000000000000000e+00 1.000000000000000000e+00 1.000000000000000000e+00 1.000000000000000000e+00 1.000000000000000000e+00 1.000000000000000000e+00 1.000000000000000000e+00 1.000000000000000000e+00 1.000000000000000000e+00 1.000000000000000000e+00 1.000000000000000000e+00 1.000000000000000000e+00 1.000000000000000000e+00 1.000000000000000000e+00 1.000000000000000000e+00 1.000000000000000000e+00 1.000000000000000000e+00 1.000000000000000000e+00 1.000000000000000000e+00 1.000000000000000000e+00 1.000000000000000000e+00 1.000000000000000000e+00 1.000000000000000000e+00 1.000000000000000000e+00 1.000000000000000000e+00 1.000000000000000000e+00 1.000000000000000000e+00 1.000000000000000000e+00 1.000000000000000000e+00 1.000000000000000000e+00 1.000000000000000000e+00 1.000000000000000000e+00 1.000000000000000000e+00 1.000000000000000000e+00 1.000000000000000000e+00 1.000000000000000000e+00 1.000000000000000000e+00 1.000000000000000000e+00 1.000000000000000000e+00 1.000000000000000000e+00 1.000000000000000000e+00 1.000000000000000000e+00 1.000000000000000000e+00 1.000000000000000000e+00 1.000000000000000000e+00 1.000000000000000000e+00 1.000000000000000000e+00 1.000000000000000000e+00 1.000000000000000000e+00 1.000000000000000000e+00 1.000000000000000000e+00 1.000000000000000000e+00 1.000000000000000000e+00 1.000000000000000000e+00 1.000000000000000000e+00 1.000000000000000000e+00 1.000000000000000000e+00 1.000000000000000000e+00 1.000000000000000000e+00 1.000000000000000000e+00 1.000000000000000000e+00 1.000000000000000000e+00 1.000000000000000000e+00 1.000000000000000000e+00 1.000000000000000000e+00 1.000000000000000000e+00 1.000000000000000000e+00 1.000000000000000000e+00 1.000000000000000000e+00 1.000000000000000000e+00 1.000000000000000000e+00 1.000000000000000000e+00 1.000000000000000000e+00 1.000000000000000000e+00 1.000000000000000000e+00 1.000000000000000000e+00 1.000000000000000000e+00 1.000000000000000000e+00 1.000000000000000000e+00 1.000000000000000000e+00 1.000000000000000000e+00 1.000000000000000000e+00 1.000000000000000000e+00 1.000000000000000000e+00 1.000000000000000000e+00 1.000000000000000000e+00 1.000000000000000000e+00 1.000000000000000000e+00 1.000000000000000000e+00 1.000000000000000000e+00 1.000000000000000000e+00 1.000000000000000000e+00 1.000000000000000000e+00 1.000000000000000000e+00 1.000000000000000000e+00 1.000000000000000000e+00 1.000000000000000000e+00 1.000000000000000000e+00 1.000000000000000000e+00 1.000000000000000000e+00 1.000000000000000000e+00 1.000000000000000000e+00 1.000000000000000000e+00 1.000000000000000000e+00 1.000000000000000000e+00 1.000000000000000000e+00 1.000000000000000000e+00 1.000000000000000000e+00 1.000000000000000000e+00 1.000000000000000000e+00 1.000000000000000000e+00 1.000000000000000000e+00 1.000000000000000000e+00 1.000000000000000000e+00 1.000000000000000000e+00 1.000000000000000000e+00 1.000000000000000000e+00 1.000000000000000000e+00 1.000000000000000000e+00 1.000000000000000000e+00 1.000000000000000000e+00 1.000000000000000000e+00 1.000000000000000000e+00 1.000000000000000000e+00 1.000000000000000000e+00 1.000000000000000000e+00 1.000000000000000000e+00 1.000000000000000000e+00 1.000000000000000000e+00 1.000000000000000000e+00 1.000000000000000000e+00 1.000000000000000000e+00 1.000000000000000000e+00 1.000000000000000000e+00 1.000000000000000000e+00 1.000000000000000000e+00 1.000000000000000000e+00 1.000000000000000000e+00 1.000000000000000000e+00 1.000000000000000000e+00 1.000000000000000000e+00 1.000000000000000000e+00 1.000000000000000000e+00 1.000000000000000000e+00 1.000000000000000000e+00 1.000000000000000000e+00 1.000000000000000000e+00 1.000000000000000000e+00 1.000000000000000000e+00 1.000000000000000000e+00 1.000000000000000000e+00 1.000000000000000000e+00 1.000000000000000000e+00 1.000000000000000000e+00 1.000000000000000000e+00 1.000000000000000000e+00 1.000000000000000000e+00 1.000000000000000000e+00 1.000000000000000000e+00 1.000000000000000000e+00 1.000000000000000000e+00 1.000000000000000000e+00 1.000000000000000000e+00 1.000000000000000000e+00 1.000000000000000000e+00 1.000000000000000000e+00 1.000000000000000000e+00 1.000000000000000000e+00 1.000000000000000000e+00 1.000000000000000000e+00 1.000000000000000000e+00 1.000000000000000000e+00 1.000000000000000000e+00 1.000000000000000000e+00 1.000000000000000000e+00 1.000000000000000000e+00 1.000000000000000000e+00 1.000000000000000000e+00 1.000000000000000000e+00 1.000000000000000000e+00 1.000000000000000000e+00 1.000000000000000000e+00 1.000000000000000000e+00 1.000000000000000000e+00 1.000000000000000000e+00 1.000000000000000000e+00 1.000000000000000000e+00 1.000000000000000000e+00 1.000000000000000000e+00 1.000000000000000000e+00 1.000000000000000000e+00 1.000000000000000000e+00 1.000000000000000000e+00 1.000000000000000000e+00 1.000000000000000000e+00 1.000000000000000000e+00
5.792042568010797449e-02 5.230646472529212332e-01 -2.848170969534284946e-01 7.766971855701100269e-01 5.235844254838613043e-01 5.452524849299784648e-01 5.743858899553024866e-01 3.848571450748122236e-01 5.655305731979256567e-01 5.254450255743809972e-01 1.086327180120242986e+00 -7.305142650210731947e-01 1.422795651692163599e+00 4.675900862007022485e-01 5.232866065138542799e-01 4.176365490731069885e-01 8.405933081702197107e-01 9.799613713931163428e-01 7.466444913253711402e-01 5.290756590034552120e-01 3.691939558936822019e-01 9.940947899747679672e-01 3.561212278845962698e-01 5.545471010631362052e-01 6.867026698794634343e-02 6.641129220291258628e-01 4.131538570737290916e-01 7.117777496808725957e-01 5.148015566165199397e-01 1.631093353837357540e+00 4.921727305567513144e-01 6.034717601217131078e-01 7.184890567370594283e-01 5.125164655366007960e-01 6.911242776909289898e-01 4.611441375906008555e-01 5.663226872787996413e-01 1.857803560724476943e+00 -9.182433415651200526e-02 5.179271016814275264e-01 -2.211031981549895498e-01 -5.622973907762269796e-01 7.462240156168610250e-01 2.309367930155487025e-01 3.212333620162185488e-01 4.923014015467339077e-01 7.766647016158539918e-01 5.296834131296342951e-01 6.731335466365089282e-01 9.276852393487551932e-03 3.400633802269485001e-02 7.630961553071016201e-01 6.828097872787625144e-01 4.185832522001828315e-01 4.649851770753077873e-01 2.199513544088822770e-02 5.646831143874394554e-01 5.042236530246090309e-01 1.999451774502800094e-01 5.453919127129682742e-01 9.277269358392603582e-01 4.610203656702487884e-01 4.956507041990326212e-01 3.561210779342260380e-01 6.756824127327611951e-01 6.533418748358403860e-01 5.330617633930285759e-01 4.167278621110903081e-01 5.571689412088802751e-01 4.330127984631743782e-02 4.625636329013611547e-01 5.982758383587921669e-01 5.188527462704064508e-01 1.286865293820427421e-02 1.526726493069510138e+00 5.317764872875757609e-01 6.385564905210934228e-01 7.170476423604636995e-01 5.239095939732676399e-01 1.388773990055462981e+00 5.444262594668164423e-01 3.558140550876109365e-01 1.448093117137617902e+00 7.632684791646022759e-01 5.182608263725750897e-01 7.514136622682814348e-01 7.966005158081126414e-01 5.173300519368870809e-01 4.250996868780967941e-01 5.766695333436777648e-01 3.238197115157487871e-01 2.235106516336494042e+00 7.846280598130542794e-01 5.619561905289072179e-02 4.767411864267266930e-01 5.110024622511231129e-01 5.632133894226921678e-01 4.842371896673235976e-01 1.901978763092403713e-01 6.578371057444747372e-01 1.644383994576800179e+00 6.879028522086545472e-01 5.130449352973979193e-01 5.856483412737349958e-01 8.547482302441691271e-01 -2.145232570801264949e+00 -1.250520228715985560e+00 5.168058908730630563e-01 6.236627906138466626e-01 9.679796674722148664e-01 5.929466220699729506e-01 4.204926114472943843e-01 1.831355054599874410e-01 5.088287056910043571e-01 5.281224648810525224e-01 5.011659488826625264e-01 4.558481292889795533e-01 4.947909269641133645e-01 9.991982308960584147e-01 5.077288138967648301e-01 1.318411520495632594e+00 5.375935252505806838e-01 6.411512680946463982e-01 -5.457355471689234738e-01 5.134153595794761493e-01 1.978212317410628973e+00 4.987371982334553033e-01 5.215876076900264335e-01 6.728436757067891572e-01 4.976696619288222823e-01 5.775130613767645027e-01 5.262132933265216694e-01 4.383607466672396757e-01 4.882345661908674139e-01 -3.813652995090837661e-01 -1.727640669503372195e-01 6.741589164153514169e-01 5.089118511337457906e-02 1.010934260139537910e+00 5.473748935824483963e-01 5.366504308765065456e-01 8.750122055492155493e-01 4.891446189070687844e-01 4.807773773715655063e-01 5.229152084321138094e-01 3.274912049411368015e-02 9.752081179563675262e-01 -1.626038472817036562e-01 4.221312520694958104e-01 -9.262240974378231906e-01 7.525322787794160861e-01 -2.843739543078486753e-01 4.923027589030246620e-01 5.426109005952528541e-01 5.334484694713886865e-01 5.271716161696862191e-01 2.040102290732025647e+00 -1.667563298815779027e-01 8.265866874488756455e-01 6.577683695487385185e-01 5.597772150652701173e-01 4.536845395147954263e-01 5.204673946546241048e-01 5.211897296746813568e-01 1.066381516413906994e+00 2.515206749298181665e-01 8.522791985910027623e-01 3.061044298517322515e-01 3.927873439373733011e-01 6.398873364657939877e-01 6.099640124720759893e-01 7.753818618334261670e-01 4.922761519116508055e-01 5.246039511311129111e-01 4.027985688618210269e-01 4.546967532148506186e-02 2.211814299678980800e-01 1.100621656302664952e-01 7.573960704871888217e-01 1.144139323762902283e+00 6.667226066165568010e-01 5.171977816180264309e-01 -1.664384859394846261e-01 4.436237937606332116e-01 4.530690291765822053e-01 5.332717451940149900e-01 5.245142484345847178e-01 5.033572500676674055e-01 2.870356280238747004e+00 4.796880958620434732e-01 5.687401662411002423e-01 -9.254075369766393555e-01 5.141890864453642074e-01 5.032282294366556830e-01 2.015203592593768633e-01 5.262706205039222596e-01 9.461796777293083327e-01 5.021841013375867302e-01 4.319554066101878864e-01 5.600336895876607546e-01 6.334284950735213915e-01 5.241931936459017782e-01 8.493543599088152485e-01 6.024000210602692418e-01 5.432075341324714701e-01 4.319553798078789031e-01 1.949661996148851772e-01 1.301651606983020404e+00 5.539143488823674577e-01 4.815221582007291334e-01 4.215035381177028584e-01 -9.623180214314649983e-02 4.985085975879453013e-01 1.544974007925682402e-01 5.270572629596264047e-01 5.242388515409115435e-01 5.218489112426336618e-01 5.251678184157068108e-01 5.196223218169243596e-01 5.237731538710831414e-01 4.409369031990678089e-01 5.581916222289784457e-01 -7.221626035770595253e-01 6.257756035264684380e-01 4.711275135150069238e-01 3.518707893404252052e-01 9.025792848909303459e-03 1.340956912929785583e+00 9.727593152335888282e-01 4.902701070461399913e-01 -1.019842162220039039e-01 1.067789316819817813e+00 5.203151472688783974e-01 4.719601330720478716e-01 6.626933611479332020e-01 4.066739095869266185e-01 2.510110009807394182e-01 1.643863684798843039e-01 -1.657944243190715150e-01 -6.466403515644217337e-02 5.126084422242135341e-01 4.969863762357302761e-01 -1.195224851475233108e-01 4.387811204263280529e-01 5.227402420537448080e-01 5.223866314084752993e-01 -9.298038774825606589e-02 7.630176001496122851e-01 -2.377496504746877015e+00 6.171974440067069523e-01 -6.704736559116870609e-01 5.001486504144647682e-01 5.187617888083542184e-01 3.561215109122576883e-01 4.887093157719967218e-01 5.558894764271933298e-01 5.129347122558085559e-01 7.876374385676159218e-01 5.715455455503717364e-01 1.702293226810513538e+00 6.838149165801810092e-01 6.779914089176117820e-01 4.525762606938783517e-01 4.043345773033020785e-01 9.277269519813968746e-01 4.766126696670445750e-01 2.745321810524481432e+00 4.481553329276966591e-01 2.200452854209354880e-01 7.693927010409435940e-01 5.115889203388115369e-01 9.272419965631411021e-01 5.241926518582621375e-01 5.815272313662809278e-01 5.233725630970061937e-01 1.152695620861854175e+00 7.665141604595663294e-01 8.563942760431928480e-01 7.999943934908935184e-01 5.838477006810920411e-01 6.853007499680487946e-01 5.079898191790134243e-01 3.727922733937562572e-01 -7.489229391833009952e-01 3.910948130950929191e-01 4.394578963189563203e-01 5.508262314931196002e-01 5.027138597706434231e-01 5.011660262249115760e-01 6.118033065859539432e-01 5.149389992903181668e-01 -9.263371833711226966e-01 7.632550503706169165e-01 5.100312837217902961e-01 -1.356102538576851348e-02 4.608087632688913082e-01 1.860302941882440830e+00 5.067898184455850163e-01 5.244765486171666380e-01 4.221414322721109835e-01 -3.508875931948352456e+00 5.242066476440320200e-01 2.949168371471444061e+00 7.761283140529052771e-01 5.225222317909850034e-01 -5.700339144413648640e-01 5.185797226915945801e-01 5.225789994318088549e-01 4.541311166701869073e-01 4.494641536397745440e-01 3.374728123814420555e-01 6.513968515945731674e-01 3.138168254168852700e-01 5.250706888108610526e-01 5.195927904320760682e-01 3.553700077362162424e-01 5.284207069127022649e-01 7.765548399810000557e-01 5.211209328063185486e-01 1.214258665210396826e+00 4.004242202860714556e-02 2.241352861918582295e+00 2.686290636823973177e+00 4.849695225932011966e-01 -2.366852706511278215e-01 3.878856218127159083e-01 3.997538278593025796e-01 7.424078769999137295e-01 1.398430011703736930e+00 5.311912858961860273e-01 1.136451616142948540e+00 5.215261734474183619e-01 1.189438223217759300e-01 1.261867589316105098e+00 5.591011650348506334e-01 5.650187599388789561e-01 5.302336711154024274e-01 9.092484564505726174e-01 -3.849981112749166101e+00 1.661020668550633905e+00 5.294003337893131711e-01 6.351440773815608676e-01 5.241641332739442882e-01 1.857803568492099489e+00 2.955892734640683250e-01 5.648854913018644952e-01 4.804097670216542215e-01 6.039310955571799422e-01 1.370191721165086474e+00 5.268081837177159832e-01 4.319556567565507876e-01 4.387759116843896745e-01 6.024000276020305966e-01 4.267134349722961906e-01 5.707788914087701393e-01 9.037640696482501790e-01 5.225566010260426220e-01 3.812485381045958022e-01 1.438843131055116964e-01 6.564415552562463674e-01 5.215770731186666342e-01 2.864821897990776356e-01 5.648854678598546064e-01 6.247105066355567171e-01 5.272746582492523482e-01 1.047563826153437461e+00 9.341798961276162050e-01 1.160518354695124765e+00 5.206542239339903011e-01 2.133414363272684855e-01 9.277274596730978873e-01 -1.099072870110448658e-01 9.338153313786132781e-01 6.305884386590199231e-01 4.105849995170034877e-02 4.550484581745842250e-01 8.928177455734852552e-01 3.840643221472258007e-01 4.811536974106390141e-01 3.156461374401086650e-01 -3.411570318103803734e-01 -2.528805904333411458e+00 5.418890738529904549e-01 6.024000240825040375e-01 6.024000753991575197e-01 5.141895932404978442e-01 3.586746329172651460e-01 -2.390141236875915898e-01 2.818986046392275013e-01 5.191180543832900618e-01 7.129627374734982537e-01 5.238161467239689228e-01 1.022522584222343989e+00 4.319556649463599518e-01 5.236062337990010640e-01 4.963023710561003110e-01 2.920284756542342874e-01 6.619509328010962923e-01 5.265869211678592121e-01 5.182783904896388627e-01 4.959235407389732120e-01 3.170353081367089931e-01 1.991747496777768883e-02 6.024000243684484168e-01 6.637343638378579991e-01 5.223600295688149986e-01 3.908015900361378470e-01 8.601861896781825001e-01 7.628875779963329995e-01 5.646504390701911902e-01 1.922039131123631561e+00 4.893718902432769857e-01 -3.200727737974696563e+00 7.763528664991388162e-01 1.547320381749237805e+00 5.939320057161832089e-01 -1.115301329119133822e+00 8.454802630090595406e-01 4.355471331087039100e-01 5.331961507010850587e-01 5.257683862357647175e-01 -4.403528664323478892e-01 5.040061184687982809e-01 1.078405411831172778e+00 4.479444001462324909e-01 -4.079786184090398726e-01 5.110803413188922395e-01 5.347443380737699758e-01 7.950581802841022450e-01 4.985072708588002555e-01 6.072240146983950426e-01 -5.482291865133983588e-01 5.611902477346406570e-01 5.230370808669249083e-01 5.373341885481631719e-01 5.342721632817967192e-01 7.705957933886543598e-01 5.239363097366314115e-01 6.258366442526258622e-01 4.317656976081397091e-01 5.180470074572388617e-01 2.363731533396718487e-01 3.332396454630999760e-01 3.650260009682629869e-01 9.737073816273169591e-01 5.586025803529187650e-01 3.261202390439834176e+00 6.556286383046263655e-01 6.648170384571208125e-01 5.446604005711233043e-01 5.432837061473242413e-01 1.529681009657074715e-02 4.945502219014853984e-01 5.321205982160781556e-01 5.173710157776088003e-01 1.156261764898937727e+00 7.708408769283434658e-01 5.141084067121842738e-01 4.370796890798178680e-01 1.119871354935994434e+00 5.167995168955101803e-01 5.634519531936112990e-01 5.268514900431896519e-01 8.531364300092280084e-01 5.213224701439215236e-01 9.474333783235073803e-01 5.098720127035721861e-01 5.227403870634037553e-01 3.887544852057000372e-02 5.350591238964085283e-01 1.637957717766276231e-02 2.882425753024148718e-01 3.990113167703533414e-01 5.746202361368335509e-01 7.892889734805503821e-01 5.248507618215138004e-01 3.833425274872259703e-01 1.223955986951848623e-01 5.009468480058408835e-01 5.191636032136813794e-01 4.422022661142746003e-01 4.404729958461101741e-03 5.237010949682513461e-01 2.654460534974258934e-01 5.237820274047990665e-01 4.088897434848576262e-01 1.263976851377264010e+00 7.531730567903586193e-01 5.044423124841669326e-01 2.461751118460998311e-01 8.075864154458207711e-01 4.495650427522062120e-01 1.003512808032922532e+00 5.766465221792487217e-01 6.241401850811989505e-01 7.082942376706412579e-01 2.031199976960853526e+00 4.996536199581411708e-01 5.570762994978762928e-01 5.128274409284787616e-01 7.629879638363495920e-01 6.119508907114133978e-01 8.706116743467916530e-01 -5.862098259055424920e-01 4.104344516471695181e-01 5.242294828318077027e-01 4.372834831741583828e-01 4.450516616108008416e-01 -6.400280434375430483e-01 3.849704930928005142e-01 5.258773850018892970e-01 7.235282790275650022e-01 6.700078949091199387e-01 1.557195977968466316e+00 5.253632606210220102e-01 5.200697889726545453e-01 -7.341789019261946159e-01 5.158456522471059902e-01 1.246663269954017439e+00 7.260331270202711185e-01 2.918370535349411599e-01 2.321714688567213247e-01 -1.850337793757557137e+00 5.664042803648819957e-01 1.931969038771550740e-01 1.110367223601916420e+00 8.283586655847821056e-01 5.451314993212069693e-01 5.587751379165454280e-01 5.509471415841330488e-01 7.761958920621081504e-01 4.194076818764715942e-01 5.529212132609430119e-01 1.242422559741666009e-02 5.958704378861880979e-01 5.143317082908895888e-01 3.942511386250227012e-01 5.151355836879153438e-01 4.374748238386620414e-01 1.237873121223257433e+00 -9.634167137191630703e-02 -2.466910766139124855e-01 4.102389500411616208e-01 5.194499589079908386e-01 5.275111956549832781e-01 4.971054203322781140e-01 -8.891459260058233172e-01 3.225234575761136480e+00 4.714790600530636699e-01 4.377258440506913706e-01 4.544282156108507276e-01 5.190358364109755041e-01 5.051300230981574657e-01 4.807111748064920587e-01 3.283686163339591957e-01 6.143492876660902047e-01 5.215720061448907430e-01 4.631615771730694942e-01 3.160423603141357396e-01 4.029193409257427194e-01 5.683303519603719600e-01 4.051090951050287381e-01 5.508485137064577097e-01 5.172009213563881769e-01 6.824415314078352557e-01 1.026350544157041300e+00 2.349540551921157405e+00 4.944604667182707081e-01 5.010357939416372197e-01 3.396553864464644246e-01 4.739022155292249017e-01 3.867594949555779316e-01 5.207068579173742551e-01 5.272427738197937863e-01 4.917891306616138936e-01 5.841125888912868103e-01 5.492639810950930013e-01 7.764894109560557256e-01 3.644489289611208549e-01 3.896328221438976613e-01 3.960705679288191727e-01 4.860277897733352725e-01 1.049834252902233783e-01 9.277269408129135142e-01 5.404777854284187333e-01 8.600469537108233753e-02 1.914589472617272525e+00 3.243754301470552215e-01 4.025190745968034167e-01 5.974633021684517820e-01 6.620188402168082631e-02 5.537693080029723047e-01 1.535844354376119991e+00 8.055504123792084359e-01 6.905431307212623881e-01 5.240328998417510542e-01 5.142557425122690207e-01 4.251249346178229138e-01 6.398821454232970218e-01 5.127879181227392724e-01 5.248836231458431367e-01 -2.746929456536464365e-01 4.747939253815617322e-01 -1.613184883938312497e+00 4.949364096015959613e-01 5.233912692892382923e-01 5.296243359365301329e-01 4.221477000428848769e-01 9.277269407222461517e-01 2.248367230874611933e-01 5.068058104733987879e-01 1.374852681279139954e+00 -5.849105394233712341e-01 5.215869222329149180e-01 1.159056074852713225e+00 1.565343362920017523e+00 5.896918888165043615e-01 5.220048266752225219e-01 -6.685072038873504652e-02 -1.725985526393719383e+00 2.676313283436070889e-01 8.462403693701174845e-01 5.337952590514560836e-01 5.214884345974234447e-01 6.198491467091685747e-01 4.800058429520099867e-01 -4.288468562013745822e-01 8.366707370146373446e-01 5.011657999530457763e-01 3.245055588164120208e-01 5.074423145390907219e-01 2.474579085812235978e-03 -1.640649711387127951e-01 1.836853434863409129e+00 4.105234798922623995e-01 5.195354438440342726e-01 5.260634793156272471e-01 3.197713594834938333e-01 4.959067888274686919e-01 -1.442616154496328962e-01 -1.343733576626392257e+00 5.190709089464935477e-01 4.867844252490376444e-01 4.809931128370261155e-01 5.518819906646417195e-01 5.287761182040654484e-01 5.470956963627093828e-01 5.149610199325583837e-01 5.580902465460181316e-01 1.040920811398960089e+00 7.115291709693931654e-01 5.291932346534605758e-01 6.331530462416351535e-01 5.458561106957177111e-01 5.507221632026711999e-01 5.804026601464808838e-02 5.648854529813572833e-01 4.269825121124489753e-01 5.757129469142531208e-01 7.514423134986339958e-01 8.360369120439484769e-01 8.706047010491039240e-01 -5.487590387470621112e-01 5.280021445104944311e-01 4.709101354514064197e-01 5.179219916151752701e-01 5.964778663535651448e-01 9.155829011791930538e-01 4.911174563060188292e-01 5.178411492046195441e-01 -3.095214491863675921e-01 -9.040778882714108899e-01 2.349553610671592629e+00 5.123175647972945113e-01 9.061914775920376641e-01 4.146747554783377088e-01 5.780033120859278117e-01 4.016195767588036647e-01 1.526535880606096907e-01 5.244261287064568844e-01 5.138913182083219011e-01 -1.950976279251116037e-03 5.192861772951554711e-01 4.548398098095669528e-01 5.193016462536952371e-01 4.911583840267023660e-01 5.226092871910860138e-01 6.388107145283086208e-01 4.293777958929876903e-01 5.666368217889932168e-01 5.195649849294804445e-01 5.282710683325477774e-01 4.144979991453068835e-01 5.191056366392452492e-01 -2.475866742185934277e-01 5.177779730302243255e-01 6.415082265990939003e-01 5.584819373168936618e-01 7.768169487328330236e-01 9.277266561691015490e-01 7.250843614487628708e-01 -6.184213004050690410e-01 9.781165067597373808e-01 1.857803560685530542e+00 5.098570479022208612e-01 4.637479361033514658e-01 1.089488326441557575e+00 5.622837883670658288e-01 7.770262094053409507e-01 5.263000990164408144e-01 1.888138069563663368e+00 5.230248752585271443e-01 4.387801748032616467e-01 1.236760675774695839e+00 -6.822612831027662084e-02 4.971962353462457407e-01 -1.526918493775483721e-01 -9.910418565340537445e-01 -1.643126970507783613e-01 7.751501043111659328e-01 5.689137690978294248e-01 5.258044971382797028e-01 -3.179109732900708418e-01 5.488153633970940248e-01 5.026956216452208026e-02 -4.158042583451945773e-01 5.445900254743435420e-01 5.224498939560646704e-01 5.195556721143991252e-01 5.089826244330751814e-01 4.732893778858375811e-01 9.197106847645619698e-01 -4.469197946511358488e-01 5.250355982944835409e-01 4.957126963196768488e-01 5.811369776104041707e-01 1.177367492001976101e+00 4.808098122838810329e-01 6.922816171947657748e-01 5.244592904948017775e-01 4.963338687832984097e-02 -4.402985457483237219e-01 5.517569600080940440e-01 5.466177940145586778e-01 6.875382897859450004e-01 5.105882046831847765e-01 3.758934326777081947e-01 5.217078001421303624e-01 5.248669817627722445e-01 4.140696452057738286e-01 5.392472459361772330e-01 8.413501683053253855e-01 2.601277253314768334e+00 -2.515461128366522914e-01 6.563002809502358481e-01 3.471319881286249465e-01 1.994427415991063268e-01 6.517110997339644607e-01 -5.500636457740724211e-02 -1.597942139056569344e+00 4.965995313622164620e-01 2.664021341800891562e+00 5.899903052488306709e-01 1.705127693242566023e-01 1.541241403779954333e-01 5.011659495461516789e-01 5.926639378410487602e-01 1.588322143471308623e+00 5.202603450691173359e-01 1.259700941761893178e-01 4.135741063430773412e-01 1.745752533860048805e+00 5.992172668181338091e-01 7.958177248761996170e-01 5.209807554270099450e-01 7.378193318181722749e-01 4.659427823607230623e-01 5.829926595283546620e-01 2.680578138914875216e-02 5.166192803557421165e-01 5.803617904560866014e-01 -5.862042871624126850e-01 -1.061162550772494217e-01 1.183633633612781511e+00 2.404485450686831560e-01 4.786983795039699841e-01 7.227870955061501679e-01 5.151115186912420540e-01 2.025356424456046245e+00 6.599956044671038136e-01 1.628641026603041067e-02 3.725502260230940110e-01 3.979469364497538186e-01 1.145551081964110152e+00 5.024597960921052264e-01 -2.446509157270183171e-02 5.160125865919708010e-01 -6.519822945685828895e-03 5.252731764923566082e-01 5.272248484883425013e-01 1.044505845973521703e-02 -2.297091648327270752e-02 6.598304846968107151e-01 5.007664864107749247e-01 5.903470847466468774e-01 1.879240209812842732e-01 4.054745671514863314e-01 5.292421607087014479e-01 4.508337474852673887e-01 4.874792167595509707e-01 4.796450769421487514e-01 5.803447338851561721e-01 1.021544796142058953e+00 3.185646381912640379e+00 9.658509585534288400e-01 5.320766387387292351e-01 5.659209911345965960e-01 2.187691328444177352e-01 5.242717381565096257e-01 8.605029570980490261e-01 5.091845998234569848e-01 1.317222347189461074e+00 4.963357902423584656e-01 -5.945760854097672521e-01 -2.078943688578175145e-02 4.267900376926003214e-01 6.159851963739465530e-01 5.769579873768915235e-01 5.210127519615829206e-01 5.879142702971678486e-02 5.253413683853557226e-01 5.299798013621856985e-01 -3.847047068166549177e+00 4.782310332948702114e-01 5.153911393920413975e-01 1.140737227754201388e+00 5.264617672593141506e-01 4.178527518112898909e-01 6.713098717109247104e-01 -9.151577684472138596e-01 -4.987336482987737574e-01 2.431125072513207891e-02 5.215440767158182611e-01 5.940259290911026335e-01 2.102813184177949601e-01 5.135700075282383370e-01 -3.471119894498886915e-01 5.519463080638939978e-01 5.568778131555921496e-01 6.968002939833578546e-01 5.548525142100433349e-01 4.669306472594590973e-01 1.444564245642358802e-01 -7.867135394420902150e-01 6.550879853014316412e-01 5.632112878017967450e-01 1.545771226618765370e-01 5.259136340288798062e-01 5.200245343922607066e-01 5.119197941752376968e-01 6.664471009457901829e-01 5.811366672913459430e-01 5.504659478406288553e-01 5.044066168511438519e-01 1.857803563074437836e+00 3.498269317419275271e-01 5.320879322006671908e-01 -1.381929578278289217e-01 5.204016668370049503e-01 6.420533445711370524e-01 5.272683356072213057e-01 4.829829023431254642e-01 3.719403716305745289e-01 9.587861253776966963e-01 1.228009453315163313e+00 5.540758286009127564e-01 5.864959823258633076e-01 5.971102930784576435e-01 4.957666673378561262e-01 5.386852526038812261e-01 5.222958307831899738e-01 9.781631942852302419e-01 6.835827298582924927e-01 -4.656718028893577221e-01 4.655946546492409910e-01 9.020979295474330639e-01 5.153610075300287807e-01 -3.817592907069582153e-02 5.286520436116153299e-01 1.504728805839204986e+00 -1.383487540522760906e-01 6.545951641749253591e-01 2.346721766436852263e-01 4.697444097307800770e-01 8.711130280595235087e-01 5.219854385807787267e-01 3.740666870235174746e-01 1.412292023159692267e+00 4.694593390068798611e-01 5.171347103576591220e-01 -7.113693583085766159e-01 4.410307566389001233e-01 1.039303117947160349e+00 6.250566426217289973e-01 6.568067309015804267e-02 9.934631135849500971e-01 -1.762206726851028166e-02 7.337282629219215035e-01 1.658900842713635582e+00 -8.680656818787086948e-01 5.788840787363168650e-01 5.226402206155456032e-01 -4.814633034615383167e-01 3.017045963566112876e-01 5.737325333093580282e-01 5.152255245194274913e-01 4.769156659086077887e-01 4.282689235882810586e-01 2.626896256310304323e-01 3.484610130816137574e-01 5.770689117990208672e-01 5.197129995125068236e-01 9.084922997514307749e-03 -1.582652152148728564e-01 5.251385462608222365e-01 1.069069272079930855e+00 5.422169125302631620e-01 -5.857429716759756655e-01 4.446005380999892287e-01 5.232738508615555340e-01 5.652874749309583224e-01 4.732467026506379654e-02 3.242800577396668382e-01 5.231473605535151838e-01 5.319462893010223903e-01 4.532027445477563865e-01 -1.277654386254603244e-02 5.586499712608740120e-01 5.328506116897185896e-01 5.769648638901343496e-01 2.110269921825108863e+00 -1.317795299956957440e-02 3.893912469000380128e-01 5.746870969216681946e-01 1.857884285861300278e+00 4.856931049350468044e-01 5.563425660318676025e-01 2.691875560806122891e-02 5.648855088917743572e-01 5.201841572518420831e-01 4.779707994233883261e-01 3.992924159437974407e-01 5.259050750871143709e-01 4.346115414664188936e-01 5.180266822979170405e-01 -5.627232811860811701e-01 5.240801744759506775e-01 4.948697489654461656e-01 5.162525735197774912e-01 1.258704545475459069e+00 5.183001792291997978e-01 -2.494120098276621789e-01 1.129282337419898585e+00 -1.320964266775337626e+00 -5.453541744928003254e-01 5.445858577229637509e-01 5.231309219561754986e-01 6.664500793952807811e-01 5.194223944938506365e-01 5.029935951002053596e-01 5.115697817833301242e-01 5.648855094551938905e-01 5.249197200766256843e-01 5.112776943722817657e-01 6.033592207906063321e-01 5.217091672430168581e-01 3.195630601873192256e-01 5.228612273774544406e-01 5.407155177050817496e-01 4.082572676703576930e-01 5.288745964218402040e-01 5.188245683250356510e-01 5.171541584056962293e-01 6.546530534210742713e-01 5.209807962401762360e-01 7.211665044699979710e-01 5.147181950486926505e-01 5.366752730992202514e-01 5.373413468441201601e-01 4.198084705720719345e-01 3.590052488114315321e-01 2.479658181249487114e+00 5.085766595999853257e-01 6.277049391344702300e-01 2.965833389001594766e-01 5.791085752815975374e-01 1.121512576528884475e+00 4.151169255611496522e-01 6.900500034391218174e-01 5.213565279373177930e-01
7.173684072713002458e-01 2.961112555069330132e-01 4.504486677556412966e-01 -3.299656297541043309e-02 3.105146611541697022e-01 3.913425213647688805e-01 5.389757290187859873e-01 3.924636305973093764e-01 3.743965584206190300e-01 3.072074621199444300e-01 2.083697861274530716e+00 1.737721528082053490e+00 -1.476576130397666553e+00 5.859379851322182864e-01 3.078362976474753321e-01 4.629429146833283770e-01 1.359186358288281826e-01 4.483040875620821208e-01 4.073480193318842479e-01 2.997976787635377449e-01 4.147523774861825996e-01 2.155950343219069421e+00 3.534639958213693367e-01 3.444898226986172762e-01 7.533028621591052465e-01 -1.688090829582281904e-01 4.068407959467044144e-01 1.867878057135980430e-01 2.892819925179432872e-01 -9.313936246400212893e-01 4.493655069597920493e-01 -1.611848535370057345e-01 2.893008615716156640e-01 3.187550272824658526e-01 -4.104660418978145486e-01 5.033386281277415497e-01 3.344275767399967347e-01 -3.949304079907676179e-01 -3.312103597805579724e+00 3.343325344578484404e-01 1.201355810365079435e+00 1.464719808616326835e-01 -1.693418788436671651e-01 7.915264112971487354e-01 5.561321861735316618e-01 3.192663893487081572e-01 -3.308052122925925209e-02 3.058096760995707153e-01 1.355670192406115970e-01 6.532802940766706534e-01 6.920449805023880518e-01 5.062217232200654227e-01 -1.486245591948847367e-01 2.436300230761385965e-01 5.919877942663918091e-01 6.597300641888007577e-01 2.956490338077787383e-01 2.528990793736905496e-01 3.450006295480147478e-01 3.181137375666526768e-01 4.335929239484672126e-01 4.384357691959421821e-01 3.441968865641517050e-01 3.534640138911168128e-01 -3.417359271499083584e-01 1.200955821785949923e-01 3.042740816093840173e-01 3.081125133832077201e-01 2.417377816460705986e-01 7.044335915994180963e-01 1.632343824264435583e-01 2.461500731226652083e-01 3.080955620165126696e-01 7.238558061783846309e-01 1.948702058506008195e+00 4.119115168765545287e-01 4.785180301073667652e-01 4.828412320087294707e-01 3.094643313825118924e-01 -1.359973007885683316e+00 3.243811574076926330e-01 5.367848891407600576e-01 2.404919318815393670e+00 6.810805265970720779e-02 2.485062489721218404e-01 -3.511640935611611836e-01 1.419555505879639690e-01 3.140761427192254596e-01 -5.849169939999527834e-01 -9.134438426674229561e-01 5.561296392273967770e-01 1.615429338444704488e+00 5.290338677181405380e-02 6.807371066343163024e-01 3.667556746721659655e-01 3.484828198366232699e-01 2.718168389072193603e-01 7.861185970637359910e-01 7.364863956223273167e-01 -1.633955089676131234e-01 -1.825176648481094122e-01 5.605632443550175037e-02 3.232276920303855383e-01 2.176616042568150500e-01 -6.009564711583957608e-02 3.175702247885968887e+00 -2.957903409953313023e-01 3.522417819747341583e-01 7.714735880159659387e-02 8.122368421086596513e-01 2.770390177601866899e-01 5.286198604975539395e-01 1.617928609351044211e-01 3.634253134638736893e-01 -4.726636638033580029e-01 2.801153216742345298e-01 9.044390655426406966e-02 4.110273920148981297e-01 1.184426366385282758e+00 3.460846147611380541e-01 -1.477807533882467661e+00 1.253160154634575807e-01 7.276030213265773094e-02 1.483174697878958170e+00 3.118485186825610822e-01 2.208452845151020139e+00 3.858593748695035019e-01 2.023627359441714235e-01 3.133922271833987083e-01 3.148753081753859484e-01 3.434702048465826940e-01 3.114395207749669492e-01 6.715307720404567471e-01 4.145376327690376006e-01 1.600755010458608796e-01 8.548005986612337015e-01 7.288480954348288687e-01 7.060989525964149749e-01 -3.409116220035697808e-01 2.233855317973775234e-01 2.927183766516098240e-01 3.221348050039598010e-01 3.589170712153874621e-01 2.577150009077258663e-01 3.088425464099983642e-01 7.009881798637530581e-01 -1.826665856645376118e-01 3.193829924021809319e-01 4.213413955160419944e-01 4.038171953227016608e-01 -1.964756997458459997e-01 2.861573820012314542e-02 3.192666622450419656e-01 2.883722930645158944e-01 2.751542066702973854e-01 3.072700224079539799e-01 -2.505090939306958919e+00 4.697377296811469649e-01 -6.097715265845521371e-01 -1.673584849272990172e-01 1.417085625757675549e-01 3.826870297685984190e-01 3.103663627105559542e-01 3.085429637024898475e-01 1.304077688220983411e-01 1.199135771161746050e-01 3.201169633032782125e-01 4.898427161250697992e-01 4.597655808030668423e-01 2.766835615191877706e-01 2.289199915530684415e-01 -3.453823710300121114e-02 3.192200158609662664e-01 3.122581035533089633e-01 -2.541223988933243305e+00 6.690242095924948673e-01 5.727228606782888143e-01 9.337899880941734621e-01 -4.609417430729690346e-01 1.174951912895245698e+00 4.654438702393622757e-02 3.203319827747611592e-01 1.247216769751071652e+00 3.636482144834389252e-01 3.131257309664238764e-01 3.307537393025798411e-01 2.921487856409463180e-01 3.358160208652478107e-01 -5.018792481403916428e-01 3.325316785707186917e-01 3.347424916223896707e-01 8.255016081873235434e-01 3.184245010817655652e-01 3.670265006952052600e-01 2.499053521439029146e-01 3.093421770748958632e-01 -1.698263058058101738e+00 3.192780420440929912e-01 3.600603797577638376e-01 2.708731007968541160e-01 3.457081357335672206e-02 3.861134916645922455e-01 3.904085532744676068e-01 1.519661194983812635e-01 -7.570271202632629093e-01 3.600603648966776427e-01 4.933248727521215016e-01 -5.249097425210281775e-01 3.383580950066332749e-01 2.243527771083926592e-01 2.301824383653574280e-01 -3.312960076456962000e+00 4.237863744434593460e-01 9.125992404006340042e-01 3.221832188563303334e-01 3.094392621637310214e-01 3.102387514804010871e-01 3.290866070343201333e-01 3.054504696832987531e-01 3.107597737194612297e-01 3.756315420030439944e-01 8.834982769533182567e-02 6.726243168564353114e-01 1.066387643886831937e-01 4.467234556364806375e-01 5.263859062043342307e-01 4.102181102356992626e-01 -7.069290974823496665e-01 2.337268764949914424e+00 4.093631966918368503e-01 1.253139673652869934e+00 -1.402918360717485546e+00 3.048583236680000308e-01 2.715492293946754065e-01 3.477272161657771754e-01 1.194925471995576416e+00 5.282935149804098840e-01 8.350761253717347010e-01 2.886935076757777829e-01 6.665129086372028056e-01 2.274449487784994950e-01 2.881918400368181366e-01 -1.193556729019653595e+00 4.217132324300960078e-01 3.112051830025283072e-01 5.044013555934159232e-01 8.755267151971698469e-01 -3.831041457498676750e-01 3.228240794123045099e+00 5.015654879877253780e-01 1.307891429137880701e+00 -2.942307561354439716e-01 3.094277714042577565e-01 3.534654960538574642e-01 3.536368636065490012e-01 2.600312376668713066e-01 3.061221980078040472e-01 -1.574083632101956620e-01 9.103006642510574897e-02 5.627672736462964176e-01 2.382555816391713210e-01 1.032325584053245260e-01 2.392419373947175520e-01 4.834779253803544452e-01 4.335928977966448383e-01 2.555414848698438490e-01 3.303871872154231504e+00 3.440194144270516396e-01 6.509489124809310079e-01 5.223965854103046480e-01 2.464276591951880258e-01 4.340237093833971271e-01 3.110018028630660569e-01 3.008182765377498957e-01 3.098919882947432369e-01 -6.222765527626471505e-01 4.166532246373880755e-01 2.851429863433776468e-01 1.460500733377870231e-01 3.438389117488476754e-01 1.555465267300189636e+00 3.735522488084453419e-01 3.204561809126546534e-01 2.012381002144348230e+00 5.110350429428259789e-01 2.915921264670648938e-01 2.789538874185749640e-01 2.922244346241832380e-01 2.801156858505129410e-01 -2.076236274528997061e+00 3.251205791986539473e-01 1.596755215967711639e+00 -8.474542694460786285e-02 3.581306158576308962e-01 6.637510202577102669e-01 3.367204783679240698e-01 -7.319840160583915845e-01 3.684229119281763887e-01 3.135383489088877096e-01 4.213731694512574677e-01 -4.039816041377965461e-01 2.983799762384420906e-01 -2.357085459809976857e+00 -3.370189075094830872e-02 3.077353501909763089e-01 5.974525812413933323e-01 3.115612843866197301e-01 3.097624821959018004e-01 4.946105127334206597e-01 1.696319783864647379e-01 -8.119728244333823675e-02 -7.761969329818995122e-01 -3.718866712370301562e-03 6.883439475067488766e-01 3.111389281720892686e-01 4.998324229892160409e-01 2.931877492784369377e-01 -3.318609799565805374e-02 3.162727959949119816e-01 2.480119496868292028e+00 6.786749648039722693e-01 2.471934952941821084e-01 -1.183347838411035191e+00 2.397203787883695758e-01 4.786534046272333143e+00 4.051159773666762054e-01 -1.887949589887159274e-01 5.719469658094890052e-01 -5.692641696610297508e+00 5.318474103042655221e-01 1.580150491956382020e+00 3.102129521397407608e-01 5.247718625049354602e-01 -4.546460776298031914e-01 4.329085503716078587e-01 2.597048746158850396e-01 3.301751193140843310e-01 2.157353652971362445e-01 2.992604787752552564e+00 -3.827740220115751768e-01 3.017380222996848271e-01 -1.937678897776759390e+00 3.050051891471080578e-01 -3.949304107779157413e-01 7.586968986217703659e-01 4.997917065362246780e-01 2.597378754512439936e-01 2.833193162702942192e-01 1.264508049412026658e+00 1.563821510165939455e-01 3.600603093953230194e-01 4.217186909089588043e-01 1.519661107916134291e-01 3.670556702104779134e-01 3.868377966784588007e-01 -6.237916561110755653e-01 3.077274074652121549e-01 5.615843291426558803e-01 4.031254893386325144e-01 1.773351320368113382e-01 3.092897966067330029e-01 5.071436534947250108e-01 4.997917981933575615e-01 4.976193632105163078e-01 3.059525244248123554e-01 1.673113322822464000e-01 3.836451782395814414e-01 3.514443555997673663e+00 3.043470160149260861e-01 1.085159986607520527e-01 4.335919789920615885e-01 8.378432942343607692e-01 4.697455185504010866e-01 -1.938484693869429454e-01 6.864202653019512157e-01 3.530154834970428701e-01 1.260773640033063803e-01 4.214114061415126233e-01 6.801059949619207012e-01 5.396109658652922247e-01 7.963018453068458902e-01 8.223648998817842948e-01 2.620191756596597088e-01 1.519661195069545723e-01 1.519660360368713936e-01 2.475633835945928729e-01 2.112075070581132807e-01 1.119699670259704183e+00 3.892060432861144670e-01 2.965676909942894235e-01 2.776107119559898528e-01 3.127545524953631584e-01 7.487404758661339033e-01 3.600597262632883599e-01 3.082977205179789348e-01 4.265722061715365165e-01 2.079230216406863507e-01 -6.411603935237059071e-01 2.917852322909315621e-01 3.084212252566016499e-01 3.754477298766656923e-01 6.718466456386577024e-01 6.704423131380138345e-01 1.519661206457224856e-01 1.299617515233061626e-01 3.042267253314520636e-01 5.123359366030488804e-01 -5.952365624740463268e-01 1.748989011505813207e-01 -3.578622491596433530e+00 2.024265804369343780e+00 6.317132258903147557e-01 -4.824583967436617549e-01 -3.296356596102193587e-02 2.085123966991454747e+00 3.219877478687585559e-01 6.509088766049752062e-01 -5.429618952619033601e-02 3.905141142372490215e-01 4.017453289730458788e-01 2.961612033929430510e-01 -5.464824843488701456e-01 3.679359864979924732e-01 2.091565248825121959e+00 2.317190600708481929e-01 -4.596301961804650782e-01 2.962625840062177995e-01 3.067341171430864044e-01 -1.465068057576476956e+00 2.791753306520553535e-01 3.710018177123884375e-01 4.035109444844741100e-01 1.176606046465817901e-01 3.031884722406227861e-01 2.131417306324611682e-01 3.234962173341446312e-01 -1.612759837297154109e-01 2.970830869856658230e-01 1.065750401959293936e-01 3.020909017720321832e-01 3.046131012274732042e-01 1.167510377661168212e-02 3.796136769641819675e-01 5.115190481938708400e-01 -1.421052055988261342e+00 -6.596143550864724814e-01 -1.187644712404413577e-01 1.388927326601888668e-01 1.673208081662178603e-01 4.351434359774966065e-01 3.594248246432658611e-01 7.156948796238863375e-01 -1.403467741377476541e-01 3.336005325759132667e-01 3.114225051000272804e-01 9.561573150548777211e-02 -1.616121636472969691e-01 2.703699372913194177e-01 4.630465455206682623e-01 4.800113166109825080e-01 3.409838323905036717e-01 2.882712172056524080e-01 3.134821691034932467e-01 2.456536223706299871e-01 3.099966651741621337e-01 4.879372349999831493e-01 2.697696765146432862e-01 3.090112305406606530e-01 6.865854590375659594e-01 3.276954867565287088e-01 7.220070542012164694e-01 -1.288197854425326798e-02 5.706903253352376693e-01 2.887826025912514916e-01 -1.472246137930200316e+00 3.106318986621875444e-01 6.347076314168903499e-01 3.514385050409185585e-01 3.383826550002941302e-01 3.198071387508072960e-01 1.699079760630319014e-01 6.848097582343453116e-01 3.061817594707194612e-01 4.239192650498849191e-01 3.107693204987156954e-01 2.744324063658422075e-01 1.810739184599021445e-01 4.805816061017782470e-01 3.206966646668316101e-01 1.734492887233690661e-01 4.338160237979377110e-02 1.003404760660823319e-01 1.666249650949361838e+00 1.693875986035975889e-01 3.425526991545020383e-01 3.898075186673167214e-01 -8.652830076879404197e-01 3.180654944315126631e-01 2.304531764371350877e-01 3.054275835609659984e-01 -8.436321795799216205e-02 2.699625815227680858e-01 1.684791987856155915e+00 8.945373600396079317e-01 4.673099159726007423e-01 2.834581658453558806e-01 3.213777662403526358e-01 3.463207105213435555e-01 9.329321324180690489e-01 3.088865767548132357e+00 3.073166719986384354e-01 1.530324114708819794e-02 5.855125226221655765e-01 -2.360787702874769245e-01 3.131071466427973182e-01 3.061139361882416754e-01 1.086293087388470413e+00 3.144783655133117084e-01 -3.437539614499653395e-01 3.896955970341143827e-01 1.372856243689689615e-01 6.211942302573753016e-01 1.851522251521691365e+00 2.464588608659303570e-01 2.792518466512117215e-01 1.672619769391249234e+00 3.915744861616485273e-01 2.449378063715148823e-01 1.544706284750292091e-01 1.901330102787947285e-01 -3.267504548420112342e-02 5.217214208709469725e-01 2.447227032259003954e-01 7.166412167446422066e-01 2.781739092415447812e-01 2.085332743845629555e-01 3.280448602044097051e-01 3.777125998229981518e-01 4.271434749692539778e-01 2.632053944378221488e-01 8.823538743372155713e-01 5.169029912268798821e-01 5.058786355534903301e-01 3.087741325072676513e-01 2.403446107612682847e-01 3.032737295405781852e-01 5.926322804698741509e-01 7.794432630421981312e-01 3.710698808316302832e-01 3.238178912472864934e-01 5.868080826117118010e-01 3.087284706870185302e-01 7.000945709067641909e-01 3.213139508299738267e-01 4.782281249955609992e-01 -3.065378297285790699e-01 3.119242429849820586e-01 3.348887886957908067e-01 4.500018543159496343e-01 2.176740040328971060e-01 3.503299764760780532e-01 1.822200838251888388e+00 1.087124669661953744e-02 3.130665681149646384e-01 -2.161499031149829164e-01 1.682123045811252604e+00 1.162203808977237296e+00 3.701686937876449979e-02 -4.426068006559282786e-01 4.420101792404494967e-01 2.834269645070687238e-01 4.904902111138921827e-01 3.074573623462817928e-01 3.115984765588180050e-01 2.260178160397802172e-01 3.349564372537767176e-01 2.816062294505244923e-01 -3.271259392209304590e-02 -2.313141125730701353e-01 3.181499569945095418e-01 2.352105908524736166e-01 2.472919949245961369e-01 8.811841228769403678e-01 4.335929117299587854e-01 3.137803107376728184e-01 8.576549281885317288e-01 4.753262320589598522e-01 5.561617573871653342e-01 4.576273151336957001e-01 6.987291181337857982e-01 1.482889609836294031e+00 3.928417871185481691e-01 2.120693731182169639e+00 -2.314096367676025598e-02 1.555592050630971168e-01 3.108208880441923894e-01 3.234276049756976135e-01 3.784732549518829425e-01 2.767102497969196606e-01 3.099625267621468616e-01 3.110837647369263381e-01 3.692154453213452592e-01 2.190323793062373681e-01 -3.514131960399354271e-01 2.780084471477403119e-01 -5.967879104252476336e-02 3.034099485186228518e-01 4.214357426171399523e-01 4.335929117486283513e-01 2.297541527282400409e-01 2.212914212409224923e-01 -1.291647976412601428e+00 1.984300813196450797e+00 3.128051267219295051e-01 -7.548526662663892495e-01 2.969232947878582274e-01 3.304732811671101667e-01 3.108359022596642318e-01 -4.852169298579815937e+00 3.581123998972902012e+00 6.339296322928303917e-01 2.702226762722944459e-02 3.289234493622684719e-01 3.088604597238157057e-01 2.593059946336558341e-01 2.655464854117806528e+00 6.303109926954517661e-01 3.191270282721005436e-01 2.801153386914486121e-01 3.030748793144018571e-01 3.326998825464046461e-01 8.568410427618747827e-01 -3.733763003009426540e-01 -1.225287638009685542e+00 -1.236308619435616096e+00 3.122634076877112697e-01 3.127659359199251310e-01 7.381441865274152025e-01 3.694769575161680475e-01 1.482909654008729428e+00 4.895280331913023919e-01 3.118751263429520026e-01 3.312983061256084549e-01 3.132212906606188785e-01 3.428392450738878550e-01 3.024135686426384084e-01 6.400251005114931946e-01 2.835462860165063881e-01 6.615532592850881244e-01 2.330768936229424271e-01 5.874913605863058691e-02 3.021551625320186840e-01 1.787365573930662921e-01 2.813133725615090119e-01 2.667773669405175685e-01 6.335970159365035270e-01 4.997917427240361476e-01 2.901974410006216698e-01 2.433696907475449978e-01 3.052824247501108035e-01 2.742111930209860104e-01 1.684816179688497506e+00 1.933526946297487337e+00 3.033574420596410470e-01 3.319980647232255166e-01 3.075487153609336444e-01 1.668787809139773703e-01 2.229487799138920312e-01 4.061990178401934659e-01 3.093974163060589921e-01 3.278610737683743670e-01 8.089519416247008543e-01 8.944403608407994755e-01 2.894625597343867263e-01 1.890243312133762510e+00 3.427045442996738966e-01 -2.672564714664878438e-01 -2.715192118295733370e-01 -3.049632914450651211e-01 3.118064956168414281e-01 3.229405230888146017e-01 7.107744009511586247e-01 3.187304605604624475e-01 4.482759862453758459e-01 2.986803181882451419e-01 3.283902177060020744e-01 2.754637342208220985e-01 -5.834466592861386330e-02 1.010482985720924987e+00 3.171848460748077358e-01 3.511985032005734420e-01 3.072178571554884385e-01 3.512719377281371402e-01 3.400468814267395556e-01 3.963121955421700648e-01 -8.238443536626277597e-02 2.222685582268474624e-01 2.799881462080788252e-01 -3.328179375418022223e-02 4.335932429114716657e-01 1.097306685353092393e+00 9.703194314987598768e-01 -7.211371402587424262e-01 -3.949304079416717239e-01 6.606371948450292519e-01 -3.372825412810784851e+00 1.581999247519092711e+00 2.863414626352311365e-01 -3.307524119730925749e-02 3.119714989203329347e-01 9.038698133004946511e-01 3.107658061984164832e-01 4.217133474511582936e-01 -4.382208976369273423e-01 8.168423092053676005e-01 3.176339295994218825e-01 8.622351483065299194e-01 2.111167410306832526e+00 -3.733486594186323226e-01 -1.483193688417583145e+00 2.466448724647709034e-01 3.072821010283976473e-01 7.509320862919780515e-01 2.722826746346805327e-01 7.011770183098440246e-01 4.691134076717615176e-01 3.051670100105149941e-01 3.026218236795357175e-01 3.097955449032862574e-01 2.929153805390631859e-01 3.093579629687454591e-01 1.432659515264320893e+00 1.663399408717008532e+00 3.155073988001030338e-01 3.499225966730447057e-01 2.185812499663380148e-01 -2.491539118381479179e-01 2.260321491573299979e-01 -5.261441861716865259e-02 3.092044369377085489e-01 7.037572197498160875e-01 -5.471525400390008231e-01 2.755194482951605073e-01 2.972900258292461850e-01 1.542720159049239259e-01 3.340291765452536032e-01 1.910841439486214433e-01 3.120092888385846974e-01 3.112976391975547652e-01 4.789273852763384354e-02 2.958343111806888692e-01 4.335197189128349171e-01 1.133609221205287065e+00 1.110243818510123992e+00 9.146242758817021423e-01 2.108747451891481162e-01 7.924550800406195972e-01 1.564958879123065361e-01 5.003370806248151892e-01 -2.176830597693313774e+00 2.982028606744195898e-01 6.622583981462585312e-01 2.944285743995075921e-01 9.468686256711434934e-01 1.380110857302993654e+00 2.801153230163285213e-01 2.448769072153050841e-01 3.757277170547789202e-01 3.996297810218758517e-01 5.483499576821139199e-01 9.494859784199907171e-01 -8.149713059665250059e-01 2.475001931231909091e-01 3.025985072684513055e-02 3.007803310371706673e-01 3.406953529593599872e-01 7.636503382729095124e-01 -2.636772517144914119e-01 4.096015666759548202e-01 3.190733369224776350e-01 3.615913218966519405e-01 8.949154407557793345e-01 4.331715875658242454e-01 -2.212621765095610926e-01 8.582618319757616687e-01 -3.791228893075078432e-02 5.623737564194339900e-01 3.246811236678124324e-01 1.296571868472618849e+00 5.978419653597311090e-01 7.159020718438596775e-01 4.350345200231785503e-01 4.844165568659768439e-01 -5.858554754753388938e-01 2.246305413352675806e-01 7.524676841548754158e-01 3.102242465793153547e-01 6.102256079774307507e-01 3.215869192169708568e-01 3.073051138412564720e-01 7.151248356136378215e-01 1.623548471224620648e-01 -2.069941263066870540e+00 2.036669446836713582e-01 2.509578734292325364e-01 9.198998656923861317e-01 3.449760876925354602e-01 3.622553697358740776e-01 3.821984173679888741e-01 3.117350477115555241e-01 4.017772008525555272e-01 1.016260423362987386e-01 -1.633172488291413593e+00 7.640379481063064304e-01 2.426284635670542811e-01 3.223453771690151237e-01 2.421687844091651720e-01 8.196388066067635814e-01 3.080277601054273173e-01 -1.555733727905265207e-01 3.497652675144078405e-01 1.125727810945697849e+00 2.810507756597676043e-01 4.164298687976303315e-01 1.041580832203240714e+00 4.199017031521678489e-01 2.842993037389380362e+00 3.253910312656167481e-01 3.261267277311438173e-01 7.118255797600789858e-01 2.922553457407252586e-01 3.372301254544001203e-01 -2.169197891651595267e+00 4.549061589044618992e-01 3.068617696056219479e-01 5.191701130689292398e-01 3.095456775866803900e-01 1.926164751684875942e-01 -1.753414723465916703e-01 2.080970734282963086e+00 -5.182595884518447216e-01 8.254652249596079461e-01 3.093872884302593662e-01 3.044613170708524996e-01 8.462888230314334903e-01 2.825199465475490834e-01 1.345914208635270892e+00 2.249799614273728099e-01 4.009259283308198585e-01 -8.871703281774797611e-01 -1.307907015797353800e-01 -5.800693763627519095e-01 -4.058187247673523679e+00 3.000266256881450655e+00 2.102471931078462100e-02 2.834865971681144736e-01 -1.663703424458528923e+00 3.159642260718295015e-01 4.275996659349139417e-01 3.285003531109461083e-01 1.820109020417493562e-01 6.427987098251833897e-01 6.037301208496215210e-01 1.092867832850974663e+00 -3.949304086455822649e-01 -2.366287593027354419e-01 2.508242253662265608e-01 -1.197532403504955489e+00 3.057233714797243929e-01 -6.578349692082324784e-01 2.932075429207253725e-01 4.448823548709064934e-01 1.106633135519426436e-01 4.579527846346905795e-01 2.627145856020985382e-01 -2.012821816227324326e-02 2.518522051957173269e-01 2.838250633455257077e-01 3.666010330248004601e-01 3.303807666125825881e-01 3.119145954631875606e-01 -7.210917544356076903e-01 4.739506354462625914e-01 1.547461389396782794e+00 7.593517354196675784e-02 2.356149418514073002e-01 2.451201461425547568e-01 1.204006160924300239e+00 3.338560662850018068e-01 9.351077039143591840e-02 8.850502207301286228e-01 2.368516405757166154e-01 1.887762317141454815e+00 2.815805508209270336e-01 1.357636901025332410e+00 3.228388932198119621e-01 7.343691518144283004e-01 1.357796535481584854e+00 3.957436646177987516e-01 2.867091214951932310e-01 9.487888532519546114e-01 -1.845722832975062455e-01 -6.678447701828293948e-02 2.447379648517853112e-01 3.056906143605803150e-01 3.634402358482914930e-01 1.454644773708665684e-01 1.155923131948174143e-01 -3.856145189664679229e-01 1.292232444251143697e+00 2.983153806411005249e-01 3.117274856020932350e-01 -3.254636536888892540e+00 5.601141154598805461e-01 2.254035426815532150e-01 3.566393189370000161e-01 3.724319542914892311e-01 4.328622024380987532e-01 -1.121160108741527717e+00 6.329775612895898185e-01 2.946881053400453587e-01 3.150430171479186581e-01 1.020594049721710972e+00 4.677746033091863542e-01 3.061699065224174898e-01 -1.418582116532907333e+00 3.585990397890003178e-01 8.950599772757097394e-01 3.582747034889884330e-01 2.977701318073921466e-01 2.994411772617686651e-01 7.111917646502083912e-01 -4.771479285380587215e-02 3.121287561795009768e-01 2.981435331307988879e-01 9.885125258756835565e-02 6.669756215812541189e-01 2.456107256635146341e-01 6.906499528939400445e-01 1.832310299984825641e-01 6.935598965613574141e-01 -2.473240788543958346e-01 -1.512136306376437256e+00 2.834817267838851129e-01 -2.098182057172128662e-02 2.809960715891275940e-01 3.579239069119923844e-01 5.558278187631805756e-02 4.997918021358532248e-01 3.199014063398099572e-01 8.375843082725167865e-02 4.272662355400715373e-01 3.331738296448393255e-01 2.867529235758485839e-01 3.267808998449773239e-01 -8.627641782952906180e-01 3.029684849234455246e-01 3.133259005623041382e-01 2.867878730474071047e-01 -3.248829552828184641e-01 3.085310609991011588e-01 8.372513843197426642e-01 -6.133064096345641758e-01 1.136475389742285236e+00 6.198976134298552765e-01 3.114786797262768525e-01 3.097911513347789692e-01 -2.067626930833361687e+00 3.089932951032706709e-01 2.439215382454233139e-01 3.129001431484638718e-01 4.997916897419537596e-01 3.083171872969788230e-01 3.447857733670710023e-01 5.758054060218558562e-02 3.113570880429960552e-01 4.336190321197455622e-01 2.945827744172966334e-01 2.369592575245115240e-01 2.831699047703494232e-01 3.010490660914343364e-01 3.141251075715561503e-01 3.158659395038467821e-01 1.281059183108845811e-01 3.040856423734280556e-01 6.280157614666848076e-01 1.608541212749418081e-01 3.127968409327523958e-01 -1.487979891698539003e-01 1.941975081011118043e-01 6.400196154925900105e-01 4.568382793549578658e+00 3.363944620386957740e-01 6.691124755697042126e-02 5.699557201987088817e-01 1.763031425661632512e-01 1.570719790897210144e+00 3.317052901376967289e-01 6.334666008384740588e-01 3.071644896238394651e-01
