# 
#                 ----------------------------------------------------
#                 Data from a 3D direct N-body simulation. 
# 
#                 rows are i-particle; 
#                 coumns are :mass, tag, x ,y, z, vx, vy, vz, ax, ay, az
# 
#                 NTHU, Computational Physics 
# 
#                 ----------------------------------------------------
#                 Time = 0.0
0.000000000000000000e+00 1.000000000000000000e+00 2.000000000000000000e+00 3.000000000000000000e+00 4.000000000000000000e+00 5.000000000000000000e+00 6.000000000000000000e+00 7.000000000000000000e+00 8.000000000000000000e+00 9.000000000000000000e+00 1.000000000000000000e+01 1.100000000000000000e+01 1.200000000000000000e+01 1.300000000000000000e+01 1.400000000000000000e+01 1.500000000000000000e+01 1.600000000000000000e+01 1.700000000000000000e+01 1.800000000000000000e+01 1.900000000000000000e+01 2.000000000000000000e+01 2.100000000000000000e+01 2.200000000000000000e+01 2.300000000000000000e+01 2.400000000000000000e+01 2.500000000000000000e+01 2.600000000000000000e+01 2.700000000000000000e+01 2.800000000000000000e+01 2.900000000000000000e+01 3.000000000000000000e+01 3.100000000000000000e+01 3.200000000000000000e+01 3.300000000000000000e+01 3.400000000000000000e+01 3.500000000000000000e+01 3.600000000000000000e+01 3.700000000000000000e+01 3.800000000000000000e+01 3.900000000000000000e+01 4.000000000000000000e+01 4.100000000000000000e+01 4.200000000000000000e+01 4.300000000000000000e+01 4.400000000000000000e+01 4.500000000000000000e+01 4.600000000000000000e+01 4.700000000000000000e+01 4.800000000000000000e+01 4.900000000000000000e+01 5.000000000000000000e+01 5.100000000000000000e+01 5.200000000000000000e+01 5.300000000000000000e+01 5.400000000000000000e+01 5.500000000000000000e+01 5.600000000000000000e+01 5.700000000000000000e+01 5.800000000000000000e+01 5.900000000000000000e+01 6.000000000000000000e+01 6.100000000000000000e+01 6.200000000000000000e+01 6.300000000000000000e+01 6.400000000000000000e+01 6.500000000000000000e+01 6.600000000000000000e+01 6.700000000000000000e+01 6.800000000000000000e+01 6.900000000000000000e+01 7.000000000000000000e+01 7.100000000000000000e+01 7.200000000000000000e+01 7.300000000000000000e+01 7.400000000000000000e+01 7.500000000000000000e+01 7.600000000000000000e+01 7.700000000000000000e+01 7.800000000000000000e+01 7.900000000000000000e+01 8.000000000000000000e+01 8.100000000000000000e+01 8.200000000000000000e+01 8.300000000000000000e+01 8.400000000000000000e+01 8.500000000000000000e+01 8.600000000000000000e+01 8.700000000000000000e+01 8.800000000000000000e+01 8.900000000000000000e+01 9.000000000000000000e+01 9.100000000000000000e+01 9.200000000000000000e+01 9.300000000000000000e+01 9.400000000000000000e+01 9.500000000000000000e+01 9.600000000000000000e+01 9.700000000000000000e+01 9.800000000000000000e+01 9.900000000000000000e+01 1.000000000000000000e+02 1.010000000000000000e+02 1.020000000000000000e+02 1.030000000000000000e+02 1.040000000000000000e+02 1.050000000000000000e+02 1.060000000000000000e+02 1.070000000000000000e+02 1.080000000000000000e+02 1.090000000000000000e+02 1.100000000000000000e+02 1.110000000000000000e+02 1.120000000000000000e+02 1.130000000000000000e+02 1.140000000000000000e+02 1.150000000000000000e+02 1.160000000000000000e+02 1.170000000000000000e+02 1.180000000000000000e+02 1.190000000000000000e+02 1.200000000000000000e+02 1.210000000000000000e+02 1.220000000000000000e+02 1.230000000000000000e+02 1.240000000000000000e+02 1.250000000000000000e+02 1.260000000000000000e+02 1.270000000000000000e+02 1.280000000000000000e+02 1.290000000000000000e+02 1.300000000000000000e+02 1.310000000000000000e+02 1.320000000000000000e+02 1.330000000000000000e+02 1.340000000000000000e+02 1.350000000000000000e+02 1.360000000000000000e+02 1.370000000000000000e+02 1.380000000000000000e+02 1.390000000000000000e+02 1.400000000000000000e+02 1.410000000000000000e+02 1.420000000000000000e+02 1.430000000000000000e+02 1.440000000000000000e+02 1.450000000000000000e+02 1.460000000000000000e+02 1.470000000000000000e+02 1.480000000000000000e+02 1.490000000000000000e+02 1.500000000000000000e+02 1.510000000000000000e+02 1.520000000000000000e+02 1.530000000000000000e+02 1.540000000000000000e+02 1.550000000000000000e+02 1.560000000000000000e+02 1.570000000000000000e+02 1.580000000000000000e+02 1.590000000000000000e+02 1.600000000000000000e+02 1.610000000000000000e+02 1.620000000000000000e+02 1.630000000000000000e+02 1.640000000000000000e+02 1.650000000000000000e+02 1.660000000000000000e+02 1.670000000000000000e+02 1.680000000000000000e+02 1.690000000000000000e+02 1.700000000000000000e+02 1.710000000000000000e+02 1.720000000000000000e+02 1.730000000000000000e+02 1.740000000000000000e+02 1.750000000000000000e+02 1.760000000000000000e+02 1.770000000000000000e+02 1.780000000000000000e+02 1.790000000000000000e+02 1.800000000000000000e+02 1.810000000000000000e+02 1.820000000000000000e+02 1.830000000000000000e+02 1.840000000000000000e+02 1.850000000000000000e+02 1.860000000000000000e+02 1.870000000000000000e+02 1.880000000000000000e+02 1.890000000000000000e+02 1.900000000000000000e+02 1.910000000000000000e+02 1.920000000000000000e+02 1.930000000000000000e+02 1.940000000000000000e+02 1.950000000000000000e+02 1.960000000000000000e+02 1.970000000000000000e+02 1.980000000000000000e+02 1.990000000000000000e+02 2.000000000000000000e+02 2.010000000000000000e+02 2.020000000000000000e+02 2.030000000000000000e+02 2.040000000000000000e+02 2.050000000000000000e+02 2.060000000000000000e+02 2.070000000000000000e+02 2.080000000000000000e+02 2.090000000000000000e+02 2.100000000000000000e+02 2.110000000000000000e+02 2.120000000000000000e+02 2.130000000000000000e+02 2.140000000000000000e+02 2.150000000000000000e+02 2.160000000000000000e+02 2.170000000000000000e+02 2.180000000000000000e+02 2.190000000000000000e+02 2.200000000000000000e+02 2.210000000000000000e+02 2.220000000000000000e+02 2.230000000000000000e+02 2.240000000000000000e+02 2.250000000000000000e+02 2.260000000000000000e+02 2.270000000000000000e+02 2.280000000000000000e+02 2.290000000000000000e+02 2.300000000000000000e+02 2.310000000000000000e+02 2.320000000000000000e+02 2.330000000000000000e+02 2.340000000000000000e+02 2.350000000000000000e+02 2.360000000000000000e+02 2.370000000000000000e+02 2.380000000000000000e+02 2.390000000000000000e+02 2.400000000000000000e+02 2.410000000000000000e+02 2.420000000000000000e+02 2.430000000000000000e+02 2.440000000000000000e+02 2.450000000000000000e+02 2.460000000000000000e+02 2.470000000000000000e+02 2.480000000000000000e+02 2.490000000000000000e+02 2.500000000000000000e+02 2.510000000000000000e+02 2.520000000000000000e+02 2.530000000000000000e+02 2.540000000000000000e+02 2.550000000000000000e+02 2.560000000000000000e+02 2.570000000000000000e+02 2.580000000000000000e+02 2.590000000000000000e+02 2.600000000000000000e+02 2.610000000000000000e+02 2.620000000000000000e+02 2.630000000000000000e+02 2.640000000000000000e+02 2.650000000000000000e+02 2.660000000000000000e+02 2.670000000000000000e+02 2.680000000000000000e+02 2.690000000000000000e+02 2.700000000000000000e+02 2.710000000000000000e+02 2.720000000000000000e+02 2.730000000000000000e+02 2.740000000000000000e+02 2.750000000000000000e+02 2.760000000000000000e+02 2.770000000000000000e+02 2.780000000000000000e+02 2.790000000000000000e+02 2.800000000000000000e+02 2.810000000000000000e+02 2.820000000000000000e+02 2.830000000000000000e+02 2.840000000000000000e+02 2.850000000000000000e+02 2.860000000000000000e+02 2.870000000000000000e+02 2.880000000000000000e+02 2.890000000000000000e+02 2.900000000000000000e+02 2.910000000000000000e+02 2.920000000000000000e+02 2.930000000000000000e+02 2.940000000000000000e+02 2.950000000000000000e+02 2.960000000000000000e+02 2.970000000000000000e+02 2.980000000000000000e+02 2.990000000000000000e+02 3.000000000000000000e+02 3.010000000000000000e+02 3.020000000000000000e+02 3.030000000000000000e+02 3.040000000000000000e+02 3.050000000000000000e+02 3.060000000000000000e+02 3.070000000000000000e+02 3.080000000000000000e+02 3.090000000000000000e+02 3.100000000000000000e+02 3.110000000000000000e+02 3.120000000000000000e+02 3.130000000000000000e+02 3.140000000000000000e+02 3.150000000000000000e+02 3.160000000000000000e+02 3.170000000000000000e+02 3.180000000000000000e+02 3.190000000000000000e+02 3.200000000000000000e+02 3.210000000000000000e+02 3.220000000000000000e+02 3.230000000000000000e+02 3.240000000000000000e+02 3.250000000000000000e+02 3.260000000000000000e+02 3.270000000000000000e+02 3.280000000000000000e+02 3.290000000000000000e+02 3.300000000000000000e+02 3.310000000000000000e+02 3.320000000000000000e+02 3.330000000000000000e+02 3.340000000000000000e+02 3.350000000000000000e+02 3.360000000000000000e+02 3.370000000000000000e+02 3.380000000000000000e+02 3.390000000000000000e+02 3.400000000000000000e+02 3.410000000000000000e+02 3.420000000000000000e+02 3.430000000000000000e+02 3.440000000000000000e+02 3.450000000000000000e+02 3.460000000000000000e+02 3.470000000000000000e+02 3.480000000000000000e+02 3.490000000000000000e+02 3.500000000000000000e+02 3.510000000000000000e+02 3.520000000000000000e+02 3.530000000000000000e+02 3.540000000000000000e+02 3.550000000000000000e+02 3.560000000000000000e+02 3.570000000000000000e+02 3.580000000000000000e+02 3.590000000000000000e+02 3.600000000000000000e+02 3.610000000000000000e+02 3.620000000000000000e+02 3.630000000000000000e+02 3.640000000000000000e+02 3.650000000000000000e+02 3.660000000000000000e+02 3.670000000000000000e+02 3.680000000000000000e+02 3.690000000000000000e+02 3.700000000000000000e+02 3.710000000000000000e+02 3.720000000000000000e+02 3.730000000000000000e+02 3.740000000000000000e+02 3.750000000000000000e+02 3.760000000000000000e+02 3.770000000000000000e+02 3.780000000000000000e+02 3.790000000000000000e+02 3.800000000000000000e+02 3.810000000000000000e+02 3.820000000000000000e+02 3.830000000000000000e+02 3.840000000000000000e+02 3.850000000000000000e+02 3.860000000000000000e+02 3.870000000000000000e+02 3.880000000000000000e+02 3.890000000000000000e+02 3.900000000000000000e+02 3.910000000000000000e+02 3.920000000000000000e+02 3.930000000000000000e+02 3.940000000000000000e+02 3.950000000000000000e+02 3.960000000000000000e+02 3.970000000000000000e+02 3.980000000000000000e+02 3.990000000000000000e+02 4.000000000000000000e+02 4.010000000000000000e+02 4.020000000000000000e+02 4.030000000000000000e+02 4.040000000000000000e+02 4.050000000000000000e+02 4.060000000000000000e+02 4.070000000000000000e+02 4.080000000000000000e+02 4.090000000000000000e+02 4.100000000000000000e+02 4.110000000000000000e+02 4.120000000000000000e+02 4.130000000000000000e+02 4.140000000000000000e+02 4.150000000000000000e+02 4.160000000000000000e+02 4.170000000000000000e+02 4.180000000000000000e+02 4.190000000000000000e+02 4.200000000000000000e+02 4.210000000000000000e+02 4.220000000000000000e+02 4.230000000000000000e+02 4.240000000000000000e+02 4.250000000000000000e+02 4.260000000000000000e+02 4.270000000000000000e+02 4.280000000000000000e+02 4.290000000000000000e+02 4.300000000000000000e+02 4.310000000000000000e+02 4.320000000000000000e+02 4.330000000000000000e+02 4.340000000000000000e+02 4.350000000000000000e+02 4.360000000000000000e+02 4.370000000000000000e+02 4.380000000000000000e+02 4.390000000000000000e+02 4.400000000000000000e+02 4.410000000000000000e+02 4.420000000000000000e+02 4.430000000000000000e+02 4.440000000000000000e+02 4.450000000000000000e+02 4.460000000000000000e+02 4.470000000000000000e+02 4.480000000000000000e+02 4.490000000000000000e+02 4.500000000000000000e+02 4.510000000000000000e+02 4.520000000000000000e+02 4.530000000000000000e+02 4.540000000000000000e+02 4.550000000000000000e+02 4.560000000000000000e+02 4.570000000000000000e+02 4.580000000000000000e+02 4.590000000000000000e+02 4.600000000000000000e+02 4.610000000000000000e+02 4.620000000000000000e+02 4.630000000000000000e+02 4.640000000000000000e+02 4.650000000000000000e+02 4.660000000000000000e+02 4.670000000000000000e+02 4.680000000000000000e+02 4.690000000000000000e+02 4.700000000000000000e+02 4.710000000000000000e+02 4.720000000000000000e+02 4.730000000000000000e+02 4.740000000000000000e+02 4.750000000000000000e+02 4.760000000000000000e+02 4.770000000000000000e+02 4.780000000000000000e+02 4.790000000000000000e+02 4.800000000000000000e+02 4.810000000000000000e+02 4.820000000000000000e+02 4.830000000000000000e+02 4.840000000000000000e+02 4.850000000000000000e+02 4.860000000000000000e+02 4.870000000000000000e+02 4.880000000000000000e+02 4.890000000000000000e+02 4.900000000000000000e+02 4.910000000000000000e+02 4.920000000000000000e+02 4.930000000000000000e+02 4.940000000000000000e+02 4.950000000000000000e+02 4.960000000000000000e+02 4.970000000000000000e+02 4.980000000000000000e+02 4.990000000000000000e+02 5.000000000000000000e+02 5.010000000000000000e+02 5.020000000000000000e+02 5.030000000000000000e+02 5.040000000000000000e+02 5.050000000000000000e+02 5.060000000000000000e+02 5.070000000000000000e+02 5.080000000000000000e+02 5.090000000000000000e+02 5.100000000000000000e+02 5.110000000000000000e+02 5.120000000000000000e+02 5.130000000000000000e+02 5.140000000000000000e+02 5.150000000000000000e+02 5.160000000000000000e+02 5.170000000000000000e+02 5.180000000000000000e+02 5.190000000000000000e+02 5.200000000000000000e+02 5.210000000000000000e+02 5.220000000000000000e+02 5.230000000000000000e+02 5.240000000000000000e+02 5.250000000000000000e+02 5.260000000000000000e+02 5.270000000000000000e+02 5.280000000000000000e+02 5.290000000000000000e+02 5.300000000000000000e+02 5.310000000000000000e+02 5.320000000000000000e+02 5.330000000000000000e+02 5.340000000000000000e+02 5.350000000000000000e+02 5.360000000000000000e+02 5.370000000000000000e+02 5.380000000000000000e+02 5.390000000000000000e+02 5.400000000000000000e+02 5.410000000000000000e+02 5.420000000000000000e+02 5.430000000000000000e+02 5.440000000000000000e+02 5.450000000000000000e+02 5.460000000000000000e+02 5.470000000000000000e+02 5.480000000000000000e+02 5.490000000000000000e+02 5.500000000000000000e+02 5.510000000000000000e+02 5.520000000000000000e+02 5.530000000000000000e+02 5.540000000000000000e+02 5.550000000000000000e+02 5.560000000000000000e+02 5.570000000000000000e+02 5.580000000000000000e+02 5.590000000000000000e+02 5.600000000000000000e+02 5.610000000000000000e+02 5.620000000000000000e+02 5.630000000000000000e+02 5.640000000000000000e+02 5.650000000000000000e+02 5.660000000000000000e+02 5.670000000000000000e+02 5.680000000000000000e+02 5.690000000000000000e+02 5.700000000000000000e+02 5.710000000000000000e+02 5.720000000000000000e+02 5.730000000000000000e+02 5.740000000000000000e+02 5.750000000000000000e+02 5.760000000000000000e+02 5.770000000000000000e+02 5.780000000000000000e+02 5.790000000000000000e+02 5.800000000000000000e+02 5.810000000000000000e+02 5.820000000000000000e+02 5.830000000000000000e+02 5.840000000000000000e+02 5.850000000000000000e+02 5.860000000000000000e+02 5.870000000000000000e+02 5.880000000000000000e+02 5.890000000000000000e+02 5.900000000000000000e+02 5.910000000000000000e+02 5.920000000000000000e+02 5.930000000000000000e+02 5.940000000000000000e+02 5.950000000000000000e+02 5.960000000000000000e+02 5.970000000000000000e+02 5.980000000000000000e+02 5.990000000000000000e+02 6.000000000000000000e+02 6.010000000000000000e+02 6.020000000000000000e+02 6.030000000000000000e+02 6.040000000000000000e+02 6.050000000000000000e+02 6.060000000000000000e+02 6.070000000000000000e+02 6.080000000000000000e+02 6.090000000000000000e+02 6.100000000000000000e+02 6.110000000000000000e+02 6.120000000000000000e+02 6.130000000000000000e+02 6.140000000000000000e+02 6.150000000000000000e+02 6.160000000000000000e+02 6.170000000000000000e+02 6.180000000000000000e+02 6.190000000000000000e+02 6.200000000000000000e+02 6.210000000000000000e+02 6.220000000000000000e+02 6.230000000000000000e+02 6.240000000000000000e+02 6.250000000000000000e+02 6.260000000000000000e+02 6.270000000000000000e+02 6.280000000000000000e+02 6.290000000000000000e+02 6.300000000000000000e+02 6.310000000000000000e+02 6.320000000000000000e+02 6.330000000000000000e+02 6.340000000000000000e+02 6.350000000000000000e+02 6.360000000000000000e+02 6.370000000000000000e+02 6.380000000000000000e+02 6.390000000000000000e+02 6.400000000000000000e+02 6.410000000000000000e+02 6.420000000000000000e+02 6.430000000000000000e+02 6.440000000000000000e+02 6.450000000000000000e+02 6.460000000000000000e+02 6.470000000000000000e+02 6.480000000000000000e+02 6.490000000000000000e+02 6.500000000000000000e+02 6.510000000000000000e+02 6.520000000000000000e+02 6.530000000000000000e+02 6.540000000000000000e+02 6.550000000000000000e+02 6.560000000000000000e+02 6.570000000000000000e+02 6.580000000000000000e+02 6.590000000000000000e+02 6.600000000000000000e+02 6.610000000000000000e+02 6.620000000000000000e+02 6.630000000000000000e+02 6.640000000000000000e+02 6.650000000000000000e+02 6.660000000000000000e+02 6.670000000000000000e+02 6.680000000000000000e+02 6.690000000000000000e+02 6.700000000000000000e+02 6.710000000000000000e+02 6.720000000000000000e+02 6.730000000000000000e+02 6.740000000000000000e+02 6.750000000000000000e+02 6.760000000000000000e+02 6.770000000000000000e+02 6.780000000000000000e+02 6.790000000000000000e+02 6.800000000000000000e+02 6.810000000000000000e+02 6.820000000000000000e+02 6.830000000000000000e+02 6.840000000000000000e+02 6.850000000000000000e+02 6.860000000000000000e+02 6.870000000000000000e+02 6.880000000000000000e+02 6.890000000000000000e+02 6.900000000000000000e+02 6.910000000000000000e+02 6.920000000000000000e+02 6.930000000000000000e+02 6.940000000000000000e+02 6.950000000000000000e+02 6.960000000000000000e+02 6.970000000000000000e+02 6.980000000000000000e+02 6.990000000000000000e+02 7.000000000000000000e+02 7.010000000000000000e+02 7.020000000000000000e+02 7.030000000000000000e+02 7.040000000000000000e+02 7.050000000000000000e+02 7.060000000000000000e+02 7.070000000000000000e+02 7.080000000000000000e+02 7.090000000000000000e+02 7.100000000000000000e+02 7.110000000000000000e+02 7.120000000000000000e+02 7.130000000000000000e+02 7.140000000000000000e+02 7.150000000000000000e+02 7.160000000000000000e+02 7.170000000000000000e+02 7.180000000000000000e+02 7.190000000000000000e+02 7.200000000000000000e+02 7.210000000000000000e+02 7.220000000000000000e+02 7.230000000000000000e+02 7.240000000000000000e+02 7.250000000000000000e+02 7.260000000000000000e+02 7.270000000000000000e+02 7.280000000000000000e+02 7.290000000000000000e+02 7.300000000000000000e+02 7.310000000000000000e+02 7.320000000000000000e+02 7.330000000000000000e+02 7.340000000000000000e+02 7.350000000000000000e+02 7.360000000000000000e+02 7.370000000000000000e+02 7.380000000000000000e+02 7.390000000000000000e+02 7.400000000000000000e+02 7.410000000000000000e+02 7.420000000000000000e+02 7.430000000000000000e+02 7.440000000000000000e+02 7.450000000000000000e+02 7.460000000000000000e+02 7.470000000000000000e+02 7.480000000000000000e+02 7.490000000000000000e+02 7.500000000000000000e+02 7.510000000000000000e+02 7.520000000000000000e+02 7.530000000000000000e+02 7.540000000000000000e+02 7.550000000000000000e+02 7.560000000000000000e+02 7.570000000000000000e+02 7.580000000000000000e+02 7.590000000000000000e+02 7.600000000000000000e+02 7.610000000000000000e+02 7.620000000000000000e+02 7.630000000000000000e+02 7.640000000000000000e+02 7.650000000000000000e+02 7.660000000000000000e+02 7.670000000000000000e+02 7.680000000000000000e+02 7.690000000000000000e+02 7.700000000000000000e+02 7.710000000000000000e+02 7.720000000000000000e+02 7.730000000000000000e+02 7.740000000000000000e+02 7.750000000000000000e+02 7.760000000000000000e+02 7.770000000000000000e+02 7.780000000000000000e+02 7.790000000000000000e+02 7.800000000000000000e+02 7.810000000000000000e+02 7.820000000000000000e+02 7.830000000000000000e+02 7.840000000000000000e+02 7.850000000000000000e+02 7.860000000000000000e+02 7.870000000000000000e+02 7.880000000000000000e+02 7.890000000000000000e+02 7.900000000000000000e+02 7.910000000000000000e+02 7.920000000000000000e+02 7.930000000000000000e+02 7.940000000000000000e+02 7.950000000000000000e+02 7.960000000000000000e+02 7.970000000000000000e+02 7.980000000000000000e+02 7.990000000000000000e+02 8.000000000000000000e+02 8.010000000000000000e+02 8.020000000000000000e+02 8.030000000000000000e+02 8.040000000000000000e+02 8.050000000000000000e+02 8.060000000000000000e+02 8.070000000000000000e+02 8.080000000000000000e+02 8.090000000000000000e+02 8.100000000000000000e+02 8.110000000000000000e+02 8.120000000000000000e+02 8.130000000000000000e+02 8.140000000000000000e+02 8.150000000000000000e+02 8.160000000000000000e+02 8.170000000000000000e+02 8.180000000000000000e+02 8.190000000000000000e+02 8.200000000000000000e+02 8.210000000000000000e+02 8.220000000000000000e+02 8.230000000000000000e+02 8.240000000000000000e+02 8.250000000000000000e+02 8.260000000000000000e+02 8.270000000000000000e+02 8.280000000000000000e+02 8.290000000000000000e+02 8.300000000000000000e+02 8.310000000000000000e+02 8.320000000000000000e+02 8.330000000000000000e+02 8.340000000000000000e+02 8.350000000000000000e+02 8.360000000000000000e+02 8.370000000000000000e+02 8.380000000000000000e+02 8.390000000000000000e+02 8.400000000000000000e+02 8.410000000000000000e+02 8.420000000000000000e+02 8.430000000000000000e+02 8.440000000000000000e+02 8.450000000000000000e+02 8.460000000000000000e+02 8.470000000000000000e+02 8.480000000000000000e+02 8.490000000000000000e+02 8.500000000000000000e+02 8.510000000000000000e+02 8.520000000000000000e+02 8.530000000000000000e+02 8.540000000000000000e+02 8.550000000000000000e+02 8.560000000000000000e+02 8.570000000000000000e+02 8.580000000000000000e+02 8.590000000000000000e+02 8.600000000000000000e+02 8.610000000000000000e+02 8.620000000000000000e+02 8.630000000000000000e+02 8.640000000000000000e+02 8.650000000000000000e+02 8.660000000000000000e+02 8.670000000000000000e+02 8.680000000000000000e+02 8.690000000000000000e+02 8.700000000000000000e+02 8.710000000000000000e+02 8.720000000000000000e+02 8.730000000000000000e+02 8.740000000000000000e+02 8.750000000000000000e+02 8.760000000000000000e+02 8.770000000000000000e+02 8.780000000000000000e+02 8.790000000000000000e+02 8.800000000000000000e+02 8.810000000000000000e+02 8.820000000000000000e+02 8.830000000000000000e+02 8.840000000000000000e+02 8.850000000000000000e+02 8.860000000000000000e+02 8.870000000000000000e+02 8.880000000000000000e+02 8.890000000000000000e+02 8.900000000000000000e+02 8.910000000000000000e+02 8.920000000000000000e+02 8.930000000000000000e+02 8.940000000000000000e+02 8.950000000000000000e+02 8.960000000000000000e+02 8.970000000000000000e+02 8.980000000000000000e+02 8.990000000000000000e+02 9.000000000000000000e+02 9.010000000000000000e+02 9.020000000000000000e+02 9.030000000000000000e+02 9.040000000000000000e+02 9.050000000000000000e+02 9.060000000000000000e+02 9.070000000000000000e+02 9.080000000000000000e+02 9.090000000000000000e+02 9.100000000000000000e+02 9.110000000000000000e+02 9.120000000000000000e+02 9.130000000000000000e+02 9.140000000000000000e+02 9.150000000000000000e+02 9.160000000000000000e+02 9.170000000000000000e+02 9.180000000000000000e+02 9.190000000000000000e+02 9.200000000000000000e+02 9.210000000000000000e+02 9.220000000000000000e+02 9.230000000000000000e+02 9.240000000000000000e+02 9.250000000000000000e+02 9.260000000000000000e+02 9.270000000000000000e+02 9.280000000000000000e+02 9.290000000000000000e+02 9.300000000000000000e+02 9.310000000000000000e+02 9.320000000000000000e+02 9.330000000000000000e+02 9.340000000000000000e+02 9.350000000000000000e+02 9.360000000000000000e+02 9.370000000000000000e+02 9.380000000000000000e+02 9.390000000000000000e+02 9.400000000000000000e+02 9.410000000000000000e+02 9.420000000000000000e+02 9.430000000000000000e+02 9.440000000000000000e+02 9.450000000000000000e+02 9.460000000000000000e+02 9.470000000000000000e+02 9.480000000000000000e+02 9.490000000000000000e+02 9.500000000000000000e+02 9.510000000000000000e+02 9.520000000000000000e+02 9.530000000000000000e+02 9.540000000000000000e+02 9.550000000000000000e+02 9.560000000000000000e+02 9.570000000000000000e+02 9.580000000000000000e+02 9.590000000000000000e+02 9.600000000000000000e+02 9.610000000000000000e+02 9.620000000000000000e+02 9.630000000000000000e+02 9.640000000000000000e+02 9.650000000000000000e+02 9.660000000000000000e+02 9.670000000000000000e+02 9.680000000000000000e+02 9.690000000000000000e+02 9.700000000000000000e+02 9.710000000000000000e+02 9.720000000000000000e+02 9.730000000000000000e+02 9.740000000000000000e+02 9.750000000000000000e+02 9.760000000000000000e+02 9.770000000000000000e+02 9.780000000000000000e+02 9.790000000000000000e+02 9.800000000000000000e+02 9.810000000000000000e+02 9.820000000000000000e+02 9.830000000000000000e+02 9.840000000000000000e+02 9.850000000000000000e+02 9.860000000000000000e+02 9.870000000000000000e+02 9.880000000000000000e+02 9.890000000000000000e+02 9.900000000000000000e+02 9.910000000000000000e+02 9.920000000000000000e+02 9.930000000000000000e+02 9.940000000000000000e+02 9.950000000000000000e+02 9.960000000000000000e+02 9.970000000000000000e+02 9.980000000000000000e+02 9.990000000000000000e+02
1.000000000000000000e+00 1.000000000000000000e+00 1.000000000000000000e+00 1.000000000000000000e+00 1.000000000000000000e+00 1.000000000000000000e+00 1.000000000000000000e+00 1.000000000000000000e+00 1.000000000000000000e+00 1.000000000000000000e+00 1.000000000000000000e+00 1.000000000000000000e+00 1.000000000000000000e+00 1.000000000000000000e+00 1.000000000000000000e+00 1.000000000000000000e+00 1.000000000000000000e+00 1.000000000000000000e+00 1.000000000000000000e+00 1.000000000000000000e+00 1.000000000000000000e+00 1.000000000000000000e+00 1.000000000000000000e+00 1.000000000000000000e+00 1.000000000000000000e+00 1.000000000000000000e+00 1.000000000000000000e+00 1.000000000000000000e+00 1.000000000000000000e+00 1.000000000000000000e+00 1.000000000000000000e+00 1.000000000000000000e+00 1.000000000000000000e+00 1.000000000000000000e+00 1.000000000000000000e+00 1.000000000000000000e+00 1.000000000000000000e+00 1.000000000000000000e+00 1.000000000000000000e+00 1.000000000000000000e+00 1.000000000000000000e+00 1.000000000000000000e+00 1.000000000000000000e+00 1.000000000000000000e+00 1.000000000000000000e+00 1.000000000000000000e+00 1.000000000000000000e+00 1.000000000000000000e+00 1.000000000000000000e+00 1.000000000000000000e+00 1.000000000000000000e+00 1.000000000000000000e+00 1.000000000000000000e+00 1.000000000000000000e+00 1.000000000000000000e+00 1.000000000000000000e+00 1.000000000000000000e+00 1.000000000000000000e+00 1.000000000000000000e+00 1.000000000000000000e+00 1.000000000000000000e+00 1.000000000000000000e+00 1.000000000000000000e+00 1.000000000000000000e+00 1.000000000000000000e+00 1.000000000000000000e+00 1.000000000000000000e+00 1.000000000000000000e+00 1.000000000000000000e+00 1.000000000000000000e+00 1.000000000000000000e+00 1.000000000000000000e+00 1.000000000000000000e+00 1.000000000000000000e+00 1.000000000000000000e+00 1.000000000000000000e+00 1.000000000000000000e+00 1.000000000000000000e+00 1.000000000000000000e+00 1.000000000000000000e+00 1.000000000000000000e+00 1.000000000000000000e+00 1.000000000000000000e+00 1.000000000000000000e+00 1.000000000000000000e+00 1.000000000000000000e+00 1.000000000000000000e+00 1.000000000000000000e+00 1.000000000000000000e+00 1.000000000000000000e+00 1.000000000000000000e+00 1.000000000000000000e+00 1.000000000000000000e+00 1.000000000000000000e+00 1.000000000000000000e+00 1.000000000000000000e+00 1.000000000000000000e+00 1.000000000000000000e+00 1.000000000000000000e+00 1.000000000000000000e+00 1.000000000000000000e+00 1.000000000000000000e+00 1.000000000000000000e+00 1.000000000000000000e+00 1.000000000000000000e+00 1.000000000000000000e+00 1.000000000000000000e+00 1.000000000000000000e+00 1.000000000000000000e+00 1.000000000000000000e+00 1.000000000000000000e+00 1.000000000000000000e+00 1.000000000000000000e+00 1.000000000000000000e+00 1.000000000000000000e+00 1.000000000000000000e+00 1.000000000000000000e+00 1.000000000000000000e+00 1.000000000000000000e+00 1.000000000000000000e+00 1.000000000000000000e+00 1.000000000000000000e+00 1.000000000000000000e+00 1.000000000000000000e+00 1.000000000000000000e+00 1.000000000000000000e+00 1.000000000000000000e+00 1.000000000000000000e+00 1.000000000000000000e+00 1.000000000000000000e+00 1.000000000000000000e+00 1.000000000000000000e+00 1.000000000000000000e+00 1.000000000000000000e+00 1.000000000000000000e+00 1.000000000000000000e+00 1.000000000000000000e+00 1.000000000000000000e+00 1.000000000000000000e+00 1.000000000000000000e+00 1.000000000000000000e+00 1.000000000000000000e+00 1.000000000000000000e+00 1.000000000000000000e+00 1.000000000000000000e+00 1.000000000000000000e+00 1.000000000000000000e+00 1.000000000000000000e+00 1.000000000000000000e+00 1.000000000000000000e+00 1.000000000000000000e+00 1.000000000000000000e+00 1.000000000000000000e+00 1.000000000000000000e+00 1.000000000000000000e+00 1.000000000000000000e+00 1.000000000000000000e+00 1.000000000000000000e+00 1.000000000000000000e+00 1.000000000000000000e+00 1.000000000000000000e+00 1.000000000000000000e+00 1.000000000000000000e+00 1.000000000000000000e+00 1.000000000000000000e+00 1.000000000000000000e+00 1.000000000000000000e+00 1.000000000000000000e+00 1.000000000000000000e+00 1.000000000000000000e+00 1.000000000000000000e+00 1.000000000000000000e+00 1.000000000000000000e+00 1.000000000000000000e+00 1.000000000000000000e+00 1.000000000000000000e+00 1.000000000000000000e+00 1.000000000000000000e+00 1.000000000000000000e+00 1.000000000000000000e+00 1.000000000000000000e+00 1.000000000000000000e+00 1.000000000000000000e+00 1.000000000000000000e+00 1.000000000000000000e+00 1.000000000000000000e+00 1.000000000000000000e+00 1.000000000000000000e+00 1.000000000000000000e+00 1.000000000000000000e+00 1.000000000000000000e+00 1.000000000000000000e+00 1.000000000000000000e+00 1.000000000000000000e+00 1.000000000000000000e+00 1.000000000000000000e+00 1.000000000000000000e+00 1.000000000000000000e+00 1.000000000000000000e+00 1.000000000000000000e+00 1.000000000000000000e+00 1.000000000000000000e+00 1.000000000000000000e+00 1.000000000000000000e+00 1.000000000000000000e+00 1.000000000000000000e+00 1.000000000000000000e+00 1.000000000000000000e+00 1.000000000000000000e+00 1.000000000000000000e+00 1.000000000000000000e+00 1.000000000000000000e+00 1.000000000000000000e+00 1.000000000000000000e+00 1.000000000000000000e+00 1.000000000000000000e+00 1.000000000000000000e+00 1.000000000000000000e+00 1.000000000000000000e+00 1.000000000000000000e+00 1.000000000000000000e+00 1.000000000000000000e+00 1.000000000000000000e+00 1.000000000000000000e+00 1.000000000000000000e+00 1.000000000000000000e+00 1.000000000000000000e+00 1.000000000000000000e+00 1.000000000000000000e+00 1.000000000000000000e+00 1.000000000000000000e+00 1.000000000000000000e+00 1.000000000000000000e+00 1.000000000000000000e+00 1.000000000000000000e+00 1.000000000000000000e+00 1.000000000000000000e+00 1.000000000000000000e+00 1.000000000000000000e+00 1.000000000000000000e+00 1.000000000000000000e+00 1.000000000000000000e+00 1.000000000000000000e+00 1.000000000000000000e+00 1.000000000000000000e+00 1.000000000000000000e+00 1.000000000000000000e+00 1.000000000000000000e+00 1.000000000000000000e+00 1.000000000000000000e+00 1.000000000000000000e+00 1.000000000000000000e+00 1.000000000000000000e+00 1.000000000000000000e+00 1.000000000000000000e+00 1.000000000000000000e+00 1.000000000000000000e+00 1.000000000000000000e+00 1.000000000000000000e+00 1.000000000000000000e+00 1.000000000000000000e+00 1.000000000000000000e+00 1.000000000000000000e+00 1.000000000000000000e+00 1.000000000000000000e+00 1.000000000000000000e+00 1.000000000000000000e+00 1.000000000000000000e+00 1.000000000000000000e+00 1.000000000000000000e+00 1.000000000000000000e+00 1.000000000000000000e+00 1.000000000000000000e+00 1.000000000000000000e+00 1.000000000000000000e+00 1.000000000000000000e+00 1.000000000000000000e+00 1.000000000000000000e+00 1.000000000000000000e+00 1.000000000000000000e+00 1.000000000000000000e+00 1.000000000000000000e+00 1.000000000000000000e+00 1.000000000000000000e+00 1.000000000000000000e+00 1.000000000000000000e+00 1.000000000000000000e+00 1.000000000000000000e+00 1.000000000000000000e+00 1.000000000000000000e+00 1.000000000000000000e+00 1.000000000000000000e+00 1.000000000000000000e+00 1.000000000000000000e+00 1.000000000000000000e+00 1.000000000000000000e+00 1.000000000000000000e+00 1.000000000000000000e+00 1.000000000000000000e+00 1.000000000000000000e+00 1.000000000000000000e+00 1.000000000000000000e+00 1.000000000000000000e+00 1.000000000000000000e+00 1.000000000000000000e+00 1.000000000000000000e+00 1.000000000000000000e+00 1.000000000000000000e+00 1.000000000000000000e+00 1.000000000000000000e+00 1.000000000000000000e+00 1.000000000000000000e+00 1.000000000000000000e+00 1.000000000000000000e+00 1.000000000000000000e+00 1.000000000000000000e+00 1.000000000000000000e+00 1.000000000000000000e+00 1.000000000000000000e+00 1.000000000000000000e+00 1.000000000000000000e+00 1.000000000000000000e+00 1.000000000000000000e+00 1.000000000000000000e+00 1.000000000000000000e+00 1.000000000000000000e+00 1.000000000000000000e+00 1.000000000000000000e+00 1.000000000000000000e+00 1.000000000000000000e+00 1.000000000000000000e+00 1.000000000000000000e+00 1.000000000000000000e+00 1.000000000000000000e+00 1.000000000000000000e+00 1.000000000000000000e+00 1.000000000000000000e+00 1.000000000000000000e+00 1.000000000000000000e+00 1.000000000000000000e+00 1.000000000000000000e+00 1.000000000000000000e+00 1.000000000000000000e+00 1.000000000000000000e+00 1.000000000000000000e+00 1.000000000000000000e+00 1.000000000000000000e+00 1.000000000000000000e+00 1.000000000000000000e+00 1.000000000000000000e+00 1.000000000000000000e+00 1.000000000000000000e+00 1.000000000000000000e+00 1.000000000000000000e+00 1.000000000000000000e+00 1.000000000000000000e+00 1.000000000000000000e+00 1.000000000000000000e+00 1.000000000000000000e+00 1.000000000000000000e+00 1.000000000000000000e+00 1.000000000000000000e+00 1.000000000000000000e+00 1.000000000000000000e+00 1.000000000000000000e+00 1.000000000000000000e+00 1.000000000000000000e+00 1.000000000000000000e+00 1.000000000000000000e+00 1.000000000000000000e+00 1.000000000000000000e+00 1.000000000000000000e+00 1.000000000000000000e+00 1.000000000000000000e+00 1.000000000000000000e+00 1.000000000000000000e+00 1.000000000000000000e+00 1.000000000000000000e+00 1.000000000000000000e+00 1.000000000000000000e+00 1.000000000000000000e+00 1.000000000000000000e+00 1.000000000000000000e+00 1.000000000000000000e+00 1.000000000000000000e+00 1.000000000000000000e+00 1.000000000000000000e+00 1.000000000000000000e+00 1.000000000000000000e+00 1.000000000000000000e+00 1.000000000000000000e+00 1.000000000000000000e+00 1.000000000000000000e+00 1.000000000000000000e+00 1.000000000000000000e+00 1.000000000000000000e+00 1.000000000000000000e+00 1.000000000000000000e+00 1.000000000000000000e+00 1.000000000000000000e+00 1.000000000000000000e+00 1.000000000000000000e+00 1.000000000000000000e+00 1.000000000000000000e+00 1.000000000000000000e+00 1.000000000000000000e+00 1.000000000000000000e+00 1.000000000000000000e+00 1.000000000000000000e+00 1.000000000000000000e+00 1.000000000000000000e+00 1.000000000000000000e+00 1.000000000000000000e+00 1.000000000000000000e+00 1.000000000000000000e+00 1.000000000000000000e+00 1.000000000000000000e+00 1.000000000000000000e+00 1.000000000000000000e+00 1.000000000000000000e+00 1.000000000000000000e+00 1.000000000000000000e+00 1.000000000000000000e+00 1.000000000000000000e+00 1.000000000000000000e+00 1.000000000000000000e+00 1.000000000000000000e+00 1.000000000000000000e+00 1.000000000000000000e+00 1.000000000000000000e+00 1.000000000000000000e+00 1.000000000000000000e+00 1.000000000000000000e+00 1.000000000000000000e+00 1.000000000000000000e+00 1.000000000000000000e+00 1.000000000000000000e+00 1.000000000000000000e+00 1.000000000000000000e+00 1.000000000000000000e+00 1.000000000000000000e+00 1.000000000000000000e+00 1.000000000000000000e+00 1.000000000000000000e+00 1.000000000000000000e+00 1.000000000000000000e+00 1.000000000000000000e+00 1.000000000000000000e+00 1.000000000000000000e+00 1.000000000000000000e+00 1.000000000000000000e+00 1.000000000000000000e+00 1.000000000000000000e+00 1.000000000000000000e+00 1.000000000000000000e+00 1.000000000000000000e+00 1.000000000000000000e+00 1.000000000000000000e+00 1.000000000000000000e+00 1.000000000000000000e+00 1.000000000000000000e+00 1.000000000000000000e+00 1.000000000000000000e+00 1.000000000000000000e+00 1.000000000000000000e+00 1.000000000000000000e+00 1.000000000000000000e+00 1.000000000000000000e+00 1.000000000000000000e+00 1.000000000000000000e+00 1.000000000000000000e+00 1.000000000000000000e+00 1.000000000000000000e+00 1.000000000000000000e+00 1.000000000000000000e+00 1.000000000000000000e+00 1.000000000000000000e+00 1.000000000000000000e+00 1.000000000000000000e+00 1.000000000000000000e+00 1.000000000000000000e+00 1.000000000000000000e+00 1.000000000000000000e+00 1.000000000000000000e+00 1.000000000000000000e+00 1.000000000000000000e+00 1.000000000000000000e+00 1.000000000000000000e+00 1.000000000000000000e+00 1.000000000000000000e+00 1.000000000000000000e+00 1.000000000000000000e+00 1.000000000000000000e+00 1.000000000000000000e+00 1.000000000000000000e+00 1.000000000000000000e+00 1.000000000000000000e+00 1.000000000000000000e+00 1.000000000000000000e+00 1.000000000000000000e+00 1.000000000000000000e+00 1.000000000000000000e+00 1.000000000000000000e+00 1.000000000000000000e+00 1.000000000000000000e+00 1.000000000000000000e+00 1.000000000000000000e+00 1.000000000000000000e+00 1.000000000000000000e+00 1.000000000000000000e+00 1.000000000000000000e+00 1.000000000000000000e+00 1.000000000000000000e+00 1.000000000000000000e+00 1.000000000000000000e+00 1.000000000000000000e+00 1.000000000000000000e+00 1.000000000000000000e+00 1.000000000000000000e+00 1.000000000000000000e+00 1.000000000000000000e+00 1.000000000000000000e+00 1.000000000000000000e+00 1.000000000000000000e+00 1.000000000000000000e+00 1.000000000000000000e+00 1.000000000000000000e+00 1.000000000000000000e+00 1.000000000000000000e+00 1.000000000000000000e+00 1.000000000000000000e+00 1.000000000000000000e+00 1.000000000000000000e+00 1.000000000000000000e+00 1.000000000000000000e+00 1.000000000000000000e+00 1.000000000000000000e+00 1.000000000000000000e+00 1.000000000000000000e+00 1.000000000000000000e+00 1.000000000000000000e+00 1.000000000000000000e+00 1.000000000000000000e+00 1.000000000000000000e+00 1.000000000000000000e+00 1.000000000000000000e+00 1.000000000000000000e+00 1.000000000000000000e+00 1.000000000000000000e+00 1.000000000000000000e+00 1.000000000000000000e+00 1.000000000000000000e+00 1.000000000000000000e+00 1.000000000000000000e+00 1.000000000000000000e+00 1.000000000000000000e+00 1.000000000000000000e+00 1.000000000000000000e+00 1.000000000000000000e+00 1.000000000000000000e+00 1.000000000000000000e+00 1.000000000000000000e+00 1.000000000000000000e+00 1.000000000000000000e+00 1.000000000000000000e+00 1.000000000000000000e+00 1.000000000000000000e+00 1.000000000000000000e+00 1.000000000000000000e+00 1.000000000000000000e+00 1.000000000000000000e+00 1.000000000000000000e+00 1.000000000000000000e+00 1.000000000000000000e+00 1.000000000000000000e+00 1.000000000000000000e+00 1.000000000000000000e+00 1.000000000000000000e+00 1.000000000000000000e+00 1.000000000000000000e+00 1.000000000000000000e+00 1.000000000000000000e+00 1.000000000000000000e+00 1.000000000000000000e+00 1.000000000000000000e+00 1.000000000000000000e+00 1.000000000000000000e+00 1.000000000000000000e+00 1.000000000000000000e+00 1.000000000000000000e+00 1.000000000000000000e+00 1.000000000000000000e+00 1.000000000000000000e+00 1.000000000000000000e+00 1.000000000000000000e+00 1.000000000000000000e+00 1.000000000000000000e+00 1.000000000000000000e+00 1.000000000000000000e+00 1.000000000000000000e+00 1.000000000000000000e+00 1.000000000000000000e+00 1.000000000000000000e+00 1.000000000000000000e+00 1.000000000000000000e+00 1.000000000000000000e+00 1.000000000000000000e+00 1.000000000000000000e+00 1.000000000000000000e+00 1.000000000000000000e+00 1.000000000000000000e+00 1.000000000000000000e+00 1.000000000000000000e+00 1.000000000000000000e+00 1.000000000000000000e+00 1.000000000000000000e+00 1.000000000000000000e+00 1.000000000000000000e+00 1.000000000000000000e+00 1.000000000000000000e+00 1.000000000000000000e+00 1.000000000000000000e+00 1.000000000000000000e+00 1.000000000000000000e+00 1.000000000000000000e+00 1.000000000000000000e+00 1.000000000000000000e+00 1.000000000000000000e+00 1.000000000000000000e+00 1.000000000000000000e+00 1.000000000000000000e+00 1.000000000000000000e+00 1.000000000000000000e+00 1.000000000000000000e+00 1.000000000000000000e+00 1.000000000000000000e+00 1.000000000000000000e+00 1.000000000000000000e+00 1.000000000000000000e+00 1.000000000000000000e+00 1.000000000000000000e+00 1.000000000000000000e+00 1.000000000000000000e+00 1.000000000000000000e+00 1.000000000000000000e+00 1.000000000000000000e+00 1.000000000000000000e+00 1.000000000000000000e+00 1.000000000000000000e+00 1.000000000000000000e+00 1.000000000000000000e+00 1.000000000000000000e+00 1.000000000000000000e+00 1.000000000000000000e+00 1.000000000000000000e+00 1.000000000000000000e+00 1.000000000000000000e+00 1.000000000000000000e+00 1.000000000000000000e+00 1.000000000000000000e+00 1.000000000000000000e+00 1.000000000000000000e+00 1.000000000000000000e+00 1.000000000000000000e+00 1.000000000000000000e+00 1.000000000000000000e+00 1.000000000000000000e+00 1.000000000000000000e+00 1.000000000000000000e+00 1.000000000000000000e+00 1.000000000000000000e+00 1.000000000000000000e+00 1.000000000000000000e+00 1.000000000000000000e+00 1.000000000000000000e+00 1.000000000000000000e+00 1.000000000000000000e+00 1.000000000000000000e+00 1.000000000000000000e+00 1.000000000000000000e+00 1.000000000000000000e+00 1.000000000000000000e+00 1.000000000000000000e+00 1.000000000000000000e+00 1.000000000000000000e+00 1.000000000000000000e+00 1.000000000000000000e+00 1.000000000000000000e+00 1.000000000000000000e+00 1.000000000000000000e+00 1.000000000000000000e+00 1.000000000000000000e+00 1.000000000000000000e+00 1.000000000000000000e+00 1.000000000000000000e+00 1.000000000000000000e+00 1.000000000000000000e+00 1.000000000000000000e+00 1.000000000000000000e+00 1.000000000000000000e+00 1.000000000000000000e+00 1.000000000000000000e+00 1.000000000000000000e+00 1.000000000000000000e+00 1.000000000000000000e+00 1.000000000000000000e+00 1.000000000000000000e+00 1.000000000000000000e+00 1.000000000000000000e+00 1.000000000000000000e+00 1.000000000000000000e+00 1.000000000000000000e+00 1.000000000000000000e+00 1.000000000000000000e+00 1.000000000000000000e+00 1.000000000000000000e+00 1.000000000000000000e+00 1.000000000000000000e+00 1.000000000000000000e+00 1.000000000000000000e+00 1.000000000000000000e+00 1.000000000000000000e+00 1.000000000000000000e+00 1.000000000000000000e+00 1.000000000000000000e+00 1.000000000000000000e+00 1.000000000000000000e+00 1.000000000000000000e+00 1.000000000000000000e+00 1.000000000000000000e+00 1.000000000000000000e+00 1.000000000000000000e+00 1.000000000000000000e+00 1.000000000000000000e+00 1.000000000000000000e+00 1.000000000000000000e+00 1.000000000000000000e+00 1.000000000000000000e+00 1.000000000000000000e+00 1.000000000000000000e+00 1.000000000000000000e+00 1.000000000000000000e+00 1.000000000000000000e+00 1.000000000000000000e+00 1.000000000000000000e+00 1.000000000000000000e+00 1.000000000000000000e+00 1.000000000000000000e+00 1.000000000000000000e+00 1.000000000000000000e+00 1.000000000000000000e+00 1.000000000000000000e+00 1.000000000000000000e+00 1.000000000000000000e+00 1.000000000000000000e+00 1.000000000000000000e+00 1.000000000000000000e+00 1.000000000000000000e+00 1.000000000000000000e+00 1.000000000000000000e+00 1.000000000000000000e+00 1.000000000000000000e+00 1.000000000000000000e+00 1.000000000000000000e+00 1.000000000000000000e+00 1.000000000000000000e+00 1.000000000000000000e+00 1.000000000000000000e+00 1.000000000000000000e+00 1.000000000000000000e+00 1.000000000000000000e+00 1.000000000000000000e+00 1.000000000000000000e+00 1.000000000000000000e+00 1.000000000000000000e+00 1.000000000000000000e+00 1.000000000000000000e+00 1.000000000000000000e+00 1.000000000000000000e+00 1.000000000000000000e+00 1.000000000000000000e+00 1.000000000000000000e+00 1.000000000000000000e+00 1.000000000000000000e+00 1.000000000000000000e+00 1.000000000000000000e+00 1.000000000000000000e+00 1.000000000000000000e+00 1.000000000000000000e+00 1.000000000000000000e+00 1.000000000000000000e+00 1.000000000000000000e+00 1.000000000000000000e+00 1.000000000000000000e+00 1.000000000000000000e+00 1.000000000000000000e+00 1.000000000000000000e+00 1.000000000000000000e+00 1.000000000000000000e+00 1.000000000000000000e+00 1.000000000000000000e+00 1.000000000000000000e+00 1.000000000000000000e+00 1.000000000000000000e+00 1.000000000000000000e+00 1.000000000000000000e+00 1.000000000000000000e+00 1.000000000000000000e+00 1.000000000000000000e+00 1.000000000000000000e+00 1.000000000000000000e+00 1.000000000000000000e+00 1.000000000000000000e+00 1.000000000000000000e+00 1.000000000000000000e+00 1.000000000000000000e+00 1.000000000000000000e+00 1.000000000000000000e+00 1.000000000000000000e+00 1.000000000000000000e+00 1.000000000000000000e+00 1.000000000000000000e+00 1.000000000000000000e+00 1.000000000000000000e+00 1.000000000000000000e+00 1.000000000000000000e+00 1.000000000000000000e+00 1.000000000000000000e+00 1.000000000000000000e+00 1.000000000000000000e+00 1.000000000000000000e+00 1.000000000000000000e+00 1.000000000000000000e+00 1.000000000000000000e+00 1.000000000000000000e+00 1.000000000000000000e+00 1.000000000000000000e+00 1.000000000000000000e+00 1.000000000000000000e+00 1.000000000000000000e+00 1.000000000000000000e+00 1.000000000000000000e+00 1.000000000000000000e+00 1.000000000000000000e+00 1.000000000000000000e+00 1.000000000000000000e+00 1.000000000000000000e+00 1.000000000000000000e+00 1.000000000000000000e+00 1.000000000000000000e+00 1.000000000000000000e+00 1.000000000000000000e+00 1.000000000000000000e+00 1.000000000000000000e+00 1.000000000000000000e+00 1.000000000000000000e+00 1.000000000000000000e+00 1.000000000000000000e+00 1.000000000000000000e+00 1.000000000000000000e+00 1.000000000000000000e+00 1.000000000000000000e+00 1.000000000000000000e+00 1.000000000000000000e+00 1.000000000000000000e+00 1.000000000000000000e+00 1.000000000000000000e+00 1.000000000000000000e+00 1.000000000000000000e+00 1.000000000000000000e+00 1.000000000000000000e+00 1.000000000000000000e+00 1.000000000000000000e+00 1.000000000000000000e+00 1.000000000000000000e+00 1.000000000000000000e+00 1.000000000000000000e+00 1.000000000000000000e+00 1.000000000000000000e+00 1.000000000000000000e+00 1.000000000000000000e+00 1.000000000000000000e+00 1.000000000000000000e+00 1.000000000000000000e+00 1.000000000000000000e+00 1.000000000000000000e+00 1.000000000000000000e+00 1.000000000000000000e+00 1.000000000000000000e+00 1.000000000000000000e+00 1.000000000000000000e+00 1.000000000000000000e+00 1.000000000000000000e+00 1.000000000000000000e+00 1.000000000000000000e+00 1.000000000000000000e+00 1.000000000000000000e+00 1.000000000000000000e+00 1.000000000000000000e+00 1.000000000000000000e+00 1.000000000000000000e+00 1.000000000000000000e+00 1.000000000000000000e+00 1.000000000000000000e+00 1.000000000000000000e+00 1.000000000000000000e+00 1.000000000000000000e+00 1.000000000000000000e+00 1.000000000000000000e+00 1.000000000000000000e+00 1.000000000000000000e+00 1.000000000000000000e+00 1.000000000000000000e+00 1.000000000000000000e+00 1.000000000000000000e+00 1.000000000000000000e+00 1.000000000000000000e+00 1.000000000000000000e+00 1.000000000000000000e+00 1.000000000000000000e+00 1.000000000000000000e+00 1.000000000000000000e+00 1.000000000000000000e+00 1.000000000000000000e+00 1.000000000000000000e+00 1.000000000000000000e+00 1.000000000000000000e+00 1.000000000000000000e+00 1.000000000000000000e+00 1.000000000000000000e+00 1.000000000000000000e+00 1.000000000000000000e+00 1.000000000000000000e+00 1.000000000000000000e+00 1.000000000000000000e+00 1.000000000000000000e+00 1.000000000000000000e+00 1.000000000000000000e+00 1.000000000000000000e+00 1.000000000000000000e+00 1.000000000000000000e+00 1.000000000000000000e+00 1.000000000000000000e+00 1.000000000000000000e+00 1.000000000000000000e+00 1.000000000000000000e+00 1.000000000000000000e+00 1.000000000000000000e+00 1.000000000000000000e+00 1.000000000000000000e+00 1.000000000000000000e+00 1.000000000000000000e+00 1.000000000000000000e+00 1.000000000000000000e+00 1.000000000000000000e+00 1.000000000000000000e+00 1.000000000000000000e+00 1.000000000000000000e+00 1.000000000000000000e+00 1.000000000000000000e+00 1.000000000000000000e+00 1.000000000000000000e+00 1.000000000000000000e+00 1.000000000000000000e+00 1.000000000000000000e+00 1.000000000000000000e+00 1.000000000000000000e+00 1.000000000000000000e+00 1.000000000000000000e+00 1.000000000000000000e+00 1.000000000000000000e+00 1.000000000000000000e+00 1.000000000000000000e+00 1.000000000000000000e+00 1.000000000000000000e+00 1.000000000000000000e+00 1.000000000000000000e+00 1.000000000000000000e+00 1.000000000000000000e+00 1.000000000000000000e+00 1.000000000000000000e+00 1.000000000000000000e+00 1.000000000000000000e+00 1.000000000000000000e+00 1.000000000000000000e+00 1.000000000000000000e+00 1.000000000000000000e+00 1.000000000000000000e+00 1.000000000000000000e+00 1.000000000000000000e+00 1.000000000000000000e+00 1.000000000000000000e+00 1.000000000000000000e+00 1.000000000000000000e+00 1.000000000000000000e+00 1.000000000000000000e+00 1.000000000000000000e+00 1.000000000000000000e+00 1.000000000000000000e+00 1.000000000000000000e+00
6.071513700440752531e-02 5.531065912921037109e-01 -3.151416876165266667e-01 7.894405812881803985e-01 5.242155171090561172e-01 5.835256061029812091e-01 5.458526602482254297e-01 4.859054528665867623e-01 5.623215044704978904e-01 5.257204996928905860e-01 1.090395329854474848e+00 -7.551521118036688129e-01 1.435599610219380651e+00 4.748777237498244541e-01 5.245143279033395167e-01 4.435553913432090378e-01 8.041528558350382605e-01 9.784844126039344836e-01 7.532562475719778439e-01 4.991913274416525659e-01 3.852932115009803371e-01 1.001509026772276378e+00 3.532019092193528498e-01 5.859745557166815555e-01 5.553886602629965613e-02 6.531023912521706221e-01 4.591474911099466816e-01 7.254106065865245645e-01 5.242501766465296198e-01 1.668956581656476423e+00 4.840552043826585327e-01 5.966285075210522315e-01 7.185855776264645778e-01 5.152829409151289397e-01 6.804121905037012752e-01 4.704928990280123902e-01 6.013246331216036689e-01 1.905965314489369788e+00 -1.088251701376339031e-01 5.331043129758500365e-01 -2.554185321034881384e-01 -5.617719412028165937e-01 7.439043820961290798e-01 2.341285178982604465e-01 3.598064833467554124e-01 5.057649858509558616e-01 7.897309193749392220e-01 5.541949460851163245e-01 7.044285466440818322e-01 1.267048939850439274e-02 5.198172337923864794e-02 7.142457034818858741e-01 6.863089852672259461e-01 4.132784942145694140e-01 4.734551836659532387e-01 3.005776030751965491e-02 5.773559195047665016e-01 5.287454165152223329e-01 2.065750890595073053e-01 4.943388038022770159e-01 9.370492943361051763e-01 4.296562759174476498e-01 5.360427953608301044e-01 3.532020459976208393e-01 6.712687250939001204e-01 6.899525821086205379e-01 5.317936253651791567e-01 5.405525419491856720e-01 5.078197272161237841e-01 5.999673196945526366e-02 5.087827961581489200e-01 5.685371167799686543e-01 5.436935143778125479e-01 2.480296686543858459e-02 1.540714959364583025e+00 5.082121341225670497e-01 6.412418105644769328e-01 7.049468162394390003e-01 5.212757812851155359e-01 1.392281946678828763e+00 5.219320461126768507e-01 3.921555320330363803e-01 1.480152793719121007e+00 7.844685998487413991e-01 5.351179690760374807e-01 7.470957008235661334e-01 7.940112754422010699e-01 4.985495041927935911e-01 4.339024607954079515e-01 5.771586420984634591e-01 3.594622144831274291e-01 2.275744166585465855e+00 8.011195091805015656e-01 8.886288925560639762e-02 5.097072279584577981e-01 5.539185259768618641e-01 5.142399988943733291e-01 4.892495779519134835e-01 1.910785239075366015e-01 6.595666613609089124e-01 1.670161850626980860e+00 6.845087869287753701e-01 5.150083252804749101e-01 4.799541056369878711e-01 8.468847791741597186e-01 -2.201169600174507135e+00 -1.274054605595341005e+00 4.867064769069982533e-01 6.382788930402599759e-01 9.648357645122475068e-01 5.507466039906643296e-01 4.143837050525290278e-01 2.020845605363073560e-01 5.273897177463180430e-01 5.325440795027779339e-01 5.331564488833031579e-01 4.438930457414696495e-01 4.809507976088691628e-01 1.050658606205578938e+00 5.247896702280323566e-01 1.329295324408307222e+00 5.279374387108451971e-01 6.686274047253935038e-01 -6.221423028819779155e-01 5.126010692164276739e-01 2.001016499533011306e+00 4.470914327345482664e-01 4.916226408399358427e-01 6.588645809931729103e-01 5.267057866707214320e-01 5.959286504893214209e-01 5.208325989196896932e-01 4.513390607447811953e-01 6.004772184810268643e-01 -4.450244557867431006e-01 -1.705023500004901327e-01 6.947028060688582585e-01 3.616456776594410838e-02 1.018925144356034540e+00 4.834537235726260040e-01 5.390067689639692627e-01 8.821567598980161184e-01 4.224380464200889196e-01 4.753092055543640670e-01 5.234713741799911224e-01 1.850491418350407036e-02 1.012447381336790020e+00 -2.654871678939194624e-01 4.122522333439891384e-01 -9.529719354621032368e-01 7.368536655312412087e-01 -2.744026956022049824e-01 5.057595171040907278e-01 4.795944222178229466e-01 6.253941863956368197e-01 5.284739293151951012e-01 2.107399883011692232e+00 -2.104935725046404860e-01 8.374058998159948919e-01 6.417380179128669981e-01 5.758634505972177742e-01 5.140717890225484643e-01 5.014294231323095374e-01 5.208833827162665520e-01 1.055383381507849050e+00 3.005126527177378049e-01 8.510820416657309817e-01 2.732157683769860235e-01 3.548063342417935306e-01 5.658136098681350035e-01 6.698602824047646953e-01 7.874730336918682738e-01 5.058028129830556274e-01 5.212151220440955912e-01 4.014036504455066323e-01 3.944210084513943143e-02 2.470629694715624769e-01 1.265836103390076128e-01 7.647237372841036995e-01 1.144996482869401033e+00 6.356164123249744557e-01 5.225123198828955928e-01 -1.578727062040143347e-01 4.700845620686774917e-01 3.765885504538801221e-01 4.707131699597428276e-01 5.327740335268613681e-01 5.469931439304945853e-01 2.927156550499998122e+00 4.780162180719688125e-01 5.832855145706643540e-01 -9.495118696574181838e-01 5.239205890739830895e-01 4.930609809099468221e-01 2.116523944005408719e-01 5.148822870151072983e-01 9.542586481654240504e-01 5.269995846213582080e-01 3.481005020277477824e-01 5.646028866384908973e-01 6.327192594297335049e-01 5.497848817012097600e-01 7.852913729982043956e-01 6.027557737592349474e-01 5.432015042670597094e-01 3.481005330828832456e-01 1.620140463129485231e-01 1.311170874502059158e+00 5.116505135953052230e-01 5.639436766883125784e-01 4.175567812083078589e-01 -1.037199654481383571e-01 5.104483666964548805e-01 1.536318592090449298e-01 5.368452112050151603e-01 5.293990481173357354e-01 5.241651316741563482e-01 5.215906141573239951e-01 5.232357444578787931e-01 5.214942601570519143e-01 4.529231158571205840e-01 5.317837181292028870e-01 -7.321027790989472761e-01 6.351860476546917766e-01 5.419320058907328708e-01 3.361537278955237240e-01 -4.964087091103665250e-02 1.366337005884729283e+00 9.826216366937979840e-01 4.856574458478531975e-01 -1.008333646166079539e-01 1.076577162439697810e+00 5.226934811994687902e-01 5.212757683275769383e-01 6.795461161516928028e-01 4.024676489748431618e-01 2.056110846954871951e-01 1.498266050994406795e-01 -1.741601922645531486e-01 -3.665206019140446192e-02 6.140796722103532002e-01 5.305830444787973388e-01 -1.301474764267680218e-01 4.723823024441265450e-01 5.248110486792816332e-01 5.549782395160174353e-01 -8.737890695542295527e-02 7.696123432077492943e-01 -2.449461248185624829e+00 6.085123815017716709e-01 -7.207682563985655655e-01 5.034920087323827564e-01 5.222983893574312253e-01 3.532013474190952018e-01 5.200444457416816268e-01 4.792000589988024695e-01 4.907000091970616373e-01 8.045587653115985338e-01 5.828513794301338757e-01 1.709690431268279243e+00 6.853296884307861214e-01 6.629205958276414012e-01 4.513460829194466672e-01 4.566096504315948490e-01 9.370492517706573432e-01 5.464907365937654582e-01 2.795291456595921709e+00 4.432360249253285422e-01 2.107936076664131686e-01 7.913629129929635742e-01 5.212703151518117695e-01 9.375730307768795901e-01 5.221568027275893531e-01 5.561887547016362010e-01 5.222644292509491804e-01 1.191166009667070425e+00 7.571256315623546840e-01 8.513793022442599501e-01 7.887275630673632465e-01 5.898453995923302884e-01 6.898591111096920026e-01 5.129708673876334224e-01 3.646083990806937014e-01 -7.694290267363836922e-01 3.952449486687120705e-01 3.702480532130582591e-01 4.740066150650991128e-01 5.440005451411723536e-01 5.331565372461409824e-01 6.163490404963205549e-01 5.082288945528219415e-01 -9.914744669406596600e-01 7.903991285788463106e-01 4.669153040322718828e-01 -1.841276239451372990e-02 4.563949098837934981e-01 1.867326061944246218e+00 5.114349404939543264e-01 5.191702620081668496e-01 4.122404669679404221e-01 -3.579910498079255987e+00 5.281363507842027349e-01 3.051172644658546318e+00 7.880398957810843541e-01 5.348538307546192305e-01 -5.638342650702437009e-01 5.270327686124165467e-01 5.259053906592972005e-01 4.673181319857458438e-01 4.507670637966763594e-01 3.221094012220041547e-01 6.581302424266569639e-01 3.134911104417610339e-01 5.282700764113227310e-01 5.189855970400348850e-01 3.756248510950494501e-01 5.225752913551623413e-01 7.885837601623907345e-01 5.230054433233599642e-01 1.225423522149179822e+00 6.232041949034633488e-02 2.257827807852457180e+00 2.722219532814859733e+00 4.713537820682601187e-01 -2.539205619658254642e-01 3.840716134383835856e-01 3.999698091453314230e-01 7.497330515512032889e-01 1.414730712126944789e+00 5.279008602661895422e-01 1.143775527584364404e+00 5.245680181740786097e-01 1.168967175753958948e-01 1.266835297804839389e+00 6.231997249484905188e-01 5.774446331994649295e-01 5.418540293766489491e-01 9.092503829049045638e-01 -3.950305033049330561e+00 1.682273515572192846e+00 5.301699039486899023e-01 6.332359310634642080e-01 5.203513220440699749e-01 1.905965307600139713e+00 2.895450851346649257e-01 5.713749616082249849e-01 4.461493961446108547e-01 6.784154437333947962e-01 1.363582542328064973e+00 4.872832132878854305e-01 3.481003061194350989e-01 4.723877186454277788e-01 6.027557704109577363e-01 3.448180997778714230e-01 5.683730727692688500e-01 9.078118956439739096e-01 5.239078991223357074e-01 3.822218224619203797e-01 1.207104254379461755e-01 6.388286227675594731e-01 5.254461305367009727e-01 2.356668851437931089e-01 5.713749568770656317e-01 5.866306923657870209e-01 5.213980067386202455e-01 1.062897445144954878e+00 8.976073454606904312e-01 1.178228663001083865e+00 5.317834574658663049e-01 2.090108637685543780e-01 9.370486876460212278e-01 -1.103520763545790401e-01 9.347221564845840103e-01 6.308165114625482461e-01 5.747352785497077121e-02 3.776350802006426255e-01 8.356775642710638774e-01 3.820068787187807513e-01 4.612770001374514872e-01 3.567642957323817754e-01 -3.458726361998234466e-01 -2.577227440603901965e+00 5.748381257411649958e-01 6.027557477132482466e-01 6.027557426196239465e-01 5.116999180072846487e-01 3.342216394853655959e-01 -2.532793015869836961e-01 2.659128268676128060e-01 5.300023987087354449e-01 6.990711328612020381e-01 5.210619263092686193e-01 1.002974245127203234e+00 3.481001410796755735e-01 5.213945043163730197e-01 5.108701250907402569e-01 3.163367284867142359e-01 6.650630264764865185e-01 5.276441129718820733e-01 5.229448935886756855e-01 4.921112213803516822e-01 3.440103236482088267e-01 3.004901585438468289e-02 6.027557742661627804e-01 6.622173834240028256e-01 5.243557220756177584e-01 3.882615169100584462e-01 8.601724441243031594e-01 7.794371558975452530e-01 5.653511759619108679e-01 1.971066868608656319e+00 4.741703389280750858e-01 -3.299183532967266519e+00 7.894081495011717742e-01 1.566302600779907905e+00 5.574756610514143285e-01 -1.148992301372758318e+00 8.924009419990487357e-01 4.324734988331546681e-01 5.388119658057304306e-01 5.053367568266827758e-01 -5.128815768705632383e-01 5.236197717955572983e-01 1.084752391293633433e+00 4.494953756386847465e-01 -4.452674231736917232e-01 5.136370651696379186e-01 5.153366396794814008e-01 7.973121825601033885e-01 5.364126070843721061e-01 6.296008577551269747e-01 -5.656397987898412749e-01 5.594096507537508201e-01 5.243027798803172601e-01 4.434014126820758350e-01 5.120583541613641376e-01 7.735063866709550595e-01 5.230635991789982508e-01 6.351029952276885382e-01 3.335030557387206884e-01 5.440726550237308112e-01 2.024525251776433943e-01 3.654352624051144804e-01 3.980269619122218105e-01 9.825016867262479359e-01 5.643783209830091074e-01 3.308781484817705731e+00 6.526613350705890992e-01 6.758222857011928486e-01 5.374686656760273573e-01 4.924613530142103457e-01 1.039720443823638832e-02 5.014700205075810491e-01 5.528068509711239198e-01 5.448998679475502982e-01 1.150146305236839028e+00 7.734725647993104802e-01 5.092651499443271446e-01 4.338050667245598735e-01 1.120703313046844007e+00 5.299275568667493053e-01 5.151452836600897145e-01 5.069422082915486794e-01 8.947635910787591351e-01 5.192550173286610837e-01 9.572797693608559033e-01 4.623545229653865385e-01 5.212204562042200839e-01 5.970139771271491813e-02 5.207894808609743187e-01 2.815971635971788872e-02 2.601925071661080335e-01 3.943009233353811926e-01 5.430487301662302313e-01 7.967861863000980094e-01 5.223630004575581243e-01 3.816433056396950629e-01 1.666394535043661251e-01 5.095656622653984558e-01 4.960327058991753635e-01 4.435684734421447839e-01 -9.310911786451662314e-03 5.197104241778719436e-01 2.964818566403258360e-01 5.200875583043472750e-01 4.075979567346588173e-01 1.266356781892780115e+00 7.260607203444658930e-01 5.185891478616182493e-01 2.403718809507231768e-01 8.725650243662154137e-01 4.727482121891414812e-01 1.011035598929431956e+00 5.369138633077220613e-01 5.964131725167548526e-01 7.193512545198582631e-01 2.060122935236444519e+00 5.455698064458504026e-01 6.154364070862989866e-01 5.600620311523809569e-01 7.907203661990287458e-01 5.919558581089786609e-01 8.911115112516547754e-01 -5.957275859959343389e-01 4.723247442248522665e-01 5.235738962279171682e-01 4.557311815286707590e-01 5.467532944643987980e-01 -6.569462984627096880e-01 3.825917339750802282e-01 5.220348278084652183e-01 7.084661895144229726e-01 6.718874104125088786e-01 1.615292178905943565e+00 5.205080657450389392e-01 5.326030365858920312e-01 -7.565551650622921454e-01 5.311568177432322013e-01 1.268110466676840353e+00 7.376746218836508495e-01 3.099877648090915705e-01 2.141431148431243436e-01 -1.974114677110996086e+00 5.390817766922373355e-01 2.118029334714413014e-01 1.118332058164116960e+00 8.384467897546744597e-01 5.484484725259585192e-01 5.841520886681029756e-01 4.771528076709560806e-01 7.890842386400409580e-01 4.068915820082326107e-01 5.476416771765133529e-01 1.324313342305630074e-02 6.418172630717435823e-01 4.418011866606667559e-01 3.348952180874267825e-01 5.275564392207940934e-01 4.168320690115048244e-01 1.255307974488278022e+00 -9.038844936764375837e-02 -2.553958024109137526e-01 4.116605933050960231e-01 4.809440064784720192e-01 5.225720393741253300e-01 5.625401795925440984e-01 -9.149789605397932180e-01 3.271390512374464432e+00 4.167620763754719682e-01 4.343660622538716432e-01 4.802059039719296929e-01 5.258788059290360195e-01 4.985787544659213144e-01 4.342030826170719116e-01 3.335975765029611795e-01 6.296905094950115966e-01 5.206823583357472751e-01 4.465327326344201708e-01 2.913796716761098970e-01 4.216507235126099595e-01 5.253138414606102202e-01 4.046222289544573747e-01 5.881212602306589154e-01 4.987866862593963169e-01 6.988728554946286309e-01 1.037714404301014692e+00 2.375189727102875459e+00 4.634083384732917144e-01 5.045687592550694989e-01 2.835634839262724527e-01 4.827499092089618249e-01 4.161438266475596670e-01 5.231005742182439633e-01 5.240842729214701956e-01 4.743370979930155440e-01 5.894942379787695419e-01 5.920297985702489552e-01 7.889611133281969613e-01 3.654894024541699427e-01 3.829984985973120537e-01 3.798676321228159902e-01 4.529965839596984400e-01 9.588407374963951735e-02 9.370492695794712112e-01 4.174116650181796118e-01 6.355792226268713874e-02 1.916254093935285230e+00 3.590331817654363045e-01 4.032421566132741164e-01 6.030743846917195894e-01 6.881440474462996448e-02 5.505731181138741048e-01 1.553994530221460835e+00 8.200603847753572540e-01 6.387564290375608023e-01 5.202502756213641666e-01 5.086813262427318794e-01 4.018037863692043854e-01 5.658096329496005161e-01 5.443089013195264725e-01 5.178812349922231606e-01 -3.205937541125882806e-01 4.289682776477120596e-01 -1.719091232786094547e+00 5.620681097775337420e-01 5.394632508598299347e-01 5.322892962328451549e-01 4.122317876894517896e-01 9.370492696197323390e-01 2.392851031475939916e-01 4.917786143553128375e-01 1.402484806766624015e+00 -6.077611582031321458e-01 5.200586861948320871e-01 1.176825845543159499e+00 1.603966215920641591e+00 6.032098791029110174e-01 5.240611598451986319e-01 -7.653536333753976906e-02 -1.763986683577853265e+00 2.607310299955832300e-01 8.787249855557482947e-01 5.464463667595004237e-01 5.243338099119740914e-01 6.055497747818708865e-01 4.763878097158975033e-01 -4.463213297616040465e-01 8.532248234789928665e-01 5.331557817886332096e-01 3.229523404500299621e-01 5.255226211869236108e-01 1.375400012271291335e-02 -1.580207463243510635e-01 1.873328325662811933e+00 4.078543091194263281e-01 4.477735783676699000e-01 5.208346981944171894e-01 3.143628295441352472e-01 4.394639341271618371e-01 -1.987346837335345340e-01 -1.493757539753112651e+00 5.283992298008033384e-01 5.060722369935903853e-01 5.782184865515774819e-01 4.654469467903618596e-01 5.313933279340506965e-01 5.473268049394878210e-01 5.353271624515096860e-01 5.439748924760825499e-01 1.047740217594997025e+00 6.967515205247886145e-01 5.309425840531516450e-01 6.606437293014107981e-01 5.561982663591995557e-01 5.935994821861445558e-01 7.034726245015499035e-02 5.713750043299377079e-01 4.389993280931562825e-01 5.784618996097481425e-01 7.264438769851526700e-01 7.598311675320479353e-01 8.911305087158377658e-01 -5.845461029200574865e-01 5.332177290367321465e-01 5.408607840725887517e-01 5.189353194026051774e-01 6.004177166345563421e-01 9.195016766011910869e-01 4.239592793619460509e-01 5.221342531058036363e-01 -3.511378156524584959e-01 -9.327671738525948886e-01 2.392779633456632027e+00 5.366906197897416408e-01 9.144585624573232652e-01 4.459938152864760252e-01 5.882940779612285676e-01 4.207136162530046297e-01 1.548050337377408214e-01 5.194142505881033101e-01 5.112936930929884438e-01 1.789254092686782052e-02 5.226305568009637081e-01 4.860730341421385936e-01 5.166766244514560125e-01 3.817774728890475089e-01 5.316316281748191264e-01 6.608939768091045552e-01 4.479344309536688606e-01 4.715433609205509913e-01 5.543796827492453172e-01 5.215470079551999261e-01 4.266505615803246609e-01 5.056523740377960596e-01 -2.262763844895014087e-01 5.227275202386492126e-01 6.402676892612927384e-01 5.009479734782752436e-01 7.897126042242055277e-01 9.370494343426518657e-01 7.200374002278069341e-01 -6.352912272360730084e-01 9.705134514328085382e-01 1.905965314705191815e+00 5.240845101291400354e-01 4.636931648040569787e-01 1.098786938824182657e+00 5.176164984535536195e-01 7.899343161689242887e-01 5.166098507900355186e-01 1.934082386256459118e+00 5.229676659880864165e-01 4.723831845700929288e-01 1.239964835322557635e+00 -7.164186415118242723e-02 5.335779912235009137e-01 -1.462467038371442762e-01 -1.015951059625606945e+00 -1.579238468354126901e-01 7.839112445651547079e-01 5.024343861096562946e-01 5.427112007386704073e-01 -3.087326513165986053e-01 4.983370668800513603e-01 3.504090020378306664e-02 -4.438459912601943058e-01 5.529890138685856771e-01 5.067323355386318395e-01 5.237586159936392649e-01 5.191125290175622187e-01 4.687958256794772516e-01 9.277499687683155027e-01 -4.760735483085314357e-01 5.223707075384836918e-01 5.155682961513569085e-01 4.856556636235712654e-01 1.185770536341764325e+00 4.697852682107268030e-01 7.253505728081496295e-01 5.180291439145018328e-01 4.291339342208778246e-02 -5.124010246773560429e-01 4.763104479105426670e-01 4.731052450713959523e-01 6.841603678653259690e-01 5.130819698898566594e-01 4.120703021713931213e-01 5.254492639012132704e-01 5.247363927898481828e-01 4.571113739251541075e-01 5.215407716116853276e-01 8.428626183386385140e-01 2.638211388839497573e+00 -2.583486960593688320e-01 6.492296956956491449e-01 3.876201024555173125e-01 1.935056125442376762e-01 6.355089111936168544e-01 -5.063336985152568082e-02 -1.648830588701178268e+00 5.281270437287014508e-01 2.702061563981364767e+00 5.574290103864452117e-01 1.836931953592259581e-01 1.425664414456254969e-01 5.331564991955588528e-01 5.975462021233599597e-01 1.610994393763105270e+00 5.388330810820811667e-01 1.253855076154681003e-01 4.006540915079901399e-01 1.781469045562737552e+00 5.384512619231686115e-01 8.200355789703032139e-01 5.255836598360296152e-01 7.374997928841101613e-01 4.722399563870816608e-01 5.891338337981677498e-01 3.500952942318669853e-02 5.220850649712156510e-01 6.220090746462629827e-01 -5.958017350643913801e-01 -1.363112437533944010e-01 1.189977637697451796e+00 2.434974493987092370e-01 4.757123120288996865e-01 7.356450156094735959e-01 5.107726294669817646e-01 2.042599488558057175e+00 6.296913344301665605e-01 9.843095425078296837e-03 4.458240219023160700e-01 4.100679177043234369e-01 1.166574561723854542e+00 5.074276950942071540e-01 -1.255478318254174205e-02 5.144966160032102831e-01 1.678052323840614670e-03 5.046481301442665712e-01 5.212999779616093177e-01 3.576683456836123737e-02 3.054518335017582242e-03 6.555650483213774082e-01 4.387221785983428934e-01 5.755426729900799954e-01 1.384637596419302785e-01 3.952054933754653443e-01 5.073638132886243435e-01 4.235266057836571951e-01 5.089862769182386115e-01 4.816341303821089492e-01 5.532388458538227693e-01 1.025228838147862476e+00 3.232629586886468509e+00 9.860850013405944026e-01 5.114569771934833753e-01 4.905244916341316985e-01 2.226473572395342715e-01 5.241367117924072838e-01 8.695669870415542180e-01 5.212335755962634876e-01 1.317339949093192075e+00 5.469071040151515239e-01 -6.083362636270884805e-01 -2.164734139185574627e-02 4.613123884006185005e-01 6.182610679042692681e-01 5.823725677602051842e-01 5.249924523469486903e-01 5.121307330396727281e-02 5.282176676061051124e-01 6.326608213922813029e-01 -3.979733319820997650e+00 4.783979043627730743e-01 5.384994425717660738e-01 1.151003697579688234e+00 5.170674824346164211e-01 3.640533838865432914e-01 6.503524411458889709e-01 -9.395162580873218650e-01 -4.936415133014958601e-01 1.034950698345611132e-02 5.237485071187689689e-01 6.706052333398395682e-01 2.059692516476013535e-01 5.104940475379725617e-01 -3.539162308150977099e-01 5.027975479843350692e-01 5.852659684636478676e-01 6.981127476358373052e-01 5.639748559606243550e-01 4.631848674571466540e-01 1.350585244860716683e-01 -8.120956187629546630e-01 6.514470121084690035e-01 5.264749208100992783e-01 1.495353578279424722e-01 5.194708112974862901e-01 4.756333975476337295e-01 5.359992706223409842e-01 6.543535066439223336e-01 5.878657229938293316e-01 5.562185676186350847e-01 5.072060699076853529e-01 1.905965313248367377e+00 3.405104967542320615e-01 5.159849503195984566e-01 -1.510552421265057010e-01 4.932586442233804491e-01 6.554134480825427600e-01 5.002710625135478040e-01 4.744039064638755909e-01 3.993034804839991625e-01 9.743471891622905723e-01 1.244644185191626118e+00 5.510408239050363921e-01 5.379898466867738538e-01 5.973352700039202823e-01 5.196885591024769102e-01 5.247937878088051455e-01 5.227427488822362633e-01 9.704568572538544435e-01 6.408469086144447102e-01 -4.731215971678011667e-01 4.758744834082191399e-01 8.905478569152919244e-01 5.140478202860935264e-01 -5.431080736006409920e-02 5.182277622064979106e-01 1.642787817086186264e+00 -1.363162936973215111e-01 6.974927535217063657e-01 2.268251528237217596e-01 5.289843474071544982e-01 8.978057940634026624e-01 5.218900750975177250e-01 3.781433468237770934e-01 1.422223130262413537e+00 4.739127649250982621e-01 5.072900131579289873e-01 -7.539305477091037266e-01 4.346240875179775420e-01 1.037002566720162999e+00 6.402028817143077255e-01 5.895549672671024366e-02 1.011120513797168163e+00 4.266664701031273703e-03 7.912398130995573764e-01 1.691183407807392625e+00 -8.757017553802579624e-01 5.191997717527573331e-01 5.208525322135708624e-01 -5.021493446782865355e-01 3.023423057406317005e-01 5.046913841117982580e-01 5.404944217528024897e-01 4.503051643697219553e-01 4.966719264958454616e-01 2.623630608413488052e-01 3.578011103065796283e-01 5.237503567855087416e-01 5.261515486886791937e-01 1.075955590746063319e-02 -1.970569568288971229e-01 5.354658992470926471e-01 1.073706014435809486e+00 6.042617301009265418e-01 -5.962133616208998843e-01 4.112001333070410269e-01 5.222865539780033872e-01 5.735271597530899879e-01 4.867255184370669618e-02 3.221531560363977142e-01 5.242924260709711515e-01 5.300209264352209182e-01 4.576453546038183884e-01 -1.487248112614455130e-02 5.271157720638507405e-01 5.443190248252418595e-01 5.196144054688023317e-01 2.130573282536055491e+00 -2.794040853986880582e-02 3.930274195989212904e-01 5.114054091078732434e-01 1.879440500609474096e+00 5.073250600959582357e-01 5.852955534579363794e-01 4.009664431850924748e-02 5.713750403497315222e-01 5.265461926696703987e-01 4.782233753842571877e-01 4.336841415053966919e-01 5.333521620259724649e-01 4.902314951685868838e-01 5.277984708822854865e-01 -5.876110378056917938e-01 5.265641376334484480e-01 5.316151357249980780e-01 5.139014055497613809e-01 1.387843524769041270e+00 5.156350430987208799e-01 -2.529256041855894588e-01 1.166698664109740768e+00 -1.366289618338998091e+00 -5.642969670306490215e-01 4.823814087026987996e-01 5.227251204147542740e-01 6.741253117531680328e-01 5.460466490153083052e-01 5.655346190916744620e-01 5.117423532595288815e-01 5.713749636250297081e-01 5.218109796705537873e-01 5.801487218674942214e-01 6.148016491373839987e-01 5.250691167103596069e-01 3.409847978266741242e-01 5.291057258530942331e-01 5.298963240372327466e-01 4.296367696897949173e-01 5.165961708154205301e-01 5.163430913704859515e-01 5.002444641083938492e-01 6.444813536948555965e-01 5.241133412431453475e-01 7.416810538478708636e-01 5.352807156600938310e-01 5.217951230952821984e-01 5.331150228601587715e-01 4.616198274818055780e-01 3.232823952375531995e-01 2.532298554579346828e+00 5.678415283235122013e-01 6.515200844304297467e-01 2.999338874802888744e-01 5.710017480530580336e-01 1.129647785387301928e+00 4.345143344932828611e-01 6.784911922146358298e-01 5.223141763409901994e-01
7.124622469359433996e-01 2.894558010667987458e-01 4.681160515402218447e-01 -5.683100549301074722e-02 3.047474389321218058e-01 4.333444624861193528e-01 5.422271048468783050e-01 3.445223419412847821e-01 4.119781837362824772e-01 2.915678241838512985e-01 2.110056734421448699e+00 1.756395236765629253e+00 -1.504168422532464744e+00 5.489026210517897741e-01 3.097086467223038042e-01 4.705311027467521390e-01 1.428496529084224975e-01 4.601737494879373780e-01 3.751185301293306074e-01 3.198274589299353043e-01 3.614485049933869321e-01 2.190097767256909300e+00 3.237009145907333019e-01 3.204900285403170512e-01 7.701123522228897622e-01 -1.283362889724160016e-01 3.626155360444520137e-01 1.682352651760414264e-01 3.811439384173059275e-01 -9.735249653304323125e-01 4.711878484548702173e-01 -1.777074790236648494e-01 2.902008048147288743e-01 2.720941323040279025e-01 -3.969317651682719439e-01 5.108710803191152117e-01 3.282341863597560416e-01 -4.254584980654366744e-01 -3.377019582124156649e+00 2.999690266386834669e-01 1.241743487481558272e+00 1.502547187369699944e-01 -1.715107689316424655e-01 7.908282945935609654e-01 4.915698943600265713e-01 2.978657395367155236e-01 -5.724989529602999422e-02 3.299278081343241520e-01 8.035669214461833854e-02 6.634980721445119523e-01 7.011247323280800359e-01 5.210561938880705624e-01 -8.070008907170742041e-02 2.726514715168046887e-01 5.663305026380418550e-01 6.855716615975687711e-01 2.628773513475800572e-01 3.458289370136065077e-01 3.438291866299179600e-01 2.810544398755748796e-01 4.405659498190086509e-01 4.166785829388780504e-01 2.910729617726520169e-01 3.237008992253928019e-01 -3.341257382598958880e-01 1.027536908080900480e-01 2.906818411123139323e-01 2.992283356089844304e-01 3.378217926881657007e-01 6.771251806327229783e-01 2.320445457214274088e-01 2.770902082432049607e-01 3.100329789910450384e-01 6.957029864458974533e-01 1.974589185440745798e+00 3.277482143936209513e-01 4.838209074451093050e-01 4.837888723970696914e-01 3.032587772112995128e-01 -1.378843792923540645e+00 3.210412002020066602e-01 4.721697042413615653e-01 2.473186711237601365e+00 5.387133661106280336e-02 2.321773834694337291e-01 -3.119707189479306031e-01 1.584756135260259879e-01 3.865272169460370333e-01 -5.912303188865455361e-01 -9.350910098688293148e-01 4.917888026079060837e-01 1.647150536985677816e+00 4.074407708397417144e-02 6.859808327222738367e-01 3.599684147533933065e-01 3.652238168706343768e-01 3.122705927639514156e-01 8.104387594489451674e-01 7.352478187366736639e-01 -1.183994000482928299e-01 -1.894419362171647359e-01 5.966661841549864009e-02 3.451668332062209910e-01 2.502495165832424595e-01 -8.966870733179566066e-02 3.236547203624001945e+00 -3.039844225787420307e-01 4.366667787712958937e-01 5.431711611288397162e-02 8.136820275685010539e-01 3.136513458896931783e-01 5.588443186529564732e-01 1.632245454440203469e-01 2.795793580020090041e-01 -4.624237608811304079e-01 3.508075201296930179e-01 3.140932592537371004e-02 3.247470466684254653e-01 1.280475556823047478e+00 2.920375425021786153e-01 -1.500121817418004433e+00 6.585598363445241410e-02 3.228060778165639522e-02 1.567170492531932302e+00 2.932826436856029728e-01 2.243136166510922624e+00 4.225270863852717551e-01 2.165221472598433117e-01 3.237831087995693413e-01 2.967943496443619100e-01 3.444621617180034234e-01 3.018595651825803361e-01 6.595858652541428668e-01 3.643984770683874608e-01 1.499946423127221373e-01 8.455666832825943224e-01 7.394998830431529502e-01 6.905817758479381174e-01 -3.464732835623713370e-01 2.786213708047873827e-01 3.509552417971986693e-01 3.224833467599655945e-01 3.728433931803216694e-01 3.424199317978375845e-01 3.008893526424580855e-01 6.997322146991011849e-01 -2.080599778448755932e-01 3.197697752705661034e-01 3.913385186284901729e-01 4.078912473746094669e-01 -1.508215289969446204e-01 3.387373605310237124e-02 2.978669496882269674e-01 3.445874686450891566e-01 2.536045502215772962e-01 2.986879727894887204e-01 -2.627915252725691264e+00 4.812028541402083026e-01 -6.208081091900597981e-01 -1.144319878129444606e-01 1.107062251937921959e-01 4.516240272896562824e-01 3.115057393455957779e-01 3.035773904101882192e-01 1.408515528353021240e-01 1.528875885762643883e-01 3.240213678851552315e-01 5.163799564019085908e-01 5.143109295371999234e-01 2.457806983372632093e-01 2.848134158368936797e-01 -5.925368293390530922e-02 2.979057604037769202e-01 3.025902625816762059e-01 -2.577564739822059359e+00 6.620074631279606603e-01 5.392651648719669621e-01 9.074332675785233837e-01 -4.642673171057711268e-01 1.177097966392478545e+00 9.597876232409716102e-02 2.986526662002350063e-01 1.255849513926857508e+00 4.082811240279410891e-01 3.231994307936137956e-01 3.900122958638163606e-01 2.731254490691398806e-01 2.907954420547946284e-01 -5.224926686740717363e-01 3.849211608028746956e-01 3.991794308227364363e-01 8.359244596449755260e-01 3.398629604778252711e-01 3.502074461870969269e-01 2.633820146555933550e-01 3.038828243009151220e-01 -1.738007925651190444e+00 2.928073475286767091e-01 4.029555888912122463e-01 2.210540823338850436e-01 1.283270742071672410e-02 3.605107681938286568e-01 3.922449478555996571e-01 1.645601252446620144e-01 -7.333124237820131119e-01 4.029555967853176157e-01 5.116771904730725851e-01 -5.350652353459335320e-01 2.925295104836208027e-01 3.135084473947530315e-01 2.145144640643916190e-01 -3.371846028780504767e+00 3.715044307884564079e-01 8.965773331261865930e-01 3.159532769058729929e-01 3.077859176563853549e-01 3.023576222139815473e-01 3.005355124011039325e-01 2.995282950821789858e-01 3.041999174231924674e-01 3.962782979158733232e-01 7.549942734521145060e-02 6.794365084210183259e-01 1.225067954299452200e-01 3.637088080744778074e-01 5.596642398811368935e-01 4.248269737402457502e-01 -7.394958706492004152e-01 2.384816743291176877e+00 4.220083184147948030e-01 1.265085689022094728e+00 -1.414665314048697997e+00 3.064311031929541906e-01 3.250983992697279445e-01 3.294737013795227543e-01 1.215604475193323486e+00 5.393235700612987182e-01 8.554973283885054514e-01 2.936803595338848272e-01 6.623965415643072729e-01 1.980375501442584174e-01 3.341683074321734059e-01 -1.216922301954373786e+00 4.064167353114184755e-01 3.033874717269687271e-01 5.096124340577956602e-01 8.557497341896067589e-01 -4.011119973114898318e-01 3.300688903846251243e+00 4.881539103738743446e-01 1.350851408155595790e+00 -3.792529066115848391e-01 3.005412498925434939e-01 3.236990059454548652e-01 3.514262518599906571e-01 3.391025706120846528e-01 1.996913899324576358e-01 -1.801456909193934197e-01 6.715582340447540100e-02 5.635053827614912025e-01 2.138779151511221166e-01 1.166345366958056740e-01 2.513490871417927708e-01 5.313351101093009010e-01 4.405659803049472023e-01 2.865049493182274531e-01 3.371374918925281072e+00 3.154902877472565703e-01 6.484244072694700378e-01 5.026463326285405264e-01 3.701483268129698856e-01 4.401958928505867452e-01 3.058732506296527598e-01 2.976761412694453601e-01 3.033278066409103579e-01 -6.764754347029813264e-01 3.837543924707088050e-01 2.849046552331196414e-01 1.541861199690739703e-01 3.618065796215889640e-01 1.575942806382108596e+00 3.135594037058715422e-01 3.395586787179103450e-01 2.028371377663864994e+00 5.204580152779026969e-01 3.512366800970564418e-01 3.394784378396213387e-01 2.997625269412955706e-01 3.508057524639548452e-01 -2.091146044059004616e+00 3.410254908940072438e-01 1.656061062916137416e+00 -1.234027612988699840e-01 3.488759304388042159e-01 6.456595665893991587e-01 3.415623004738301827e-01 -7.409925727806563334e-01 3.190319389791106408e-01 3.078597824794387372e-01 3.913038412535169153e-01 -4.165045941385847605e-01 2.869013578666401165e-01 -2.469630372147247233e+00 -5.867539162675892289e-02 2.898160058798133765e-01 5.928690227400180701e-01 3.034836209671679108e-01 3.092078837460052188e-01 4.981450800815631075e-01 1.512730995081400243e-01 -5.242794839076836411e-02 -7.875997346854316516e-01 -8.068937997478421026e-03 6.865141661877152135e-01 3.131271509948024834e-01 4.837175344167058966e-01 3.064663611012166666e-01 -5.788781971579664426e-02 3.105963632841653999e-01 2.518559106538694969e+00 6.930992344146696960e-01 2.474914616640763732e-01 -1.207853934568731136e+00 2.579189189299504470e-01 4.887113741870039441e+00 4.371545142215243485e-01 -2.210505432772064960e-01 5.731509238876028034e-01 -5.801105923214923799e+00 5.463161859458117720e-01 1.611078788301671505e+00 3.043076479649172716e-01 5.157439214990825471e-01 -4.639854483214698178e-01 4.003627656713166227e-01 2.152623233703115369e-01 3.591085013005070325e-01 1.997494135728241083e-01 3.054447506477660834e+00 -3.926028164413177812e-01 3.178737844483972008e-01 -1.959740144368943060e+00 3.082520464874858868e-01 -4.254584962640493018e-01 7.671113270326452849e-01 4.652982568525793616e-01 2.624497750662430628e-01 2.918725093688301353e-01 1.252900671157576307e+00 1.706787242105276270e-01 4.029555977155594437e-01 4.064108872290631003e-01 1.645601276515125388e-01 4.220995526201410941e-01 3.779349386592698035e-01 -6.352598405804457116e-01 3.029801107017733863e-01 5.650862738739884650e-01 4.165876228654116220e-01 1.951858401167430035e-01 3.026826843326546612e-01 5.211546599058297646e-01 4.652981581333737182e-01 5.364002442987111374e-01 3.079405483559771728e-01 1.505966853530505967e-01 3.486545254543484407e-01 3.610323303414106899e+00 2.681623897359741160e-01 8.525236874466476933e-02 4.405667539888091788e-01 8.295246314297952672e-01 4.711484480851688139e-01 -1.902284384792966021e-01 6.982211578485704173e-01 3.362870287237119116e-01 1.357472128278402468e-01 4.360384427503471438e-01 6.851708528373643414e-01 4.849450546447364174e-01 8.076146250648366109e-01 8.298530008970639305e-01 1.780847349228394660e-01 1.645600794729174532e-01 1.645601692321892462e-01 3.441891308924556192e-01 2.693544575685868914e-01 1.119248746618563883e+00 3.761101951419196232e-01 2.895192931385349167e-01 2.322742492098068268e-01 3.013036169057892733e-01 7.293251901937458648e-01 4.029561795078714925e-01 3.031150386373715477e-01 3.792314041379468148e-01 1.673263023709011532e-01 -6.484431306399550676e-01 3.023127134720299258e-01 3.027403180579071873e-01 3.233493416417923538e-01 6.465093823106675686e-01 6.361123787086427894e-01 1.645601180919224749e-01 1.768951716680096375e-01 3.074366727098488128e-01 5.190359580218041335e-01 -5.996162602919221651e-01 1.658504164276959347e-01 -3.644525710440320587e+00 2.082341655870729724e+00 6.152970342958395955e-01 -5.033695571576189964e-01 -5.669984070364477574e-02 2.117812805620068684e+00 3.277774987696132625e-01 6.605886349536476132e-01 -9.342815757496253370e-02 4.307888952407128991e-01 3.715441479805083325e-01 3.115938450310791197e-01 -6.087105235353611477e-01 2.924583611775258829e-01 2.124439161866714887e+00 1.846655148618152054e-01 -4.897257511355667114e-01 2.852963558615109196e-01 2.986448110293407621e-01 -1.482905069973863954e+00 3.445141481636254110e-01 3.744710306856488535e-01 4.038625665497636019e-01 1.008671927496402054e-01 3.098906654899455937e-01 2.429444341453585732e-01 2.731505708267982224e-01 -1.619852484749374488e-01 2.922228221045091723e-01 1.225459830057629429e-01 3.014271456712457331e-01 3.105475187482170107e-01 1.414257897399989750e-02 3.478712213790100538e-01 4.423870375150807388e-01 -1.454627900003182317e+00 -7.383164123906237331e-01 -1.255488675414650479e-01 1.810325291382843538e-01 1.063705712948336823e-01 4.396883658039594800e-01 3.478817490914682953e-01 6.977694508114651306e-01 -1.475287480147334240e-01 3.214017648623888612e-01 3.101667806827014262e-01 9.808898089619573490e-02 -1.617280488604761479e-01 3.388756387497500189e-01 4.537667273708496096e-01 4.802154983147755019e-01 3.167862173562644434e-01 3.093847150445518945e-01 3.024936476836633248e-01 2.385885938570072862e-01 3.047790731673184483e-01 4.671274753317385953e-01 2.062951537172837690e-01 3.037357371649232474e-01 6.977995935666084781e-01 2.851610493633155441e-01 6.890529375171776660e-01 -6.230893068669172280e-02 6.050555219493787273e-01 3.255162867101465962e-01 -1.491184658917398709e+00 2.979169152744621241e-01 6.162661086741653138e-01 3.330407866157475971e-01 3.386239121807987362e-01 3.777389221580123024e-01 1.555527259137615137e-01 6.897351867935932468e-01 3.046773651542519223e-01 4.458947748988874027e-01 3.021696012310176593e-01 2.703964247066157345e-01 1.628143492264904624e-01 4.504502071689313603e-01 3.000865992178864960e-01 1.289497404239173806e-01 -1.994390787811596566e-02 1.498829513149280979e-01 1.694332524388285854e+00 1.483019590673817500e-01 3.062058823696023335e-01 3.977453863832426939e-01 -8.865209334277625031e-01 2.797208027634548455e-01 2.203315219895069232e-01 2.148936586946437188e-01 -1.233957350950339871e-01 2.591396937103344067e-01 1.771376150640631586e+00 8.992146332612237503e-01 4.777876327049822014e-01 2.699515170597540092e-01 2.950576727827249890e-01 3.434651153567278015e-01 9.441570923266372484e-01 3.140329423714910195e+00 3.074326222475005088e-01 3.801212321235651354e-03 5.794020920759695992e-01 -2.689925861504676718e-01 2.998490941847955504e-01 2.968546538862293360e-01 1.101521215241315188e+00 2.902522171900887016e-01 -3.613846707109187872e-01 3.989638829895353900e-01 1.490860419840952800e-01 5.969471253016426227e-01 1.931704264328841791e+00 2.953804102214114269e-01 3.016113406496524485e-01 1.686076918004462133e+00 3.815899803224875875e-01 2.904985567870941865e-01 1.447468009809502465e-01 1.508398727988810029e-01 -5.699001153179610035e-02 5.263740336572811929e-01 2.495627011195925837e-01 6.969420244113414542e-01 2.910937259667052412e-01 1.905898100863652189e-01 3.426884756046850167e-01 2.693713198975121736e-01 4.659395043753615240e-01 2.683148043332315713e-01 8.606894872700284749e-01 5.242677845663574754e-01 5.287317123645480788e-01 3.862851330471664402e-01 2.806494818133699609e-01 3.123734862278214619e-01 5.972582584091614688e-01 7.860328099427440485e-01 3.767441724250075175e-01 3.503090099069538499e-01 6.501874148703516987e-01 3.057364306619753114e-01 6.692083626788308814e-01 3.877154822480942675e-01 4.957067711931922860e-01 -2.950336592854908568e-01 3.003980863741291252e-01 3.206820511744928326e-01 4.699067701752734916e-01 1.793248181362204763e-01 3.624802740286091063e-01 1.859405048730220500e+00 -3.404166887171279632e-02 3.881283818616313441e-01 -2.463791615128640422e-01 1.721332714296522015e+00 1.173970796258255289e+00 4.478097232925955934e-02 -4.275017055787035947e-01 4.611889198811055524e-01 2.396375832474965939e-01 4.522210717612509256e-01 3.032641704995986398e-01 3.004634071195377287e-01 2.590675501360582555e-01 3.243340857425241475e-01 2.440473700349100050e-01 -5.649474506567585957e-02 -2.518689884805946910e-01 2.784317460240173792e-01 1.998342366761343136e-01 2.774720094457570063e-01 8.930895538347427554e-01 4.405659663241544566e-01 3.235718824694793772e-01 8.695680418201312545e-01 4.746473913037791981e-01 4.915618908840310719e-01 4.290595508468197927e-01 7.051763890786896249e-01 1.494590729971612131e+00 4.094790906161858146e-01 2.158788095972182575e+00 -1.511753463664805043e-02 1.694952400377396362e-01 3.020418696608835329e-01 3.436416039478162321e-01 4.030643940098390110e-01 2.457528308617026869e-01 2.948447221721709477e-01 3.009764131907771145e-01 3.767716254320208624e-01 2.532630956508054587e-01 -3.854744708691849042e-01 3.400257864670171437e-01 -3.702054843638426240e-02 3.168898726251596631e-01 3.912366370431212270e-01 4.405659664037249179e-01 2.489606224870485329e-01 2.679215828943197764e-01 -1.340992761150143986e+00 2.013344493381290956e+00 3.000103196680234952e-01 -7.836607452249046979e-01 2.965169621856365012e-01 3.437978330288808948e-01 3.049701700640473079e-01 -4.941009464113453653e+00 3.636998928061467407e+00 6.412590795640061847e-01 -3.729458082420518059e-03 3.223911697154163702e-01 3.028539848299473536e-01 2.405894360556903033e-01 2.698702307415396184e+00 6.380100611995668247e-01 3.197338053415434422e-01 3.508075030824153173e-01 3.335879094979988801e-01 3.070414695381108450e-01 8.478352900963311845e-01 -3.694635541384306276e-01 -1.267090482078307989e+00 -1.260565666439520172e+00 2.922989596801993106e-01 3.003220295637633597e-01 7.542096012002768024e-01 3.413286036518395905e-01 1.582937512761646293e+00 5.027107238593842009e-01 3.028582096783748456e-01 3.315752983411158761e-01 3.044909098667348268e-01 3.212748795150059955e-01 3.175992362346702347e-01 6.298869098372096298e-01 3.797503745279458554e-01 6.561543274819059413e-01 2.417041855494853342e-01 8.390795389567584639e-02 3.177727033621605135e-01 1.737651371813319079e-01 2.287387907706388002e-01 3.458207391063947700e-01 6.227815177301688765e-01 4.652982276917250748e-01 1.964339070344305882e-01 2.425397516697700151e-01 2.985470059274023535e-01 2.848987573767950421e-01 1.771360472664881724e+00 1.986809132300607850e+00 3.174783292225764608e-01 2.762812085677363583e-01 3.076344291640965012e-01 1.793718861431435330e-01 2.164814970586861065e-01 4.681679724699176481e-01 3.070145705572407402e-01 3.318943223135173981e-01 8.189889971620587517e-01 9.089235968783961894e-01 3.838382690761386051e-01 1.918247873397004755e+00 4.117062919484481553e-01 -3.136603940663959533e-01 -2.666906301346813057e-01 -2.951849695878965840e-01 3.004275188799617746e-01 3.482495364352662937e-01 7.046208550671497761e-01 3.073525892326554043e-01 4.089761345987324992e-01 3.244423387859468599e-01 2.723121464868666908e-01 2.609441428503336824e-01 -1.043359832033834700e-01 9.986093091452120651e-01 2.941601586199327212e-01 2.354465279344969686e-01 2.992409475623876158e-01 3.442625183853443849e-01 2.802555353526098303e-01 4.013936606226274906e-01 -6.363273925336120074e-02 2.218199472067161615e-01 3.142804890866607859e-01 -5.747042431271152246e-02 4.405658562672144507e-01 1.084785106057490900e+00 9.839126599869172374e-01 -7.109035962754336468e-01 -4.254584981936593291e-01 6.618794392808734495e-01 -3.432532625910281965e+00 1.596244852484606902e+00 3.115593907202593993e-01 -5.656186681819890677e-02 3.021426260977790323e-01 9.207028721005449112e-01 3.055488927063760296e-01 4.064166481081532001e-01 -4.403864476943535333e-01 8.066035616661726415e-01 3.020206195748088018e-01 8.433282475904351205e-01 2.137854871497812059e+00 -3.696144271627377909e-01 -1.504440551280709748e+00 3.236453700193915872e-01 2.976921966778738882e-01 7.369665555396746059e-01 3.281901683881814358e-01 6.880536967443573459e-01 4.690287734580195766e-01 3.997585226831361083e-01 2.904912318307951713e-01 2.958571980009266911e-01 3.500757205210952017e-01 3.190914086723165566e-01 1.460677878179954536e+00 1.701854156911261295e+00 3.120018789429142014e-01 3.265874529579388952e-01 3.547579944115050177e-01 -2.556643547581899378e-01 2.434447563806350912e-01 -7.904802036913971541e-02 3.028227211327046975e-01 7.039813103951940709e-01 -6.089807184892780390e-01 3.514234277767009362e-01 3.325813436653507482e-01 1.601290542653809046e-01 2.706695350564115587e-01 1.605633903400332518e-01 3.030755944461765439e-01 3.027350975171291814e-01 9.982337071948080287e-02 3.074409878524209661e-01 4.293189794235340861e-01 1.149149966803370448e+00 1.116689248002331825e+00 8.966476675415813169e-01 2.379401480060020779e-01 8.004687695958012661e-01 1.719914348950125071e-01 5.214937298451890468e-01 -2.236794366222773167e+00 3.057863573881038355e-01 6.681617135273967278e-01 3.072347595902676365e-01 9.367850600801068683e-01 1.392179403748546873e+00 3.508074868847215200e-01 2.287028216552278448e-01 3.773805223996942737e-01 4.524507585981757396e-01 5.458212620703966067e-01 1.013293485749147571e+00 -8.478783236998046480e-01 3.370235594668981038e-01 -8.939912240119337120e-03 3.085439974480681524e-01 3.393176531298873755e-01 7.492811708382953739e-01 -3.156767869309229368e-01 4.203260261553493637e-01 3.064962057846232213e-01 3.539619700204822972e-01 8.988118359008886449e-01 4.384986638772563339e-01 -2.302198504112432653e-01 8.565666142945979056e-01 -2.213438898452125408e-02 5.476885335279909617e-01 3.419378504476769942e-01 1.308273725465382231e+00 6.092369042156635661e-01 6.973893631761024503e-01 4.222472577360240620e-01 4.714083446489567564e-01 -6.192381892252338815e-01 2.186718616296725870e-01 7.339741434951181365e-01 3.073843991588768310e-01 5.933401593807360319e-01 2.878986518731151967e-01 3.043438267679037246e-01 6.944277829746439146e-01 1.828891009673532519e-01 -2.092058165280131554e+00 2.448889334255598127e-01 2.535136234398405186e-01 1.002550771061493373e+00 3.017600266284510280e-01 2.817986337259456575e-01 3.665711803079422793e-01 3.075245559251773564e-01 4.152859520797310688e-01 1.471795042477276050e-01 -1.645748501787493989e+00 7.746781059613687681e-01 2.327743157794980866e-01 2.782021231362694635e-01 3.674533321244384809e-01 8.151622247277183764e-01 3.050574768253338509e-01 -1.666289391040446655e-01 3.573331964177921538e-01 1.131001563447297187e+00 3.522731072180658729e-01 4.173727140249051115e-01 1.027075841080558050e+00 4.407962863882688431e-01 2.909670182145206674e+00 3.085920950897423354e-01 2.820304280359035576e-01 7.154302992810374073e-01 3.155178946071630075e-01 3.144181542074279689e-01 -2.243744460949555375e+00 4.745668144655100229e-01 3.097429966407418966e-01 5.226372186543891685e-01 2.921351697437556960e-01 1.947252091400333285e-01 -1.290415207149035459e-01 2.112338471284391339e+00 -5.160060977802393145e-01 8.195421591218108315e-01 3.019285311672635364e-01 3.368521751827665556e-01 8.837815854764334844e-01 2.785260024657918443e-01 1.360304756192820763e+00 2.687605926848852800e-01 4.281339683740667534e-01 -8.899197238310667668e-01 -1.223293924668275023e-01 -7.254567460681017321e-01 -4.177179541860445156e+00 3.053010056742091027e+00 1.162867450858590460e-02 2.961920096483023901e-01 -1.702883028433777701e+00 2.979212289343498576e-01 5.125882793459527464e-01 2.952233207838878548e-01 2.058504699143207106e-01 6.450574692542256905e-01 6.085616786560531510e-01 1.144403239666985206e+00 -4.254584985016486853e-01 -2.469837301832323029e-01 3.147014756444159178e-01 -1.209059737535029377e+00 4.089264128737161164e-01 -6.697783587136109107e-01 3.178897074744052587e-01 4.254779441940690354e-01 1.608919508795360609e-01 4.690053464603917699e-01 2.576130403258846124e-01 3.623870932415738239e-02 3.185738011199640285e-01 2.741527761734380286e-01 3.676592244558411493e-01 2.702934668698772636e-01 3.035032385979563596e-01 -7.107777162498405410e-01 4.063181997169975079e-01 1.557290404042684928e+00 8.733298067190106706e-02 2.323920484888806204e-01 2.617255843146030214e-01 1.198141491089835142e+00 3.034636720076372973e-01 6.168129157323685996e-02 8.753463689339214815e-01 1.916740201742135885e-01 1.915639625980203098e+00 3.304215760003743618e-01 1.439218918635745137e+00 3.076104494718401861e-01 7.312255896385815301e-01 1.365744108187668449e+00 4.370354273745130080e-01 1.997809601565379289e-01 9.691938948588254554e-01 -1.750542029467757887e-01 -7.562200443959303520e-02 2.870035940668002050e-01 3.110139512005002382e-01 3.719725961249211732e-01 1.483555033576672566e-01 6.942406546608152762e-02 -4.036310737263106296e-01 1.291587369860164092e+00 3.034031151461193954e-01 2.998274408911539846e-01 -3.334743425617615831e+00 5.821234689822352149e-01 2.020225492882276319e-01 2.837182621674846361e-01 3.306011538420235429e-01 3.566299089676617795e-01 -1.160817463947792838e+00 6.423762347499686332e-01 3.058569746190301086e-01 3.139911762845733478e-01 1.008750853481057641e+00 4.778703054085712276e-01 2.846296731486456788e-01 -1.436667826266584402e+00 3.067257084916009680e-01 8.986811354606406566e-01 4.033743795979121693e-01 3.053751519328521402e-01 2.345871905748596054e-01 7.055691138233174398e-01 -2.437590367351019638e-02 3.031891634075490338e-01 2.850172618202029273e-01 1.179575140731159710e-01 6.657218803021019982e-01 2.499710798236473297e-01 6.597111280968425140e-01 2.241054175462019460e-01 6.978536330621286643e-01 -2.644754477891149702e-01 -1.516863325974340482e+00 3.027805791927860035e-01 -2.395343959868228081e-02 2.534525571684000389e-01 3.126827095495854358e-01 5.908618736220601353e-02 4.652984767151271406e-01 3.060067126255177627e-01 8.832952805168374499e-02 3.894666180654781651e-01 2.896676431963294829e-01 2.769313759254358742e-01 3.482263030671260418e-01 -8.904604767572632529e-01 3.011055374108696503e-01 3.452756932524145284e-01 3.129928060628393016e-01 -4.354256337019352108e-01 3.129634281429683473e-01 8.579497127539550405e-01 -6.722657060630301551e-01 1.159876728071959073e+00 6.289472751323844646e-01 3.130187620252916081e-01 3.055570929673160352e-01 -2.096075994788527019e+00 3.103223062737744398e-01 3.768674147035742106e-01 3.338430942675991719e-01 4.652982798928786967e-01 3.028242374023372152e-01 3.385940407373402850e-01 4.186985128245328258e-02 3.040879360569480605e-01 4.292767454897581381e-01 3.109888873218641381e-01 2.663755015134714466e-01 2.742873294107237014e-01 3.010047903383056278e-01 3.004274530779795782e-01 3.823149375261168936e-01 2.051767753336377065e-01 3.079849962212375947e-01 6.350761505418549557e-01 1.311462188870464451e-01 3.014838597351405802e-01 -1.614881973634412493e-01 2.304304754703044578e-01 6.976430064605856352e-01 4.682414976983228172e+00 2.934052528327631415e-01 4.927366779821095583e-02 5.783456662484028898e-01 1.722736522737083886e-01 1.591155219755106431e+00 2.985666832611120758e-01 6.183514667904317363e-01 3.061926795329754092e-01
