# 
#                 ----------------------------------------------------
#                 Data from a 3D direct N-body simulation. 
# 
#                 rows are i-particle; 
#                 coumns are :mass, tag, x ,y, z, vx, vy, vz, ax, ay, az
# 
#                 NTHU, Computational Physics 
# 
#                 ----------------------------------------------------
#                 Time = 0.0
0.000000000000000000e+00 1.000000000000000000e+00 2.000000000000000000e+00 3.000000000000000000e+00 4.000000000000000000e+00 5.000000000000000000e+00 6.000000000000000000e+00 7.000000000000000000e+00 8.000000000000000000e+00 9.000000000000000000e+00 1.000000000000000000e+01 1.100000000000000000e+01 1.200000000000000000e+01 1.300000000000000000e+01 1.400000000000000000e+01 1.500000000000000000e+01 1.600000000000000000e+01 1.700000000000000000e+01 1.800000000000000000e+01 1.900000000000000000e+01 2.000000000000000000e+01 2.100000000000000000e+01 2.200000000000000000e+01 2.300000000000000000e+01 2.400000000000000000e+01 2.500000000000000000e+01 2.600000000000000000e+01 2.700000000000000000e+01 2.800000000000000000e+01 2.900000000000000000e+01 3.000000000000000000e+01 3.100000000000000000e+01 3.200000000000000000e+01 3.300000000000000000e+01 3.400000000000000000e+01 3.500000000000000000e+01 3.600000000000000000e+01 3.700000000000000000e+01 3.800000000000000000e+01 3.900000000000000000e+01 4.000000000000000000e+01 4.100000000000000000e+01 4.200000000000000000e+01 4.300000000000000000e+01 4.400000000000000000e+01 4.500000000000000000e+01 4.600000000000000000e+01 4.700000000000000000e+01 4.800000000000000000e+01 4.900000000000000000e+01 5.000000000000000000e+01 5.100000000000000000e+01 5.200000000000000000e+01 5.300000000000000000e+01 5.400000000000000000e+01 5.500000000000000000e+01 5.600000000000000000e+01 5.700000000000000000e+01 5.800000000000000000e+01 5.900000000000000000e+01 6.000000000000000000e+01 6.100000000000000000e+01 6.200000000000000000e+01 6.300000000000000000e+01 6.400000000000000000e+01 6.500000000000000000e+01 6.600000000000000000e+01 6.700000000000000000e+01 6.800000000000000000e+01 6.900000000000000000e+01 7.000000000000000000e+01 7.100000000000000000e+01 7.200000000000000000e+01 7.300000000000000000e+01 7.400000000000000000e+01 7.500000000000000000e+01 7.600000000000000000e+01 7.700000000000000000e+01 7.800000000000000000e+01 7.900000000000000000e+01 8.000000000000000000e+01 8.100000000000000000e+01 8.200000000000000000e+01 8.300000000000000000e+01 8.400000000000000000e+01 8.500000000000000000e+01 8.600000000000000000e+01 8.700000000000000000e+01 8.800000000000000000e+01 8.900000000000000000e+01 9.000000000000000000e+01 9.100000000000000000e+01 9.200000000000000000e+01 9.300000000000000000e+01 9.400000000000000000e+01 9.500000000000000000e+01 9.600000000000000000e+01 9.700000000000000000e+01 9.800000000000000000e+01 9.900000000000000000e+01 1.000000000000000000e+02 1.010000000000000000e+02 1.020000000000000000e+02 1.030000000000000000e+02 1.040000000000000000e+02 1.050000000000000000e+02 1.060000000000000000e+02 1.070000000000000000e+02 1.080000000000000000e+02 1.090000000000000000e+02 1.100000000000000000e+02 1.110000000000000000e+02 1.120000000000000000e+02 1.130000000000000000e+02 1.140000000000000000e+02 1.150000000000000000e+02 1.160000000000000000e+02 1.170000000000000000e+02 1.180000000000000000e+02 1.190000000000000000e+02 1.200000000000000000e+02 1.210000000000000000e+02 1.220000000000000000e+02 1.230000000000000000e+02 1.240000000000000000e+02 1.250000000000000000e+02 1.260000000000000000e+02 1.270000000000000000e+02 1.280000000000000000e+02 1.290000000000000000e+02 1.300000000000000000e+02 1.310000000000000000e+02 1.320000000000000000e+02 1.330000000000000000e+02 1.340000000000000000e+02 1.350000000000000000e+02 1.360000000000000000e+02 1.370000000000000000e+02 1.380000000000000000e+02 1.390000000000000000e+02 1.400000000000000000e+02 1.410000000000000000e+02 1.420000000000000000e+02 1.430000000000000000e+02 1.440000000000000000e+02 1.450000000000000000e+02 1.460000000000000000e+02 1.470000000000000000e+02 1.480000000000000000e+02 1.490000000000000000e+02 1.500000000000000000e+02 1.510000000000000000e+02 1.520000000000000000e+02 1.530000000000000000e+02 1.540000000000000000e+02 1.550000000000000000e+02 1.560000000000000000e+02 1.570000000000000000e+02 1.580000000000000000e+02 1.590000000000000000e+02 1.600000000000000000e+02 1.610000000000000000e+02 1.620000000000000000e+02 1.630000000000000000e+02 1.640000000000000000e+02 1.650000000000000000e+02 1.660000000000000000e+02 1.670000000000000000e+02 1.680000000000000000e+02 1.690000000000000000e+02 1.700000000000000000e+02 1.710000000000000000e+02 1.720000000000000000e+02 1.730000000000000000e+02 1.740000000000000000e+02 1.750000000000000000e+02 1.760000000000000000e+02 1.770000000000000000e+02 1.780000000000000000e+02 1.790000000000000000e+02 1.800000000000000000e+02 1.810000000000000000e+02 1.820000000000000000e+02 1.830000000000000000e+02 1.840000000000000000e+02 1.850000000000000000e+02 1.860000000000000000e+02 1.870000000000000000e+02 1.880000000000000000e+02 1.890000000000000000e+02 1.900000000000000000e+02 1.910000000000000000e+02 1.920000000000000000e+02 1.930000000000000000e+02 1.940000000000000000e+02 1.950000000000000000e+02 1.960000000000000000e+02 1.970000000000000000e+02 1.980000000000000000e+02 1.990000000000000000e+02 2.000000000000000000e+02 2.010000000000000000e+02 2.020000000000000000e+02 2.030000000000000000e+02 2.040000000000000000e+02 2.050000000000000000e+02 2.060000000000000000e+02 2.070000000000000000e+02 2.080000000000000000e+02 2.090000000000000000e+02 2.100000000000000000e+02 2.110000000000000000e+02 2.120000000000000000e+02 2.130000000000000000e+02 2.140000000000000000e+02 2.150000000000000000e+02 2.160000000000000000e+02 2.170000000000000000e+02 2.180000000000000000e+02 2.190000000000000000e+02 2.200000000000000000e+02 2.210000000000000000e+02 2.220000000000000000e+02 2.230000000000000000e+02 2.240000000000000000e+02 2.250000000000000000e+02 2.260000000000000000e+02 2.270000000000000000e+02 2.280000000000000000e+02 2.290000000000000000e+02 2.300000000000000000e+02 2.310000000000000000e+02 2.320000000000000000e+02 2.330000000000000000e+02 2.340000000000000000e+02 2.350000000000000000e+02 2.360000000000000000e+02 2.370000000000000000e+02 2.380000000000000000e+02 2.390000000000000000e+02 2.400000000000000000e+02 2.410000000000000000e+02 2.420000000000000000e+02 2.430000000000000000e+02 2.440000000000000000e+02 2.450000000000000000e+02 2.460000000000000000e+02 2.470000000000000000e+02 2.480000000000000000e+02 2.490000000000000000e+02 2.500000000000000000e+02 2.510000000000000000e+02 2.520000000000000000e+02 2.530000000000000000e+02 2.540000000000000000e+02 2.550000000000000000e+02 2.560000000000000000e+02 2.570000000000000000e+02 2.580000000000000000e+02 2.590000000000000000e+02 2.600000000000000000e+02 2.610000000000000000e+02 2.620000000000000000e+02 2.630000000000000000e+02 2.640000000000000000e+02 2.650000000000000000e+02 2.660000000000000000e+02 2.670000000000000000e+02 2.680000000000000000e+02 2.690000000000000000e+02 2.700000000000000000e+02 2.710000000000000000e+02 2.720000000000000000e+02 2.730000000000000000e+02 2.740000000000000000e+02 2.750000000000000000e+02 2.760000000000000000e+02 2.770000000000000000e+02 2.780000000000000000e+02 2.790000000000000000e+02 2.800000000000000000e+02 2.810000000000000000e+02 2.820000000000000000e+02 2.830000000000000000e+02 2.840000000000000000e+02 2.850000000000000000e+02 2.860000000000000000e+02 2.870000000000000000e+02 2.880000000000000000e+02 2.890000000000000000e+02 2.900000000000000000e+02 2.910000000000000000e+02 2.920000000000000000e+02 2.930000000000000000e+02 2.940000000000000000e+02 2.950000000000000000e+02 2.960000000000000000e+02 2.970000000000000000e+02 2.980000000000000000e+02 2.990000000000000000e+02 3.000000000000000000e+02 3.010000000000000000e+02 3.020000000000000000e+02 3.030000000000000000e+02 3.040000000000000000e+02 3.050000000000000000e+02 3.060000000000000000e+02 3.070000000000000000e+02 3.080000000000000000e+02 3.090000000000000000e+02 3.100000000000000000e+02 3.110000000000000000e+02 3.120000000000000000e+02 3.130000000000000000e+02 3.140000000000000000e+02 3.150000000000000000e+02 3.160000000000000000e+02 3.170000000000000000e+02 3.180000000000000000e+02 3.190000000000000000e+02 3.200000000000000000e+02 3.210000000000000000e+02 3.220000000000000000e+02 3.230000000000000000e+02 3.240000000000000000e+02 3.250000000000000000e+02 3.260000000000000000e+02 3.270000000000000000e+02 3.280000000000000000e+02 3.290000000000000000e+02 3.300000000000000000e+02 3.310000000000000000e+02 3.320000000000000000e+02 3.330000000000000000e+02 3.340000000000000000e+02 3.350000000000000000e+02 3.360000000000000000e+02 3.370000000000000000e+02 3.380000000000000000e+02 3.390000000000000000e+02 3.400000000000000000e+02 3.410000000000000000e+02 3.420000000000000000e+02 3.430000000000000000e+02 3.440000000000000000e+02 3.450000000000000000e+02 3.460000000000000000e+02 3.470000000000000000e+02 3.480000000000000000e+02 3.490000000000000000e+02 3.500000000000000000e+02 3.510000000000000000e+02 3.520000000000000000e+02 3.530000000000000000e+02 3.540000000000000000e+02 3.550000000000000000e+02 3.560000000000000000e+02 3.570000000000000000e+02 3.580000000000000000e+02 3.590000000000000000e+02 3.600000000000000000e+02 3.610000000000000000e+02 3.620000000000000000e+02 3.630000000000000000e+02 3.640000000000000000e+02 3.650000000000000000e+02 3.660000000000000000e+02 3.670000000000000000e+02 3.680000000000000000e+02 3.690000000000000000e+02 3.700000000000000000e+02 3.710000000000000000e+02 3.720000000000000000e+02 3.730000000000000000e+02 3.740000000000000000e+02 3.750000000000000000e+02 3.760000000000000000e+02 3.770000000000000000e+02 3.780000000000000000e+02 3.790000000000000000e+02 3.800000000000000000e+02 3.810000000000000000e+02 3.820000000000000000e+02 3.830000000000000000e+02 3.840000000000000000e+02 3.850000000000000000e+02 3.860000000000000000e+02 3.870000000000000000e+02 3.880000000000000000e+02 3.890000000000000000e+02 3.900000000000000000e+02 3.910000000000000000e+02 3.920000000000000000e+02 3.930000000000000000e+02 3.940000000000000000e+02 3.950000000000000000e+02 3.960000000000000000e+02 3.970000000000000000e+02 3.980000000000000000e+02 3.990000000000000000e+02 4.000000000000000000e+02 4.010000000000000000e+02 4.020000000000000000e+02 4.030000000000000000e+02 4.040000000000000000e+02 4.050000000000000000e+02 4.060000000000000000e+02 4.070000000000000000e+02 4.080000000000000000e+02 4.090000000000000000e+02 4.100000000000000000e+02 4.110000000000000000e+02 4.120000000000000000e+02 4.130000000000000000e+02 4.140000000000000000e+02 4.150000000000000000e+02 4.160000000000000000e+02 4.170000000000000000e+02 4.180000000000000000e+02 4.190000000000000000e+02 4.200000000000000000e+02 4.210000000000000000e+02 4.220000000000000000e+02 4.230000000000000000e+02 4.240000000000000000e+02 4.250000000000000000e+02 4.260000000000000000e+02 4.270000000000000000e+02 4.280000000000000000e+02 4.290000000000000000e+02 4.300000000000000000e+02 4.310000000000000000e+02 4.320000000000000000e+02 4.330000000000000000e+02 4.340000000000000000e+02 4.350000000000000000e+02 4.360000000000000000e+02 4.370000000000000000e+02 4.380000000000000000e+02 4.390000000000000000e+02 4.400000000000000000e+02 4.410000000000000000e+02 4.420000000000000000e+02 4.430000000000000000e+02 4.440000000000000000e+02 4.450000000000000000e+02 4.460000000000000000e+02 4.470000000000000000e+02 4.480000000000000000e+02 4.490000000000000000e+02 4.500000000000000000e+02 4.510000000000000000e+02 4.520000000000000000e+02 4.530000000000000000e+02 4.540000000000000000e+02 4.550000000000000000e+02 4.560000000000000000e+02 4.570000000000000000e+02 4.580000000000000000e+02 4.590000000000000000e+02 4.600000000000000000e+02 4.610000000000000000e+02 4.620000000000000000e+02 4.630000000000000000e+02 4.640000000000000000e+02 4.650000000000000000e+02 4.660000000000000000e+02 4.670000000000000000e+02 4.680000000000000000e+02 4.690000000000000000e+02 4.700000000000000000e+02 4.710000000000000000e+02 4.720000000000000000e+02 4.730000000000000000e+02 4.740000000000000000e+02 4.750000000000000000e+02 4.760000000000000000e+02 4.770000000000000000e+02 4.780000000000000000e+02 4.790000000000000000e+02 4.800000000000000000e+02 4.810000000000000000e+02 4.820000000000000000e+02 4.830000000000000000e+02 4.840000000000000000e+02 4.850000000000000000e+02 4.860000000000000000e+02 4.870000000000000000e+02 4.880000000000000000e+02 4.890000000000000000e+02 4.900000000000000000e+02 4.910000000000000000e+02 4.920000000000000000e+02 4.930000000000000000e+02 4.940000000000000000e+02 4.950000000000000000e+02 4.960000000000000000e+02 4.970000000000000000e+02 4.980000000000000000e+02 4.990000000000000000e+02 5.000000000000000000e+02 5.010000000000000000e+02 5.020000000000000000e+02 5.030000000000000000e+02 5.040000000000000000e+02 5.050000000000000000e+02 5.060000000000000000e+02 5.070000000000000000e+02 5.080000000000000000e+02 5.090000000000000000e+02 5.100000000000000000e+02 5.110000000000000000e+02 5.120000000000000000e+02 5.130000000000000000e+02 5.140000000000000000e+02 5.150000000000000000e+02 5.160000000000000000e+02 5.170000000000000000e+02 5.180000000000000000e+02 5.190000000000000000e+02 5.200000000000000000e+02 5.210000000000000000e+02 5.220000000000000000e+02 5.230000000000000000e+02 5.240000000000000000e+02 5.250000000000000000e+02 5.260000000000000000e+02 5.270000000000000000e+02 5.280000000000000000e+02 5.290000000000000000e+02 5.300000000000000000e+02 5.310000000000000000e+02 5.320000000000000000e+02 5.330000000000000000e+02 5.340000000000000000e+02 5.350000000000000000e+02 5.360000000000000000e+02 5.370000000000000000e+02 5.380000000000000000e+02 5.390000000000000000e+02 5.400000000000000000e+02 5.410000000000000000e+02 5.420000000000000000e+02 5.430000000000000000e+02 5.440000000000000000e+02 5.450000000000000000e+02 5.460000000000000000e+02 5.470000000000000000e+02 5.480000000000000000e+02 5.490000000000000000e+02 5.500000000000000000e+02 5.510000000000000000e+02 5.520000000000000000e+02 5.530000000000000000e+02 5.540000000000000000e+02 5.550000000000000000e+02 5.560000000000000000e+02 5.570000000000000000e+02 5.580000000000000000e+02 5.590000000000000000e+02 5.600000000000000000e+02 5.610000000000000000e+02 5.620000000000000000e+02 5.630000000000000000e+02 5.640000000000000000e+02 5.650000000000000000e+02 5.660000000000000000e+02 5.670000000000000000e+02 5.680000000000000000e+02 5.690000000000000000e+02 5.700000000000000000e+02 5.710000000000000000e+02 5.720000000000000000e+02 5.730000000000000000e+02 5.740000000000000000e+02 5.750000000000000000e+02 5.760000000000000000e+02 5.770000000000000000e+02 5.780000000000000000e+02 5.790000000000000000e+02 5.800000000000000000e+02 5.810000000000000000e+02 5.820000000000000000e+02 5.830000000000000000e+02 5.840000000000000000e+02 5.850000000000000000e+02 5.860000000000000000e+02 5.870000000000000000e+02 5.880000000000000000e+02 5.890000000000000000e+02 5.900000000000000000e+02 5.910000000000000000e+02 5.920000000000000000e+02 5.930000000000000000e+02 5.940000000000000000e+02 5.950000000000000000e+02 5.960000000000000000e+02 5.970000000000000000e+02 5.980000000000000000e+02 5.990000000000000000e+02 6.000000000000000000e+02 6.010000000000000000e+02 6.020000000000000000e+02 6.030000000000000000e+02 6.040000000000000000e+02 6.050000000000000000e+02 6.060000000000000000e+02 6.070000000000000000e+02 6.080000000000000000e+02 6.090000000000000000e+02 6.100000000000000000e+02 6.110000000000000000e+02 6.120000000000000000e+02 6.130000000000000000e+02 6.140000000000000000e+02 6.150000000000000000e+02 6.160000000000000000e+02 6.170000000000000000e+02 6.180000000000000000e+02 6.190000000000000000e+02 6.200000000000000000e+02 6.210000000000000000e+02 6.220000000000000000e+02 6.230000000000000000e+02 6.240000000000000000e+02 6.250000000000000000e+02 6.260000000000000000e+02 6.270000000000000000e+02 6.280000000000000000e+02 6.290000000000000000e+02 6.300000000000000000e+02 6.310000000000000000e+02 6.320000000000000000e+02 6.330000000000000000e+02 6.340000000000000000e+02 6.350000000000000000e+02 6.360000000000000000e+02 6.370000000000000000e+02 6.380000000000000000e+02 6.390000000000000000e+02 6.400000000000000000e+02 6.410000000000000000e+02 6.420000000000000000e+02 6.430000000000000000e+02 6.440000000000000000e+02 6.450000000000000000e+02 6.460000000000000000e+02 6.470000000000000000e+02 6.480000000000000000e+02 6.490000000000000000e+02 6.500000000000000000e+02 6.510000000000000000e+02 6.520000000000000000e+02 6.530000000000000000e+02 6.540000000000000000e+02 6.550000000000000000e+02 6.560000000000000000e+02 6.570000000000000000e+02 6.580000000000000000e+02 6.590000000000000000e+02 6.600000000000000000e+02 6.610000000000000000e+02 6.620000000000000000e+02 6.630000000000000000e+02 6.640000000000000000e+02 6.650000000000000000e+02 6.660000000000000000e+02 6.670000000000000000e+02 6.680000000000000000e+02 6.690000000000000000e+02 6.700000000000000000e+02 6.710000000000000000e+02 6.720000000000000000e+02 6.730000000000000000e+02 6.740000000000000000e+02 6.750000000000000000e+02 6.760000000000000000e+02 6.770000000000000000e+02 6.780000000000000000e+02 6.790000000000000000e+02 6.800000000000000000e+02 6.810000000000000000e+02 6.820000000000000000e+02 6.830000000000000000e+02 6.840000000000000000e+02 6.850000000000000000e+02 6.860000000000000000e+02 6.870000000000000000e+02 6.880000000000000000e+02 6.890000000000000000e+02 6.900000000000000000e+02 6.910000000000000000e+02 6.920000000000000000e+02 6.930000000000000000e+02 6.940000000000000000e+02 6.950000000000000000e+02 6.960000000000000000e+02 6.970000000000000000e+02 6.980000000000000000e+02 6.990000000000000000e+02 7.000000000000000000e+02 7.010000000000000000e+02 7.020000000000000000e+02 7.030000000000000000e+02 7.040000000000000000e+02 7.050000000000000000e+02 7.060000000000000000e+02 7.070000000000000000e+02 7.080000000000000000e+02 7.090000000000000000e+02 7.100000000000000000e+02 7.110000000000000000e+02 7.120000000000000000e+02 7.130000000000000000e+02 7.140000000000000000e+02 7.150000000000000000e+02 7.160000000000000000e+02 7.170000000000000000e+02 7.180000000000000000e+02 7.190000000000000000e+02 7.200000000000000000e+02 7.210000000000000000e+02 7.220000000000000000e+02 7.230000000000000000e+02 7.240000000000000000e+02 7.250000000000000000e+02 7.260000000000000000e+02 7.270000000000000000e+02 7.280000000000000000e+02 7.290000000000000000e+02 7.300000000000000000e+02 7.310000000000000000e+02 7.320000000000000000e+02 7.330000000000000000e+02 7.340000000000000000e+02 7.350000000000000000e+02 7.360000000000000000e+02 7.370000000000000000e+02 7.380000000000000000e+02 7.390000000000000000e+02 7.400000000000000000e+02 7.410000000000000000e+02 7.420000000000000000e+02 7.430000000000000000e+02 7.440000000000000000e+02 7.450000000000000000e+02 7.460000000000000000e+02 7.470000000000000000e+02 7.480000000000000000e+02 7.490000000000000000e+02 7.500000000000000000e+02 7.510000000000000000e+02 7.520000000000000000e+02 7.530000000000000000e+02 7.540000000000000000e+02 7.550000000000000000e+02 7.560000000000000000e+02 7.570000000000000000e+02 7.580000000000000000e+02 7.590000000000000000e+02 7.600000000000000000e+02 7.610000000000000000e+02 7.620000000000000000e+02 7.630000000000000000e+02 7.640000000000000000e+02 7.650000000000000000e+02 7.660000000000000000e+02 7.670000000000000000e+02 7.680000000000000000e+02 7.690000000000000000e+02 7.700000000000000000e+02 7.710000000000000000e+02 7.720000000000000000e+02 7.730000000000000000e+02 7.740000000000000000e+02 7.750000000000000000e+02 7.760000000000000000e+02 7.770000000000000000e+02 7.780000000000000000e+02 7.790000000000000000e+02 7.800000000000000000e+02 7.810000000000000000e+02 7.820000000000000000e+02 7.830000000000000000e+02 7.840000000000000000e+02 7.850000000000000000e+02 7.860000000000000000e+02 7.870000000000000000e+02 7.880000000000000000e+02 7.890000000000000000e+02 7.900000000000000000e+02 7.910000000000000000e+02 7.920000000000000000e+02 7.930000000000000000e+02 7.940000000000000000e+02 7.950000000000000000e+02 7.960000000000000000e+02 7.970000000000000000e+02 7.980000000000000000e+02 7.990000000000000000e+02 8.000000000000000000e+02 8.010000000000000000e+02 8.020000000000000000e+02 8.030000000000000000e+02 8.040000000000000000e+02 8.050000000000000000e+02 8.060000000000000000e+02 8.070000000000000000e+02 8.080000000000000000e+02 8.090000000000000000e+02 8.100000000000000000e+02 8.110000000000000000e+02 8.120000000000000000e+02 8.130000000000000000e+02 8.140000000000000000e+02 8.150000000000000000e+02 8.160000000000000000e+02 8.170000000000000000e+02 8.180000000000000000e+02 8.190000000000000000e+02 8.200000000000000000e+02 8.210000000000000000e+02 8.220000000000000000e+02 8.230000000000000000e+02 8.240000000000000000e+02 8.250000000000000000e+02 8.260000000000000000e+02 8.270000000000000000e+02 8.280000000000000000e+02 8.290000000000000000e+02 8.300000000000000000e+02 8.310000000000000000e+02 8.320000000000000000e+02 8.330000000000000000e+02 8.340000000000000000e+02 8.350000000000000000e+02 8.360000000000000000e+02 8.370000000000000000e+02 8.380000000000000000e+02 8.390000000000000000e+02 8.400000000000000000e+02 8.410000000000000000e+02 8.420000000000000000e+02 8.430000000000000000e+02 8.440000000000000000e+02 8.450000000000000000e+02 8.460000000000000000e+02 8.470000000000000000e+02 8.480000000000000000e+02 8.490000000000000000e+02 8.500000000000000000e+02 8.510000000000000000e+02 8.520000000000000000e+02 8.530000000000000000e+02 8.540000000000000000e+02 8.550000000000000000e+02 8.560000000000000000e+02 8.570000000000000000e+02 8.580000000000000000e+02 8.590000000000000000e+02 8.600000000000000000e+02 8.610000000000000000e+02 8.620000000000000000e+02 8.630000000000000000e+02 8.640000000000000000e+02 8.650000000000000000e+02 8.660000000000000000e+02 8.670000000000000000e+02 8.680000000000000000e+02 8.690000000000000000e+02 8.700000000000000000e+02 8.710000000000000000e+02 8.720000000000000000e+02 8.730000000000000000e+02 8.740000000000000000e+02 8.750000000000000000e+02 8.760000000000000000e+02 8.770000000000000000e+02 8.780000000000000000e+02 8.790000000000000000e+02 8.800000000000000000e+02 8.810000000000000000e+02 8.820000000000000000e+02 8.830000000000000000e+02 8.840000000000000000e+02 8.850000000000000000e+02 8.860000000000000000e+02 8.870000000000000000e+02 8.880000000000000000e+02 8.890000000000000000e+02 8.900000000000000000e+02 8.910000000000000000e+02 8.920000000000000000e+02 8.930000000000000000e+02 8.940000000000000000e+02 8.950000000000000000e+02 8.960000000000000000e+02 8.970000000000000000e+02 8.980000000000000000e+02 8.990000000000000000e+02 9.000000000000000000e+02 9.010000000000000000e+02 9.020000000000000000e+02 9.030000000000000000e+02 9.040000000000000000e+02 9.050000000000000000e+02 9.060000000000000000e+02 9.070000000000000000e+02 9.080000000000000000e+02 9.090000000000000000e+02 9.100000000000000000e+02 9.110000000000000000e+02 9.120000000000000000e+02 9.130000000000000000e+02 9.140000000000000000e+02 9.150000000000000000e+02 9.160000000000000000e+02 9.170000000000000000e+02 9.180000000000000000e+02 9.190000000000000000e+02 9.200000000000000000e+02 9.210000000000000000e+02 9.220000000000000000e+02 9.230000000000000000e+02 9.240000000000000000e+02 9.250000000000000000e+02 9.260000000000000000e+02 9.270000000000000000e+02 9.280000000000000000e+02 9.290000000000000000e+02 9.300000000000000000e+02 9.310000000000000000e+02 9.320000000000000000e+02 9.330000000000000000e+02 9.340000000000000000e+02 9.350000000000000000e+02 9.360000000000000000e+02 9.370000000000000000e+02 9.380000000000000000e+02 9.390000000000000000e+02 9.400000000000000000e+02 9.410000000000000000e+02 9.420000000000000000e+02 9.430000000000000000e+02 9.440000000000000000e+02 9.450000000000000000e+02 9.460000000000000000e+02 9.470000000000000000e+02 9.480000000000000000e+02 9.490000000000000000e+02 9.500000000000000000e+02 9.510000000000000000e+02 9.520000000000000000e+02 9.530000000000000000e+02 9.540000000000000000e+02 9.550000000000000000e+02 9.560000000000000000e+02 9.570000000000000000e+02 9.580000000000000000e+02 9.590000000000000000e+02 9.600000000000000000e+02 9.610000000000000000e+02 9.620000000000000000e+02 9.630000000000000000e+02 9.640000000000000000e+02 9.650000000000000000e+02 9.660000000000000000e+02 9.670000000000000000e+02 9.680000000000000000e+02 9.690000000000000000e+02 9.700000000000000000e+02 9.710000000000000000e+02 9.720000000000000000e+02 9.730000000000000000e+02 9.740000000000000000e+02 9.750000000000000000e+02 9.760000000000000000e+02 9.770000000000000000e+02 9.780000000000000000e+02 9.790000000000000000e+02 9.800000000000000000e+02 9.810000000000000000e+02 9.820000000000000000e+02 9.830000000000000000e+02 9.840000000000000000e+02 9.850000000000000000e+02 9.860000000000000000e+02 9.870000000000000000e+02 9.880000000000000000e+02 9.890000000000000000e+02 9.900000000000000000e+02 9.910000000000000000e+02 9.920000000000000000e+02 9.930000000000000000e+02 9.940000000000000000e+02 9.950000000000000000e+02 9.960000000000000000e+02 9.970000000000000000e+02 9.980000000000000000e+02 9.990000000000000000e+02
1.000000000000000000e+00 1.000000000000000000e+00 1.000000000000000000e+00 1.000000000000000000e+00 1.000000000000000000e+00 1.000000000000000000e+00 1.000000000000000000e+00 1.000000000000000000e+00 1.000000000000000000e+00 1.000000000000000000e+00 1.000000000000000000e+00 1.000000000000000000e+00 1.000000000000000000e+00 1.000000000000000000e+00 1.000000000000000000e+00 1.000000000000000000e+00 1.000000000000000000e+00 1.000000000000000000e+00 1.000000000000000000e+00 1.000000000000000000e+00 1.000000000000000000e+00 1.000000000000000000e+00 1.000000000000000000e+00 1.000000000000000000e+00 1.000000000000000000e+00 1.000000000000000000e+00 1.000000000000000000e+00 1.000000000000000000e+00 1.000000000000000000e+00 1.000000000000000000e+00 1.000000000000000000e+00 1.000000000000000000e+00 1.000000000000000000e+00 1.000000000000000000e+00 1.000000000000000000e+00 1.000000000000000000e+00 1.000000000000000000e+00 1.000000000000000000e+00 1.000000000000000000e+00 1.000000000000000000e+00 1.000000000000000000e+00 1.000000000000000000e+00 1.000000000000000000e+00 1.000000000000000000e+00 1.000000000000000000e+00 1.000000000000000000e+00 1.000000000000000000e+00 1.000000000000000000e+00 1.000000000000000000e+00 1.000000000000000000e+00 1.000000000000000000e+00 1.000000000000000000e+00 1.000000000000000000e+00 1.000000000000000000e+00 1.000000000000000000e+00 1.000000000000000000e+00 1.000000000000000000e+00 1.000000000000000000e+00 1.000000000000000000e+00 1.000000000000000000e+00 1.000000000000000000e+00 1.000000000000000000e+00 1.000000000000000000e+00 1.000000000000000000e+00 1.000000000000000000e+00 1.000000000000000000e+00 1.000000000000000000e+00 1.000000000000000000e+00 1.000000000000000000e+00 1.000000000000000000e+00 1.000000000000000000e+00 1.000000000000000000e+00 1.000000000000000000e+00 1.000000000000000000e+00 1.000000000000000000e+00 1.000000000000000000e+00 1.000000000000000000e+00 1.000000000000000000e+00 1.000000000000000000e+00 1.000000000000000000e+00 1.000000000000000000e+00 1.000000000000000000e+00 1.000000000000000000e+00 1.000000000000000000e+00 1.000000000000000000e+00 1.000000000000000000e+00 1.000000000000000000e+00 1.000000000000000000e+00 1.000000000000000000e+00 1.000000000000000000e+00 1.000000000000000000e+00 1.000000000000000000e+00 1.000000000000000000e+00 1.000000000000000000e+00 1.000000000000000000e+00 1.000000000000000000e+00 1.000000000000000000e+00 1.000000000000000000e+00 1.000000000000000000e+00 1.000000000000000000e+00 1.000000000000000000e+00 1.000000000000000000e+00 1.000000000000000000e+00 1.000000000000000000e+00 1.000000000000000000e+00 1.000000000000000000e+00 1.000000000000000000e+00 1.000000000000000000e+00 1.000000000000000000e+00 1.000000000000000000e+00 1.000000000000000000e+00 1.000000000000000000e+00 1.000000000000000000e+00 1.000000000000000000e+00 1.000000000000000000e+00 1.000000000000000000e+00 1.000000000000000000e+00 1.000000000000000000e+00 1.000000000000000000e+00 1.000000000000000000e+00 1.000000000000000000e+00 1.000000000000000000e+00 1.000000000000000000e+00 1.000000000000000000e+00 1.000000000000000000e+00 1.000000000000000000e+00 1.000000000000000000e+00 1.000000000000000000e+00 1.000000000000000000e+00 1.000000000000000000e+00 1.000000000000000000e+00 1.000000000000000000e+00 1.000000000000000000e+00 1.000000000000000000e+00 1.000000000000000000e+00 1.000000000000000000e+00 1.000000000000000000e+00 1.000000000000000000e+00 1.000000000000000000e+00 1.000000000000000000e+00 1.000000000000000000e+00 1.000000000000000000e+00 1.000000000000000000e+00 1.000000000000000000e+00 1.000000000000000000e+00 1.000000000000000000e+00 1.000000000000000000e+00 1.000000000000000000e+00 1.000000000000000000e+00 1.000000000000000000e+00 1.000000000000000000e+00 1.000000000000000000e+00 1.000000000000000000e+00 1.000000000000000000e+00 1.000000000000000000e+00 1.000000000000000000e+00 1.000000000000000000e+00 1.000000000000000000e+00 1.000000000000000000e+00 1.000000000000000000e+00 1.000000000000000000e+00 1.000000000000000000e+00 1.000000000000000000e+00 1.000000000000000000e+00 1.000000000000000000e+00 1.000000000000000000e+00 1.000000000000000000e+00 1.000000000000000000e+00 1.000000000000000000e+00 1.000000000000000000e+00 1.000000000000000000e+00 1.000000000000000000e+00 1.000000000000000000e+00 1.000000000000000000e+00 1.000000000000000000e+00 1.000000000000000000e+00 1.000000000000000000e+00 1.000000000000000000e+00 1.000000000000000000e+00 1.000000000000000000e+00 1.000000000000000000e+00 1.000000000000000000e+00 1.000000000000000000e+00 1.000000000000000000e+00 1.000000000000000000e+00 1.000000000000000000e+00 1.000000000000000000e+00 1.000000000000000000e+00 1.000000000000000000e+00 1.000000000000000000e+00 1.000000000000000000e+00 1.000000000000000000e+00 1.000000000000000000e+00 1.000000000000000000e+00 1.000000000000000000e+00 1.000000000000000000e+00 1.000000000000000000e+00 1.000000000000000000e+00 1.000000000000000000e+00 1.000000000000000000e+00 1.000000000000000000e+00 1.000000000000000000e+00 1.000000000000000000e+00 1.000000000000000000e+00 1.000000000000000000e+00 1.000000000000000000e+00 1.000000000000000000e+00 1.000000000000000000e+00 1.000000000000000000e+00 1.000000000000000000e+00 1.000000000000000000e+00 1.000000000000000000e+00 1.000000000000000000e+00 1.000000000000000000e+00 1.000000000000000000e+00 1.000000000000000000e+00 1.000000000000000000e+00 1.000000000000000000e+00 1.000000000000000000e+00 1.000000000000000000e+00 1.000000000000000000e+00 1.000000000000000000e+00 1.000000000000000000e+00 1.000000000000000000e+00 1.000000000000000000e+00 1.000000000000000000e+00 1.000000000000000000e+00 1.000000000000000000e+00 1.000000000000000000e+00 1.000000000000000000e+00 1.000000000000000000e+00 1.000000000000000000e+00 1.000000000000000000e+00 1.000000000000000000e+00 1.000000000000000000e+00 1.000000000000000000e+00 1.000000000000000000e+00 1.000000000000000000e+00 1.000000000000000000e+00 1.000000000000000000e+00 1.000000000000000000e+00 1.000000000000000000e+00 1.000000000000000000e+00 1.000000000000000000e+00 1.000000000000000000e+00 1.000000000000000000e+00 1.000000000000000000e+00 1.000000000000000000e+00 1.000000000000000000e+00 1.000000000000000000e+00 1.000000000000000000e+00 1.000000000000000000e+00 1.000000000000000000e+00 1.000000000000000000e+00 1.000000000000000000e+00 1.000000000000000000e+00 1.000000000000000000e+00 1.000000000000000000e+00 1.000000000000000000e+00 1.000000000000000000e+00 1.000000000000000000e+00 1.000000000000000000e+00 1.000000000000000000e+00 1.000000000000000000e+00 1.000000000000000000e+00 1.000000000000000000e+00 1.000000000000000000e+00 1.000000000000000000e+00 1.000000000000000000e+00 1.000000000000000000e+00 1.000000000000000000e+00 1.000000000000000000e+00 1.000000000000000000e+00 1.000000000000000000e+00 1.000000000000000000e+00 1.000000000000000000e+00 1.000000000000000000e+00 1.000000000000000000e+00 1.000000000000000000e+00 1.000000000000000000e+00 1.000000000000000000e+00 1.000000000000000000e+00 1.000000000000000000e+00 1.000000000000000000e+00 1.000000000000000000e+00 1.000000000000000000e+00 1.000000000000000000e+00 1.000000000000000000e+00 1.000000000000000000e+00 1.000000000000000000e+00 1.000000000000000000e+00 1.000000000000000000e+00 1.000000000000000000e+00 1.000000000000000000e+00 1.000000000000000000e+00 1.000000000000000000e+00 1.000000000000000000e+00 1.000000000000000000e+00 1.000000000000000000e+00 1.000000000000000000e+00 1.000000000000000000e+00 1.000000000000000000e+00 1.000000000000000000e+00 1.000000000000000000e+00 1.000000000000000000e+00 1.000000000000000000e+00 1.000000000000000000e+00 1.000000000000000000e+00 1.000000000000000000e+00 1.000000000000000000e+00 1.000000000000000000e+00 1.000000000000000000e+00 1.000000000000000000e+00 1.000000000000000000e+00 1.000000000000000000e+00 1.000000000000000000e+00 1.000000000000000000e+00 1.000000000000000000e+00 1.000000000000000000e+00 1.000000000000000000e+00 1.000000000000000000e+00 1.000000000000000000e+00 1.000000000000000000e+00 1.000000000000000000e+00 1.000000000000000000e+00 1.000000000000000000e+00 1.000000000000000000e+00 1.000000000000000000e+00 1.000000000000000000e+00 1.000000000000000000e+00 1.000000000000000000e+00 1.000000000000000000e+00 1.000000000000000000e+00 1.000000000000000000e+00 1.000000000000000000e+00 1.000000000000000000e+00 1.000000000000000000e+00 1.000000000000000000e+00 1.000000000000000000e+00 1.000000000000000000e+00 1.000000000000000000e+00 1.000000000000000000e+00 1.000000000000000000e+00 1.000000000000000000e+00 1.000000000000000000e+00 1.000000000000000000e+00 1.000000000000000000e+00 1.000000000000000000e+00 1.000000000000000000e+00 1.000000000000000000e+00 1.000000000000000000e+00 1.000000000000000000e+00 1.000000000000000000e+00 1.000000000000000000e+00 1.000000000000000000e+00 1.000000000000000000e+00 1.000000000000000000e+00 1.000000000000000000e+00 1.000000000000000000e+00 1.000000000000000000e+00 1.000000000000000000e+00 1.000000000000000000e+00 1.000000000000000000e+00 1.000000000000000000e+00 1.000000000000000000e+00 1.000000000000000000e+00 1.000000000000000000e+00 1.000000000000000000e+00 1.000000000000000000e+00 1.000000000000000000e+00 1.000000000000000000e+00 1.000000000000000000e+00 1.000000000000000000e+00 1.000000000000000000e+00 1.000000000000000000e+00 1.000000000000000000e+00 1.000000000000000000e+00 1.000000000000000000e+00 1.000000000000000000e+00 1.000000000000000000e+00 1.000000000000000000e+00 1.000000000000000000e+00 1.000000000000000000e+00 1.000000000000000000e+00 1.000000000000000000e+00 1.000000000000000000e+00 1.000000000000000000e+00 1.000000000000000000e+00 1.000000000000000000e+00 1.000000000000000000e+00 1.000000000000000000e+00 1.000000000000000000e+00 1.000000000000000000e+00 1.000000000000000000e+00 1.000000000000000000e+00 1.000000000000000000e+00 1.000000000000000000e+00 1.000000000000000000e+00 1.000000000000000000e+00 1.000000000000000000e+00 1.000000000000000000e+00 1.000000000000000000e+00 1.000000000000000000e+00 1.000000000000000000e+00 1.000000000000000000e+00 1.000000000000000000e+00 1.000000000000000000e+00 1.000000000000000000e+00 1.000000000000000000e+00 1.000000000000000000e+00 1.000000000000000000e+00 1.000000000000000000e+00 1.000000000000000000e+00 1.000000000000000000e+00 1.000000000000000000e+00 1.000000000000000000e+00 1.000000000000000000e+00 1.000000000000000000e+00 1.000000000000000000e+00 1.000000000000000000e+00 1.000000000000000000e+00 1.000000000000000000e+00 1.000000000000000000e+00 1.000000000000000000e+00 1.000000000000000000e+00 1.000000000000000000e+00 1.000000000000000000e+00 1.000000000000000000e+00 1.000000000000000000e+00 1.000000000000000000e+00 1.000000000000000000e+00 1.000000000000000000e+00 1.000000000000000000e+00 1.000000000000000000e+00 1.000000000000000000e+00 1.000000000000000000e+00 1.000000000000000000e+00 1.000000000000000000e+00 1.000000000000000000e+00 1.000000000000000000e+00 1.000000000000000000e+00 1.000000000000000000e+00 1.000000000000000000e+00 1.000000000000000000e+00 1.000000000000000000e+00 1.000000000000000000e+00 1.000000000000000000e+00 1.000000000000000000e+00 1.000000000000000000e+00 1.000000000000000000e+00 1.000000000000000000e+00 1.000000000000000000e+00 1.000000000000000000e+00 1.000000000000000000e+00 1.000000000000000000e+00 1.000000000000000000e+00 1.000000000000000000e+00 1.000000000000000000e+00 1.000000000000000000e+00 1.000000000000000000e+00 1.000000000000000000e+00 1.000000000000000000e+00 1.000000000000000000e+00 1.000000000000000000e+00 1.000000000000000000e+00 1.000000000000000000e+00 1.000000000000000000e+00 1.000000000000000000e+00 1.000000000000000000e+00 1.000000000000000000e+00 1.000000000000000000e+00 1.000000000000000000e+00 1.000000000000000000e+00 1.000000000000000000e+00 1.000000000000000000e+00 1.000000000000000000e+00 1.000000000000000000e+00 1.000000000000000000e+00 1.000000000000000000e+00 1.000000000000000000e+00 1.000000000000000000e+00 1.000000000000000000e+00 1.000000000000000000e+00 1.000000000000000000e+00 1.000000000000000000e+00 1.000000000000000000e+00 1.000000000000000000e+00 1.000000000000000000e+00 1.000000000000000000e+00 1.000000000000000000e+00 1.000000000000000000e+00 1.000000000000000000e+00 1.000000000000000000e+00 1.000000000000000000e+00 1.000000000000000000e+00 1.000000000000000000e+00 1.000000000000000000e+00 1.000000000000000000e+00 1.000000000000000000e+00 1.000000000000000000e+00 1.000000000000000000e+00 1.000000000000000000e+00 1.000000000000000000e+00 1.000000000000000000e+00 1.000000000000000000e+00 1.000000000000000000e+00 1.000000000000000000e+00 1.000000000000000000e+00 1.000000000000000000e+00 1.000000000000000000e+00 1.000000000000000000e+00 1.000000000000000000e+00 1.000000000000000000e+00 1.000000000000000000e+00 1.000000000000000000e+00 1.000000000000000000e+00 1.000000000000000000e+00 1.000000000000000000e+00 1.000000000000000000e+00 1.000000000000000000e+00 1.000000000000000000e+00 1.000000000000000000e+00 1.000000000000000000e+00 1.000000000000000000e+00 1.000000000000000000e+00 1.000000000000000000e+00 1.000000000000000000e+00 1.000000000000000000e+00 1.000000000000000000e+00 1.000000000000000000e+00 1.000000000000000000e+00 1.000000000000000000e+00 1.000000000000000000e+00 1.000000000000000000e+00 1.000000000000000000e+00 1.000000000000000000e+00 1.000000000000000000e+00 1.000000000000000000e+00 1.000000000000000000e+00 1.000000000000000000e+00 1.000000000000000000e+00 1.000000000000000000e+00 1.000000000000000000e+00 1.000000000000000000e+00 1.000000000000000000e+00 1.000000000000000000e+00 1.000000000000000000e+00 1.000000000000000000e+00 1.000000000000000000e+00 1.000000000000000000e+00 1.000000000000000000e+00 1.000000000000000000e+00 1.000000000000000000e+00 1.000000000000000000e+00 1.000000000000000000e+00 1.000000000000000000e+00 1.000000000000000000e+00 1.000000000000000000e+00 1.000000000000000000e+00 1.000000000000000000e+00 1.000000000000000000e+00 1.000000000000000000e+00 1.000000000000000000e+00 1.000000000000000000e+00 1.000000000000000000e+00 1.000000000000000000e+00 1.000000000000000000e+00 1.000000000000000000e+00 1.000000000000000000e+00 1.000000000000000000e+00 1.000000000000000000e+00 1.000000000000000000e+00 1.000000000000000000e+00 1.000000000000000000e+00 1.000000000000000000e+00 1.000000000000000000e+00 1.000000000000000000e+00 1.000000000000000000e+00 1.000000000000000000e+00 1.000000000000000000e+00 1.000000000000000000e+00 1.000000000000000000e+00 1.000000000000000000e+00 1.000000000000000000e+00 1.000000000000000000e+00 1.000000000000000000e+00 1.000000000000000000e+00 1.000000000000000000e+00 1.000000000000000000e+00 1.000000000000000000e+00 1.000000000000000000e+00 1.000000000000000000e+00 1.000000000000000000e+00 1.000000000000000000e+00 1.000000000000000000e+00 1.000000000000000000e+00 1.000000000000000000e+00 1.000000000000000000e+00 1.000000000000000000e+00 1.000000000000000000e+00 1.000000000000000000e+00 1.000000000000000000e+00 1.000000000000000000e+00 1.000000000000000000e+00 1.000000000000000000e+00 1.000000000000000000e+00 1.000000000000000000e+00 1.000000000000000000e+00 1.000000000000000000e+00 1.000000000000000000e+00 1.000000000000000000e+00 1.000000000000000000e+00 1.000000000000000000e+00 1.000000000000000000e+00 1.000000000000000000e+00 1.000000000000000000e+00 1.000000000000000000e+00 1.000000000000000000e+00 1.000000000000000000e+00 1.000000000000000000e+00 1.000000000000000000e+00 1.000000000000000000e+00 1.000000000000000000e+00 1.000000000000000000e+00 1.000000000000000000e+00 1.000000000000000000e+00 1.000000000000000000e+00 1.000000000000000000e+00 1.000000000000000000e+00 1.000000000000000000e+00 1.000000000000000000e+00 1.000000000000000000e+00 1.000000000000000000e+00 1.000000000000000000e+00 1.000000000000000000e+00 1.000000000000000000e+00 1.000000000000000000e+00 1.000000000000000000e+00 1.000000000000000000e+00 1.000000000000000000e+00 1.000000000000000000e+00 1.000000000000000000e+00 1.000000000000000000e+00 1.000000000000000000e+00 1.000000000000000000e+00 1.000000000000000000e+00 1.000000000000000000e+00 1.000000000000000000e+00 1.000000000000000000e+00 1.000000000000000000e+00 1.000000000000000000e+00 1.000000000000000000e+00 1.000000000000000000e+00 1.000000000000000000e+00 1.000000000000000000e+00 1.000000000000000000e+00 1.000000000000000000e+00 1.000000000000000000e+00 1.000000000000000000e+00 1.000000000000000000e+00 1.000000000000000000e+00 1.000000000000000000e+00 1.000000000000000000e+00 1.000000000000000000e+00 1.000000000000000000e+00 1.000000000000000000e+00 1.000000000000000000e+00 1.000000000000000000e+00 1.000000000000000000e+00 1.000000000000000000e+00 1.000000000000000000e+00 1.000000000000000000e+00 1.000000000000000000e+00 1.000000000000000000e+00 1.000000000000000000e+00 1.000000000000000000e+00 1.000000000000000000e+00 1.000000000000000000e+00 1.000000000000000000e+00 1.000000000000000000e+00 1.000000000000000000e+00 1.000000000000000000e+00 1.000000000000000000e+00 1.000000000000000000e+00 1.000000000000000000e+00 1.000000000000000000e+00 1.000000000000000000e+00 1.000000000000000000e+00 1.000000000000000000e+00 1.000000000000000000e+00 1.000000000000000000e+00 1.000000000000000000e+00 1.000000000000000000e+00 1.000000000000000000e+00 1.000000000000000000e+00 1.000000000000000000e+00 1.000000000000000000e+00 1.000000000000000000e+00 1.000000000000000000e+00 1.000000000000000000e+00 1.000000000000000000e+00 1.000000000000000000e+00 1.000000000000000000e+00 1.000000000000000000e+00 1.000000000000000000e+00 1.000000000000000000e+00 1.000000000000000000e+00 1.000000000000000000e+00 1.000000000000000000e+00 1.000000000000000000e+00 1.000000000000000000e+00 1.000000000000000000e+00 1.000000000000000000e+00 1.000000000000000000e+00 1.000000000000000000e+00 1.000000000000000000e+00 1.000000000000000000e+00 1.000000000000000000e+00 1.000000000000000000e+00 1.000000000000000000e+00 1.000000000000000000e+00 1.000000000000000000e+00 1.000000000000000000e+00 1.000000000000000000e+00 1.000000000000000000e+00 1.000000000000000000e+00 1.000000000000000000e+00 1.000000000000000000e+00 1.000000000000000000e+00 1.000000000000000000e+00 1.000000000000000000e+00 1.000000000000000000e+00 1.000000000000000000e+00 1.000000000000000000e+00 1.000000000000000000e+00 1.000000000000000000e+00 1.000000000000000000e+00 1.000000000000000000e+00 1.000000000000000000e+00 1.000000000000000000e+00 1.000000000000000000e+00 1.000000000000000000e+00 1.000000000000000000e+00 1.000000000000000000e+00 1.000000000000000000e+00 1.000000000000000000e+00 1.000000000000000000e+00 1.000000000000000000e+00 1.000000000000000000e+00 1.000000000000000000e+00 1.000000000000000000e+00 1.000000000000000000e+00 1.000000000000000000e+00 1.000000000000000000e+00 1.000000000000000000e+00 1.000000000000000000e+00 1.000000000000000000e+00 1.000000000000000000e+00 1.000000000000000000e+00 1.000000000000000000e+00 1.000000000000000000e+00 1.000000000000000000e+00 1.000000000000000000e+00 1.000000000000000000e+00 1.000000000000000000e+00 1.000000000000000000e+00 1.000000000000000000e+00 1.000000000000000000e+00 1.000000000000000000e+00 1.000000000000000000e+00 1.000000000000000000e+00 1.000000000000000000e+00 1.000000000000000000e+00 1.000000000000000000e+00 1.000000000000000000e+00 1.000000000000000000e+00 1.000000000000000000e+00 1.000000000000000000e+00 1.000000000000000000e+00 1.000000000000000000e+00 1.000000000000000000e+00 1.000000000000000000e+00 1.000000000000000000e+00 1.000000000000000000e+00 1.000000000000000000e+00 1.000000000000000000e+00 1.000000000000000000e+00 1.000000000000000000e+00 1.000000000000000000e+00 1.000000000000000000e+00 1.000000000000000000e+00 1.000000000000000000e+00 1.000000000000000000e+00 1.000000000000000000e+00 1.000000000000000000e+00 1.000000000000000000e+00 1.000000000000000000e+00 1.000000000000000000e+00 1.000000000000000000e+00 1.000000000000000000e+00 1.000000000000000000e+00 1.000000000000000000e+00 1.000000000000000000e+00 1.000000000000000000e+00 1.000000000000000000e+00 1.000000000000000000e+00 1.000000000000000000e+00 1.000000000000000000e+00 1.000000000000000000e+00 1.000000000000000000e+00 1.000000000000000000e+00 1.000000000000000000e+00 1.000000000000000000e+00 1.000000000000000000e+00 1.000000000000000000e+00 1.000000000000000000e+00 1.000000000000000000e+00 1.000000000000000000e+00 1.000000000000000000e+00 1.000000000000000000e+00 1.000000000000000000e+00 1.000000000000000000e+00 1.000000000000000000e+00 1.000000000000000000e+00 1.000000000000000000e+00 1.000000000000000000e+00 1.000000000000000000e+00 1.000000000000000000e+00 1.000000000000000000e+00 1.000000000000000000e+00 1.000000000000000000e+00 1.000000000000000000e+00 1.000000000000000000e+00 1.000000000000000000e+00 1.000000000000000000e+00 1.000000000000000000e+00 1.000000000000000000e+00 1.000000000000000000e+00 1.000000000000000000e+00 1.000000000000000000e+00 1.000000000000000000e+00 1.000000000000000000e+00 1.000000000000000000e+00 1.000000000000000000e+00 1.000000000000000000e+00 1.000000000000000000e+00 1.000000000000000000e+00 1.000000000000000000e+00 1.000000000000000000e+00 1.000000000000000000e+00 1.000000000000000000e+00 1.000000000000000000e+00 1.000000000000000000e+00 1.000000000000000000e+00 1.000000000000000000e+00 1.000000000000000000e+00 1.000000000000000000e+00 1.000000000000000000e+00 1.000000000000000000e+00 1.000000000000000000e+00 1.000000000000000000e+00 1.000000000000000000e+00 1.000000000000000000e+00 1.000000000000000000e+00 1.000000000000000000e+00 1.000000000000000000e+00 1.000000000000000000e+00 1.000000000000000000e+00 1.000000000000000000e+00 1.000000000000000000e+00 1.000000000000000000e+00 1.000000000000000000e+00 1.000000000000000000e+00 1.000000000000000000e+00 1.000000000000000000e+00 1.000000000000000000e+00 1.000000000000000000e+00 1.000000000000000000e+00 1.000000000000000000e+00 1.000000000000000000e+00 1.000000000000000000e+00 1.000000000000000000e+00 1.000000000000000000e+00 1.000000000000000000e+00 1.000000000000000000e+00 1.000000000000000000e+00 1.000000000000000000e+00 1.000000000000000000e+00 1.000000000000000000e+00 1.000000000000000000e+00 1.000000000000000000e+00 1.000000000000000000e+00 1.000000000000000000e+00 1.000000000000000000e+00 1.000000000000000000e+00 1.000000000000000000e+00 1.000000000000000000e+00 1.000000000000000000e+00 1.000000000000000000e+00 1.000000000000000000e+00 1.000000000000000000e+00 1.000000000000000000e+00 1.000000000000000000e+00 1.000000000000000000e+00 1.000000000000000000e+00 1.000000000000000000e+00 1.000000000000000000e+00 1.000000000000000000e+00 1.000000000000000000e+00 1.000000000000000000e+00 1.000000000000000000e+00 1.000000000000000000e+00 1.000000000000000000e+00 1.000000000000000000e+00 1.000000000000000000e+00 1.000000000000000000e+00 1.000000000000000000e+00 1.000000000000000000e+00 1.000000000000000000e+00 1.000000000000000000e+00 1.000000000000000000e+00 1.000000000000000000e+00 1.000000000000000000e+00 1.000000000000000000e+00 1.000000000000000000e+00 1.000000000000000000e+00 1.000000000000000000e+00 1.000000000000000000e+00 1.000000000000000000e+00 1.000000000000000000e+00 1.000000000000000000e+00 1.000000000000000000e+00 1.000000000000000000e+00 1.000000000000000000e+00 1.000000000000000000e+00 1.000000000000000000e+00 1.000000000000000000e+00 1.000000000000000000e+00 1.000000000000000000e+00 1.000000000000000000e+00 1.000000000000000000e+00 1.000000000000000000e+00 1.000000000000000000e+00 1.000000000000000000e+00 1.000000000000000000e+00 1.000000000000000000e+00 1.000000000000000000e+00 1.000000000000000000e+00 1.000000000000000000e+00 1.000000000000000000e+00 1.000000000000000000e+00 1.000000000000000000e+00 1.000000000000000000e+00 1.000000000000000000e+00 1.000000000000000000e+00 1.000000000000000000e+00 1.000000000000000000e+00 1.000000000000000000e+00 1.000000000000000000e+00 1.000000000000000000e+00 1.000000000000000000e+00 1.000000000000000000e+00 1.000000000000000000e+00 1.000000000000000000e+00 1.000000000000000000e+00 1.000000000000000000e+00 1.000000000000000000e+00 1.000000000000000000e+00 1.000000000000000000e+00 1.000000000000000000e+00 1.000000000000000000e+00 1.000000000000000000e+00 1.000000000000000000e+00 1.000000000000000000e+00 1.000000000000000000e+00 1.000000000000000000e+00 1.000000000000000000e+00 1.000000000000000000e+00 1.000000000000000000e+00 1.000000000000000000e+00 1.000000000000000000e+00 1.000000000000000000e+00 1.000000000000000000e+00 1.000000000000000000e+00 1.000000000000000000e+00 1.000000000000000000e+00 1.000000000000000000e+00 1.000000000000000000e+00 1.000000000000000000e+00 1.000000000000000000e+00 1.000000000000000000e+00 1.000000000000000000e+00 1.000000000000000000e+00 1.000000000000000000e+00 1.000000000000000000e+00 1.000000000000000000e+00 1.000000000000000000e+00 1.000000000000000000e+00 1.000000000000000000e+00 1.000000000000000000e+00
4.683357459476649581e-02 4.990752671603798651e-01 9.011416783226258165e-01 5.554646359649602072e-01 4.919687398853432314e-01 5.425676498488168908e-01 8.866777634355149651e-02 4.075579307989073974e-01 6.174083450185191557e-01 5.016609045438256143e-01 9.951409138671076793e-01 -1.936455232905916757e-01 1.079250003079801123e+00 4.855551132143446913e-01 4.969872676281233970e-01 6.578852416061848896e-01 8.717090387574840671e-01 6.811944358254283793e-01 6.100426594510773848e-01 4.749386635877315688e-01 4.609193406068715637e-01 8.375289038747057990e-01 4.880207914375650491e-01 4.869603435919983569e-01 5.990320783960457751e-01 7.905302692940995302e-01 3.615438293263147362e-01 5.255277531626748599e-01 4.783848892590948365e-01 7.548281116472452812e-01 4.971823958498465257e-01 4.979906759811761341e-01 7.628158725258180617e-01 4.343283580974951485e-01 7.091088214913492394e-01 4.753294599886491723e-01 7.472497675988049037e-01 6.523155563375572230e-01 1.728617389549096106e-01 4.944862916661580399e-01 5.998629567908224658e-01 -2.783177289634899965e-01 7.320291802254969005e-01 2.096325086997963827e-01 2.222815870707066377e-01 4.785916201510655443e-01 5.564555964139064059e-01 4.813521996628701838e-01 4.536832265148075805e-01 5.928734428098148684e-02 6.231649410803305478e-02 4.574194354347180247e-01 4.826251621680742732e-01 4.734993712212801631e-01 4.999239701539832659e-01 8.494671797321803886e-02 5.248084144333082790e-01 8.573828872885176366e-01 1.866917221498613499e-01 4.494690509472269446e-01 7.117854087740728142e-01 3.884777826972133363e-01 4.953396275819572647e-01 4.880209713619416689e-01 4.205943172681164133e-01 4.224563925309523515e-01 5.210372121977364657e-01 3.453826540401360723e-01 5.721967725879407718e-01 6.817217928656220394e-02 3.911662671940264180e-01 5.044057404364452601e-01 4.775630522891599616e-01 7.597297279530887404e-02 1.213512378959355820e+00 4.688669051349475536e-01 5.827780928485698508e-01 7.379201073426931989e-01 5.097115178383730960e-01 1.226546749587065666e+00 4.831074906503708966e-01 2.441684116015602757e-01 7.179526531462808725e-01 5.531667816160832363e-01 4.996614056942749182e-01 7.186933930847166918e-01 8.469559167818487833e-01 4.570715747556905462e-01 2.891416498793714096e-01 5.596248128864961258e-01 2.365522073354743571e-01 1.330489915992236094e+00 4.830031843432144312e-01 8.322846339162921769e-02 4.100693916617298984e-01 4.761948846303085126e-01 5.790032567619571857e-01 6.394388767024780096e-01 2.245562090355896212e-01 7.787578944412221205e-01 6.150761116092980929e-01 4.820979021383607344e-01 4.917637760122636759e-01 1.006223107886780044e+00 2.055877887787292968e-01 -9.481307512813481608e-01 -7.285571189609305609e-01 5.446964814966359647e-01 6.232363190216485549e-01 8.609273189517013813e-01 4.344757960065149249e-01 5.305546220223119613e-01 8.977172118665057710e-01 5.002190038806471062e-01 4.325738870531537494e-01 6.018375551644952193e-01 4.971260499668644917e-01 7.199974585400424898e-01 6.011834774919295743e-01 4.726059534401224616e-01 1.059712469882659436e+00 5.426797426821100556e-01 6.808814125673959827e-01 5.633118382855987205e-01 5.446600391894126370e-01 1.489977531604478544e+00 2.716315311977432478e-01 8.084054701943137466e-01 4.740816023447531613e-01 5.175794695758862973e-01 5.326033503484413067e-01 4.641526173692998025e-01 5.222069748899049735e-01 5.478274406996199719e-01 4.881506544585482166e-01 -2.302365375054248736e-03 9.532549987252377788e-01 -2.253821096917218644e-03 8.384157449212467084e-01 4.937752473948457954e-01 5.063712651226021100e-01 4.562543366817678470e-01 5.763140334867307146e-01 5.116759194766824503e-01 5.068592829281528545e-01 6.578516748407930992e-02 5.608425620635079101e-01 5.117767290240177180e-01 4.506281750767346383e-01 -3.563015539474790327e-01 7.545783465731078499e-01 6.184337903008368942e-02 4.786421858282859376e-01 4.720061985982364483e-01 7.137528613262441590e-01 6.455329022307814135e-01 5.247103652022296894e-01 5.899559994174210509e-01 7.722259838878098304e-01 7.787940072163678229e-01 4.886207718522732613e-01 5.560762736607616219e-01 4.723205971061159025e-01 5.056491292762251843e-01 1.113764777502674219e+00 -1.377956836091502046e-01 7.465618429434107695e-01 4.723413190045188115e-01 5.049888016077548336e-01 4.775065289411419278e-01 6.288165715350991780e-01 5.559424567519098970e-01 4.781286429708632713e-01 4.959947927309366067e-01 4.374512535604194730e-01 2.857901325466303405e-02 1.842658498059699390e-01 1.134395931976401317e-01 5.595236510501747640e-01 9.967455982054488350e-01 4.867238347638167539e-01 5.123572765918317229e-01 -2.190656264153677535e-01 7.468273884510726601e-01 4.926241081387608411e-01 5.769305441449332772e-01 5.224844213450069441e-01 5.185501400383248916e-01 1.553040972016412002e+00 6.604025462391713841e-01 3.871160421982576261e-01 -1.110919157846932959e-01 4.761050237693434384e-01 7.096742357935315049e-01 9.819347480740915624e-02 4.978549070123242659e-01 7.389176888004294064e-01 4.923302601447634985e-01 4.955499521201763291e-01 5.000387835711230800e-01 3.706026116564828388e-01 4.439459519813378496e-01 8.678733718018940557e-01 5.498548708970081300e-01 5.374138006193461825e-01 4.955496561932473676e-01 5.232770704969931241e-01 1.059565832586782719e+00 4.934271254030923592e-01 4.660275448873744675e-01 3.785324884435876669e-01 1.637331830052763115e-01 5.408499803936749339e-01 4.428436685447855181e-01 4.738958515223363754e-01 4.873671225424762166e-01 4.973283475151926147e-01 4.849158221197436003e-01 4.647026499194337190e-01 5.010024023038779362e-01 5.338745150652196569e-01 5.198153064164650061e-01 -2.617099852403862448e-01 6.177584166191892878e-01 7.641014169525751631e-01 4.195816135813307812e-01 6.922276436039530578e-01 4.202502820362131186e-01 7.521762166988048559e-01 8.161464279224250884e-01 -1.101938846131307881e-01 8.573436586751392863e-01 4.815987024087247104e-01 4.013994283224405768e-01 2.368996951692122627e-03 6.250100778247880129e-01 3.792319373242302727e-01 4.841317283650246051e-01 2.718393464252449529e-02 -2.000384435333565566e-02 6.526109735731988604e-01 4.964538492231437283e-01 1.188538681074669395e-01 5.297899071529715842e-01 4.945397250214422780e-01 1.049280857656618604e+00 -8.401710031265960388e-02 5.693507035689217011e-01 -8.223255395134989598e-01 7.478125060381408673e-01 6.444247005940686446e-01 4.828457580217567768e-01 5.224764264745926923e-01 4.880239047390699803e-01 5.595946965688707309e-01 4.736430238928206471e-01 4.709164880448086232e-01 4.084729077701650390e-01 6.032432850650202294e-01 1.356673080764361439e+00 4.241765102170719781e-01 5.558720828616939835e-01 4.172383120841125503e-01 4.184425769951797824e-01 7.176005670175337192e-01 4.645899715232308380e-01 1.663106964450442815e+00 5.080227810632896857e-01 4.146657319197744052e-01 9.658828352810061579e-01 4.330368587390046042e-01 7.060933225425903847e-01 4.982044995437904245e-01 4.844626610942087686e-01 4.948748571412784347e-01 5.186199711627438313e-01 1.605225532973496572e-01 8.700443285310436314e-01 8.480869216592438198e-01 -5.239184346744076709e-02 5.877830074958679818e-01 4.894855908305610348e-01 6.344401394552542373e-01 -2.715642254221624086e-01 3.419791824886957432e-01 7.043705863513969323e-01 4.779014179386553152e-01 4.922496312964810827e-01 6.018364075498879862e-01 5.828019154282652048e-01 4.773523144244412597e-01 6.955747292954066463e-01 5.694692887574630547e-01 5.608041814814872517e-01 6.476532627902990835e-02 4.942314679094296226e-01 1.536680156152755217e+00 4.722321489225209112e-01 5.239093955527142077e-01 4.508849897279158525e-01 -1.965679966448803828e+00 5.387051497474261152e-01 7.165534887137122722e-01 5.566229422111513836e-01 4.642644413217696941e-01 -5.134715503920479485e-01 4.961740230339521940e-01 4.919295549800395406e-01 4.998343422636895017e-01 4.690644975819313056e-01 7.538759094605868016e-01 5.309511604766470327e-01 3.421520387399489271e-01 5.463975722532663504e-01 4.979064626136742167e-01 5.006607542899929042e-01 5.060637442978022094e-01 5.552299007193040037e-01 4.972388999704606127e-01 9.719301474777003458e-01 6.596670822205596973e-02 1.810546326999023847e+00 1.840527539240563781e+00 5.606681662594253934e-01 1.324818251967405380e-01 4.350367519503393066e-01 3.637569582941810875e-01 4.803077316528123197e-01 1.053710783921494532e+00 5.075729590347884956e-01 9.527735949066422627e-01 4.951983394036442165e-01 4.698703351623271240e-01 1.097970791307287808e+00 6.517327995798637419e-01 6.219280748549723681e-01 4.971027237003394772e-01 6.598365932794789668e-01 -1.706368654036738208e+00 1.205862498565022811e+00 4.764700459798760224e-01 6.259390409604017602e-01 5.045916423812022433e-01 6.523155620935475740e-01 4.778422810800597165e-01 5.456347511928197891e-01 4.915011274762940419e-01 4.998462187453481254e-01 1.339760839063741882e+00 3.304360722971437236e-01 4.955490419761057197e-01 5.298146913469164998e-01 5.498548708969750454e-01 3.260836448832408752e-01 4.132558845932559066e-01 7.570662619688439676e-01 4.764134554144544564e-01 4.819537745985748578e-01 4.994615434335639148e-01 6.386395644456475118e-01 4.850305842993807293e-01 4.310795198930307270e-01 5.456320850330655947e-01 5.091651552767461064e-01 4.894475746850370235e-01 7.305512031922745120e-01 9.594756153847537883e-01 7.668358381756832376e-01 5.287170114093338036e-01 4.015213033477320614e-01 7.106254056966702093e-01 2.430965177951891626e-02 6.509407091908649967e-01 5.874341398004031545e-01 5.628187302418158344e-02 5.021090101908358694e-01 8.829321044334594859e-01 5.605329840322703649e-01 4.148355573392477069e-01 2.157131303485822216e-01 -1.842953590707374356e-01 -1.471820295774960874e+00 4.849718216629996803e-01 5.498548708920468764e-01 5.498548708922851302e-01 4.739034183089666508e-01 4.110604426544260392e-01 9.526083964682177663e-02 4.923567052592314752e-01 4.918400555739952384e-01 6.442808426500074015e-01 4.930986260191451143e-01 1.150618826493016389e+00 4.955496461162728350e-01 4.964636157573076303e-01 4.381626777305230314e-01 3.494434690551145306e-01 4.851237935489345898e-01 6.756458686371760169e-01 4.636217532026299382e-01 6.246425385775377093e-01 4.998740004272451132e-01 5.810282857879031648e-02 5.498548708872430524e-01 5.526629134487753836e-01 5.090146578437020342e-01 5.624748798071362854e-01 6.901197466452845264e-01 7.576117555065511322e-01 5.464418893231772767e-01 8.457551556169361495e-01 4.527007995536242446e-01 -1.077457268540180646e+00 5.551723435055725409e-01 1.140658135537414353e+00 4.901667628796596010e-01 -3.388123371563952491e-01 4.849266111116449229e-01 5.809908046836748108e-01 9.449719367130136050e-01 4.985694517412974647e-01 7.053152723707533100e-01 5.159739948801502774e-01 9.417634285192834076e-01 4.699007199578193461e-01 6.995712664737804287e-01 4.733358491712789662e-01 5.093503626694605435e-01 6.572456672425381896e-01 4.990824739363673990e-01 8.086544388402278072e-01 3.038175952523171630e-01 4.771928265912317446e-01 4.965592954218450705e-01 5.653701054266877524e-01 4.904163603762743406e-01 7.052133878454224236e-01 4.832786474166801960e-01 6.180541166643562789e-01 4.202127097871313777e-01 4.983106967221921368e-01 1.545674510876808294e-01 1.211863913917614888e-01 1.608033636308001668e-01 7.832500449321454505e-01 5.017640169176805776e-01 2.241706163101619076e+00 5.551485832198148618e-01 6.948226936006508536e-01 5.649112790067397638e-01 7.006301754203035914e-01 6.436804807487955804e-02 4.982918355838472091e-01 5.255428160265357418e-01 5.109950117465942299e-01 9.576008796617339058e-01 7.063626697286564671e-01 5.031586791776596623e-01 5.480020823965977561e-01 6.958133337535021834e-01 5.300364093941161148e-01 4.822156948823015932e-01 4.837562173291868883e-01 5.348282192758929687e-01 4.940832105345279723e-01 7.331691931010838603e-01 4.766872428525772420e-01 4.923430616322331810e-01 5.933190254088047816e-02 4.588185356968942363e-01 6.914175171129711972e-02 5.185273698736626580e-01 4.892323878249347224e-01 4.923442210368353389e-01 6.477306015956980634e-01 4.777941022451078767e-01 4.973841088153770351e-01 4.692666844966128514e-01 4.866691739018504381e-01 5.172594423000932418e-01 5.087166345622428087e-01 4.091870688214538365e-02 5.064114410631972429e-01 3.019465641688917623e-01 4.877308159783802499e-01 4.431910708631500162e-01 3.305080285920916072e-01 4.578508177038618787e-01 5.014821258181746400e-01 4.139474309280308240e-01 3.609643845353385783e-01 6.203213702677019548e-01 8.223188505014579208e-01 5.904934853315301213e-01 5.211281454068058538e-01 5.733622651168749362e-01 1.417966772912879536e+00 4.870207900809334078e-01 4.763946733756702079e-01 6.338412114054323698e-01 5.686491475806431106e-01 2.173811734761154080e-01 4.483641488646842310e-01 -2.919778051892575332e-01 3.297126465615133339e-01 5.087515920833276528e-01 4.671212670599059757e-01 5.437379730075235784e-01 -1.027490488950281305e-02 4.361207462715315786e-01 5.114653531107068440e-01 6.967450799732419764e-01 5.409192407210315912e-01 4.761188095549379051e-01 4.938123327824485154e-01 5.164942801655918458e-01 3.653477512692048651e-02 4.877425953115490098e-01 7.613596782906254523e-01 4.249193065265801095e-01 7.277238581344425139e-02 4.224428608832774823e-01 7.341856057442490702e-01 4.925244239797203494e-01 3.456105492519871425e-01 9.056468981395940920e-01 8.473188109667990631e-01 4.907598919797974135e-01 4.014924649042086457e-01 4.182240781966700127e-01 5.561537927816768700e-01 3.363987072073202356e-01 6.954042150150139268e-01 6.507558110306611854e-02 5.920834282782129199e-01 3.444021434197906961e-01 6.595837159587680798e-01 5.482323618051924141e-01 6.839149079647682816e-01 1.872193183972706565e-01 5.375710090510139871e-04 -4.607759347899654384e-02 5.649441255889054991e-01 4.368362252914105293e-01 5.202028474508280098e-01 5.186878696190533322e-01 -3.399822470080829939e-01 2.216840250807627033e+00 5.677863490405412605e-01 5.065970273114493994e-01 1.055155239445938031e+00 5.005073923380514156e-01 5.362731422387611024e-01 4.514418937981505842e-01 5.518472090250067241e-01 5.651724274917141466e-01 4.947769519624244383e-01 4.779270052952842018e-01 5.447331651340452385e-01 5.219238237093082322e-01 4.705066992496096945e-01 4.189553963371323575e-01 5.701898288196257658e-01 4.837674521763010715e-01 5.286917675802156324e-01 6.210424439919938200e-01 1.711958086066320162e+00 4.807412391415962216e-01 5.030850057365944261e-01 5.365991514044988753e-01 5.330277792072611875e-01 5.788536194461538775e-01 4.954096518809369409e-01 4.766241557560765285e-01 4.034701314909724945e-01 4.521366420074288683e-01 3.677068737118877606e-01 5.559506477140711000e-01 4.961398588698294199e-01 6.043661519024695616e-01 1.029185864648106463e+00 9.687093855269072185e-01 3.102685151547159847e-01 7.196216385555715966e-01 4.349346466888566742e-01 4.151839509059269684e-01 1.628559069293976203e+00 2.353125767132649426e-01 4.322096502191147271e-01 4.799464882710307578e-01 2.889761500421705182e-02 4.427882964246562247e-01 1.154592587285766747e+00 4.153104154683516791e-01 7.550309006466799921e-01 4.900321863825262692e-01 5.073905001535935488e-01 4.739966909102301118e-01 4.775301442366280957e-01 5.062463349596388884e-01 4.880079453730087335e-01 4.716271735347581373e-01 4.328742570659679378e-01 5.626068695438372069e-01 4.558576887879699502e-01 4.093582656317518720e-01 4.718334831085214121e-01 4.507774895240133639e-01 7.197022368093866085e-01 3.932430730748385228e-01 5.491050207204479783e-01 6.336023192709978602e-01 -9.249007174718357205e-02 4.876026619442540566e-01 4.497508131024522404e-01 4.867068973771795370e-01 5.321912307238858553e-01 5.060558005489630418e-01 1.398709523638956009e-01 -8.993562585795635833e-01 4.162525866605217839e-01 4.399205739779173396e-01 6.267929786236148271e-01 4.929471213048617351e-01 5.499691289708273922e-01 5.561586511779126329e-01 -4.172688901421026109e-02 7.642091188539336111e-01 6.018411843553811424e-01 6.287055395168568150e-01 5.126631229610049134e-01 -1.068619649330752736e-01 -1.374520196807400563e-01 9.484595388894252466e-01 4.960074396925919227e-01 5.010175315428336829e-01 4.916850690926698464e-01 4.603631830071610587e-01 4.961765863526546028e-01 5.190455460769968221e-01 7.163463837973292891e-01 4.410380328356598989e-01 4.835939611045279585e-01 4.928490042933160176e-01 5.907526541945332665e-01 5.217063656530538385e-01 4.695043705258195033e-01 5.093026264999973574e-01 6.364372809289817745e-01 7.934953893590580565e-01 4.854402927960679848e-01 4.743328770375728753e-01 4.904378249366499465e-01 4.794665224938820525e-01 5.309968911124548496e-01 6.949608069166887669e-02 5.456348591243789237e-01 2.783810017095095790e-01 5.009080878168415962e-01 4.765735532691452447e-01 1.094177168680441348e+00 4.483132228806517294e-01 2.357528338324360873e-01 5.631177370903122092e-01 4.591023269392627282e-01 5.208921981118800337e-01 4.855308982455415756e-01 5.185657867016730815e-01 4.973446795274975574e-01 4.840645746884755241e-01 8.828459803109626192e-01 -2.966992802079017055e-01 1.287936972037717620e+00 8.700663038968263763e-01 7.298206571211658389e-01 2.071905743466318506e-01 3.714223190392813567e-01 8.326776474223912539e-01 1.834962609645230669e-01 4.807163900938896117e-01 3.936241812348429403e-01 4.365893513455210845e-02 5.112236611979316114e-01 3.934096623097899648e-01 5.097384654108971791e-01 8.846212606054661975e-01 4.831031516959256034e-01 2.859542149780648357e-01 3.870530971493271188e-01 5.313018242691536219e-01 6.275950593684106460e-01 5.013293216901855143e-01 5.045643033647626563e-01 4.084833810680307820e-01 -4.691460153447913894e-01 4.290582693179984530e-01 5.495670790490800872e-01 4.912336509018936370e-01 5.564367519631553405e-01 7.087109496079805337e-01 7.487923476579199100e-01 -2.471919668458189001e-01 9.924853024000818147e-01 6.523155830579796532e-01 5.332257865287381993e-01 4.652711859443675602e-01 8.844978601218816960e-01 4.774709126247627111e-01 5.557695387566198297e-01 4.211954850080099066e-01 7.779902487523733257e-01 5.086451671329733637e-01 5.298005479374551241e-01 1.123165829474708000e+00 9.118487547273010363e-02 6.264871199197405982e-01 2.111788706181003811e-02 -4.428370318831862384e-01 -1.384627084730759017e-01 6.655294326493894630e-01 4.912365772528082819e-01 4.315542020718482474e-01 -2.533949035803114702e-01 4.970692803593129150e-01 5.869971404281687510e-02 6.500991940560434390e-01 6.345196991981216783e-01 4.694953855300190160e-01 4.779951754583540713e-01 4.826719952053928342e-01 6.150204558440298674e-01 7.357804749059357885e-01 2.346106016582519826e-01 5.243886437668144884e-01 5.892130350097957159e-01 5.130857513354073474e-01 9.599056224355617672e-01 4.547500148304216006e-01 7.023878427104840450e-01 5.031375936407265215e-01 1.315414890213740563e-02 7.078500304111636776e-01 4.472904335869233861e-01 5.043443874432665952e-01 4.891986126222797049e-01 4.877034040568970497e-01 3.530922165921968614e-01 5.344383271807587876e-01 4.643890008334533026e-01 7.075687702378231636e-01 5.070867930516973487e-01 7.487056988890333775e-01 1.769044233326523496e+00 -6.122424680288256899e-02 4.484884540338829328e-01 4.988165149892789252e-01 4.550612298629216901e-01 6.848976252142464638e-01 5.592783800828319274e-01 -4.814507246263070028e-01 5.121548178571527776e-01 1.849085968539470493e+00 5.115451099004748592e-01 4.584151448282788310e-01 4.217799886042412072e-01 6.018378725500768134e-01 6.365668171425212796e-01 9.894434280309333252e-01 4.997694960346786841e-01 2.115402465295826775e-02 5.224029869932599324e-01 7.402357158095497214e-01 3.143910939998196818e-01 6.763747947997595933e-01 5.028137689582695691e-01 6.876156206287499240e-01 4.163537572973410317e-01 3.666394794709684213e-01 5.593465856737202604e-03 5.153608497812650624e-01 4.762054129762470223e-01 -3.022019139191031156e-01 6.647666936457695686e-01 9.613112698806099976e-01 2.818717896834830872e-01 5.198584700045665308e-01 9.215379481625526337e-01 5.183920363867332570e-01 1.608823979409299998e+00 3.561546203409878819e-01 5.950482760605201038e-02 3.855554171546371478e-01 4.836262057530883451e-01 2.617580259372497276e-01 4.663675616596278939e-01 -8.211058048280296673e-03 4.868931672403575828e-01 -6.024768009573323868e-02 4.961930474894633014e-01 5.190209253366002695e-01 7.984098120277488553e-02 8.129288496723628688e-02 6.002693824349200069e-01 6.654367823382539848e-01 5.139279880532441336e-01 5.726250361510070164e-01 7.572834317305631169e-01 5.104729418080238279e-01 5.173103485371706167e-01 3.565217971257592655e-01 5.550115519173145495e-01 3.114261081582240243e-01 9.223470959584253448e-01 2.201447676108210683e+00 5.259193348743550489e-01 4.816550403512704359e-01 4.953287428552065608e-01 3.617203323826467809e-02 4.967110284230729089e-01 5.237607114693394461e-01 5.016839334126670380e-01 1.237794722722257656e+00 4.914180757850384884e-01 -2.768099902823102920e-01 1.268052100409224059e-01 4.025149015886444470e-01 5.672164912931810798e-01 5.101463485394660546e-01 4.828561977785037485e-01 4.602897044674220117e-02 4.990040436265491541e-01 5.522137608565026445e-01 -1.015569734136617441e+00 4.443702455892400982e-01 4.726499130906460788e-01 9.047871139899876791e-01 6.064906559232584593e-01 5.236475528206001595e-01 7.928398169426837949e-01 -3.911860992261219083e-01 -3.744435573364002789e-01 -2.532777978553298059e-02 5.177904115408465957e-01 4.025027675715939224e-01 1.195696851230152014e+00 5.061330090846628549e-01 -4.199947895597366115e-02 9.111389186550176156e-01 5.181229712965909062e-01 6.329115875307266270e-01 4.189067602395252221e-01 4.756080736081199078e-01 3.465288461632192729e-01 -2.266192202867272909e-01 3.419309640917357340e-01 5.291541666168773084e-01 3.123037439817289429e-01 5.070121150495467965e-01 3.443508965218761708e-01 5.016971191782286787e-01 4.915867834290201244e-01 4.733594293967549604e-01 6.163529459645349373e-01 5.073151677362112144e-01 6.523155086093106458e-01 3.166380016065837300e-01 4.982915895185462962e-01 1.512480790595765734e-01 4.807853554112167527e-01 5.069277832653483751e-01 4.934039481576995567e-01 2.989347017319091138e-01 2.271417238460247401e-01 6.689654751968319157e-01 4.285861142093512210e-01 3.332796188675311577e-01 4.903766995382918270e-01 4.962994009309938392e-01 4.107975234637459283e-01 4.966854051427191941e-01 4.997571815667034012e-01 9.926201708502631060e-01 7.436873827959004091e-01 -2.082464213432961009e-01 3.256641667896184589e-01 6.245303605622012366e-01 4.572132912886144873e-01 3.174758242383146634e-01 4.717386306455027545e-01 1.561924326745274538e-01 -1.069491848811636447e-02 8.392623634198528304e-01 4.241444238689575097e-01 5.980908095211326936e-01 7.798864406351910805e-01 5.128392343245172791e-01 5.673288543827839092e-01 1.163792075605959431e+00 3.635802767245336353e-01 6.299517976053236046e-01 5.499425760618970038e-01 2.884260044585825744e-01 1.034778718465737546e+00 3.183424716113807396e-01 3.611823504250772365e-01 3.508624794891548326e-01 -2.284686683705361154e-01 6.508759272132383922e-01 7.924796051460888391e-01 -5.875796345568881085e-01 4.878265320323832421e-01 4.721464634096362301e-01 -2.534648935484733537e-02 4.745987315189214018e-01 6.057706752233787961e-01 5.305264797543215449e-01 5.091667884149351231e-01 4.251303052639440194e-01 3.901353868145965298e-01 4.732108262462995651e-01 4.764931684769534437e-01 4.912520636203430158e-01 1.360964888874904855e-01 1.167545024612003379e+00 5.119176595132165497e-01 9.430903475706982064e-01 5.936867653825010915e-01 -2.955387363323384586e-01 6.853859716525464441e-01 5.048704150374947464e-01 3.218333391981615388e-01 5.900637433486665556e-02 2.191775604447172288e-01 5.025311135945049745e-01 4.956043065706199902e-01 3.142442984966586916e-01 6.789482456052323145e-02 4.792115207267177435e-01 6.105431047757496898e-01 4.951945576108234826e-01 1.630569346501651751e+00 9.503535571544360350e-01 3.297755437695549796e-01 4.968938015346152648e-01 1.344487672600762851e+00 3.625020848164876019e-01 5.123281027175891067e-01 9.579134892608714980e-01 5.456352210824451099e-01 5.185150618972833581e-01 5.626634208330438813e-01 5.433061189330555818e-01 4.867459648907584424e-01 4.949718399619744136e-01 4.999903193549716796e-01 1.349147456328441130e-01 4.752914743807290510e-01 5.414414036196276703e-01 4.776066314947217673e-01 4.526186306044315821e-01 4.739206146897352867e-01 1.119171610515147797e-01 3.313612933235753899e-01 -3.269183173721348923e-01 -1.378331785198372572e-01 5.337400579530311440e-01 5.121710411646894778e-01 6.150497240321397552e-01 4.715883444877957964e-01 3.892142874821151732e-01 5.344904333082809433e-01 5.456346488695932306e-01 4.959574247725826446e-01 4.714211408511602142e-01 4.251829702302590275e-01 4.969225719482048276e-01 1.111797943579966530e+00 5.201595130415236357e-01 4.875763445004372976e-01 1.205318301631434080e-01 5.032040450603836312e-01 5.038246820471576903e-01 4.820589199812176928e-01 9.380774672964105054e-01 4.730989314505011922e-01 8.513556059567314316e-01 7.734984337819874600e-01 5.039991343473169128e-01 5.189637347361339970e-01 3.313769767264499455e-01 7.071122888166861964e-01 1.360146038813027314e+00 4.717052466026976365e-01 2.703629024949602555e-01 4.577658238402083080e-01 5.342315812773733574e-01 9.719063136467767094e-01 3.851975661442155197e-01 8.037852585585538723e-01 4.864001593805529766e-01
7.861133343216537561e-01 3.202560339557931068e-01 7.636354048877821432e-01 2.725737025791648560e-01 3.226129852135204423e-01 2.768643932812901443e-01 3.061182850920790011e-01 4.841153593560098556e-01 2.549588014050518936e-01 3.192495234018675188e-01 1.501396782736376334e+00 1.321830331560812644e+00 -7.572857830345021135e-01 3.293817364772664291e-01 1.478554641467942077e-01 4.296718225888753184e-01 2.808376028399668378e-01 3.416813668700819928e-01 3.065129244855085977e-01 3.447250359398347785e-01 4.711228188316628485e-01 1.424407496825013331e+00 4.700887770628747742e-01 3.148120150853248589e-01 1.718122622800236921e-01 -6.161006362859086094e-01 4.676571283359076681e-01 3.693010321219004077e-01 3.482932641236104465e-01 3.219368806578897652e-02 3.637173731573629110e-01 3.189752696428016510e-01 3.341924466401893778e-01 3.484616744041252878e-01 -4.325980119142765895e-02 3.634891985489234756e-01 1.588923240795162284e-01 3.073458653087147163e-01 -1.991851418797770057e+00 3.129682419812889749e-01 -8.431871889331905845e-02 1.341383086212941944e-01 -1.688945683259036185e-02 6.616323447077462339e-01 9.127754990236611743e-01 3.483145999616671928e-01 2.789094073131139773e-01 3.302682492638125411e-01 3.460682720459030137e-01 7.429908470551048749e-01 7.448248213433554810e-01 5.564512142263506878e-01 -7.378440234322291014e-01 3.492819459586051778e-01 3.225146124930308722e-01 8.221926282162513866e-01 3.063274897765086435e-01 1.866563722495536981e-01 3.950440491514737307e-01 3.233822107001255719e-01 3.720080175519455690e-01 2.761394917309497599e-01 3.069197168781281904e-01 4.700866056902133217e-01 3.188772607073146470e-01 4.037359761566624572e-01 3.589762014296291048e-01 2.968017550378448388e-01 2.731632274291099782e-01 7.338395089034043250e-01 5.348175854810749419e-01 3.332832932784886015e-01 3.476274272558187994e-01 7.703344521552111246e-01 1.382471234670240579e+00 3.889372851346004079e-01 3.655772159631720530e-01 3.197598776472371784e-01 3.023931510487292140e-01 -8.149470395315653315e-01 3.938199692166995391e-01 9.019262129188578836e-01 8.472978511914848188e-01 2.843345727097885134e-01 4.062572087799414811e-01 -7.010330307111164450e-01 -6.449478425402284387e-02 3.116100241154591277e-01 -3.230309212309330213e-01 -3.071334705354842876e-01 9.081342282583722003e-01 9.088233377980745598e-01 3.921398300533792125e-01 6.715610062237752365e-01 4.305497371488725133e-01 3.607565031759729646e-01 1.556125365735862576e-01 1.703265396977307888e-01 7.641512933921204009e-01 -6.210032168181204293e-01 1.961577940774552609e-01 3.745422917244525807e-01 3.060464855453742805e-01 3.148065114485278371e-01 2.746526523355267146e-01 1.874272623023713669e+00 -1.132021616231002059e-01 -6.512831367131576288e-01 2.194997683696338353e-01 6.139936840131848816e-01 4.013424749213851395e-01 2.835433470447688564e-01 3.827532506670464074e-01 3.470941318886628379e-01 -5.513783272002880098e-01 3.316893455657932699e-01 3.149390042229512909e-01 4.954349930213369779e-01 -3.094208361558536957e-01 2.337092304631137318e-01 -9.592589970764296980e-01 3.431857096658716966e-01 1.733998962708709068e-01 4.438343081809520418e-02 2.841906938731234011e-01 1.470738805540038552e+00 5.301632088672956211e-01 3.777315282306786814e-01 3.551890905879885318e-01 3.061646501084422378e-01 3.158949100001927079e-01 3.324012781364417135e-01 3.269858118706394645e-01 2.475147224895828946e-01 4.073429899344626071e-01 9.046589257943327134e-01 9.898256169814473315e-02 8.157208501684107826e-01 -1.886267002816486293e-01 3.288569920414185499e-01 2.990324257415795106e-01 3.186090866251691800e-01 4.148297656911543729e-01 3.232308963404104674e-01 3.344748041727936827e-01 7.837359397796130889e-01 6.729775981352025260e-01 3.294710120161082889e-01 1.394336289374728255e-01 3.196866442468012104e-01 -5.697197792453296827e-01 1.255261031806158556e-01 3.477525189110174386e-01 3.537504391049304808e-01 3.817154973185347133e-01 2.394976942819296573e-01 2.674060002813807291e-01 2.831477540527930770e-01 -4.229406884099476405e-01 -6.316455100124266364e-01 3.336519437064381921e-01 2.589315336900869374e-02 3.453909248844554969e-01 3.204384218383439786e-01 -4.651586500976078419e-03 -1.188892929003092791e-01 3.033086990588556575e-01 4.525966705576394133e-01 2.824565500592045031e-01 4.612775382239939215e-01 6.971753589987809141e-01 2.750880114339098181e-01 3.485025063821210467e-01 3.724305696365105001e-01 -1.684199053448220962e+00 7.844777043721665732e-01 8.441930030421739284e-01 9.260831658721717652e-01 -2.519026370993929786e-01 9.636824594184387749e-01 3.185537029372804696e-01 3.203947120915978108e-01 8.910195229884497747e-01 2.182267262068966207e-01 5.211731233870193769e-01 2.519409586785840149e-01 2.858330635312592571e-01 2.832736590906348995e-01 -3.020571630643613392e-02 1.865874027253124345e-01 1.911092118860290290e-01 5.140495932146706970e-01 2.993505321200164992e-01 1.818130322458490766e-01 2.544106571941544270e-02 2.799280861960702360e-01 -6.826020883313650423e-01 3.189199374844992052e-01 4.032325505105093799e-01 3.498741960509361704e-01 3.856103419873461169e-01 4.146218938588614455e-01 1.703650074269925374e-01 5.354194851482852596e-02 -9.200682117086872447e-01 4.032276692476433055e-01 2.629701642261439432e-01 -2.875527662970434606e-01 3.207815573237079443e-01 1.713558213762313986e-01 5.965953503493520715e-01 -1.997056335769733071e+00 3.026633950421923069e-01 6.527420773917856911e-01 3.174945724492141408e-01 3.478321310895747809e-01 3.250892453408036897e-01 3.282623988272126425e-01 3.779778639105578764e-01 3.261363878145232542e-01 2.868686391829131099e-01 1.963336718707681672e-01 4.786626377770176743e-01 8.467683891240848637e-02 1.993202048246881242e-01 4.642816038033503734e-01 5.762134312719777857e-02 4.329488043886578486e-01 1.288815828818934417e+00 -2.239078941821752086e-02 9.782173664755600129e-01 -1.077185606219581260e+00 3.569958119262898188e-01 4.226460485639771392e-01 2.619650722644417673e-01 2.420873987981594644e-01 -7.965931815238005975e-02 3.807454699710434709e-01 1.970276632525738980e-01 4.729337335669462350e-01 3.367641847338786465e-01 3.241897411122873773e-01 -7.843521097787342633e-01 2.744454352425312882e-01 3.296995247564679654e-01 6.609947072530167334e-02 1.020154525922966293e+00 3.025710436656190438e-01 1.662781504645745700e+00 1.391571785292066710e-01 1.392223662119932426e-01 3.359146308427969352e-01 2.927696717491192757e-01 4.700869946718583825e-01 3.897210180883683428e-01 3.473125675815913471e-01 -1.188490345461967190e-01 4.940582924729006176e-01 2.353730909389887271e-01 5.035504990164048067e-01 3.302630037371815930e-01 2.744715417441522809e-01 2.943194177653967181e-01 1.899992879210360419e-01 3.599700042752359552e-01 9.942464242045132017e-03 1.843745954610228610e+00 3.097354558182834894e-01 6.691310826292110603e-01 1.192195633108565633e-01 4.063329822957284509e-01 3.310201146709788045e-01 3.258201957599509146e-01 3.385423499332700925e-01 3.219808069373372161e-01 2.755655799840642239e-01 1.094395328699169223e-01 2.786528382525700342e-01 -6.226750940685363972e-02 1.057623564310032349e-01 1.100933895526647222e+00 3.596207126507767193e-01 -4.498551755841991712e-02 1.609597434617193734e+00 3.112988785661682245e-01 6.927455350119336996e-01 3.340240622035492435e-01 3.231088510844306594e-01 3.316889489124232870e-01 -1.444761964308167723e+00 3.664902387180468679e-01 2.000300301503757372e-01 2.658358379428525375e-01 -5.378706983764784955e-01 7.772043972992769278e-01 3.250333245554956618e-01 -4.220637851142524655e-01 3.824243589099342588e-01 2.987957813160880272e-01 1.375038261621234215e-01 -1.316303087488194523e-01 2.748928084419384743e-01 1.012390306539978496e-01 2.772811250362253732e-01 3.498025161542472339e-01 6.565008214120771068e-01 3.280955735567161469e-01 3.215836886170839737e-01 3.967325531337199118e-01 3.662608771569672572e-01 2.707087172758311788e-01 -4.849919308656457373e-01 1.120311285814186569e-01 2.998367225354360843e-01 3.243772680674796294e-01 3.181283688499342288e-01 3.159329447464672147e-01 2.765631810627513509e-01 3.264144605380094322e-01 1.651132955880764142e+00 7.398567405410839681e-01 2.413639653728797407e-01 -6.104233913164895942e-01 2.204051507245954611e-01 2.627841416671735431e+00 3.810609148438122151e-01 -3.097566343014406323e-03 5.065234230280519778e-01 -3.398789397670030077e+00 3.627362438402235156e-01 9.536959486248948181e-01 3.320730281288218344e-01 4.905486887097632587e-01 -2.821256289400503880e-01 2.841407810595140138e-01 2.522350626764036652e-01 3.130217300598501784e-01 3.788330647756931180e-01 1.671854954677043814e+00 -1.699235283011100717e-01 3.488601657503558884e-01 -1.481731520133512392e+00 3.235763868323389136e-01 3.073458630774236200e-01 3.987249408336229206e-01 2.138415875008470302e-01 2.961763183819977607e-01 2.420235136403481591e-01 1.324369119829322150e+00 4.067456969147364432e-01 4.032360814423081030e-01 2.744980988478473161e-01 5.354194851515765852e-02 2.021924909376642820e-01 4.205934970024424735e-01 -3.942000668442383060e-01 3.360398971805847457e-01 2.920070079570737942e-01 3.967616109278037095e-01 1.839767934292283469e-01 3.313160027519735928e-01 3.482844498522247312e-01 2.138397756766312885e-01 2.419154793824274952e-01 3.282045198512092421e-01 3.151721021250781796e-01 7.526891655929636160e-01 1.404696694451694761e+00 2.901290179256426072e-01 1.666615456372157744e-01 3.757687275367400104e-01 9.141523778717985937e-01 3.514189688922036425e-01 2.510828653928486864e-01 7.527183440931123348e-01 4.611647813114255201e-01 2.431622979001564766e-01 1.989293514141225738e-01 6.065456707515196610e-01 9.017481017088766482e-01 5.416249695972970013e-01 6.592395147007698020e-01 3.169323112091234629e-01 5.354194852555279466e-02 5.354194833700773315e-02 3.477731297282216083e-01 1.565895820100886571e-01 1.074167932274128878e+00 -1.935658332753774358e-02 3.284992529618833701e-01 2.773843909872470426e-01 3.226936249600920181e-01 9.115561409842862783e-01 4.032260067647694957e-01 3.402515707404777934e-01 3.986829399297410204e-01 -4.987296776505933948e-02 -4.092175151901608077e-01 1.320722424546717233e-01 3.217556814126438236e-01 1.494438771372925412e-01 3.466948986302957891e-01 7.993959514671789002e-01 5.354194855031249589e-02 -4.264945560293189053e-01 3.278292449106087192e-01 2.724903190063066583e-01 -3.737750083112075794e-01 1.255209094576950346e-01 -2.173827491505644804e+00 7.515554126072876429e-01 4.121406526170277029e-01 -3.076353184465554363e-02 2.757832674731842681e-01 1.376330477529709162e+00 3.211662981469257105e-01 4.439057693489837919e-01 6.834491222822773882e-01 2.219611045473708910e-01 1.769783315363849530e-01 3.274879479408270844e-01 8.007657076094125692e-01 3.077425133380454758e-01 1.392186757613472103e+00 2.358968951309955153e-01 4.303888084041507245e-01 3.428504280265488591e-01 2.983138540607845890e-01 -1.008789602513267436e+00 3.236450014663052599e-01 1.474647183691624452e-01 3.613734499956582358e-01 3.163087907747818561e-01 3.061692084068804998e-01 3.494162093054560825e-01 3.347839206189094363e-01 -1.132124415431993436e-01 3.243448963042711020e-01 8.451705123015743060e-02 3.472941652353797592e-01 2.847359584195505167e-01 5.392303775299160939e-01 7.352693036065154342e-01 8.462063579474398134e-01 -6.949220505385867996e-01 3.315302773663885150e-01 2.855722992271908858e-02 -4.194026046791635154e-01 1.625775825250054818e-01 3.181791580122600438e-01 3.035910568216540484e-01 7.726069603131374697e-01 3.169085442759584925e-01 3.255881755189314886e-01 3.019020793436906769e-01 1.501893921633099538e-01 -1.143129907504985415e-01 3.095960669616216743e-01 2.587963658883303819e-01 3.613774732498905573e-01 2.833420552284809379e-01 1.679974490298140333e-01 3.188369065449523365e-01 1.721497976972068134e-01 3.209620247608400700e-01 3.088998616395875474e-01 3.485345408507272147e-01 3.281970954353465864e-01 7.428089184675836787e-01 3.941503550473893780e-01 7.629431324958433347e-01 -7.294471947774411325e-02 3.227850738303206235e-01 3.261016269834401404e-01 -1.017032506534063518e+00 3.482906662013121046e-01 3.434787056100941371e-01 4.257148415366086014e-01 2.983497997193800266e-01 2.577901983170948763e-01 2.883848082392382883e-01 7.376392654449843711e-01 3.823250956548469581e-01 4.532467547892606863e-01 3.363985435976012406e-01 4.101580479005814128e-01 1.944749149256018439e-01 2.028047084623275098e-01 3.197627150587090683e-01 -4.840917608014309870e-02 5.336350145697212888e-01 3.247281561335216282e-01 1.021152553083954029e+00 3.168519136867705699e-01 4.424211620985136761e-01 2.578421457519415871e-01 -4.145672842434465766e-01 3.245264536193531724e-01 3.214872511620337492e-01 4.533846917179811253e-01 2.661468918275789464e-01 5.130050360189168934e-01 -5.560555821002018118e-02 7.736548257583127919e-01 3.626890814507021110e-01 2.233182245746871131e-01 3.411228498492357986e-01 2.027263089203230340e-01 5.712030618840360230e-01 1.998678271079032065e+00 3.022328437431660575e-01 1.979460462712738233e-01 5.492667241035265047e-01 3.506280303351352878e-01 3.209362174287717084e-01 2.962931122597883826e-01 5.889456960018354392e-01 3.218240400737300000e-01 6.228845761299973277e-02 5.345044089580350821e-01 5.449179929696325309e-02 -1.608208565964138193e-01 5.449201865062569539e-02 3.199269246196017602e-01 2.695448777303787735e-01 1.296651896258756764e+00 4.499162510562625394e-01 3.328345504591912474e-01 5.002235338068848902e-01 2.534786078844956658e-01 2.777048904360854831e-01 3.442838471069722961e-01 2.105807164713633384e-01 7.855828341505116663e-01 3.127867894442744046e-01 3.932702023352322995e-01 1.535457159418984474e-01 2.878908123196562419e-01 1.900943289371598843e-01 5.152513685625275119e-01 8.788741940265772934e-01 3.535252710811747079e-01 2.846589070589709003e-01 3.762237097367331917e-01 3.728693987385489073e-01 3.456631328585642038e-01 5.069586852299486912e-01 5.794219805257829758e-01 1.526122820802127134e-01 3.205676327083697985e-01 5.221559523079809528e-01 3.189621463214090680e-01 3.482484392169826193e-01 3.486914941308744686e-01 2.631162175605190057e-01 6.338520409502538255e-01 3.337145770923107269e-01 4.706777131970542594e-01 3.064928611487591215e-01 4.070820455676566474e-01 3.451144060989085882e-01 1.002819255193830861e+00 6.301939282688420740e-02 3.446532690033248802e-01 2.455921143485650104e-01 4.930061312144062846e-01 8.699386538774124267e-01 4.737616906773448044e-01 1.176170440247680249e-01 -1.564262163268260314e-03 3.028792616076568245e-01 2.520756775367712366e-01 3.184824891088015586e-01 3.170942328659300258e-01 4.215043583046776399e-01 3.813335016461055216e-01 3.863457811807056719e-01 2.766337026650719233e-01 3.467237311692990542e-01 2.604919515218128701e-01 8.049449462316543569e-01 -4.174129133885391002e-02 6.088446281875378174e-01 3.546525305159738961e-01 3.978672325303712065e-01 -8.585740698723611647e-03 4.528110365869097431e-01 9.065722616987268445e-01 3.274847836717568184e-01 5.632166880545389498e-01 1.174851305068261631e+00 3.305674736568673389e-01 1.329835356936846402e+00 4.740538373918871673e-01 1.995179064048647755e-01 3.280397401833599069e-01 2.945930360239079615e-01 3.497123634867418396e-01 4.612941978048339386e-01 3.295727215473056582e-01 3.242654763494802750e-01 1.531756162558879919e-01 2.665478596639992981e-01 4.167041351843161490e-01 3.822147831365269033e-01 3.819759577684608276e-01 3.436542706316418339e-01 1.345717772866138751e-01 3.542908561523391842e-01 3.596905937732917113e-01 2.590451128298916772e-01 4.264000865293843257e-02 1.353297039679722813e+00 3.288556344522153840e-01 3.904898819265308352e-01 3.233113787666616612e-01 2.278112023806080355e-01 3.270180071138279465e-01 -2.958933992352986486e+00 2.364249964219534483e+00 4.739872857580712529e-01 4.565299381574610682e-01 2.239989515845513535e-01 3.248464571397615130e-01 2.878196466860106773e-01 1.740288384219982332e+00 4.639270264784697284e-01 3.238063158822511722e-01 3.316893058810151951e-01 8.726528613744494178e-01 3.032052732456336219e-01 8.914030547709679286e-01 -2.991828535805963196e-01 -2.219268110428562757e-01 -4.622006440891761048e-01 4.978773413815582027e-01 3.270848360373100339e-01 3.515742158814881280e-01 4.166105411450494733e-01 3.109210225919067372e-01 1.644940853246078249e-01 3.938473537236097388e-01 3.374257674133421259e-01 4.040201873188026815e-01 2.643802115290883603e-01 3.171226506892013131e-01 3.556395434545932543e-01 3.467497736016846299e-01 4.209650952999612894e-01 9.647499530093529840e-02 3.397076470828689909e-01 3.482337494636111308e-01 3.226890724944031508e-01 3.451191133739218153e-01 4.278636684757901043e-01 7.390810572531928413e-01 2.138412268844894770e-01 5.272013978025431591e-01 3.265888179280247439e-01 4.837069849530337140e-01 1.943388647867980434e-01 -5.554209811148724113e-02 7.664807681313245968e-01 2.391742447966540563e-01 3.416965420266447895e-01 3.109997820205210317e-01 3.630776943036174709e-01 3.869768178260217795e-01 1.636059448312070785e-01 3.381743820712628246e-01 1.815385804869061870e-01 5.830460018149564716e-01 5.391107267482342369e-01 2.143720644571820433e-01 1.290572608795801379e+00 1.375246742700622360e-01 7.786993898696885352e-02 4.559567283833357854e-01 -3.989522621335155894e-01 3.226058545523748933e-01 2.263259491821404124e-01 7.370234706785080414e-01 3.097346623447858605e-01 4.002174487915641232e-01 2.645845356806946214e-01 2.091034792900887673e-01 3.322454202887666908e-01 6.779861262689794721e-01 3.126250984770596597e-01 2.576861643158874227e-01 2.486653766008370681e-01 3.172396862510154514e-01 3.172316579762257671e-01 4.029011087980682859e-01 3.356304806540981178e-01 -3.430002537724311518e-01 2.016354476351759906e-01 3.341521680388725990e-01 2.762752933284897128e-01 3.794471103119006483e-01 1.140667972334625357e+00 6.741740497711928848e-01 -6.593303353513173537e-01 3.073461354889607255e-01 3.212017374556183635e-01 -2.090878549858636859e+00 1.275325808271720485e+00 3.483297490040057620e-01 2.756987910246735396e-01 3.481800457274324412e-01 4.778971855611750530e-01 2.984912349412492949e-01 2.744903155977839182e-01 -2.862854978074699241e-01 7.922236498021856255e-01 1.094580194239953008e-01 9.259943027281847261e-01 1.519763430320876463e+00 -2.994028764819575694e-01 -9.957773057884758972e-01 3.310005571034714822e-01 6.063865594432409356e-01 9.749659053013112198e-01 3.857358783144863579e-01 7.907483743130320208e-01 -1.095902437941629476e-02 3.582723247967743996e-01 3.624654719274021941e-01 3.128539529339125491e-01 3.798574947147985714e-01 -1.965094214853992799e-02 8.160743340703958681e-01 7.553869753451403213e-01 2.873418136003823009e-01 1.638694190051254995e-01 2.097808283018232078e-01 1.599387976391241500e-02 3.633850562858227939e-01 1.551453996880045594e-01 3.171781183908660706e-01 7.876867248837691182e-01 7.981312471590150670e-01 3.878474432531279770e-01 3.337011983104899993e-01 3.024919927943639508e-01 3.297587773761856966e-01 1.149823059376280099e-02 2.812029586308054663e-01 3.577565869689623979e-01 5.372214407100229794e-01 2.868000729068867494e-01 4.818962452484459869e-01 7.854245069366957432e-01 9.212168207088548000e-01 1.703691101099863436e-01 3.271996857106851397e-01 3.284225894617861519e-01 -4.825260677436870455e-02 2.377976136820047492e-01 -8.620143231171117915e-01 3.327978102589609355e-01 5.370164395847271122e-01 3.056439891214817184e-01 3.337548820123018567e-01 9.811116672194910571e-01 3.316899575502871844e-01 2.397325823005568846e-01 3.288418842377862084e-01 1.513410950714328407e-01 7.979875665086352265e-01 4.458403799016889546e-01 9.943662008346693115e-02 4.945597224055324759e-01 1.618102678539622974e-01 3.135850125203977767e-01 3.627449600235214677e-01 4.412112035086183659e-01 7.818680479786146997e-02 2.018902532380620063e-01 3.944150501412926335e-01 3.440983885170803558e-01 7.753096622824048323e-01 9.845706396378114955e-02 -9.933472533066783905e-02 6.694227174803247804e-01 3.246540078284415598e-01 2.891699589779765933e-01 3.011972760743071298e-01 1.020790494215315647e+00 8.748409251759191319e-02 7.826107531149947283e-01 2.778897025396204756e-01 3.295504058515103529e-01 5.164377321422525258e-01 3.824779596275570959e-01 8.240785633701869228e-01 3.323205020733533965e-01 9.817511760958672618e-01 2.904892828220100864e-01 2.945396196153655111e-01 7.118658725874169590e-01 1.303833589690578908e-02 -1.454001494585676069e+00 2.345958699117523250e-01 3.039111562865622340e-01 2.557847114010972089e-01 7.564847599362347630e-01 3.078980413378596959e-01 3.519708782318900497e-01 4.924987820210511291e-01 2.925735076534369261e-01 4.784746749705534596e-01 -1.271869608017954123e+00 5.942744097820332749e-01 3.026051543405773314e-01 3.377448514038127181e-01 3.213797854326008174e-01 7.015673755441182990e-01 3.234110998640621903e-01 2.952928011207184289e-01 3.190093172580926173e-01 9.415623983397899410e-01 2.630559938616521265e-01 3.980863105386950873e-01 1.066093287480579521e+00 2.997540203851566387e-01 1.400956135788175905e+00 3.087886414463822393e-01 3.370692004783974460e-01 7.580090034175767100e-01 3.105628479483853455e-01 3.625725744683234164e-01 -5.777849441867072278e-01 3.279384254056806336e-01 3.505844148674537308e-01 4.370548252364523378e-01 1.914504101649551482e-01 4.694600050254399970e-01 -6.377281976589018742e-01 1.406989559975244442e+00 -3.811175462627862665e-01 4.413773644576241550e-01 3.254323050755114077e-01 3.512425810631785716e-01 4.155322262912136133e-01 2.690963875396865657e-01 8.501834356318722641e-01 -6.316131261433456656e-02 3.091700638746564533e-01 -4.784389833849407858e-01 4.525253615202365909e-01 3.508170895390196886e-01 -1.511906659462137759e+00 1.833784777198469884e+00 4.642849458163911813e-01 2.857274333613415984e-01 -6.543322216663068902e-01 3.431949362268447157e-01 6.115595728130888281e-02 3.371634380623446114e-01 3.146387468908988794e-01 5.461185220983877375e-01 1.849836336969307993e-01 3.084935744499378019e-01 3.073457676075777023e-01 6.161994572723932251e-01 3.146609862116665490e-01 -7.889376052641392523e-01 3.473018329218264810e-01 -4.318373651999063423e-01 3.138968832064832903e-01 -6.436112989887310398e-02 2.709093338513918203e-01 2.933087501769967576e-01 4.696383972986951094e-01 5.102279815501455928e-01 3.321563079764363602e-01 3.060859182208514606e-01 4.095420767183849398e-01 3.142036570995613287e-01 3.160666135093245788e-01 -6.589025767016067903e-01 1.489923899104097227e-01 1.196185494941397254e+00 5.769038953983424145e-03 2.805231665690601783e-01 3.583071280134932368e-01 1.182390571307196714e+00 3.417210855126002200e-01 2.464209093920115279e-01 9.034004953792817982e-01 1.699012846793912512e-01 1.062981269414476682e+00 3.468162847586443442e-01 4.347802343706212991e-01 3.088771932407158305e-01 2.758011123157908528e-01 1.151724631906666518e+00 4.541781366507257056e-01 2.486306495333445721e-01 2.989695273992310498e-01 3.853862566523088562e-01 1.072300544699808511e-01 -3.243837848858885931e-01 4.238463754509022019e-01 6.973989830523015243e-01 1.910460636097666975e-01 3.996964520383641251e-01 1.194284348672919327e-01 1.218968481233400958e+00 3.479493777893355455e-01 3.440425681874370589e-01 -1.504438642247139413e+00 3.484672214272230839e-01 3.060723310662445407e-01 2.792243909938497692e-01 1.575842033955835997e-01 3.643804643975758761e-01 7.737489415837683904e-02 1.237818001446291533e-01 3.490918281806622558e-01 3.124548247229150255e-01 1.055783776408100172e+00 1.023369206814450372e-01 3.172571525101737788e-01 -9.731908999808495109e-01 2.747420676610492496e-01 7.769930154392756805e-01 8.379615982261628959e-01 3.167074955146328419e-01 -2.567530586234262890e-01 7.645512766206756794e-01 3.692345345501058529e-01 3.087850721423962552e-01 3.121940316156544548e-01 6.202764563526124153e-01 7.414221129246899578e-01 3.380251263574437504e-01 2.987833140808741073e-01 3.196136550778534424e-01 5.900640538840321581e-01 5.878264041353421510e-01 -1.238757868058258937e+00 3.145414809137924705e-01 5.852800984829295561e-02 4.307984443388339635e-01 3.021769978241226617e-01 2.630745569102954096e-01 2.138412642733679703e-01 3.236325555958420863e-01 2.614203246453716822e-01 3.591486644670777162e-01 3.223264718050684041e-01 3.250984701994607540e-01 4.060533216445694760e-01 -9.129248743684548195e-02 3.431074696543685576e-01 2.561095220306657261e-01 3.585008089685560728e-01 3.251938003003109756e-01 3.262578663892894970e-01 3.019839625642259939e-01 3.278483301594823929e-01 6.310241569968799702e-01 4.280930696101808985e-01 2.833729455644589668e-01 3.051741938744015337e-01 -1.466429578507341569e+00 3.429544198578383662e-01 3.009654165257501235e-02 2.648825113559401534e-01 2.138415452877111544e-01 3.159306597641587389e-01 3.840106138660465684e-01 3.356232239078198454e-01 3.012334638036925361e-01 1.838061350303537012e-01 2.968742661264714977e-01 3.200816168102560422e-01 4.920931569212216861e-01 3.371554636158398677e-01 3.198892722752467721e-01 3.360123400996844478e-01 4.413131673863996962e-01 3.488461701328983144e-01 3.542219370538816636e-01 -3.958039420605788047e-03 2.954009238892057465e-01 3.161426952313024508e-01 1.716013484372207465e-01 -4.266415569618876580e-01 2.144100399543209967e+00 3.434195321656970390e-01 6.977261436766458713e-01 2.787080873454861885e-01 2.832766926667085738e-01 1.107514662382916404e+00 6.260425200355268505e-01 7.618849895587385124e-01 3.034933271961959833e-01
