# 
#                 ----------------------------------------------------
#                 Data from a 3D direct N-body simulation. 
# 
#                 rows are i-particle; 
#                 coumns are :mass, tag, x ,y, z, vx, vy, vz, ax, ay, az
# 
#                 NTHU, Computational Physics 
# 
#                 ----------------------------------------------------
#                 Time = 0.0
0.000000000000000000e+00 1.000000000000000000e+00 2.000000000000000000e+00 3.000000000000000000e+00 4.000000000000000000e+00 5.000000000000000000e+00 6.000000000000000000e+00 7.000000000000000000e+00 8.000000000000000000e+00 9.000000000000000000e+00 1.000000000000000000e+01 1.100000000000000000e+01 1.200000000000000000e+01 1.300000000000000000e+01 1.400000000000000000e+01 1.500000000000000000e+01 1.600000000000000000e+01 1.700000000000000000e+01 1.800000000000000000e+01 1.900000000000000000e+01 2.000000000000000000e+01 2.100000000000000000e+01 2.200000000000000000e+01 2.300000000000000000e+01 2.400000000000000000e+01 2.500000000000000000e+01 2.600000000000000000e+01 2.700000000000000000e+01 2.800000000000000000e+01 2.900000000000000000e+01 3.000000000000000000e+01 3.100000000000000000e+01 3.200000000000000000e+01 3.300000000000000000e+01 3.400000000000000000e+01 3.500000000000000000e+01 3.600000000000000000e+01 3.700000000000000000e+01 3.800000000000000000e+01 3.900000000000000000e+01 4.000000000000000000e+01 4.100000000000000000e+01 4.200000000000000000e+01 4.300000000000000000e+01 4.400000000000000000e+01 4.500000000000000000e+01 4.600000000000000000e+01 4.700000000000000000e+01 4.800000000000000000e+01 4.900000000000000000e+01 5.000000000000000000e+01 5.100000000000000000e+01 5.200000000000000000e+01 5.300000000000000000e+01 5.400000000000000000e+01 5.500000000000000000e+01 5.600000000000000000e+01 5.700000000000000000e+01 5.800000000000000000e+01 5.900000000000000000e+01 6.000000000000000000e+01 6.100000000000000000e+01 6.200000000000000000e+01 6.300000000000000000e+01 6.400000000000000000e+01 6.500000000000000000e+01 6.600000000000000000e+01 6.700000000000000000e+01 6.800000000000000000e+01 6.900000000000000000e+01 7.000000000000000000e+01 7.100000000000000000e+01 7.200000000000000000e+01 7.300000000000000000e+01 7.400000000000000000e+01 7.500000000000000000e+01 7.600000000000000000e+01 7.700000000000000000e+01 7.800000000000000000e+01 7.900000000000000000e+01 8.000000000000000000e+01 8.100000000000000000e+01 8.200000000000000000e+01 8.300000000000000000e+01 8.400000000000000000e+01 8.500000000000000000e+01 8.600000000000000000e+01 8.700000000000000000e+01 8.800000000000000000e+01 8.900000000000000000e+01 9.000000000000000000e+01 9.100000000000000000e+01 9.200000000000000000e+01 9.300000000000000000e+01 9.400000000000000000e+01 9.500000000000000000e+01 9.600000000000000000e+01 9.700000000000000000e+01 9.800000000000000000e+01 9.900000000000000000e+01 1.000000000000000000e+02 1.010000000000000000e+02 1.020000000000000000e+02 1.030000000000000000e+02 1.040000000000000000e+02 1.050000000000000000e+02 1.060000000000000000e+02 1.070000000000000000e+02 1.080000000000000000e+02 1.090000000000000000e+02 1.100000000000000000e+02 1.110000000000000000e+02 1.120000000000000000e+02 1.130000000000000000e+02 1.140000000000000000e+02 1.150000000000000000e+02 1.160000000000000000e+02 1.170000000000000000e+02 1.180000000000000000e+02 1.190000000000000000e+02 1.200000000000000000e+02 1.210000000000000000e+02 1.220000000000000000e+02 1.230000000000000000e+02 1.240000000000000000e+02 1.250000000000000000e+02 1.260000000000000000e+02 1.270000000000000000e+02 1.280000000000000000e+02 1.290000000000000000e+02 1.300000000000000000e+02 1.310000000000000000e+02 1.320000000000000000e+02 1.330000000000000000e+02 1.340000000000000000e+02 1.350000000000000000e+02 1.360000000000000000e+02 1.370000000000000000e+02 1.380000000000000000e+02 1.390000000000000000e+02 1.400000000000000000e+02 1.410000000000000000e+02 1.420000000000000000e+02 1.430000000000000000e+02 1.440000000000000000e+02 1.450000000000000000e+02 1.460000000000000000e+02 1.470000000000000000e+02 1.480000000000000000e+02 1.490000000000000000e+02 1.500000000000000000e+02 1.510000000000000000e+02 1.520000000000000000e+02 1.530000000000000000e+02 1.540000000000000000e+02 1.550000000000000000e+02 1.560000000000000000e+02 1.570000000000000000e+02 1.580000000000000000e+02 1.590000000000000000e+02 1.600000000000000000e+02 1.610000000000000000e+02 1.620000000000000000e+02 1.630000000000000000e+02 1.640000000000000000e+02 1.650000000000000000e+02 1.660000000000000000e+02 1.670000000000000000e+02 1.680000000000000000e+02 1.690000000000000000e+02 1.700000000000000000e+02 1.710000000000000000e+02 1.720000000000000000e+02 1.730000000000000000e+02 1.740000000000000000e+02 1.750000000000000000e+02 1.760000000000000000e+02 1.770000000000000000e+02 1.780000000000000000e+02 1.790000000000000000e+02 1.800000000000000000e+02 1.810000000000000000e+02 1.820000000000000000e+02 1.830000000000000000e+02 1.840000000000000000e+02 1.850000000000000000e+02 1.860000000000000000e+02 1.870000000000000000e+02 1.880000000000000000e+02 1.890000000000000000e+02 1.900000000000000000e+02 1.910000000000000000e+02 1.920000000000000000e+02 1.930000000000000000e+02 1.940000000000000000e+02 1.950000000000000000e+02 1.960000000000000000e+02 1.970000000000000000e+02 1.980000000000000000e+02 1.990000000000000000e+02 2.000000000000000000e+02 2.010000000000000000e+02 2.020000000000000000e+02 2.030000000000000000e+02 2.040000000000000000e+02 2.050000000000000000e+02 2.060000000000000000e+02 2.070000000000000000e+02 2.080000000000000000e+02 2.090000000000000000e+02 2.100000000000000000e+02 2.110000000000000000e+02 2.120000000000000000e+02 2.130000000000000000e+02 2.140000000000000000e+02 2.150000000000000000e+02 2.160000000000000000e+02 2.170000000000000000e+02 2.180000000000000000e+02 2.190000000000000000e+02 2.200000000000000000e+02 2.210000000000000000e+02 2.220000000000000000e+02 2.230000000000000000e+02 2.240000000000000000e+02 2.250000000000000000e+02 2.260000000000000000e+02 2.270000000000000000e+02 2.280000000000000000e+02 2.290000000000000000e+02 2.300000000000000000e+02 2.310000000000000000e+02 2.320000000000000000e+02 2.330000000000000000e+02 2.340000000000000000e+02 2.350000000000000000e+02 2.360000000000000000e+02 2.370000000000000000e+02 2.380000000000000000e+02 2.390000000000000000e+02 2.400000000000000000e+02 2.410000000000000000e+02 2.420000000000000000e+02 2.430000000000000000e+02 2.440000000000000000e+02 2.450000000000000000e+02 2.460000000000000000e+02 2.470000000000000000e+02 2.480000000000000000e+02 2.490000000000000000e+02 2.500000000000000000e+02 2.510000000000000000e+02 2.520000000000000000e+02 2.530000000000000000e+02 2.540000000000000000e+02 2.550000000000000000e+02 2.560000000000000000e+02 2.570000000000000000e+02 2.580000000000000000e+02 2.590000000000000000e+02 2.600000000000000000e+02 2.610000000000000000e+02 2.620000000000000000e+02 2.630000000000000000e+02 2.640000000000000000e+02 2.650000000000000000e+02 2.660000000000000000e+02 2.670000000000000000e+02 2.680000000000000000e+02 2.690000000000000000e+02 2.700000000000000000e+02 2.710000000000000000e+02 2.720000000000000000e+02 2.730000000000000000e+02 2.740000000000000000e+02 2.750000000000000000e+02 2.760000000000000000e+02 2.770000000000000000e+02 2.780000000000000000e+02 2.790000000000000000e+02 2.800000000000000000e+02 2.810000000000000000e+02 2.820000000000000000e+02 2.830000000000000000e+02 2.840000000000000000e+02 2.850000000000000000e+02 2.860000000000000000e+02 2.870000000000000000e+02 2.880000000000000000e+02 2.890000000000000000e+02 2.900000000000000000e+02 2.910000000000000000e+02 2.920000000000000000e+02 2.930000000000000000e+02 2.940000000000000000e+02 2.950000000000000000e+02 2.960000000000000000e+02 2.970000000000000000e+02 2.980000000000000000e+02 2.990000000000000000e+02 3.000000000000000000e+02 3.010000000000000000e+02 3.020000000000000000e+02 3.030000000000000000e+02 3.040000000000000000e+02 3.050000000000000000e+02 3.060000000000000000e+02 3.070000000000000000e+02 3.080000000000000000e+02 3.090000000000000000e+02 3.100000000000000000e+02 3.110000000000000000e+02 3.120000000000000000e+02 3.130000000000000000e+02 3.140000000000000000e+02 3.150000000000000000e+02 3.160000000000000000e+02 3.170000000000000000e+02 3.180000000000000000e+02 3.190000000000000000e+02 3.200000000000000000e+02 3.210000000000000000e+02 3.220000000000000000e+02 3.230000000000000000e+02 3.240000000000000000e+02 3.250000000000000000e+02 3.260000000000000000e+02 3.270000000000000000e+02 3.280000000000000000e+02 3.290000000000000000e+02 3.300000000000000000e+02 3.310000000000000000e+02 3.320000000000000000e+02 3.330000000000000000e+02 3.340000000000000000e+02 3.350000000000000000e+02 3.360000000000000000e+02 3.370000000000000000e+02 3.380000000000000000e+02 3.390000000000000000e+02 3.400000000000000000e+02 3.410000000000000000e+02 3.420000000000000000e+02 3.430000000000000000e+02 3.440000000000000000e+02 3.450000000000000000e+02 3.460000000000000000e+02 3.470000000000000000e+02 3.480000000000000000e+02 3.490000000000000000e+02 3.500000000000000000e+02 3.510000000000000000e+02 3.520000000000000000e+02 3.530000000000000000e+02 3.540000000000000000e+02 3.550000000000000000e+02 3.560000000000000000e+02 3.570000000000000000e+02 3.580000000000000000e+02 3.590000000000000000e+02 3.600000000000000000e+02 3.610000000000000000e+02 3.620000000000000000e+02 3.630000000000000000e+02 3.640000000000000000e+02 3.650000000000000000e+02 3.660000000000000000e+02 3.670000000000000000e+02 3.680000000000000000e+02 3.690000000000000000e+02 3.700000000000000000e+02 3.710000000000000000e+02 3.720000000000000000e+02 3.730000000000000000e+02 3.740000000000000000e+02 3.750000000000000000e+02 3.760000000000000000e+02 3.770000000000000000e+02 3.780000000000000000e+02 3.790000000000000000e+02 3.800000000000000000e+02 3.810000000000000000e+02 3.820000000000000000e+02 3.830000000000000000e+02 3.840000000000000000e+02 3.850000000000000000e+02 3.860000000000000000e+02 3.870000000000000000e+02 3.880000000000000000e+02 3.890000000000000000e+02 3.900000000000000000e+02 3.910000000000000000e+02 3.920000000000000000e+02 3.930000000000000000e+02 3.940000000000000000e+02 3.950000000000000000e+02 3.960000000000000000e+02 3.970000000000000000e+02 3.980000000000000000e+02 3.990000000000000000e+02 4.000000000000000000e+02 4.010000000000000000e+02 4.020000000000000000e+02 4.030000000000000000e+02 4.040000000000000000e+02 4.050000000000000000e+02 4.060000000000000000e+02 4.070000000000000000e+02 4.080000000000000000e+02 4.090000000000000000e+02 4.100000000000000000e+02 4.110000000000000000e+02 4.120000000000000000e+02 4.130000000000000000e+02 4.140000000000000000e+02 4.150000000000000000e+02 4.160000000000000000e+02 4.170000000000000000e+02 4.180000000000000000e+02 4.190000000000000000e+02 4.200000000000000000e+02 4.210000000000000000e+02 4.220000000000000000e+02 4.230000000000000000e+02 4.240000000000000000e+02 4.250000000000000000e+02 4.260000000000000000e+02 4.270000000000000000e+02 4.280000000000000000e+02 4.290000000000000000e+02 4.300000000000000000e+02 4.310000000000000000e+02 4.320000000000000000e+02 4.330000000000000000e+02 4.340000000000000000e+02 4.350000000000000000e+02 4.360000000000000000e+02 4.370000000000000000e+02 4.380000000000000000e+02 4.390000000000000000e+02 4.400000000000000000e+02 4.410000000000000000e+02 4.420000000000000000e+02 4.430000000000000000e+02 4.440000000000000000e+02 4.450000000000000000e+02 4.460000000000000000e+02 4.470000000000000000e+02 4.480000000000000000e+02 4.490000000000000000e+02 4.500000000000000000e+02 4.510000000000000000e+02 4.520000000000000000e+02 4.530000000000000000e+02 4.540000000000000000e+02 4.550000000000000000e+02 4.560000000000000000e+02 4.570000000000000000e+02 4.580000000000000000e+02 4.590000000000000000e+02 4.600000000000000000e+02 4.610000000000000000e+02 4.620000000000000000e+02 4.630000000000000000e+02 4.640000000000000000e+02 4.650000000000000000e+02 4.660000000000000000e+02 4.670000000000000000e+02 4.680000000000000000e+02 4.690000000000000000e+02 4.700000000000000000e+02 4.710000000000000000e+02 4.720000000000000000e+02 4.730000000000000000e+02 4.740000000000000000e+02 4.750000000000000000e+02 4.760000000000000000e+02 4.770000000000000000e+02 4.780000000000000000e+02 4.790000000000000000e+02 4.800000000000000000e+02 4.810000000000000000e+02 4.820000000000000000e+02 4.830000000000000000e+02 4.840000000000000000e+02 4.850000000000000000e+02 4.860000000000000000e+02 4.870000000000000000e+02 4.880000000000000000e+02 4.890000000000000000e+02 4.900000000000000000e+02 4.910000000000000000e+02 4.920000000000000000e+02 4.930000000000000000e+02 4.940000000000000000e+02 4.950000000000000000e+02 4.960000000000000000e+02 4.970000000000000000e+02 4.980000000000000000e+02 4.990000000000000000e+02 5.000000000000000000e+02 5.010000000000000000e+02 5.020000000000000000e+02 5.030000000000000000e+02 5.040000000000000000e+02 5.050000000000000000e+02 5.060000000000000000e+02 5.070000000000000000e+02 5.080000000000000000e+02 5.090000000000000000e+02 5.100000000000000000e+02 5.110000000000000000e+02 5.120000000000000000e+02 5.130000000000000000e+02 5.140000000000000000e+02 5.150000000000000000e+02 5.160000000000000000e+02 5.170000000000000000e+02 5.180000000000000000e+02 5.190000000000000000e+02 5.200000000000000000e+02 5.210000000000000000e+02 5.220000000000000000e+02 5.230000000000000000e+02 5.240000000000000000e+02 5.250000000000000000e+02 5.260000000000000000e+02 5.270000000000000000e+02 5.280000000000000000e+02 5.290000000000000000e+02 5.300000000000000000e+02 5.310000000000000000e+02 5.320000000000000000e+02 5.330000000000000000e+02 5.340000000000000000e+02 5.350000000000000000e+02 5.360000000000000000e+02 5.370000000000000000e+02 5.380000000000000000e+02 5.390000000000000000e+02 5.400000000000000000e+02 5.410000000000000000e+02 5.420000000000000000e+02 5.430000000000000000e+02 5.440000000000000000e+02 5.450000000000000000e+02 5.460000000000000000e+02 5.470000000000000000e+02 5.480000000000000000e+02 5.490000000000000000e+02 5.500000000000000000e+02 5.510000000000000000e+02 5.520000000000000000e+02 5.530000000000000000e+02 5.540000000000000000e+02 5.550000000000000000e+02 5.560000000000000000e+02 5.570000000000000000e+02 5.580000000000000000e+02 5.590000000000000000e+02 5.600000000000000000e+02 5.610000000000000000e+02 5.620000000000000000e+02 5.630000000000000000e+02 5.640000000000000000e+02 5.650000000000000000e+02 5.660000000000000000e+02 5.670000000000000000e+02 5.680000000000000000e+02 5.690000000000000000e+02 5.700000000000000000e+02 5.710000000000000000e+02 5.720000000000000000e+02 5.730000000000000000e+02 5.740000000000000000e+02 5.750000000000000000e+02 5.760000000000000000e+02 5.770000000000000000e+02 5.780000000000000000e+02 5.790000000000000000e+02 5.800000000000000000e+02 5.810000000000000000e+02 5.820000000000000000e+02 5.830000000000000000e+02 5.840000000000000000e+02 5.850000000000000000e+02 5.860000000000000000e+02 5.870000000000000000e+02 5.880000000000000000e+02 5.890000000000000000e+02 5.900000000000000000e+02 5.910000000000000000e+02 5.920000000000000000e+02 5.930000000000000000e+02 5.940000000000000000e+02 5.950000000000000000e+02 5.960000000000000000e+02 5.970000000000000000e+02 5.980000000000000000e+02 5.990000000000000000e+02 6.000000000000000000e+02 6.010000000000000000e+02 6.020000000000000000e+02 6.030000000000000000e+02 6.040000000000000000e+02 6.050000000000000000e+02 6.060000000000000000e+02 6.070000000000000000e+02 6.080000000000000000e+02 6.090000000000000000e+02 6.100000000000000000e+02 6.110000000000000000e+02 6.120000000000000000e+02 6.130000000000000000e+02 6.140000000000000000e+02 6.150000000000000000e+02 6.160000000000000000e+02 6.170000000000000000e+02 6.180000000000000000e+02 6.190000000000000000e+02 6.200000000000000000e+02 6.210000000000000000e+02 6.220000000000000000e+02 6.230000000000000000e+02 6.240000000000000000e+02 6.250000000000000000e+02 6.260000000000000000e+02 6.270000000000000000e+02 6.280000000000000000e+02 6.290000000000000000e+02 6.300000000000000000e+02 6.310000000000000000e+02 6.320000000000000000e+02 6.330000000000000000e+02 6.340000000000000000e+02 6.350000000000000000e+02 6.360000000000000000e+02 6.370000000000000000e+02 6.380000000000000000e+02 6.390000000000000000e+02 6.400000000000000000e+02 6.410000000000000000e+02 6.420000000000000000e+02 6.430000000000000000e+02 6.440000000000000000e+02 6.450000000000000000e+02 6.460000000000000000e+02 6.470000000000000000e+02 6.480000000000000000e+02 6.490000000000000000e+02 6.500000000000000000e+02 6.510000000000000000e+02 6.520000000000000000e+02 6.530000000000000000e+02 6.540000000000000000e+02 6.550000000000000000e+02 6.560000000000000000e+02 6.570000000000000000e+02 6.580000000000000000e+02 6.590000000000000000e+02 6.600000000000000000e+02 6.610000000000000000e+02 6.620000000000000000e+02 6.630000000000000000e+02 6.640000000000000000e+02 6.650000000000000000e+02 6.660000000000000000e+02 6.670000000000000000e+02 6.680000000000000000e+02 6.690000000000000000e+02 6.700000000000000000e+02 6.710000000000000000e+02 6.720000000000000000e+02 6.730000000000000000e+02 6.740000000000000000e+02 6.750000000000000000e+02 6.760000000000000000e+02 6.770000000000000000e+02 6.780000000000000000e+02 6.790000000000000000e+02 6.800000000000000000e+02 6.810000000000000000e+02 6.820000000000000000e+02 6.830000000000000000e+02 6.840000000000000000e+02 6.850000000000000000e+02 6.860000000000000000e+02 6.870000000000000000e+02 6.880000000000000000e+02 6.890000000000000000e+02 6.900000000000000000e+02 6.910000000000000000e+02 6.920000000000000000e+02 6.930000000000000000e+02 6.940000000000000000e+02 6.950000000000000000e+02 6.960000000000000000e+02 6.970000000000000000e+02 6.980000000000000000e+02 6.990000000000000000e+02 7.000000000000000000e+02 7.010000000000000000e+02 7.020000000000000000e+02 7.030000000000000000e+02 7.040000000000000000e+02 7.050000000000000000e+02 7.060000000000000000e+02 7.070000000000000000e+02 7.080000000000000000e+02 7.090000000000000000e+02 7.100000000000000000e+02 7.110000000000000000e+02 7.120000000000000000e+02 7.130000000000000000e+02 7.140000000000000000e+02 7.150000000000000000e+02 7.160000000000000000e+02 7.170000000000000000e+02 7.180000000000000000e+02 7.190000000000000000e+02 7.200000000000000000e+02 7.210000000000000000e+02 7.220000000000000000e+02 7.230000000000000000e+02 7.240000000000000000e+02 7.250000000000000000e+02 7.260000000000000000e+02 7.270000000000000000e+02 7.280000000000000000e+02 7.290000000000000000e+02 7.300000000000000000e+02 7.310000000000000000e+02 7.320000000000000000e+02 7.330000000000000000e+02 7.340000000000000000e+02 7.350000000000000000e+02 7.360000000000000000e+02 7.370000000000000000e+02 7.380000000000000000e+02 7.390000000000000000e+02 7.400000000000000000e+02 7.410000000000000000e+02 7.420000000000000000e+02 7.430000000000000000e+02 7.440000000000000000e+02 7.450000000000000000e+02 7.460000000000000000e+02 7.470000000000000000e+02 7.480000000000000000e+02 7.490000000000000000e+02 7.500000000000000000e+02 7.510000000000000000e+02 7.520000000000000000e+02 7.530000000000000000e+02 7.540000000000000000e+02 7.550000000000000000e+02 7.560000000000000000e+02 7.570000000000000000e+02 7.580000000000000000e+02 7.590000000000000000e+02 7.600000000000000000e+02 7.610000000000000000e+02 7.620000000000000000e+02 7.630000000000000000e+02 7.640000000000000000e+02 7.650000000000000000e+02 7.660000000000000000e+02 7.670000000000000000e+02 7.680000000000000000e+02 7.690000000000000000e+02 7.700000000000000000e+02 7.710000000000000000e+02 7.720000000000000000e+02 7.730000000000000000e+02 7.740000000000000000e+02 7.750000000000000000e+02 7.760000000000000000e+02 7.770000000000000000e+02 7.780000000000000000e+02 7.790000000000000000e+02 7.800000000000000000e+02 7.810000000000000000e+02 7.820000000000000000e+02 7.830000000000000000e+02 7.840000000000000000e+02 7.850000000000000000e+02 7.860000000000000000e+02 7.870000000000000000e+02 7.880000000000000000e+02 7.890000000000000000e+02 7.900000000000000000e+02 7.910000000000000000e+02 7.920000000000000000e+02 7.930000000000000000e+02 7.940000000000000000e+02 7.950000000000000000e+02 7.960000000000000000e+02 7.970000000000000000e+02 7.980000000000000000e+02 7.990000000000000000e+02 8.000000000000000000e+02 8.010000000000000000e+02 8.020000000000000000e+02 8.030000000000000000e+02 8.040000000000000000e+02 8.050000000000000000e+02 8.060000000000000000e+02 8.070000000000000000e+02 8.080000000000000000e+02 8.090000000000000000e+02 8.100000000000000000e+02 8.110000000000000000e+02 8.120000000000000000e+02 8.130000000000000000e+02 8.140000000000000000e+02 8.150000000000000000e+02 8.160000000000000000e+02 8.170000000000000000e+02 8.180000000000000000e+02 8.190000000000000000e+02 8.200000000000000000e+02 8.210000000000000000e+02 8.220000000000000000e+02 8.230000000000000000e+02 8.240000000000000000e+02 8.250000000000000000e+02 8.260000000000000000e+02 8.270000000000000000e+02 8.280000000000000000e+02 8.290000000000000000e+02 8.300000000000000000e+02 8.310000000000000000e+02 8.320000000000000000e+02 8.330000000000000000e+02 8.340000000000000000e+02 8.350000000000000000e+02 8.360000000000000000e+02 8.370000000000000000e+02 8.380000000000000000e+02 8.390000000000000000e+02 8.400000000000000000e+02 8.410000000000000000e+02 8.420000000000000000e+02 8.430000000000000000e+02 8.440000000000000000e+02 8.450000000000000000e+02 8.460000000000000000e+02 8.470000000000000000e+02 8.480000000000000000e+02 8.490000000000000000e+02 8.500000000000000000e+02 8.510000000000000000e+02 8.520000000000000000e+02 8.530000000000000000e+02 8.540000000000000000e+02 8.550000000000000000e+02 8.560000000000000000e+02 8.570000000000000000e+02 8.580000000000000000e+02 8.590000000000000000e+02 8.600000000000000000e+02 8.610000000000000000e+02 8.620000000000000000e+02 8.630000000000000000e+02 8.640000000000000000e+02 8.650000000000000000e+02 8.660000000000000000e+02 8.670000000000000000e+02 8.680000000000000000e+02 8.690000000000000000e+02 8.700000000000000000e+02 8.710000000000000000e+02 8.720000000000000000e+02 8.730000000000000000e+02 8.740000000000000000e+02 8.750000000000000000e+02 8.760000000000000000e+02 8.770000000000000000e+02 8.780000000000000000e+02 8.790000000000000000e+02 8.800000000000000000e+02 8.810000000000000000e+02 8.820000000000000000e+02 8.830000000000000000e+02 8.840000000000000000e+02 8.850000000000000000e+02 8.860000000000000000e+02 8.870000000000000000e+02 8.880000000000000000e+02 8.890000000000000000e+02 8.900000000000000000e+02 8.910000000000000000e+02 8.920000000000000000e+02 8.930000000000000000e+02 8.940000000000000000e+02 8.950000000000000000e+02 8.960000000000000000e+02 8.970000000000000000e+02 8.980000000000000000e+02 8.990000000000000000e+02 9.000000000000000000e+02 9.010000000000000000e+02 9.020000000000000000e+02 9.030000000000000000e+02 9.040000000000000000e+02 9.050000000000000000e+02 9.060000000000000000e+02 9.070000000000000000e+02 9.080000000000000000e+02 9.090000000000000000e+02 9.100000000000000000e+02 9.110000000000000000e+02 9.120000000000000000e+02 9.130000000000000000e+02 9.140000000000000000e+02 9.150000000000000000e+02 9.160000000000000000e+02 9.170000000000000000e+02 9.180000000000000000e+02 9.190000000000000000e+02 9.200000000000000000e+02 9.210000000000000000e+02 9.220000000000000000e+02 9.230000000000000000e+02 9.240000000000000000e+02 9.250000000000000000e+02 9.260000000000000000e+02 9.270000000000000000e+02 9.280000000000000000e+02 9.290000000000000000e+02 9.300000000000000000e+02 9.310000000000000000e+02 9.320000000000000000e+02 9.330000000000000000e+02 9.340000000000000000e+02 9.350000000000000000e+02 9.360000000000000000e+02 9.370000000000000000e+02 9.380000000000000000e+02 9.390000000000000000e+02 9.400000000000000000e+02 9.410000000000000000e+02 9.420000000000000000e+02 9.430000000000000000e+02 9.440000000000000000e+02 9.450000000000000000e+02 9.460000000000000000e+02 9.470000000000000000e+02 9.480000000000000000e+02 9.490000000000000000e+02 9.500000000000000000e+02 9.510000000000000000e+02 9.520000000000000000e+02 9.530000000000000000e+02 9.540000000000000000e+02 9.550000000000000000e+02 9.560000000000000000e+02 9.570000000000000000e+02 9.580000000000000000e+02 9.590000000000000000e+02 9.600000000000000000e+02 9.610000000000000000e+02 9.620000000000000000e+02 9.630000000000000000e+02 9.640000000000000000e+02 9.650000000000000000e+02 9.660000000000000000e+02 9.670000000000000000e+02 9.680000000000000000e+02 9.690000000000000000e+02 9.700000000000000000e+02 9.710000000000000000e+02 9.720000000000000000e+02 9.730000000000000000e+02 9.740000000000000000e+02 9.750000000000000000e+02 9.760000000000000000e+02 9.770000000000000000e+02 9.780000000000000000e+02 9.790000000000000000e+02 9.800000000000000000e+02 9.810000000000000000e+02 9.820000000000000000e+02 9.830000000000000000e+02 9.840000000000000000e+02 9.850000000000000000e+02 9.860000000000000000e+02 9.870000000000000000e+02 9.880000000000000000e+02 9.890000000000000000e+02 9.900000000000000000e+02 9.910000000000000000e+02 9.920000000000000000e+02 9.930000000000000000e+02 9.940000000000000000e+02 9.950000000000000000e+02 9.960000000000000000e+02 9.970000000000000000e+02 9.980000000000000000e+02 9.990000000000000000e+02
1.000000000000000000e+00 1.000000000000000000e+00 1.000000000000000000e+00 1.000000000000000000e+00 1.000000000000000000e+00 1.000000000000000000e+00 1.000000000000000000e+00 1.000000000000000000e+00 1.000000000000000000e+00 1.000000000000000000e+00 1.000000000000000000e+00 1.000000000000000000e+00 1.000000000000000000e+00 1.000000000000000000e+00 1.000000000000000000e+00 1.000000000000000000e+00 1.000000000000000000e+00 1.000000000000000000e+00 1.000000000000000000e+00 1.000000000000000000e+00 1.000000000000000000e+00 1.000000000000000000e+00 1.000000000000000000e+00 1.000000000000000000e+00 1.000000000000000000e+00 1.000000000000000000e+00 1.000000000000000000e+00 1.000000000000000000e+00 1.000000000000000000e+00 1.000000000000000000e+00 1.000000000000000000e+00 1.000000000000000000e+00 1.000000000000000000e+00 1.000000000000000000e+00 1.000000000000000000e+00 1.000000000000000000e+00 1.000000000000000000e+00 1.000000000000000000e+00 1.000000000000000000e+00 1.000000000000000000e+00 1.000000000000000000e+00 1.000000000000000000e+00 1.000000000000000000e+00 1.000000000000000000e+00 1.000000000000000000e+00 1.000000000000000000e+00 1.000000000000000000e+00 1.000000000000000000e+00 1.000000000000000000e+00 1.000000000000000000e+00 1.000000000000000000e+00 1.000000000000000000e+00 1.000000000000000000e+00 1.000000000000000000e+00 1.000000000000000000e+00 1.000000000000000000e+00 1.000000000000000000e+00 1.000000000000000000e+00 1.000000000000000000e+00 1.000000000000000000e+00 1.000000000000000000e+00 1.000000000000000000e+00 1.000000000000000000e+00 1.000000000000000000e+00 1.000000000000000000e+00 1.000000000000000000e+00 1.000000000000000000e+00 1.000000000000000000e+00 1.000000000000000000e+00 1.000000000000000000e+00 1.000000000000000000e+00 1.000000000000000000e+00 1.000000000000000000e+00 1.000000000000000000e+00 1.000000000000000000e+00 1.000000000000000000e+00 1.000000000000000000e+00 1.000000000000000000e+00 1.000000000000000000e+00 1.000000000000000000e+00 1.000000000000000000e+00 1.000000000000000000e+00 1.000000000000000000e+00 1.000000000000000000e+00 1.000000000000000000e+00 1.000000000000000000e+00 1.000000000000000000e+00 1.000000000000000000e+00 1.000000000000000000e+00 1.000000000000000000e+00 1.000000000000000000e+00 1.000000000000000000e+00 1.000000000000000000e+00 1.000000000000000000e+00 1.000000000000000000e+00 1.000000000000000000e+00 1.000000000000000000e+00 1.000000000000000000e+00 1.000000000000000000e+00 1.000000000000000000e+00 1.000000000000000000e+00 1.000000000000000000e+00 1.000000000000000000e+00 1.000000000000000000e+00 1.000000000000000000e+00 1.000000000000000000e+00 1.000000000000000000e+00 1.000000000000000000e+00 1.000000000000000000e+00 1.000000000000000000e+00 1.000000000000000000e+00 1.000000000000000000e+00 1.000000000000000000e+00 1.000000000000000000e+00 1.000000000000000000e+00 1.000000000000000000e+00 1.000000000000000000e+00 1.000000000000000000e+00 1.000000000000000000e+00 1.000000000000000000e+00 1.000000000000000000e+00 1.000000000000000000e+00 1.000000000000000000e+00 1.000000000000000000e+00 1.000000000000000000e+00 1.000000000000000000e+00 1.000000000000000000e+00 1.000000000000000000e+00 1.000000000000000000e+00 1.000000000000000000e+00 1.000000000000000000e+00 1.000000000000000000e+00 1.000000000000000000e+00 1.000000000000000000e+00 1.000000000000000000e+00 1.000000000000000000e+00 1.000000000000000000e+00 1.000000000000000000e+00 1.000000000000000000e+00 1.000000000000000000e+00 1.000000000000000000e+00 1.000000000000000000e+00 1.000000000000000000e+00 1.000000000000000000e+00 1.000000000000000000e+00 1.000000000000000000e+00 1.000000000000000000e+00 1.000000000000000000e+00 1.000000000000000000e+00 1.000000000000000000e+00 1.000000000000000000e+00 1.000000000000000000e+00 1.000000000000000000e+00 1.000000000000000000e+00 1.000000000000000000e+00 1.000000000000000000e+00 1.000000000000000000e+00 1.000000000000000000e+00 1.000000000000000000e+00 1.000000000000000000e+00 1.000000000000000000e+00 1.000000000000000000e+00 1.000000000000000000e+00 1.000000000000000000e+00 1.000000000000000000e+00 1.000000000000000000e+00 1.000000000000000000e+00 1.000000000000000000e+00 1.000000000000000000e+00 1.000000000000000000e+00 1.000000000000000000e+00 1.000000000000000000e+00 1.000000000000000000e+00 1.000000000000000000e+00 1.000000000000000000e+00 1.000000000000000000e+00 1.000000000000000000e+00 1.000000000000000000e+00 1.000000000000000000e+00 1.000000000000000000e+00 1.000000000000000000e+00 1.000000000000000000e+00 1.000000000000000000e+00 1.000000000000000000e+00 1.000000000000000000e+00 1.000000000000000000e+00 1.000000000000000000e+00 1.000000000000000000e+00 1.000000000000000000e+00 1.000000000000000000e+00 1.000000000000000000e+00 1.000000000000000000e+00 1.000000000000000000e+00 1.000000000000000000e+00 1.000000000000000000e+00 1.000000000000000000e+00 1.000000000000000000e+00 1.000000000000000000e+00 1.000000000000000000e+00 1.000000000000000000e+00 1.000000000000000000e+00 1.000000000000000000e+00 1.000000000000000000e+00 1.000000000000000000e+00 1.000000000000000000e+00 1.000000000000000000e+00 1.000000000000000000e+00 1.000000000000000000e+00 1.000000000000000000e+00 1.000000000000000000e+00 1.000000000000000000e+00 1.000000000000000000e+00 1.000000000000000000e+00 1.000000000000000000e+00 1.000000000000000000e+00 1.000000000000000000e+00 1.000000000000000000e+00 1.000000000000000000e+00 1.000000000000000000e+00 1.000000000000000000e+00 1.000000000000000000e+00 1.000000000000000000e+00 1.000000000000000000e+00 1.000000000000000000e+00 1.000000000000000000e+00 1.000000000000000000e+00 1.000000000000000000e+00 1.000000000000000000e+00 1.000000000000000000e+00 1.000000000000000000e+00 1.000000000000000000e+00 1.000000000000000000e+00 1.000000000000000000e+00 1.000000000000000000e+00 1.000000000000000000e+00 1.000000000000000000e+00 1.000000000000000000e+00 1.000000000000000000e+00 1.000000000000000000e+00 1.000000000000000000e+00 1.000000000000000000e+00 1.000000000000000000e+00 1.000000000000000000e+00 1.000000000000000000e+00 1.000000000000000000e+00 1.000000000000000000e+00 1.000000000000000000e+00 1.000000000000000000e+00 1.000000000000000000e+00 1.000000000000000000e+00 1.000000000000000000e+00 1.000000000000000000e+00 1.000000000000000000e+00 1.000000000000000000e+00 1.000000000000000000e+00 1.000000000000000000e+00 1.000000000000000000e+00 1.000000000000000000e+00 1.000000000000000000e+00 1.000000000000000000e+00 1.000000000000000000e+00 1.000000000000000000e+00 1.000000000000000000e+00 1.000000000000000000e+00 1.000000000000000000e+00 1.000000000000000000e+00 1.000000000000000000e+00 1.000000000000000000e+00 1.000000000000000000e+00 1.000000000000000000e+00 1.000000000000000000e+00 1.000000000000000000e+00 1.000000000000000000e+00 1.000000000000000000e+00 1.000000000000000000e+00 1.000000000000000000e+00 1.000000000000000000e+00 1.000000000000000000e+00 1.000000000000000000e+00 1.000000000000000000e+00 1.000000000000000000e+00 1.000000000000000000e+00 1.000000000000000000e+00 1.000000000000000000e+00 1.000000000000000000e+00 1.000000000000000000e+00 1.000000000000000000e+00 1.000000000000000000e+00 1.000000000000000000e+00 1.000000000000000000e+00 1.000000000000000000e+00 1.000000000000000000e+00 1.000000000000000000e+00 1.000000000000000000e+00 1.000000000000000000e+00 1.000000000000000000e+00 1.000000000000000000e+00 1.000000000000000000e+00 1.000000000000000000e+00 1.000000000000000000e+00 1.000000000000000000e+00 1.000000000000000000e+00 1.000000000000000000e+00 1.000000000000000000e+00 1.000000000000000000e+00 1.000000000000000000e+00 1.000000000000000000e+00 1.000000000000000000e+00 1.000000000000000000e+00 1.000000000000000000e+00 1.000000000000000000e+00 1.000000000000000000e+00 1.000000000000000000e+00 1.000000000000000000e+00 1.000000000000000000e+00 1.000000000000000000e+00 1.000000000000000000e+00 1.000000000000000000e+00 1.000000000000000000e+00 1.000000000000000000e+00 1.000000000000000000e+00 1.000000000000000000e+00 1.000000000000000000e+00 1.000000000000000000e+00 1.000000000000000000e+00 1.000000000000000000e+00 1.000000000000000000e+00 1.000000000000000000e+00 1.000000000000000000e+00 1.000000000000000000e+00 1.000000000000000000e+00 1.000000000000000000e+00 1.000000000000000000e+00 1.000000000000000000e+00 1.000000000000000000e+00 1.000000000000000000e+00 1.000000000000000000e+00 1.000000000000000000e+00 1.000000000000000000e+00 1.000000000000000000e+00 1.000000000000000000e+00 1.000000000000000000e+00 1.000000000000000000e+00 1.000000000000000000e+00 1.000000000000000000e+00 1.000000000000000000e+00 1.000000000000000000e+00 1.000000000000000000e+00 1.000000000000000000e+00 1.000000000000000000e+00 1.000000000000000000e+00 1.000000000000000000e+00 1.000000000000000000e+00 1.000000000000000000e+00 1.000000000000000000e+00 1.000000000000000000e+00 1.000000000000000000e+00 1.000000000000000000e+00 1.000000000000000000e+00 1.000000000000000000e+00 1.000000000000000000e+00 1.000000000000000000e+00 1.000000000000000000e+00 1.000000000000000000e+00 1.000000000000000000e+00 1.000000000000000000e+00 1.000000000000000000e+00 1.000000000000000000e+00 1.000000000000000000e+00 1.000000000000000000e+00 1.000000000000000000e+00 1.000000000000000000e+00 1.000000000000000000e+00 1.000000000000000000e+00 1.000000000000000000e+00 1.000000000000000000e+00 1.000000000000000000e+00 1.000000000000000000e+00 1.000000000000000000e+00 1.000000000000000000e+00 1.000000000000000000e+00 1.000000000000000000e+00 1.000000000000000000e+00 1.000000000000000000e+00 1.000000000000000000e+00 1.000000000000000000e+00 1.000000000000000000e+00 1.000000000000000000e+00 1.000000000000000000e+00 1.000000000000000000e+00 1.000000000000000000e+00 1.000000000000000000e+00 1.000000000000000000e+00 1.000000000000000000e+00 1.000000000000000000e+00 1.000000000000000000e+00 1.000000000000000000e+00 1.000000000000000000e+00 1.000000000000000000e+00 1.000000000000000000e+00 1.000000000000000000e+00 1.000000000000000000e+00 1.000000000000000000e+00 1.000000000000000000e+00 1.000000000000000000e+00 1.000000000000000000e+00 1.000000000000000000e+00 1.000000000000000000e+00 1.000000000000000000e+00 1.000000000000000000e+00 1.000000000000000000e+00 1.000000000000000000e+00 1.000000000000000000e+00 1.000000000000000000e+00 1.000000000000000000e+00 1.000000000000000000e+00 1.000000000000000000e+00 1.000000000000000000e+00 1.000000000000000000e+00 1.000000000000000000e+00 1.000000000000000000e+00 1.000000000000000000e+00 1.000000000000000000e+00 1.000000000000000000e+00 1.000000000000000000e+00 1.000000000000000000e+00 1.000000000000000000e+00 1.000000000000000000e+00 1.000000000000000000e+00 1.000000000000000000e+00 1.000000000000000000e+00 1.000000000000000000e+00 1.000000000000000000e+00 1.000000000000000000e+00 1.000000000000000000e+00 1.000000000000000000e+00 1.000000000000000000e+00 1.000000000000000000e+00 1.000000000000000000e+00 1.000000000000000000e+00 1.000000000000000000e+00 1.000000000000000000e+00 1.000000000000000000e+00 1.000000000000000000e+00 1.000000000000000000e+00 1.000000000000000000e+00 1.000000000000000000e+00 1.000000000000000000e+00 1.000000000000000000e+00 1.000000000000000000e+00 1.000000000000000000e+00 1.000000000000000000e+00 1.000000000000000000e+00 1.000000000000000000e+00 1.000000000000000000e+00 1.000000000000000000e+00 1.000000000000000000e+00 1.000000000000000000e+00 1.000000000000000000e+00 1.000000000000000000e+00 1.000000000000000000e+00 1.000000000000000000e+00 1.000000000000000000e+00 1.000000000000000000e+00 1.000000000000000000e+00 1.000000000000000000e+00 1.000000000000000000e+00 1.000000000000000000e+00 1.000000000000000000e+00 1.000000000000000000e+00 1.000000000000000000e+00 1.000000000000000000e+00 1.000000000000000000e+00 1.000000000000000000e+00 1.000000000000000000e+00 1.000000000000000000e+00 1.000000000000000000e+00 1.000000000000000000e+00 1.000000000000000000e+00 1.000000000000000000e+00 1.000000000000000000e+00 1.000000000000000000e+00 1.000000000000000000e+00 1.000000000000000000e+00 1.000000000000000000e+00 1.000000000000000000e+00 1.000000000000000000e+00 1.000000000000000000e+00 1.000000000000000000e+00 1.000000000000000000e+00 1.000000000000000000e+00 1.000000000000000000e+00 1.000000000000000000e+00 1.000000000000000000e+00 1.000000000000000000e+00 1.000000000000000000e+00 1.000000000000000000e+00 1.000000000000000000e+00 1.000000000000000000e+00 1.000000000000000000e+00 1.000000000000000000e+00 1.000000000000000000e+00 1.000000000000000000e+00 1.000000000000000000e+00 1.000000000000000000e+00 1.000000000000000000e+00 1.000000000000000000e+00 1.000000000000000000e+00 1.000000000000000000e+00 1.000000000000000000e+00 1.000000000000000000e+00 1.000000000000000000e+00 1.000000000000000000e+00 1.000000000000000000e+00 1.000000000000000000e+00 1.000000000000000000e+00 1.000000000000000000e+00 1.000000000000000000e+00 1.000000000000000000e+00 1.000000000000000000e+00 1.000000000000000000e+00 1.000000000000000000e+00 1.000000000000000000e+00 1.000000000000000000e+00 1.000000000000000000e+00 1.000000000000000000e+00 1.000000000000000000e+00 1.000000000000000000e+00 1.000000000000000000e+00 1.000000000000000000e+00 1.000000000000000000e+00 1.000000000000000000e+00 1.000000000000000000e+00 1.000000000000000000e+00 1.000000000000000000e+00 1.000000000000000000e+00 1.000000000000000000e+00 1.000000000000000000e+00 1.000000000000000000e+00 1.000000000000000000e+00 1.000000000000000000e+00 1.000000000000000000e+00 1.000000000000000000e+00 1.000000000000000000e+00 1.000000000000000000e+00 1.000000000000000000e+00 1.000000000000000000e+00 1.000000000000000000e+00 1.000000000000000000e+00 1.000000000000000000e+00 1.000000000000000000e+00 1.000000000000000000e+00 1.000000000000000000e+00 1.000000000000000000e+00 1.000000000000000000e+00 1.000000000000000000e+00 1.000000000000000000e+00 1.000000000000000000e+00 1.000000000000000000e+00 1.000000000000000000e+00 1.000000000000000000e+00 1.000000000000000000e+00 1.000000000000000000e+00 1.000000000000000000e+00 1.000000000000000000e+00 1.000000000000000000e+00 1.000000000000000000e+00 1.000000000000000000e+00 1.000000000000000000e+00 1.000000000000000000e+00 1.000000000000000000e+00 1.000000000000000000e+00 1.000000000000000000e+00 1.000000000000000000e+00 1.000000000000000000e+00 1.000000000000000000e+00 1.000000000000000000e+00 1.000000000000000000e+00 1.000000000000000000e+00 1.000000000000000000e+00 1.000000000000000000e+00 1.000000000000000000e+00 1.000000000000000000e+00 1.000000000000000000e+00 1.000000000000000000e+00 1.000000000000000000e+00 1.000000000000000000e+00 1.000000000000000000e+00 1.000000000000000000e+00 1.000000000000000000e+00 1.000000000000000000e+00 1.000000000000000000e+00 1.000000000000000000e+00 1.000000000000000000e+00 1.000000000000000000e+00 1.000000000000000000e+00 1.000000000000000000e+00 1.000000000000000000e+00 1.000000000000000000e+00 1.000000000000000000e+00 1.000000000000000000e+00 1.000000000000000000e+00 1.000000000000000000e+00 1.000000000000000000e+00 1.000000000000000000e+00 1.000000000000000000e+00 1.000000000000000000e+00 1.000000000000000000e+00 1.000000000000000000e+00 1.000000000000000000e+00 1.000000000000000000e+00 1.000000000000000000e+00 1.000000000000000000e+00 1.000000000000000000e+00 1.000000000000000000e+00 1.000000000000000000e+00 1.000000000000000000e+00 1.000000000000000000e+00 1.000000000000000000e+00 1.000000000000000000e+00 1.000000000000000000e+00 1.000000000000000000e+00 1.000000000000000000e+00 1.000000000000000000e+00 1.000000000000000000e+00 1.000000000000000000e+00 1.000000000000000000e+00 1.000000000000000000e+00 1.000000000000000000e+00 1.000000000000000000e+00 1.000000000000000000e+00 1.000000000000000000e+00 1.000000000000000000e+00 1.000000000000000000e+00 1.000000000000000000e+00 1.000000000000000000e+00 1.000000000000000000e+00 1.000000000000000000e+00 1.000000000000000000e+00 1.000000000000000000e+00 1.000000000000000000e+00 1.000000000000000000e+00 1.000000000000000000e+00 1.000000000000000000e+00 1.000000000000000000e+00 1.000000000000000000e+00 1.000000000000000000e+00 1.000000000000000000e+00 1.000000000000000000e+00 1.000000000000000000e+00 1.000000000000000000e+00 1.000000000000000000e+00 1.000000000000000000e+00 1.000000000000000000e+00 1.000000000000000000e+00 1.000000000000000000e+00 1.000000000000000000e+00 1.000000000000000000e+00 1.000000000000000000e+00 1.000000000000000000e+00 1.000000000000000000e+00 1.000000000000000000e+00 1.000000000000000000e+00 1.000000000000000000e+00 1.000000000000000000e+00 1.000000000000000000e+00 1.000000000000000000e+00 1.000000000000000000e+00 1.000000000000000000e+00 1.000000000000000000e+00 1.000000000000000000e+00 1.000000000000000000e+00 1.000000000000000000e+00 1.000000000000000000e+00 1.000000000000000000e+00 1.000000000000000000e+00 1.000000000000000000e+00 1.000000000000000000e+00 1.000000000000000000e+00 1.000000000000000000e+00 1.000000000000000000e+00 1.000000000000000000e+00 1.000000000000000000e+00 1.000000000000000000e+00 1.000000000000000000e+00 1.000000000000000000e+00 1.000000000000000000e+00 1.000000000000000000e+00 1.000000000000000000e+00 1.000000000000000000e+00 1.000000000000000000e+00 1.000000000000000000e+00 1.000000000000000000e+00 1.000000000000000000e+00 1.000000000000000000e+00 1.000000000000000000e+00 1.000000000000000000e+00 1.000000000000000000e+00 1.000000000000000000e+00 1.000000000000000000e+00 1.000000000000000000e+00 1.000000000000000000e+00 1.000000000000000000e+00 1.000000000000000000e+00 1.000000000000000000e+00 1.000000000000000000e+00 1.000000000000000000e+00 1.000000000000000000e+00 1.000000000000000000e+00 1.000000000000000000e+00 1.000000000000000000e+00 1.000000000000000000e+00 1.000000000000000000e+00 1.000000000000000000e+00 1.000000000000000000e+00 1.000000000000000000e+00 1.000000000000000000e+00 1.000000000000000000e+00 1.000000000000000000e+00 1.000000000000000000e+00 1.000000000000000000e+00 1.000000000000000000e+00 1.000000000000000000e+00 1.000000000000000000e+00 1.000000000000000000e+00 1.000000000000000000e+00 1.000000000000000000e+00 1.000000000000000000e+00 1.000000000000000000e+00 1.000000000000000000e+00 1.000000000000000000e+00 1.000000000000000000e+00 1.000000000000000000e+00 1.000000000000000000e+00 1.000000000000000000e+00 1.000000000000000000e+00 1.000000000000000000e+00 1.000000000000000000e+00 1.000000000000000000e+00 1.000000000000000000e+00 1.000000000000000000e+00 1.000000000000000000e+00 1.000000000000000000e+00 1.000000000000000000e+00 1.000000000000000000e+00 1.000000000000000000e+00 1.000000000000000000e+00 1.000000000000000000e+00 1.000000000000000000e+00 1.000000000000000000e+00 1.000000000000000000e+00 1.000000000000000000e+00 1.000000000000000000e+00 1.000000000000000000e+00 1.000000000000000000e+00 1.000000000000000000e+00 1.000000000000000000e+00 1.000000000000000000e+00 1.000000000000000000e+00 1.000000000000000000e+00 1.000000000000000000e+00 1.000000000000000000e+00 1.000000000000000000e+00 1.000000000000000000e+00 1.000000000000000000e+00 1.000000000000000000e+00 1.000000000000000000e+00 1.000000000000000000e+00 1.000000000000000000e+00 1.000000000000000000e+00 1.000000000000000000e+00 1.000000000000000000e+00 1.000000000000000000e+00 1.000000000000000000e+00 1.000000000000000000e+00 1.000000000000000000e+00 1.000000000000000000e+00 1.000000000000000000e+00 1.000000000000000000e+00 1.000000000000000000e+00 1.000000000000000000e+00 1.000000000000000000e+00 1.000000000000000000e+00 1.000000000000000000e+00 1.000000000000000000e+00 1.000000000000000000e+00 1.000000000000000000e+00 1.000000000000000000e+00 1.000000000000000000e+00 1.000000000000000000e+00 1.000000000000000000e+00 1.000000000000000000e+00 1.000000000000000000e+00 1.000000000000000000e+00 1.000000000000000000e+00 1.000000000000000000e+00 1.000000000000000000e+00 1.000000000000000000e+00 1.000000000000000000e+00 1.000000000000000000e+00 1.000000000000000000e+00 1.000000000000000000e+00 1.000000000000000000e+00 1.000000000000000000e+00 1.000000000000000000e+00 1.000000000000000000e+00 1.000000000000000000e+00 1.000000000000000000e+00 1.000000000000000000e+00 1.000000000000000000e+00 1.000000000000000000e+00 1.000000000000000000e+00 1.000000000000000000e+00 1.000000000000000000e+00 1.000000000000000000e+00 1.000000000000000000e+00 1.000000000000000000e+00 1.000000000000000000e+00 1.000000000000000000e+00 1.000000000000000000e+00 1.000000000000000000e+00 1.000000000000000000e+00 1.000000000000000000e+00 1.000000000000000000e+00 1.000000000000000000e+00 1.000000000000000000e+00 1.000000000000000000e+00 1.000000000000000000e+00 1.000000000000000000e+00 1.000000000000000000e+00 1.000000000000000000e+00 1.000000000000000000e+00 1.000000000000000000e+00 1.000000000000000000e+00 1.000000000000000000e+00 1.000000000000000000e+00 1.000000000000000000e+00 1.000000000000000000e+00 1.000000000000000000e+00 1.000000000000000000e+00 1.000000000000000000e+00 1.000000000000000000e+00 1.000000000000000000e+00 1.000000000000000000e+00 1.000000000000000000e+00 1.000000000000000000e+00 1.000000000000000000e+00 1.000000000000000000e+00 1.000000000000000000e+00 1.000000000000000000e+00 1.000000000000000000e+00 1.000000000000000000e+00 1.000000000000000000e+00 1.000000000000000000e+00 1.000000000000000000e+00 1.000000000000000000e+00 1.000000000000000000e+00 1.000000000000000000e+00 1.000000000000000000e+00 1.000000000000000000e+00 1.000000000000000000e+00 1.000000000000000000e+00 1.000000000000000000e+00 1.000000000000000000e+00 1.000000000000000000e+00 1.000000000000000000e+00 1.000000000000000000e+00 1.000000000000000000e+00 1.000000000000000000e+00 1.000000000000000000e+00 1.000000000000000000e+00 1.000000000000000000e+00 1.000000000000000000e+00 1.000000000000000000e+00 1.000000000000000000e+00 1.000000000000000000e+00 1.000000000000000000e+00 1.000000000000000000e+00 1.000000000000000000e+00 1.000000000000000000e+00 1.000000000000000000e+00 1.000000000000000000e+00 1.000000000000000000e+00 1.000000000000000000e+00 1.000000000000000000e+00 1.000000000000000000e+00 1.000000000000000000e+00 1.000000000000000000e+00 1.000000000000000000e+00 1.000000000000000000e+00 1.000000000000000000e+00 1.000000000000000000e+00 1.000000000000000000e+00 1.000000000000000000e+00 1.000000000000000000e+00 1.000000000000000000e+00 1.000000000000000000e+00 1.000000000000000000e+00 1.000000000000000000e+00 1.000000000000000000e+00 1.000000000000000000e+00 1.000000000000000000e+00 1.000000000000000000e+00 1.000000000000000000e+00 1.000000000000000000e+00 1.000000000000000000e+00 1.000000000000000000e+00 1.000000000000000000e+00 1.000000000000000000e+00 1.000000000000000000e+00 1.000000000000000000e+00 1.000000000000000000e+00 1.000000000000000000e+00 1.000000000000000000e+00 1.000000000000000000e+00 1.000000000000000000e+00 1.000000000000000000e+00 1.000000000000000000e+00 1.000000000000000000e+00 1.000000000000000000e+00 1.000000000000000000e+00 1.000000000000000000e+00 1.000000000000000000e+00 1.000000000000000000e+00 1.000000000000000000e+00 1.000000000000000000e+00 1.000000000000000000e+00 1.000000000000000000e+00 1.000000000000000000e+00 1.000000000000000000e+00 1.000000000000000000e+00 1.000000000000000000e+00 1.000000000000000000e+00 1.000000000000000000e+00 1.000000000000000000e+00 1.000000000000000000e+00 1.000000000000000000e+00 1.000000000000000000e+00 1.000000000000000000e+00 1.000000000000000000e+00 1.000000000000000000e+00 1.000000000000000000e+00 1.000000000000000000e+00 1.000000000000000000e+00 1.000000000000000000e+00 1.000000000000000000e+00 1.000000000000000000e+00 1.000000000000000000e+00 1.000000000000000000e+00 1.000000000000000000e+00 1.000000000000000000e+00 1.000000000000000000e+00 1.000000000000000000e+00 1.000000000000000000e+00 1.000000000000000000e+00 1.000000000000000000e+00 1.000000000000000000e+00 1.000000000000000000e+00 1.000000000000000000e+00 1.000000000000000000e+00 1.000000000000000000e+00 1.000000000000000000e+00 1.000000000000000000e+00 1.000000000000000000e+00 1.000000000000000000e+00 1.000000000000000000e+00 1.000000000000000000e+00 1.000000000000000000e+00 1.000000000000000000e+00 1.000000000000000000e+00 1.000000000000000000e+00 1.000000000000000000e+00 1.000000000000000000e+00 1.000000000000000000e+00 1.000000000000000000e+00 1.000000000000000000e+00 1.000000000000000000e+00 1.000000000000000000e+00 1.000000000000000000e+00 1.000000000000000000e+00 1.000000000000000000e+00 1.000000000000000000e+00 1.000000000000000000e+00 1.000000000000000000e+00 1.000000000000000000e+00 1.000000000000000000e+00 1.000000000000000000e+00 1.000000000000000000e+00 1.000000000000000000e+00 1.000000000000000000e+00 1.000000000000000000e+00 1.000000000000000000e+00 1.000000000000000000e+00 1.000000000000000000e+00 1.000000000000000000e+00 1.000000000000000000e+00 1.000000000000000000e+00 1.000000000000000000e+00 1.000000000000000000e+00 1.000000000000000000e+00
5.012987090644155375e-02 5.075964679594606732e-01 -2.696076638554338323e-01 7.688672599719115208e-01 5.212322395138054842e-01 5.255772824100840568e-01 5.875798547187951471e-01 3.505595924283014253e-01 5.581611012351722634e-01 5.150989002137369432e-01 1.084406917150883221e+00 -7.188982224833048162e-01 1.416686085245864035e+00 4.632254068060456809e-01 5.187693212594192138e-01 4.085101042930091020e-01 8.560928546601002109e-01 9.796305747484819193e-01 7.378842389201765162e-01 5.160310389047868540e-01 3.721741932019971832e-01 9.906051426634249202e-01 3.692106837443382417e-01 5.348621530040392757e-01 7.590884682706937336e-02 6.669257010026961030e-01 3.980981739723832846e-01 7.000810939350697870e-01 5.365963066766167300e-01 1.613214101031399839e+00 4.967576911317638788e-01 6.062508140365144849e-01 7.186589449486980863e-01 5.213939885337716129e-01 6.959080739780931779e-01 4.573579588271722840e-01 5.457087678497936079e-01 1.835027273393182945e+00 -8.410027630516170305e-02 5.237939965529225805e-01 -2.048553615456859822e-01 -5.621567138951771847e-01 7.472462284485530404e-01 2.294493671697008241e-01 3.096159554872150443e-01 4.924673300688362509e-01 7.691224589323207850e-01 5.096167665294790705e-01 6.573091662511564293e-01 1.075472588306470266e-02 2.919639336460095116e-02 7.831479953714697295e-01 6.808042600901843544e-01 4.246949403064503303e-01 4.620868220100378121e-01 1.979402502699485408e-02 5.444061204385350905e-01 5.125844611491767733e-01 1.969605641456202705e-01 5.190393335048090195e-01 9.232700126416627517e-01 4.799806023731802429e-01 5.089159078556712013e-01 3.692106201705619983e-01 6.774723108394926641e-01 6.323540027864444912e-01 5.157716606314250996e-01 3.760010830371508517e-01 5.649166641579421722e-01 3.122951773069302869e-02 4.461072454943427745e-01 5.952780038308547184e-01 5.246460349902372089e-01 9.536669805830453803e-03 1.520123269792626131e+00 5.408352357744624639e-01 6.372944801595495923e-01 7.224191899298704200e-01 5.225979632786283968e-01 1.387021250104908399e+00 5.435436798663322300e-01 3.419372905213787783e-01 1.432966487785072296e+00 7.505391126111020661e-01 5.101734042039506312e-01 7.530556088561424222e-01 7.985035833612509348e-01 5.397499233562144116e-01 4.209909668912019121e-01 5.764348809325133827e-01 3.080964573078034952e-01 2.215937415359844120e+00 7.742918503631367466e-01 3.350999889594764858e-02 4.778992048543275750e-01 4.908411942573597253e-01 5.645997828054755141e-01 4.818556721541306653e-01 1.899004074532591735e-01 6.576319275678812470e-01 1.631831825291403693e+00 6.888002398218906475e-01 5.412779173501144347e-01 6.302281009555178448e-01 8.573080631455579637e-01 -2.118889710659892955e+00 -1.239415623663363997e+00 5.295204086043759917e-01 6.145782735097793381e-01 9.692395532191674379e-01 5.865469766684049402e-01 4.252434024492824927e-01 1.764543344327385577e-01 5.018666796652903050e-01 5.260483010253430569e-01 4.961904594245161726e-01 4.637810570696744294e-01 5.108914585936226160e-01 9.746940592421853289e-01 5.077694971886758113e-01 1.313255019330882956e+00 5.423301754880884840e-01 6.255423249975692324e-01 -5.096052127138916976e-01 5.171764948216512892e-01 1.967472236343239089e+00 5.282303837210573505e-01 5.380224189595563811e-01 6.780013120119763315e-01 5.251213697136820624e-01 5.614511574817857564e-01 5.152224050656025733e-01 4.324584741217337158e-01 4.347242610018770548e-01 -3.507282163184723967e-01 -1.716320168271059377e-01 6.640785084734025512e-01 5.390884944739052220e-02 1.007187524916614008e+00 5.787207953467011778e-01 5.127431693174123728e-01 8.715769281901800669e-01 5.285539674953255718e-01 5.116691512434665690e-01 5.183234540153621728e-01 4.166234441372532182e-02 9.565858865268941358e-01 -1.132690968416093236e-01 4.298777335358676677e-01 -9.136295751723483294e-01 7.589091169393326064e-01 -2.882553086127745967e-01 4.924850383331383918e-01 5.568155795616995807e-01 4.888244726210002056e-01 5.117375106864940904e-01 2.008392065721985809e+00 -1.461057977918233941e-01 8.221952576269553337e-01 6.692410517544731263e-01 5.503558550577638542e-01 4.322142104622151426e-01 5.216699178422403715e-01 5.201310565919725626e-01 1.071295236110989091e+00 2.299306288320830949e-01 8.520252407331885269e-01 3.248515120091584607e-01 4.176375198082824536e-01 6.546714292735009710e-01 5.760252490257578017e-01 7.687702021532583085e-01 4.924156557930498002e-01 5.231900120967591938e-01 4.034619241142612389e-01 4.701162950203916641e-02 2.108822828836531271e-01 1.029023598510375032e-01 7.538854783869045617e-01 1.143567383800263570e+00 6.788448405705480582e-01 5.152040824445560663e-01 -1.703483405059375289e-01 4.383399876551165586e-01 5.257233647059811332e-01 5.550667585283177718e-01 5.155163802809217266e-01 5.300451211197869661e-01 2.843511105949909190e+00 4.968951511731996562e-01 5.593697088244896642e-01 -9.137519719149234110e-01 5.411222167432081509e-01 5.184915681682062960e-01 1.968966353875815645e-01 5.170055085145398577e-01 9.423412436104966483e-01 5.046835538170646451e-01 4.903188470591908765e-01 5.150413629908258129e-01 6.324527544329160422e-01 5.038294081883825104e-01 8.754087986075727024e-01 6.019895257600406113e-01 5.432132923096987254e-01 4.903188888970256842e-01 2.112148731571004134e-01 1.297122983976478849e+00 5.612447136775885470e-01 4.473743670797500904e-01 4.244976512307091498e-01 -9.242142397100094886e-02 4.927820579049060346e-01 1.555548561254178341e-01 5.175217185132091613e-01 5.211181246328188132e-01 5.231509054671709125e-01 5.201221990645539250e-01 5.216424580335524697e-01 5.238994545718967943e-01 4.381716553139760051e-01 5.704327702545566314e-01 -7.171874977358603243e-01 6.183052879511455879e-01 4.377435401876495491e-01 3.599546533038542329e-01 3.690690384755790365e-02 1.328741137151526974e+00 9.681068020209003810e-01 4.924811352445803148e-01 -1.025098324214204076e-01 1.063619446559465498e+00 5.197652735817104297e-01 4.583793632344142499e-01 6.422538131146138252e-01 4.086980974326419602e-01 2.761054991795828806e-01 1.712508433428475974e-01 -1.618392400476073023e-01 -7.682609373807040842e-02 4.642696152061399073e-01 5.077898404817247080e-01 -1.150690794976894915e-01 4.313757649570952868e-01 5.228482653709431993e-01 5.081465519460723890e-01 -9.545384763383740756e-02 7.596358617560652338e-01 -2.343592741271727675e+00 6.171829977948959378e-01 -6.466126572468411382e-01 4.989420591914019987e-01 5.230032431119892022e-01 3.692124656561224239e-01 4.809818379173885217e-01 5.638490983990340766e-01 5.341642304994678181e-01 7.786677194341524721e-01 5.657542762578036122e-01 1.698578339300503393e+00 6.823693927344378629e-01 6.835913137531267614e-01 4.593962521057955439e-01 3.831987294305314595e-01 9.232699702825873933e-01 4.500719943853542238e-01 2.721776812156247338e+00 4.649688848297569566e-01 2.244156033315580501e-01 7.561215317834305560e-01 5.056710788537354118e-01 9.238758209206221483e-01 5.174587806580555061e-01 5.783185140427833382e-01 5.213094543933084468e-01 1.134471680260052517e+00 7.689120366586051913e-01 8.586342099179337106e-01 8.042896472345403280e-01 5.637624553222244650e-01 6.831539045255644593e-01 5.114138599585843492e-01 3.770029903106387748e-01 -7.392135697566318830e-01 3.891967274438586921e-01 4.916578211588148450e-01 5.610632021149211113e-01 5.451007301822533568e-01 4.961905105640159186e-01 6.101619529392182661e-01 5.400539974178585334e-01 -8.955384778019163106e-01 7.496848257421182549e-01 5.315070640178027883e-01 -7.051526552865804154e-03 4.872623643522709380e-01 1.856771925876868901e+00 5.066674602408096639e-01 5.184086548959713214e-01 4.298874987815344828e-01 -3.475395362527303966e+00 5.217672102856891758e-01 2.901126296079773237e+00 7.684584723272328555e-01 4.973364128181329558e-01 -5.726720581549467060e-01 5.166767819331324896e-01 5.200595531730882737e-01 4.483976823819998403e-01 4.498151148745800909e-01 3.455175894006042303e-01 6.482566414048909209e-01 3.139948267946542915e-01 5.234526621026491799e-01 5.268845173779195257e-01 3.517211487117901658e-01 5.113323902907158658e-01 7.683852877422554517e-01 5.208208209886814322e-01 1.208995943912420268e+00 2.706547979216171115e-02 2.233492495822967605e+00 2.669283577304087718e+00 4.936957684573650695e-01 -2.285681761645232679e-01 3.936421985143691571e-01 4.001610220300341192e-01 7.386448848595367211e-01 1.390757522644856525e+00 5.327112762802561630e-01 1.132821543366003603e+00 5.201128925027012073e-01 1.203770705002279034e-01 1.259045611484756355e+00 5.216972422958955358e-01 5.559740432420530176e-01 5.191890855677911976e-01 9.061274065051329041e-01 -3.802739112088161288e+00 1.651010930643334040e+00 5.164731272241446236e-01 6.360463578036205101e-01 5.175504252629605784e-01 1.835027275595834562e+00 2.984907879997336089e-01 5.604222629416142354e-01 4.988165975719581202e-01 5.570791862060496813e-01 1.373026590215761011e+00 5.456663201743382485e-01 4.903191848279660481e-01 4.313720282825405650e-01 6.019895252409734887e-01 4.713952748662100234e-01 5.703106573520547729e-01 9.014490346708993185e-01 5.191421046410574780e-01 3.821858272134148193e-01 1.573238570908250811e-01 6.604872470765181802e-01 5.228091880372386369e-01 3.142314006039937380e-01 5.604222305310702090e-01 6.390507988933588068e-01 5.204013884782792143e-01 1.038697814805976449e+00 9.496675621853780669e-01 1.152167494424483740e+00 5.234532709060865097e-01 2.173554178647995605e-01 9.232693102783237071e-01 -1.096846923448408229e-01 9.336680421714448341e-01 6.302126223043946762e-01 2.840918613304973042e-02 5.074112763046141339e-01 9.169143936237340586e-01 3.853224017729776074e-01 4.910189253921901642e-01 3.023676264013684944e-01 -3.388626749793858806e-01 -2.505976061274500566e+00 5.138706318118283489e-01 6.019895220766380284e-01 6.019895290745149730e-01 5.045740286729383239e-01 3.743498496098797146e-01 -2.322548532735235205e-01 2.909044137684052012e-01 5.262804069284967579e-01 7.103999677943378943e-01 5.221058916281053897e-01 1.031129469654241904e+00 4.903184949303637796e-01 5.216249767091135636e-01 4.913764455885981097e-01 2.834288243279281527e-01 6.599183787531988088e-01 5.134462226394818085e-01 5.189166141650505271e-01 5.097778796117099498e-01 3.059142070099369337e-01 1.660277732217983401e-02 6.019895226375229225e-01 6.628875048067850440e-01 5.196641102048915606e-01 3.957156715271323844e-01 8.598341905557375098e-01 7.502414531667976894e-01 5.643169082291157324e-01 1.898935427049305735e+00 4.964828792479901165e-01 -3.154349879515774280e+00 7.692722887243601537e-01 1.538206348485591679e+00 5.900915191157272144e-01 -1.099383890893264715e+00 8.207788613795046206e-01 4.390607445340397597e-01 5.299664986908447784e-01 4.959032452198322005e-01 -4.057447239647982151e-01 5.093861123433558458e-01 1.075415576801088902e+00 4.617566304175060865e-01 -3.902974492612061308e-01 5.123128045438662959e-01 5.161488372161573412e-01 7.916640667538761278e-01 4.875105388589487387e-01 5.924980550888846453e-01 -5.395835871026957165e-01 5.611401533035199618e-01 5.155252131286239825e-01 5.828765218164466688e-01 5.170038123988256462e-01 7.694487932835358812e-01 5.183596827661515194e-01 6.183836730444132179e-01 5.000564845970342231e-01 5.081650998975255629e-01 2.543173589053682737e-01 3.187778066209484007e-01 3.526026199327406685e-01 9.695636217332193052e-01 5.558762777728959437e-01 3.238792411423684126e+00 6.571229300017186192e-01 6.563350620017058823e-01 5.479202990303159160e-01 5.648038795080229102e-01 2.116102395321574695e-02 4.916637762327064065e-01 5.070031984654241874e-01 5.216112071120415639e-01 1.158713906126011883e+00 7.693574838593568721e-01 5.154624777606272579e-01 4.391642841900243455e-01 1.119145484093276410e+00 5.253175550506403724e-01 5.698714139734503137e-01 4.935008913109652506e-01 8.304104328627954779e-01 5.176731478963237931e-01 9.418643415611934744e-01 5.334590283026453550e-01 5.212495542801837134e-01 2.719636304137356200e-02 5.346693353740409327e-01 9.599218279559566108e-03 3.022060403915460269e-01 4.018400829435897492e-01 5.783285369427108025e-01 7.859472881021760671e-01 5.067172426019086462e-01 3.853407645949582516e-01 1.042478760883004396e-01 5.024035978513377021e-01 5.380515514577752789e-01 4.460821064982957163e-01 1.655811643026747909e-02 5.188366114306839361e-01 2.562318001417100422e-01 5.230922924579681776e-01 4.106004500618108954e-01 1.262085273105041150e+00 7.636258831059852259e-01 5.043125651737820903e-01 2.504955360116878915e-01 7.752200140803034989e-01 4.410520239263334696e-01 9.999496628039187263e-01 5.913611777820128035e-01 6.181648050397584582e-01 7.031890827728330962e-01 2.017584636578846791e+00 4.809659605002166161e-01 5.212294591352016893e-01 5.101484674321681290e-01 7.494034199397696661e-01 5.969877673316260625e-01 8.608760288752311807e-01 -5.814921876301842874e-01 3.845639278885441548e-01 5.186202441417824271e-01 4.315821000889147330e-01 4.104070006921071156e-01 -6.317577463969397122e-01 3.860910757236517554e-01 5.224487817455467642e-01 7.291082317372378219e-01 6.689504810670539037e-01 1.529414992845549603e+00 5.193512959351994640e-01 5.253983126424698336e-01 -7.233653036339523501e-01 5.161980891968841467e-01 1.236542993263047618e+00 7.200300456845167840e-01 2.834848996981109148e-01 2.415627625881965335e-01 -1.792004571476432551e+00 5.565468576078077545e-01 1.882857756541951866e-01 1.106574767193579056e+00 8.241310484782198298e-01 5.302297315343230677e-01 5.446663767826819269e-01 5.843427490917986189e-01 7.692204009526513175e-01 4.270003718801943515e-01 5.554027170422987103e-01 2.045367177168631867e-02 5.663294005417007781e-01 5.523058317328020106e-01 4.384877828883837481e-01 5.124968440503139266e-01 4.528748508907031178e-01 1.228514846491287393e+00 -9.909411467852727307e-02 -2.425743235020089150e-01 4.122079018218205437e-01 5.416909898354499431e-01 5.318850596508660766e-01 5.093200106071159583e-01 -8.769855310486602828e-01 3.203295825617212156e+00 4.983669301545574637e-01 4.406035849547068062e-01 4.425766272278077174e-01 5.176754235450921060e-01 5.076730979970229818e-01 5.132987422343566752e-01 3.268283740207048593e-01 6.068556610278236230e-01 5.213815409589036554e-01 5.031572096203911215e-01 3.276919635760300875e-01 4.026793631301852638e-01 5.698930962296242519e-01 4.053425972184322434e-01 5.335045440042073261e-01 5.391902997445930934e-01 6.745745207176556679e-01 1.020890881091544244e+00 2.337360489038000200e+00 5.101073409405213477e-01 4.994676139390443748e-01 3.709213917605596600e-01 4.760237722374421887e-01 3.775353444517618451e-01 5.187426946540917294e-01 5.204666474024974843e-01 5.007159880145678477e-01 5.690054708964029651e-01 4.976304676851833197e-01 7.687654489946073033e-01 3.645958053316974978e-01 4.089038727810181961e-01 4.136544543147703812e-01 5.047754912982278519e-01 1.092792476197544937e-01 9.232699894817980590e-01 5.668919136244892076e-01 9.740882414388446486e-02 1.913468823277306718e+00 3.079048699015108359e-01 4.085568768537360951e-01 5.948232964054065430e-01 6.499198410971045170e-02 5.489770355488322595e-01 1.527477687949870155e+00 7.967437514416310096e-01 7.128500171659180040e-01 5.214176396353861209e-01 5.412383479472006043e-01 4.391176144322200270e-01 6.546787435539380695e-01 5.444825226165042054e-01 5.224934967887100434e-01 -2.521686931228473982e-01 4.977699868835434027e-01 -1.563302857832915560e+00 4.818248654478685666e-01 5.161498466255272088e-01 5.188997224436060485e-01 4.299022708853532659e-01 9.232699895317426630e-01 2.215847782713383229e-01 5.180317103934624079e-01 1.361731102769018431e+00 -5.741439214200060315e-01 5.254204595535454381e-01 1.150505846893904893e+00 1.547052677622166916e+00 5.653067948210078741e-01 5.234043234324629035e-01 -6.229007309783678864e-02 -1.708073283380432850e+00 2.708873412002753001e-01 8.278806691825580932e-01 5.245604657684286298e-01 5.192325469159437823e-01 6.161260979694921369e-01 4.817084771947177102e-01 -4.206012329347503798e-01 8.297696865677063327e-01 4.961895932588332725e-01 3.264869205679023501e-01 5.369568456666309331e-01 -2.802582594555860784e-03 -1.668935139262124612e-01 1.819591426783002230e+00 4.118081992460597696e-01 5.479568732069381998e-01 5.213068570590783102e-01 3.223300244231734890e-01 5.311815758863926984e-01 -1.184491954618200754e-01 -1.272917813044797786e+00 5.172337630086061289e-01 5.314657564765802311e-01 4.828251171900306282e-01 5.881715703502277126e-01 5.174951111796730618e-01 5.465584168477257698e-01 5.344695579611810077e-01 5.640071826647290454e-01 1.037591082745031201e+00 7.166650270309619097e-01 5.172053304463664070e-01 6.188081307867154823e-01 4.998417887143845051e-01 4.977592752875299453e-01 5.039375832360820651e-02 5.604222920267987185e-01 4.395997408369055059e-01 5.546895918296718131e-01 7.566470738673372054e-01 8.672598495523761164e-01 8.608544436022027568e-01 -5.318946007557781019e-01 5.188967303431341049e-01 4.529973042045772891e-01 5.236113728644213872e-01 5.939767465187896223e-01 9.128378154143661494e-01 5.258599543616515604e-01 5.286401877968717189e-01 -2.889914468249994983e-01 -8.905714155293059653e-01 2.329069354933716252e+00 5.047761258591948463e-01 9.022985147358191238e-01 4.151064034185699136e-01 5.755732935006063755e-01 3.929260353777641601e-01 1.517453874015457504e-01 5.206954906989651466e-01 5.418102216902840329e-01 -5.126552262416816941e-03 5.234545092582970627e-01 4.437439572151378742e-01 5.271471902497870676e-01 5.549117273953483309e-01 5.214476966963480509e-01 6.283061769641627992e-01 4.206626074926667624e-01 5.601606515484431892e-01 4.790016835998704425e-01 5.223163069353972121e-01 4.125707750701645971e-01 5.127015661818346004e-01 -2.573032906977714140e-01 5.154500410190717696e-01 6.419831838667523494e-01 5.505061326795739340e-01 7.689246341056633627e-01 9.232702269558075159e-01 7.273190512007914332e-01 -6.104646473324931710e-01 9.815034942620898262e-01 1.835027273394734149e+00 5.030522969989400517e-01 4.637740429799505626e-01 1.085101071464505962e+00 5.677742052808667506e-01 7.688575095732758102e-01 5.208759706253724975e-01 1.866415755373390217e+00 5.230307435334059507e-01 4.313756201067510121e-01 1.235616362686528857e+00 -6.586754344363947300e-02 5.022369150401201354e-01 -1.559450225272579760e-01 -9.792925901602330674e-01 -1.668835278975317193e-01 7.731771427885973935e-01 5.745946001378106072e-01 5.161157398609744762e-01 -3.218706768175767508e-01 5.332125439119469457e-01 5.450620749712932478e-02 -4.022438317785228534e-01 5.277454324589334611e-01 5.165475731833036876e-01 5.278646768959185387e-01 5.281505489161854028e-01 4.844234568240624039e-01 9.159159022506591086e-01 -4.331447644057853652e-01 5.204251310592147295e-01 4.998249607145859863e-01 5.959894756503714142e-01 1.173349459193861133e+00 4.872815004292843089e-01 6.759505982626232701e-01 5.226258988749411527e-01 4.888562559222977416e-02 -4.063911190688299091e-01 5.557723962360887615e-01 5.676397830191441951e-01 6.860400394596127827e-01 5.219473639412102184e-01 3.628973989037944659e-01 5.231282365837579551e-01 5.186289358732639743e-01 3.957800967760359834e-01 5.316190128255156022e-01 8.405628995180348673e-01 2.583839182954236868e+00 -2.482931937313752890e-01 6.592051230628380720e-01 3.369797307139652531e-01 2.030320491745935541e-01 6.592294223906742801e-01 -5.629388331981454580e-02 -1.573951420060945683e+00 4.978399107633913467e-01 2.646104287127626797e+00 5.732348038040919747e-01 1.648352974098409585e-01 1.596172414074772949e-01 4.961904592651540935e-01 5.887641241746972565e-01 1.577539629229006035e+00 5.101037475024995382e-01 1.260844598045054443e-01 4.198480461906545225e-01 1.728742086544978518e+00 6.036625447704105918e-01 7.821844554034037555e-01 5.236489323342519153e-01 7.382758694607695071e-01 4.631114608959207568e-01 5.780361951862797998e-01 2.316262849618290140e-02 5.260671977234543384e-01 5.511012918956275097e-01 -5.811532663863274717e-01 -9.128987535811168563e-02 1.180557848513098529e+00 2.391372339836193017e-01 4.808481687890397982e-01 7.147635597019176279e-01 5.383752445028733291e-01 2.017182934973418718e+00 6.722313321329532743e-01 1.955439630030722867e-02 3.430666794175991630e-01 3.956978234566991826e-01 1.135338584977682919e+00 5.026761853227130761e-01 -2.697778942332573412e-02 5.340871452941544639e-01 -1.025188668586634808e-02 5.421182783882487755e-01 5.217563506336948542e-01 2.662341145304876998e-03 -3.415247885783419951e-02 6.637899295851031889e-01 5.369736455733471470e-01 5.885787367160373318e-01 2.116237398636980904e-01 4.181388054662289466e-01 5.185570364594284110e-01 4.773658815720621673e-01 5.014668568340481247e-01 4.792665798195229199e-01 5.930904337054551112e-01 1.019787188048436155e+00 3.163719891957517127e+00 9.539132979274377311e-01 5.214748765665553343e-01 5.967070725140283249e-01 2.170327739276907142e-01 5.179254641610816501e-01 8.557780596808006734e-01 5.048252990760693226e-01 1.317062677527440551e+00 4.652019050087938257e-01 -5.880689885486996005e-01 -1.976534396814146055e-02 4.160937173278387857e-01 6.149139550849326286e-01 5.628059935835114658e-01 5.211519229594970826e-01 5.622022107175609490e-02 5.181282907429671791e-01 4.692700126713900133e-01 -3.784575667623065076e+00 4.788917631423972865e-01 5.168051577509380490e-01 1.135882880005860907e+00 5.213555125170152849e-01 4.515542290127141922e-01 6.780851962353887652e-01 -9.036826657025085474e-01 -5.008035116327594904e-01 3.088023554218120512e-02 5.178848207154503891e-01 5.293832856918407881e-01 2.127467379709787609e-01 5.258878961465220936e-01 -3.437436989175267077e-01 5.742464046987098003e-01 5.364039570358162257e-01 6.961335508800404748e-01 5.505809827172329918e-01 4.687956908720655735e-01 1.488822724261586461e-01 -7.747423575439117416e-01 6.557362870326615134e-01 5.553563139508552737e-01 1.569989743958217776e-01 5.188853534088666564e-01 5.399011105891623474e-01 5.204356882737962708e-01 6.696286682835095316e-01 5.780077761076720666e-01 5.476837552422997302e-01 5.030618802480993912e-01 1.835027270316740955e+00 3.542990764087552980e-01 5.389076452019385677e-01 -1.315506907941025594e-01 5.384363682245152383e-01 6.363717788724901903e-01 5.034506119340355079e-01 4.870315411595407817e-01 3.632680497903696959e-01 9.506139859733284680e-01 1.218984945542125331e+00 5.552687150254359549e-01 5.877185008679921552e-01 5.968720671447214077e-01 4.851701938851892826e-01 5.485642921517787096e-01 5.204530519009786804e-01 9.815529217843416143e-01 6.979637002545004965e-01 -4.620823200902548500e-01 4.608457913306605591e-01 9.067490875960011465e-01 5.210050701977634313e-01 -3.052391297847845131e-02 5.303426287373884662e-01 1.439418851058175575e+00 -1.387638467176406654e-01 6.327646237520085926e-01 2.383947070539741420e-01 4.736756726457719835e-01 8.583583045975283765e-01 5.175819734043269893e-01 3.722981501793904968e-01 1.407571266840609736e+00 4.691630129756905743e-01 5.235726500530061278e-01 -6.910858522170501006e-01 4.445831170170392865e-01 1.040348783713739955e+00 6.171398576939182146e-01 7.114866766368353745e-02 9.843665149330821373e-01 -2.758866625189656391e-02 7.031054317158572653e-01 1.643551211590643213e+00 -8.643024038052633529e-01 5.838289161910432679e-01 5.204941765753150484e-01 -4.717092624504575782e-01 3.042557856290841745e-01 5.956205743385661888e-01 5.018110067314668354e-01 4.897247631580363691e-01 4.040406829662416821e-01 2.629073082465626654e-01 3.459366807142661981e-01 5.798445903319897621e-01 5.243915393281692872e-01 8.255341989362584287e-03 -1.388738522748240167e-01 5.302297512483057362e-01 1.066856224866717273e+00 5.103675731310034491e-01 -5.812607726039932254e-01 4.748089486808728110e-01 5.200708818471457828e-01 5.579670487274821511e-01 4.506852720944236335e-02 3.265579940458947505e-01 5.228948691599499821e-01 5.187439249156901022e-01 4.520398330012271315e-01 -6.257382919238716965e-03 5.618118095292510272e-01 5.271252795003310565e-01 5.996061716613404480e-01 2.100650766229920308e+00 -5.745670986481400504e-03 3.877009224990727865e-01 5.670576416582332469e-01 1.847662787879369217e+00 5.256237214879818653e-01 5.353781076725877552e-01 2.232928190537356375e-02 5.604222517268920845e-01 5.270668447845431315e-01 4.774747140219529062e-01 3.904093251941705423e-01 5.055552569144414754e-01 4.329488610570351170e-01 5.184522724967980389e-01 -5.508464222402954524e-01 5.196178125636059519e-01 5.085889667752547805e-01 5.221027470279719918e-01 1.197675000408358503e+00 5.190489309179595612e-01 -2.475334130762493479e-01 1.111518213468044136e+00 -1.299600363703352413e+00 -5.364302795193777174e-01 5.374839442186682970e-01 5.225393778863571814e-01 6.603590222954714983e-01 5.235631354699228357e-01 4.631348415732078894e-01 5.475572010367795173e-01 5.604222588173162212e-01 5.203303972045647541e-01 4.819617856211624862e-01 5.974735689888563961e-01 5.181772259004631120e-01 3.103324144382699212e-01 5.118087153788790644e-01 5.404763322738332931e-01 3.983762582131561425e-01 5.104364952238883424e-01 5.220322067472049632e-01 5.400065785349182912e-01 6.536443067974548882e-01 5.202039459740248617e-01 7.095366096559908575e-01 5.057219276799767016e-01 5.219254324496332975e-01 5.393048376031784885e-01 4.006680272403013165e-01 3.763951258506066377e-01 2.454876351883023222e+00 4.824431473268448456e-01 6.157167933029787932e-01 2.980917437617680021e-01 5.812166809335322926e-01 1.117859524558427742e+00 4.203307753261903978e-01 6.953516413748038749e-01 5.204641046662329407e-01
7.133819835640088369e-01 3.076359444332830706e-01 4.419182766087703662e-01 -1.957240902066997856e-02 3.096013381175100609e-01 3.640857930335462123e-01 5.369682279870324759e-01 4.084668405363636734e-01 3.437797481101607100e-01 3.030269997841156249e-01 2.071262432984576574e+00 1.728908334646134692e+00 -1.463432252600373129e+00 6.014119647971961635e-01 3.152661315956916677e-01 4.532317806184190667e-01 1.334964100474387017e-01 4.428363564861714785e-01 4.199664679233177100e-01 2.969772732727223308e-01 4.342390865533665156e-01 2.139866836418552687e+00 3.667007197210220837e-01 3.553249627871418737e-01 7.445091080514806281e-01 -1.860755045888579373e-01 4.223793326395727799e-01 1.977101833140519072e-01 2.719080688851427396e-01 -9.115070122269014474e-01 4.243852411954581183e-01 -1.512619978247218833e-01 2.890732619921141944e-01 3.392220908762299536e-01 -4.156730900939724638e-01 4.952725720525877895e-01 3.329282544175213299e-01 -3.805141134434986139e-01 -3.281508094192004954e+00 2.939804780131888839e-01 1.182218523659995801e+00 1.447747053758578206e-01 -1.682050277795067994e-01 7.917090133653857942e-01 5.804288851970150764e-01 3.263533240840874594e-01 -1.978501968082395715e-02 3.052160415384835290e-01 1.625106223531813388e-01 6.537028639258265494e-01 6.856120684341964200e-01 4.971380117664934706e-01 -1.780517231537646350e-01 2.312212497263096689e-01 5.971297425095744016e-01 6.536351458596093567e-01 3.190804733602187748e-01 2.419992838134117363e-01 3.455857297688021967e-01 3.466152948939221212e-01 4.308338445425759500e-01 4.352655057442490483e-01 3.324561658474352588e-01 3.667007211254886268e-01 -3.440729433668507919e-01 1.325397649513547771e-01 3.097225434710368930e-01 3.143602854257618873e-01 2.177439496084403736e-01 7.128967485060957454e-01 1.435001477973465445e-01 2.441333021110542179e-01 3.260630790012759572e-01 7.277912426515551481e-01 1.936494872523464750e+00 4.411802991933693185e-01 4.760207690299455008e-01 4.822086814762027718e-01 3.118292739044837281e-01 -1.350909054546979737e+00 3.205106799009649898e-01 5.620674988585350196e-01 2.372707586482065700e+00 7.703003887845491504e-02 2.562653466256855084e-01 -3.686754138603853259e-01 1.354488845451563839e-01 2.695217661494301864e-01 -5.817946056204208460e-01 -9.031000994149545047e-01 5.805164431763181199e-01 1.600463370590782919e+00 6.029357893221483355e-02 6.813617873808183178e-01 3.466916090271645046e-01 3.382840141503054010e-01 2.660202556656909301e-01 7.739961098204209966e-01 7.370294414417370987e-01 -1.861545932931003011e-01 -1.791015368533867835e-01 5.518166012568599677e-02 2.787478805485961164e-01 2.148842909551234026e-01 -4.538645403985224619e-02 3.147048786017403899e+00 -2.919229935065743575e-01 2.762647576900280622e-01 9.363296922521834043e-02 8.113345346647573564e-01 2.618920688147183817e-01 5.105738301779081389e-01 1.622482658705775016e-01 3.984844324860875586e-01 -4.773110891930760769e-01 2.458586734924050332e-01 1.243314889775748722e-01 4.287665810565451929e-01 1.138755970299575093e+00 3.399952282956458238e-01 -1.467247762664924515e+00 1.546057936334887251e-01 9.600500352998737885e-02 1.443502899319922372e+00 3.060602924636401378e-01 2.192123148477552963e+00 3.444711882723012208e-01 2.190445883287780726e-01 3.086898777795196724e-01 3.119740119215250740e-01 3.419004066305399991e-01 3.076001456965803960e-01 6.743545894591213008e-01 4.206162309884003414e-01 1.649602408786480512e-01 8.591558734873666614e-01 7.228978199671046712e-01 7.129252204369319612e-01 -3.382422890028907725e-01 2.126845294951389131e-01 2.895973281148080392e-01 3.219671232777146508e-01 3.408614383456512464e-01 2.422874656566321450e-01 3.096624915524517907e-01 6.992671846843857564e-01 -1.696683753990372023e-01 3.192060530123794759e-01 4.324564794214931229e-01 4.019015066734994424e-01 -2.166641475233689329e-01 2.646459042318675264e-02 3.263382406035038041e-01 2.741931158759467468e-01 2.899568197909274669e-01 3.161349034234794408e-01 -2.447218440787469529e+00 4.643429518960626723e-01 -6.042855994151429266e-01 -1.919035478049703758e-01 1.668281997027750430e-01 3.406789855947190415e-01 3.111776824701452671e-01 3.103537655188740585e-01 1.255783723859683620e-01 1.055143968266432086e-01 3.183951191834807903e-01 4.750531951438058398e-01 4.271660035322710769e-01 2.979646243622222079e-01 2.055074433840353987e-01 -1.978556915774882033e-02 3.264338776885954974e-01 3.135654720054856792e-01 -2.524012107104977254e+00 6.760318563018425930e-01 5.872604951101290105e-01 9.451434379139004305e-01 -4.592293857087537678e-01 1.173730322088169853e+00 2.790428158714295184e-02 3.143311828680596109e-01 1.242930302564975831e+00 3.387575459504648667e-01 3.095718890883831231e-01 2.924897707698149163e-01 3.551899581485280510e-01 3.095021824177475178e-01 -4.921426628488485555e-01 2.981626709372796058e-01 3.047829027061295104e-01 8.204981053164599469e-01 2.826585514548378142e-01 3.466366518626866067e-01 2.437069067992252425e-01 3.113683546622161291e-01 -1.679378932673926350e+00 3.235248550724258987e-01 3.300079632335443658e-01 3.256595305702995602e-01 4.804565435258342093e-02 3.669234005165485368e-01 3.882990392395802015e-01 1.463849281666732560e-01 -7.676275959733487309e-01 3.300079309973077413e-01 4.842574567256220930e-01 -5.201035321778076925e-01 3.528094085164489857e-01 1.982113915194202158e-01 2.377238069537541409e-01 -3.285263260186437329e+00 4.397093680298253537e-01 9.190881407875763909e-01 3.038449261997516193e-01 3.141519967756598031e-01 3.102161828699554480e-01 3.034962450977377602e-01 3.138578903061643444e-01 3.076743447014751442e-01 3.645672666425391339e-01 1.001588488045522252e-01 6.693506249303435851e-01 1.053969406457910263e-01 4.724815743659319112e-01 5.097578355362103464e-01 4.036005480255256406e-01 -6.913078352943730076e-01 2.314848653530239275e+00 4.031149945198456153e-01 1.247490751629263483e+00 -1.397295589313959807e+00 3.121734685753024263e-01 2.502341938402237731e-01 3.524282041804693844e-01 1.184513454592023729e+00 5.207949195522686425e-01 8.254515695896892380e-01 2.863615026738024483e-01 6.679364276901540443e-01 2.479944687730686326e-01 3.103643451682511767e-01 -1.182550442386864908e+00 4.184409335740272851e-01 3.108817791014190091e-01 4.996133700426160784e-01 8.846961896253587865e-01 -3.738838503188825491e-01 3.194109588521410803e+00 5.009156025142037505e-01 1.287502368562705835e+00 -2.529490839371915656e-01 3.133209920967211515e-01 3.667044677809780939e-01 3.424860374614740466e-01 2.427007986306959353e-01 3.572652628674454212e-01 -1.447409536383954531e-01 1.036015819809266575e-01 5.623649405323086770e-01 2.492856724261782453e-01 9.886370036525787830e-02 2.407211708816770213e-01 4.551684195555755208e-01 4.308338796140057103e-01 2.565798385760178491e-01 3.272067162776477911e+00 3.565849116869507229e-01 6.520892174876598002e-01 5.296873110195342571e-01 2.242269324148432608e-01 4.303799757267680048e-01 3.113814314885714474e-01 2.994120236774250876e-01 3.114347116858909859e-01 -5.965898366490590687e-01 4.310675901310953018e-01 2.852411672581833257e-01 1.410890800319131166e-01 3.249160021812473320e-01 1.545801759171951284e+00 3.611191206406250132e-01 3.113997427720426869e-01 2.004774280881862936e+00 5.065954910793954991e-01 2.692780721897017893e-01 2.668212361946589173e-01 3.223938356432076158e-01 2.458592259011002090e-01 -2.068978940312173442e+00 2.770851573926766953e-01 1.568716194915690698e+00 -6.541859557262158509e-02 3.604074265045785208e-01 6.753063072453296956e-01 3.256654510574469863e-01 -7.275880299963388698e-01 3.878280068022249560e-01 3.081181627771819587e-01 4.324818467900339303e-01 -3.980787943796303407e-01 3.164669322381953309e-01 -2.304081028390374541e+00 -2.016205300138307691e-02 3.313920704856392896e-01 5.995592813872303584e-01 3.101463005230168379e-01 3.122420579759182524e-01 4.894885360524686702e-01 1.792193565613846296e-01 -9.269800770399810874e-02 -7.707677545650925000e-01 -1.643257989626423525e-03 6.881006638842562806e-01 3.132836988568810654e-01 5.019728837895028883e-01 3.320672483942651576e-01 -2.015095989658112138e-02 3.089623894245520641e-01 2.462007879589530823e+00 6.813498924525995815e-01 2.470502381384501178e-01 -1.171752159944114746e+00 2.325767465187396632e-01 4.739161678295494617e+00 3.880127037350459274e-01 -1.724942660997331456e-01 5.712507595124030058e-01 -5.641589096827924976e+00 5.249873988489708321e-01 1.565448743034481671e+00 3.082626137960475798e-01 5.288357267675748430e-01 -4.499070652948319315e-01 4.344398857533076086e-01 2.846413008589692706e-01 3.066743953752328888e-01 2.236978958929261574e-01 2.963483986222514854e+00 -3.781423755571090006e-01 3.033373014009300705e-01 -1.927276228625313781e+00 3.248421768155577705e-01 -3.805141168573571431e-01 7.545873882037901215e-01 5.139025527703992013e-01 2.627651092651319686e-01 2.837573948505022758e-01 1.269690301583244807e+00 1.503689701993503325e-01 3.300076536269343497e-01 4.184461629789618109e-01 1.463849215543151783e-01 3.388303267830849452e-01 3.896439766510256253e-01 -6.181770456911415135e-01 3.134698536369693866e-01 5.579728469839811966e-01 3.961897014995156563e-01 1.717578897776094737e-01 3.097276474447425709e-01 4.982669208465784760e-01 5.139024999753825096e-01 4.733351003809003199e-01 3.100428119039304597e-01 1.754202611757956498e-01 3.996301725599015198e-01 3.469248243410791410e+00 3.161129953396810688e-01 1.206224227755588185e-01 4.308348541053768632e-01 8.416252476750651912e-01 4.686792280781981734e-01 -1.943723480473169285e-01 6.836131469628606849e-01 3.524659202012929149e-01 1.222795044298184280e-01 4.143867981348576812e-01 6.758064394472530489e-01 5.669227763447560742e-01 7.909437320023069429e-01 8.188348517318229103e-01 3.277752616861494550e-01 1.463849280619544113e-01 1.463849183848662250e-01 2.299756447382010349e-01 1.854783497233877254e-01 1.119849979979516741e+00 3.951523412071011321e-01 3.240845573040591621e-01 3.000899897245237202e-01 3.102119226052533207e-01 7.573649673865791021e-01 3.300078407909083911e-01 3.125032157812693279e-01 4.361973456095875612e-01 2.281722882825774346e-01 -6.382855043792141636e-01 3.280963182257807254e-01 3.148892883466909987e-01 3.825786533851033289e-01 6.812439963678217358e-01 6.899998837968983612e-01 1.463849273260834638e-01 1.091955141430173137e-01 3.108821172057359972e-01 5.023173273241661185e-01 -5.936152138848888038e-01 1.808093163907218415e-01 -3.547590603568882894e+00 1.996901534567575798e+00 6.348663942201614452e-01 -4.726075248139144369e-01 -1.951276308614964886e-02 2.070293491676571840e+00 3.173891530856054466e-01 6.463460733738840558e-01 -3.388951954787691040e-02 3.698276183629075065e-01 4.153424406467362551e-01 3.076968870597820427e-01 -5.177698641139510949e-01 3.660345743694255471e-01 2.076087248182472589e+00 2.692723993628606260e-01 -4.453528599251209141e-01 3.068071885400531218e-01 3.110130671480962894e-01 -1.459688685424056720e+00 2.814532091101636935e-01 3.680411520676981629e-01 4.033401602018052423e-01 1.328389576582638398e-01 3.163374139620080405e-01 2.083807822551228262e-01 3.041911815362838833e-01 -1.611261421894201740e-01 3.220913042303686913e-01 1.053786643941086870e-01 3.066035427806864111e-01 3.071453012538040150e-01 1.238802718822546237e-02 3.943066042407455951e-01 5.397095851062697625e-01 -1.405231671293255324e+00 -6.221478551869024098e-01 -1.155668650840648293e-01 1.187704225005172809e-01 1.983551445380075384e-01 4.328852325775480736e-01 3.610575662213816317e-01 7.243538360454608860e-01 -1.343737524691906993e-01 3.238949455415587875e-01 3.267263758016909492e-01 9.460086210630837267e-02 -1.612827264384433246e-01 3.006161546370520465e-01 4.625481488412930831e-01 4.798187075680425129e-01 2.927686923985745593e-01 2.782093592260299619e-01 3.068033031399527433e-01 2.490155345042522617e-01 3.128578611995407321e-01 4.954798148925420587e-01 3.455801522033921103e-01 3.104849402181400486e-01 6.845348284190219124e-01 3.336150141297548610e-01 7.332211975658642356e-01 1.142616942739760506e-02 5.532253718456541236e-01 2.696618017473759732e-01 -1.462044301087365161e+00 3.057248368048915976e-01 6.403230063238066760e-01 3.600625952195377621e-01 3.372140712326489598e-01 2.613307609669136000e-01 1.831972414467604726e-01 6.845482023648220560e-01 3.131545372958208229e-01 4.118063400522879447e-01 3.123968702655365859e-01 2.771414202047572939e-01 1.897359303619176873e-01 4.928625118308715414e-01 3.196262269460506400e-01 1.948757612022375962e-01 7.469792943597131085e-02 8.296147672966457109e-02 1.652977899567145581e+00 1.919789713977497203e-01 3.541613644852871223e-01 3.860882285295234029e-01 -8.552849241177881146e-01 3.501347544051049421e-01 2.502292703272352425e-01 3.789858771905660340e-01 -6.563912241062963560e-02 2.826192159135162418e-01 1.643736962074231922e+00 8.927350777614329047e-01 4.547116123378229235e-01 3.301953322610940433e-01 3.353761520826795683e-01 3.442926723070106609e-01 9.274993758646284947e-01 3.064640520752194508e+00 3.133559991658816934e-01 2.283514884223953809e-02 5.880661751940780002e-01 -2.203875268359039574e-01 3.100955647058143416e-01 3.109690510759458015e-01 1.078949251607335791e+00 3.096913521874956055e-01 -3.354303930490356578e-01 3.852360086319145394e-01 1.319439753687449979e-01 6.315690523911526855e-01 1.813735087762874176e+00 2.511672392639592855e-01 2.690770497837702280e-01 1.666150495151801580e+00 3.964803957559242531e-01 2.595343675613963619e-01 1.687737311235931736e-01 2.186874705609939684e-01 -2.008550348145921038e-02 5.123234040505807441e-01 2.424727311013873399e-01 7.239188594661922771e-01 2.720547460107871629e-01 2.276635295354565991e-01 3.196247018354209102e-01 4.119369634679565517e-01 3.972440664394256693e-01 2.607832119433298179e-01 8.920117745484469340e-01 5.134248768649815053e-01 4.880977773692722343e-01 2.760185582213914857e-01 2.507156631127823720e-01 3.134730854233431230e-01 5.904690620464879691e-01 7.762634800943939428e-01 3.667076230268169201e-01 3.122719328783300496e-01 5.534357312528592754e-01 3.077254539830338587e-01 7.122540123170615356e-01 2.858492473278084200e-01 4.697114770058215538e-01 -3.105307985725473952e-01 3.133782784978100255e-01 3.309404654389121458e-01 4.405774182559143992e-01 2.420686263415562645e-01 3.228205883871597126e-01 1.804659392937224105e+00 3.496129454070014131e-02 2.711014386361054740e-01 -2.013914657123345997e-01 1.663413005097906350e+00 1.156615806944083280e+00 3.896791418605902863e-02 -4.485296479453888541e-01 4.305962956478640580e-01 3.097345904904433289e-01 5.019305454204144867e-01 3.121020537673694362e-01 3.091862592790426967e-01 2.128519434026611701e-01 3.383730247121065071e-01 3.353263655859579639e-01 -1.966687673296499059e-02 -2.200096122548822197e-01 3.388247335281117101e-01 2.585035313116105793e-01 2.344864570919673874e-01 8.755622816725037172e-01 4.308338629028225508e-01 2.824110697013390570e-01 8.510810716951359156e-01 4.755945937540186352e-01 5.809887251972497557e-01 4.629753117404766249e-01 6.956954316181784836e-01 1.477306713453798714e+00 3.767314350807418610e-01 2.102204319662924981e+00 -2.420032938434237696e-02 1.500121957853059462e-01 3.110046420526261790e-01 2.789673173541156181e-01 3.654616340453404333e-01 2.979896557421385372e-01 3.224306247203271303e-01 3.100265735875860629e-01 3.656351323763077366e-01 2.061625692544920563e-01 -3.353701306818430150e-01 2.548945560286093870e-01 -6.714030779846397179e-02 3.026465584177729373e-01 4.325254888088636562e-01 4.308338629438974721e-01 2.217276207453522663e-01 2.055813820542922443e-01 -1.268216749246071640e+00 1.970610964155194544e+00 3.106209499170091148e-01 -7.409495559049413815e-01 2.971426911699220352e-01 3.197668232499843999e-01 3.136514702560700973e-01 -4.810336974396643761e+00 3.554784791050321413e+00 6.304689527281378547e-01 4.294991935215825701e-02 3.264654493312742489e-01 3.160149581636182980e-01 2.710358761638232417e-01 2.635112725662228872e+00 6.266827895979388829e-01 3.192399744222409463e-01 2.458588864096742377e-01 2.890556253872522685e-01 2.889467726097306732e-01 8.609720528319187993e-01 -3.750239287436823998e-01 -1.205509500774944787e+00 -1.224612382952150247e+00 3.166945628852053662e-01 3.153582789166893829e-01 7.305422134929767664e-01 3.720943003333915255e-01 1.435494224751386438e+00 4.833108123737684392e-01 3.088979469786836685e-01 3.024382333532045219e-01 3.251065513157578302e-01 3.293686675224942739e-01 3.031736507881017673e-01 6.437689745200230185e-01 2.672248072989627521e-01 6.604782168149512245e-01 2.290473201736069608e-01 4.858126052903503911e-02 3.033188273443438998e-01 1.821243422141756718e-01 3.391338156915337798e-01 2.561739328758557144e-01 6.424041905667937646e-01 5.139025436506606814e-01 3.420069273183103387e-01 2.651910725698879423e-01 3.084063180694248674e-01 2.694923678900029707e-01 1.643744263196785127e+00 1.908420266816062583e+00 3.034173553560123304e-01 3.532987216701032329e-01 3.124819986752512269e-01 1.631106300064350534e-01 2.262154776111564014e-01 3.623355515978884389e-01 3.102629228155372454e-01 3.260437682101471335e-01 8.042120331837556702e-01 8.875762430735090192e-01 2.503511044629902482e-01 1.877053895056375543e+00 3.051005153405872417e-01 -2.428603710138278471e-01 -2.726449735511987660e-01 -3.093965031518257081e-01 3.100414079514359211e-01 2.772195039805201433e-01 7.108214134217799574e-01 3.073320848136856798e-01 4.557135767931932424e-01 3.363908216711489207e-01 3.508659712440120315e-01 3.194228692122146329e-01 -3.591734402113848368e-02 1.014683303115599511e+00 3.319453790676314964e-01 3.940969630066583074e-01 3.093583267746820575e-01 3.549665658783224820e-01 3.163094371119735682e-01 3.940107282039391201e-01 -9.101548179984791931e-02 2.225137122573216109e-01 2.962293655323822716e-01 -1.970002803704797717e-02 4.308336590727091520e-01 1.102821897747933377e+00 9.639113877364761107e-01 -7.254173669259905699e-01 -3.805141133771818840e-01 6.582053741642173161e-01 -3.344700586371242235e+00 1.575309421443983782e+00 2.763137186187578087e-01 -1.924746178482757489e-02 3.139396901292890729e-01 8.959006469116221894e-01 3.148935369802470241e-01 4.184412489281438829e-01 -4.374399220612800732e-01 8.207774208254722259e-01 3.210251034621289246e-01 8.702564592741851568e-01 2.098574596337596798e+00 -3.748370476761122561e-01 -1.471261590356710780e+00 2.380157460120796431e-01 3.138622461030665667e-01 7.574156453323548366e-01 2.917586560318605193e-01 7.037762003025317403e-01 4.691271937060116359e-01 2.579682244934082824e-01 3.021372291395511001e-01 3.132425217534825501e-01 2.590491178180366894e-01 3.052572005164415625e-01 1.419451960207473551e+00 1.645218560113080652e+00 3.117106416713087969e-01 3.381031626360537778e-01 1.665424800835087205e-01 -2.460304796608190070e-01 2.189764625514161178e-01 -3.895095990601698394e-02 3.121825873873029789e-01 7.037713583396825179e-01 -5.170860696351393671e-01 2.712237465696805128e-01 2.845640446979996185e-01 1.530849570198243581e-01 3.022939240145545159e-01 2.086425830446974328e-01 3.093965536606383959e-01 3.116190420943152350e-01 2.735024238659452059e-02 2.844193260040631110e-01 4.354525599326366514e-01 1.126274103419221628e+00 1.107154939916252800e+00 9.216738650862114079e-01 2.029082758678449616e-01 7.877192602832996382e-01 1.490698313918210893e-01 4.901959503899959714e-01 -2.148562116951947321e+00 3.072398368173760441e-01 6.594792845132967374e-01 2.881639326841523574e-01 9.505845250927932311e-01 1.374218281217483240e+00 2.458586725006050855e-01 2.542525030115340701e-01 3.749141675493636305e-01 3.646789022727853768e-01 5.498792376797754233e-01 9.181488376966029374e-01 -7.993128290928172008e-01 2.122758239052036089e-01 5.055929549229850467e-02 3.143649884177167064e-01 3.413636678590692974e-01 7.677253944821643694e-01 -2.394878487878320805e-01 4.045440535447296093e-01 3.029019243268527006e-01 3.599776726671246041e-01 8.929645824539488297e-01 4.306420929947481491e-01 -2.170607581146655196e-01 8.588011251102740662e-01 -4.246105136559073789e-02 5.671928334736994204e-01 2.777800687609259800e-01 1.291031396483467875e+00 5.886461473384444476e-01 7.249592393801509438e-01 4.375622166792024204e-01 4.866585041336534134e-01 -5.697073615056740259e-01 2.339425003405523340e-01 7.579848815919251193e-01 3.231320746205090799e-01 6.181584997038136464e-01 2.863052508770612126e-01 3.097396353089980070e-01 7.207767838296672558e-01 1.530036915344022697e-01 -2.058747145650984933e+00 2.041101401309269314e-01 2.556231852465167265e-01 8.801325050475942158e-01 3.653541167830760550e-01 3.881767541114389819e-01 3.756797819307021169e-01 3.160178475763620876e-01 3.938892700160235849e-01 8.239059801094460178e-02 -1.627133504684393550e+00 7.591017249995797300e-01 2.474696402134700102e-01 3.093248001785730561e-01 2.202475893709958665e-01 8.211956009131425871e-01 3.076907030413881805e-01 -1.499217721808575876e-01 3.407593734801198648e-01 1.123142827541671496e+00 2.667437286674445573e-01 4.159889539625377664e-01 1.047780495141548363e+00 4.013435872862992082e-01 2.811581182040886251e+00 3.349102564363661827e-01 3.027945136985830676e-01 7.046431650898059562e-01 3.384188947179415097e-01 3.334765366669141806e-01 -2.134099408901044104e+00 4.422350928424395589e-01 3.274332422867823333e-01 5.175264767847035374e-01 3.047896520567849321e-01 2.012576725596283977e-01 -1.925975280253827970e-01 2.066194260777038050e+00 -5.190537172297696733e-01 8.272907490354399762e-01 3.121008699606854231e-01 2.912062128409880213e-01 8.274959824766470184e-01 3.182265927505496528e-01 1.338918071041596658e+00 2.087661752627724132e-01 3.783377556214252424e-01 -8.854227870483333263e-01 -1.327251794269970198e-01 -5.109265602406818374e-01 -4.002155500653811870e+00 2.975388095992047788e+00 2.876446278971055495e-02 2.928325925047677858e-01 -1.645070799012281926e+00 3.076964007930347300e-01 3.820828297994755540e-01 3.126525480289649161e-01 1.708979383222674620e-01 6.416722151085449966e-01 6.012424478358907587e-01 1.068305505004399025e+00 -3.805141129809954670e-01 -2.315086064147235112e-01 2.334657393781005841e-01 -1.192018312923002865e+00 2.630840082745499742e-01 -6.516030727778747700e-01 3.244905055738705468e-01 4.535293949224142307e-01 9.165266907173522104e-02 4.519814725790982091e-01 2.651293238135250530e-01 -4.288584775979260161e-02 2.318132932847190852e-01 2.883814450994420242e-01 3.645394111020990868e-01 3.321332519616154721e-01 3.087390305493601383e-01 -7.256123400626073305e-01 5.009021545463220315e-01 1.542649704665091992e+00 7.086549444303646972e-02 2.371130161317158702e-01 2.742605460527096639e-01 1.206584060169913153e+00 3.327091571313623986e-01 1.085515355657248465e-01 8.887157682880056919e-01 2.578964205368430296e-01 1.874391664621252174e+00 2.703623994791193308e-01 1.318741674136613140e+00 3.158858977482824071e-01 7.354228214795465179e-01 1.354006641078160156e+00 3.728190953591766221e-01 3.365560495292724275e-01 9.390620962827435081e-01 -1.870011632066700125e-01 -6.264354395591523184e-02 2.244827976301519978e-01 3.032780917778885033e-01 3.593186789901709477e-01 1.443117596677828685e-01 1.396522312613558414e-01 -3.770455160181991339e-01 1.292420574957232393e+00 2.938006615983199676e-01 3.087655549224699314e-01 -3.216875579746973912e+00 5.464954659131840975e-01 2.589614399145818147e-01 3.869923969163589494e-01 3.917533935632496189e-01 4.561525285877591207e-01 -1.102214163266885816e+00 6.265381767340225672e-01 2.892589639811176672e-01 3.071891456253904029e-01 1.025984671446074525e+00 4.627635539362277561e-01 3.074818713305720874e-01 -1.409993789014278631e+00 3.826149344350729953e-01 8.929411219587388704e-01 3.291148726350242582e-01 3.235744592139537246e-01 3.289928454682715664e-01 7.122022162768476550e-01 -5.755927688500088457e-02 3.091544893815614259e-01 3.110558287877366879e-01 9.063284865614776309e-02 6.694408753364624598e-01 2.653496478988525142e-01 7.034120078395519338e-01 1.750474565838880669e-01 6.915218985833229137e-01 -2.387470925346953654e-01 -1.509678929239214762e+00 2.935340110644372724e-01 -1.956197028576383418e-02 3.241527967655754017e-01 3.736939977180196992e-01 5.479434545440704796e-02 5.139024966309525544e-01 3.011057118025406987e-01 8.327681703080994091e-02 4.389209905822425983e-01 2.841418151525078040e-01 3.001425954551860120e-01 2.767018302809503560e-01 -8.495427738568908094e-01 3.221006094660222585e-01 2.900229101380764618e-01 3.267470306834286964e-01 -2.726595359265622798e-01 3.155599897381744512e-01 8.273662534552848058e-01 -5.853122832939308129e-01 1.125450452755681008e+00 6.156373067981255609e-01 2.724445302729382457e-01 3.081025650884617884e-01 -2.054711241924146226e+00 3.253242649401395514e-01 2.162621506553607242e-01 2.838523926248525675e-01 5.139025723769221621e-01 3.131506314455346773e-01 3.238707852172175716e-01 6.765988074588907830e-02 3.092661315288500190e-01 4.349400653631226299e-01 3.415277975578844272e-01 2.482633214717875625e-01 2.875468915974687678e-01 3.176937375431616029e-01 3.091644557431463269e-01 2.707044542962413480e-01 9.727565817908878643e-02 3.144882719210211897e-01 6.219828459298536449e-01 1.751797372438622102e-01 3.092368203134633342e-01 -1.425560614582163377e-01 1.779992452466551411e-01 6.105911926347273866e-01 4.514699907501755760e+00 3.465297343187857537e-01 7.921693621772142591e-02 5.622933875642420753e-01 1.826456933630434820e-01 1.561240950517253978e+00 3.447689252307575281e-01 6.402021531415543754e-01 3.064116698713345577e-01
