# 
#                 ----------------------------------------------------
#                 Data from a 3D direct N-body simulation. 
# 
#                 rows are i-particle; 
#                 coumns are :mass, tag, x ,y, z, vx, vy, vz, ax, ay, az
# 
#                 NTHU, Computational Physics 
# 
#                 ----------------------------------------------------
#                 Time = 0.0
0.000000000000000000e+00 1.000000000000000000e+00 2.000000000000000000e+00 3.000000000000000000e+00 4.000000000000000000e+00 5.000000000000000000e+00 6.000000000000000000e+00 7.000000000000000000e+00 8.000000000000000000e+00 9.000000000000000000e+00 1.000000000000000000e+01 1.100000000000000000e+01 1.200000000000000000e+01 1.300000000000000000e+01 1.400000000000000000e+01 1.500000000000000000e+01 1.600000000000000000e+01 1.700000000000000000e+01 1.800000000000000000e+01 1.900000000000000000e+01 2.000000000000000000e+01 2.100000000000000000e+01 2.200000000000000000e+01 2.300000000000000000e+01 2.400000000000000000e+01 2.500000000000000000e+01 2.600000000000000000e+01 2.700000000000000000e+01 2.800000000000000000e+01 2.900000000000000000e+01 3.000000000000000000e+01 3.100000000000000000e+01 3.200000000000000000e+01 3.300000000000000000e+01 3.400000000000000000e+01 3.500000000000000000e+01 3.600000000000000000e+01 3.700000000000000000e+01 3.800000000000000000e+01 3.900000000000000000e+01 4.000000000000000000e+01 4.100000000000000000e+01 4.200000000000000000e+01 4.300000000000000000e+01 4.400000000000000000e+01 4.500000000000000000e+01 4.600000000000000000e+01 4.700000000000000000e+01 4.800000000000000000e+01 4.900000000000000000e+01 5.000000000000000000e+01 5.100000000000000000e+01 5.200000000000000000e+01 5.300000000000000000e+01 5.400000000000000000e+01 5.500000000000000000e+01 5.600000000000000000e+01 5.700000000000000000e+01 5.800000000000000000e+01 5.900000000000000000e+01 6.000000000000000000e+01 6.100000000000000000e+01 6.200000000000000000e+01 6.300000000000000000e+01 6.400000000000000000e+01 6.500000000000000000e+01 6.600000000000000000e+01 6.700000000000000000e+01 6.800000000000000000e+01 6.900000000000000000e+01 7.000000000000000000e+01 7.100000000000000000e+01 7.200000000000000000e+01 7.300000000000000000e+01 7.400000000000000000e+01 7.500000000000000000e+01 7.600000000000000000e+01 7.700000000000000000e+01 7.800000000000000000e+01 7.900000000000000000e+01 8.000000000000000000e+01 8.100000000000000000e+01 8.200000000000000000e+01 8.300000000000000000e+01 8.400000000000000000e+01 8.500000000000000000e+01 8.600000000000000000e+01 8.700000000000000000e+01 8.800000000000000000e+01 8.900000000000000000e+01 9.000000000000000000e+01 9.100000000000000000e+01 9.200000000000000000e+01 9.300000000000000000e+01 9.400000000000000000e+01 9.500000000000000000e+01 9.600000000000000000e+01 9.700000000000000000e+01 9.800000000000000000e+01 9.900000000000000000e+01 1.000000000000000000e+02 1.010000000000000000e+02 1.020000000000000000e+02 1.030000000000000000e+02 1.040000000000000000e+02 1.050000000000000000e+02 1.060000000000000000e+02 1.070000000000000000e+02 1.080000000000000000e+02 1.090000000000000000e+02 1.100000000000000000e+02 1.110000000000000000e+02 1.120000000000000000e+02 1.130000000000000000e+02 1.140000000000000000e+02 1.150000000000000000e+02 1.160000000000000000e+02 1.170000000000000000e+02 1.180000000000000000e+02 1.190000000000000000e+02 1.200000000000000000e+02 1.210000000000000000e+02 1.220000000000000000e+02 1.230000000000000000e+02 1.240000000000000000e+02 1.250000000000000000e+02 1.260000000000000000e+02 1.270000000000000000e+02 1.280000000000000000e+02 1.290000000000000000e+02 1.300000000000000000e+02 1.310000000000000000e+02 1.320000000000000000e+02 1.330000000000000000e+02 1.340000000000000000e+02 1.350000000000000000e+02 1.360000000000000000e+02 1.370000000000000000e+02 1.380000000000000000e+02 1.390000000000000000e+02 1.400000000000000000e+02 1.410000000000000000e+02 1.420000000000000000e+02 1.430000000000000000e+02 1.440000000000000000e+02 1.450000000000000000e+02 1.460000000000000000e+02 1.470000000000000000e+02 1.480000000000000000e+02 1.490000000000000000e+02 1.500000000000000000e+02 1.510000000000000000e+02 1.520000000000000000e+02 1.530000000000000000e+02 1.540000000000000000e+02 1.550000000000000000e+02 1.560000000000000000e+02 1.570000000000000000e+02 1.580000000000000000e+02 1.590000000000000000e+02 1.600000000000000000e+02 1.610000000000000000e+02 1.620000000000000000e+02 1.630000000000000000e+02 1.640000000000000000e+02 1.650000000000000000e+02 1.660000000000000000e+02 1.670000000000000000e+02 1.680000000000000000e+02 1.690000000000000000e+02 1.700000000000000000e+02 1.710000000000000000e+02 1.720000000000000000e+02 1.730000000000000000e+02 1.740000000000000000e+02 1.750000000000000000e+02 1.760000000000000000e+02 1.770000000000000000e+02 1.780000000000000000e+02 1.790000000000000000e+02 1.800000000000000000e+02 1.810000000000000000e+02 1.820000000000000000e+02 1.830000000000000000e+02 1.840000000000000000e+02 1.850000000000000000e+02 1.860000000000000000e+02 1.870000000000000000e+02 1.880000000000000000e+02 1.890000000000000000e+02 1.900000000000000000e+02 1.910000000000000000e+02 1.920000000000000000e+02 1.930000000000000000e+02 1.940000000000000000e+02 1.950000000000000000e+02 1.960000000000000000e+02 1.970000000000000000e+02 1.980000000000000000e+02 1.990000000000000000e+02 2.000000000000000000e+02 2.010000000000000000e+02 2.020000000000000000e+02 2.030000000000000000e+02 2.040000000000000000e+02 2.050000000000000000e+02 2.060000000000000000e+02 2.070000000000000000e+02 2.080000000000000000e+02 2.090000000000000000e+02 2.100000000000000000e+02 2.110000000000000000e+02 2.120000000000000000e+02 2.130000000000000000e+02 2.140000000000000000e+02 2.150000000000000000e+02 2.160000000000000000e+02 2.170000000000000000e+02 2.180000000000000000e+02 2.190000000000000000e+02 2.200000000000000000e+02 2.210000000000000000e+02 2.220000000000000000e+02 2.230000000000000000e+02 2.240000000000000000e+02 2.250000000000000000e+02 2.260000000000000000e+02 2.270000000000000000e+02 2.280000000000000000e+02 2.290000000000000000e+02 2.300000000000000000e+02 2.310000000000000000e+02 2.320000000000000000e+02 2.330000000000000000e+02 2.340000000000000000e+02 2.350000000000000000e+02 2.360000000000000000e+02 2.370000000000000000e+02 2.380000000000000000e+02 2.390000000000000000e+02 2.400000000000000000e+02 2.410000000000000000e+02 2.420000000000000000e+02 2.430000000000000000e+02 2.440000000000000000e+02 2.450000000000000000e+02 2.460000000000000000e+02 2.470000000000000000e+02 2.480000000000000000e+02 2.490000000000000000e+02 2.500000000000000000e+02 2.510000000000000000e+02 2.520000000000000000e+02 2.530000000000000000e+02 2.540000000000000000e+02 2.550000000000000000e+02 2.560000000000000000e+02 2.570000000000000000e+02 2.580000000000000000e+02 2.590000000000000000e+02 2.600000000000000000e+02 2.610000000000000000e+02 2.620000000000000000e+02 2.630000000000000000e+02 2.640000000000000000e+02 2.650000000000000000e+02 2.660000000000000000e+02 2.670000000000000000e+02 2.680000000000000000e+02 2.690000000000000000e+02 2.700000000000000000e+02 2.710000000000000000e+02 2.720000000000000000e+02 2.730000000000000000e+02 2.740000000000000000e+02 2.750000000000000000e+02 2.760000000000000000e+02 2.770000000000000000e+02 2.780000000000000000e+02 2.790000000000000000e+02 2.800000000000000000e+02 2.810000000000000000e+02 2.820000000000000000e+02 2.830000000000000000e+02 2.840000000000000000e+02 2.850000000000000000e+02 2.860000000000000000e+02 2.870000000000000000e+02 2.880000000000000000e+02 2.890000000000000000e+02 2.900000000000000000e+02 2.910000000000000000e+02 2.920000000000000000e+02 2.930000000000000000e+02 2.940000000000000000e+02 2.950000000000000000e+02 2.960000000000000000e+02 2.970000000000000000e+02 2.980000000000000000e+02 2.990000000000000000e+02 3.000000000000000000e+02 3.010000000000000000e+02 3.020000000000000000e+02 3.030000000000000000e+02 3.040000000000000000e+02 3.050000000000000000e+02 3.060000000000000000e+02 3.070000000000000000e+02 3.080000000000000000e+02 3.090000000000000000e+02 3.100000000000000000e+02 3.110000000000000000e+02 3.120000000000000000e+02 3.130000000000000000e+02 3.140000000000000000e+02 3.150000000000000000e+02 3.160000000000000000e+02 3.170000000000000000e+02 3.180000000000000000e+02 3.190000000000000000e+02 3.200000000000000000e+02 3.210000000000000000e+02 3.220000000000000000e+02 3.230000000000000000e+02 3.240000000000000000e+02 3.250000000000000000e+02 3.260000000000000000e+02 3.270000000000000000e+02 3.280000000000000000e+02 3.290000000000000000e+02 3.300000000000000000e+02 3.310000000000000000e+02 3.320000000000000000e+02 3.330000000000000000e+02 3.340000000000000000e+02 3.350000000000000000e+02 3.360000000000000000e+02 3.370000000000000000e+02 3.380000000000000000e+02 3.390000000000000000e+02 3.400000000000000000e+02 3.410000000000000000e+02 3.420000000000000000e+02 3.430000000000000000e+02 3.440000000000000000e+02 3.450000000000000000e+02 3.460000000000000000e+02 3.470000000000000000e+02 3.480000000000000000e+02 3.490000000000000000e+02 3.500000000000000000e+02 3.510000000000000000e+02 3.520000000000000000e+02 3.530000000000000000e+02 3.540000000000000000e+02 3.550000000000000000e+02 3.560000000000000000e+02 3.570000000000000000e+02 3.580000000000000000e+02 3.590000000000000000e+02 3.600000000000000000e+02 3.610000000000000000e+02 3.620000000000000000e+02 3.630000000000000000e+02 3.640000000000000000e+02 3.650000000000000000e+02 3.660000000000000000e+02 3.670000000000000000e+02 3.680000000000000000e+02 3.690000000000000000e+02 3.700000000000000000e+02 3.710000000000000000e+02 3.720000000000000000e+02 3.730000000000000000e+02 3.740000000000000000e+02 3.750000000000000000e+02 3.760000000000000000e+02 3.770000000000000000e+02 3.780000000000000000e+02 3.790000000000000000e+02 3.800000000000000000e+02 3.810000000000000000e+02 3.820000000000000000e+02 3.830000000000000000e+02 3.840000000000000000e+02 3.850000000000000000e+02 3.860000000000000000e+02 3.870000000000000000e+02 3.880000000000000000e+02 3.890000000000000000e+02 3.900000000000000000e+02 3.910000000000000000e+02 3.920000000000000000e+02 3.930000000000000000e+02 3.940000000000000000e+02 3.950000000000000000e+02 3.960000000000000000e+02 3.970000000000000000e+02 3.980000000000000000e+02 3.990000000000000000e+02 4.000000000000000000e+02 4.010000000000000000e+02 4.020000000000000000e+02 4.030000000000000000e+02 4.040000000000000000e+02 4.050000000000000000e+02 4.060000000000000000e+02 4.070000000000000000e+02 4.080000000000000000e+02 4.090000000000000000e+02 4.100000000000000000e+02 4.110000000000000000e+02 4.120000000000000000e+02 4.130000000000000000e+02 4.140000000000000000e+02 4.150000000000000000e+02 4.160000000000000000e+02 4.170000000000000000e+02 4.180000000000000000e+02 4.190000000000000000e+02 4.200000000000000000e+02 4.210000000000000000e+02 4.220000000000000000e+02 4.230000000000000000e+02 4.240000000000000000e+02 4.250000000000000000e+02 4.260000000000000000e+02 4.270000000000000000e+02 4.280000000000000000e+02 4.290000000000000000e+02 4.300000000000000000e+02 4.310000000000000000e+02 4.320000000000000000e+02 4.330000000000000000e+02 4.340000000000000000e+02 4.350000000000000000e+02 4.360000000000000000e+02 4.370000000000000000e+02 4.380000000000000000e+02 4.390000000000000000e+02 4.400000000000000000e+02 4.410000000000000000e+02 4.420000000000000000e+02 4.430000000000000000e+02 4.440000000000000000e+02 4.450000000000000000e+02 4.460000000000000000e+02 4.470000000000000000e+02 4.480000000000000000e+02 4.490000000000000000e+02 4.500000000000000000e+02 4.510000000000000000e+02 4.520000000000000000e+02 4.530000000000000000e+02 4.540000000000000000e+02 4.550000000000000000e+02 4.560000000000000000e+02 4.570000000000000000e+02 4.580000000000000000e+02 4.590000000000000000e+02 4.600000000000000000e+02 4.610000000000000000e+02 4.620000000000000000e+02 4.630000000000000000e+02 4.640000000000000000e+02 4.650000000000000000e+02 4.660000000000000000e+02 4.670000000000000000e+02 4.680000000000000000e+02 4.690000000000000000e+02 4.700000000000000000e+02 4.710000000000000000e+02 4.720000000000000000e+02 4.730000000000000000e+02 4.740000000000000000e+02 4.750000000000000000e+02 4.760000000000000000e+02 4.770000000000000000e+02 4.780000000000000000e+02 4.790000000000000000e+02 4.800000000000000000e+02 4.810000000000000000e+02 4.820000000000000000e+02 4.830000000000000000e+02 4.840000000000000000e+02 4.850000000000000000e+02 4.860000000000000000e+02 4.870000000000000000e+02 4.880000000000000000e+02 4.890000000000000000e+02 4.900000000000000000e+02 4.910000000000000000e+02 4.920000000000000000e+02 4.930000000000000000e+02 4.940000000000000000e+02 4.950000000000000000e+02 4.960000000000000000e+02 4.970000000000000000e+02 4.980000000000000000e+02 4.990000000000000000e+02 5.000000000000000000e+02 5.010000000000000000e+02 5.020000000000000000e+02 5.030000000000000000e+02 5.040000000000000000e+02 5.050000000000000000e+02 5.060000000000000000e+02 5.070000000000000000e+02 5.080000000000000000e+02 5.090000000000000000e+02 5.100000000000000000e+02 5.110000000000000000e+02 5.120000000000000000e+02 5.130000000000000000e+02 5.140000000000000000e+02 5.150000000000000000e+02 5.160000000000000000e+02 5.170000000000000000e+02 5.180000000000000000e+02 5.190000000000000000e+02 5.200000000000000000e+02 5.210000000000000000e+02 5.220000000000000000e+02 5.230000000000000000e+02 5.240000000000000000e+02 5.250000000000000000e+02 5.260000000000000000e+02 5.270000000000000000e+02 5.280000000000000000e+02 5.290000000000000000e+02 5.300000000000000000e+02 5.310000000000000000e+02 5.320000000000000000e+02 5.330000000000000000e+02 5.340000000000000000e+02 5.350000000000000000e+02 5.360000000000000000e+02 5.370000000000000000e+02 5.380000000000000000e+02 5.390000000000000000e+02 5.400000000000000000e+02 5.410000000000000000e+02 5.420000000000000000e+02 5.430000000000000000e+02 5.440000000000000000e+02 5.450000000000000000e+02 5.460000000000000000e+02 5.470000000000000000e+02 5.480000000000000000e+02 5.490000000000000000e+02 5.500000000000000000e+02 5.510000000000000000e+02 5.520000000000000000e+02 5.530000000000000000e+02 5.540000000000000000e+02 5.550000000000000000e+02 5.560000000000000000e+02 5.570000000000000000e+02 5.580000000000000000e+02 5.590000000000000000e+02 5.600000000000000000e+02 5.610000000000000000e+02 5.620000000000000000e+02 5.630000000000000000e+02 5.640000000000000000e+02 5.650000000000000000e+02 5.660000000000000000e+02 5.670000000000000000e+02 5.680000000000000000e+02 5.690000000000000000e+02 5.700000000000000000e+02 5.710000000000000000e+02 5.720000000000000000e+02 5.730000000000000000e+02 5.740000000000000000e+02 5.750000000000000000e+02 5.760000000000000000e+02 5.770000000000000000e+02 5.780000000000000000e+02 5.790000000000000000e+02 5.800000000000000000e+02 5.810000000000000000e+02 5.820000000000000000e+02 5.830000000000000000e+02 5.840000000000000000e+02 5.850000000000000000e+02 5.860000000000000000e+02 5.870000000000000000e+02 5.880000000000000000e+02 5.890000000000000000e+02 5.900000000000000000e+02 5.910000000000000000e+02 5.920000000000000000e+02 5.930000000000000000e+02 5.940000000000000000e+02 5.950000000000000000e+02 5.960000000000000000e+02 5.970000000000000000e+02 5.980000000000000000e+02 5.990000000000000000e+02 6.000000000000000000e+02 6.010000000000000000e+02 6.020000000000000000e+02 6.030000000000000000e+02 6.040000000000000000e+02 6.050000000000000000e+02 6.060000000000000000e+02 6.070000000000000000e+02 6.080000000000000000e+02 6.090000000000000000e+02 6.100000000000000000e+02 6.110000000000000000e+02 6.120000000000000000e+02 6.130000000000000000e+02 6.140000000000000000e+02 6.150000000000000000e+02 6.160000000000000000e+02 6.170000000000000000e+02 6.180000000000000000e+02 6.190000000000000000e+02 6.200000000000000000e+02 6.210000000000000000e+02 6.220000000000000000e+02 6.230000000000000000e+02 6.240000000000000000e+02 6.250000000000000000e+02 6.260000000000000000e+02 6.270000000000000000e+02 6.280000000000000000e+02 6.290000000000000000e+02 6.300000000000000000e+02 6.310000000000000000e+02 6.320000000000000000e+02 6.330000000000000000e+02 6.340000000000000000e+02 6.350000000000000000e+02 6.360000000000000000e+02 6.370000000000000000e+02 6.380000000000000000e+02 6.390000000000000000e+02 6.400000000000000000e+02 6.410000000000000000e+02 6.420000000000000000e+02 6.430000000000000000e+02 6.440000000000000000e+02 6.450000000000000000e+02 6.460000000000000000e+02 6.470000000000000000e+02 6.480000000000000000e+02 6.490000000000000000e+02 6.500000000000000000e+02 6.510000000000000000e+02 6.520000000000000000e+02 6.530000000000000000e+02 6.540000000000000000e+02 6.550000000000000000e+02 6.560000000000000000e+02 6.570000000000000000e+02 6.580000000000000000e+02 6.590000000000000000e+02 6.600000000000000000e+02 6.610000000000000000e+02 6.620000000000000000e+02 6.630000000000000000e+02 6.640000000000000000e+02 6.650000000000000000e+02 6.660000000000000000e+02 6.670000000000000000e+02 6.680000000000000000e+02 6.690000000000000000e+02 6.700000000000000000e+02 6.710000000000000000e+02 6.720000000000000000e+02 6.730000000000000000e+02 6.740000000000000000e+02 6.750000000000000000e+02 6.760000000000000000e+02 6.770000000000000000e+02 6.780000000000000000e+02 6.790000000000000000e+02 6.800000000000000000e+02 6.810000000000000000e+02 6.820000000000000000e+02 6.830000000000000000e+02 6.840000000000000000e+02 6.850000000000000000e+02 6.860000000000000000e+02 6.870000000000000000e+02 6.880000000000000000e+02 6.890000000000000000e+02 6.900000000000000000e+02 6.910000000000000000e+02 6.920000000000000000e+02 6.930000000000000000e+02 6.940000000000000000e+02 6.950000000000000000e+02 6.960000000000000000e+02 6.970000000000000000e+02 6.980000000000000000e+02 6.990000000000000000e+02 7.000000000000000000e+02 7.010000000000000000e+02 7.020000000000000000e+02 7.030000000000000000e+02 7.040000000000000000e+02 7.050000000000000000e+02 7.060000000000000000e+02 7.070000000000000000e+02 7.080000000000000000e+02 7.090000000000000000e+02 7.100000000000000000e+02 7.110000000000000000e+02 7.120000000000000000e+02 7.130000000000000000e+02 7.140000000000000000e+02 7.150000000000000000e+02 7.160000000000000000e+02 7.170000000000000000e+02 7.180000000000000000e+02 7.190000000000000000e+02 7.200000000000000000e+02 7.210000000000000000e+02 7.220000000000000000e+02 7.230000000000000000e+02 7.240000000000000000e+02 7.250000000000000000e+02 7.260000000000000000e+02 7.270000000000000000e+02 7.280000000000000000e+02 7.290000000000000000e+02 7.300000000000000000e+02 7.310000000000000000e+02 7.320000000000000000e+02 7.330000000000000000e+02 7.340000000000000000e+02 7.350000000000000000e+02 7.360000000000000000e+02 7.370000000000000000e+02 7.380000000000000000e+02 7.390000000000000000e+02 7.400000000000000000e+02 7.410000000000000000e+02 7.420000000000000000e+02 7.430000000000000000e+02 7.440000000000000000e+02 7.450000000000000000e+02 7.460000000000000000e+02 7.470000000000000000e+02 7.480000000000000000e+02 7.490000000000000000e+02 7.500000000000000000e+02 7.510000000000000000e+02 7.520000000000000000e+02 7.530000000000000000e+02 7.540000000000000000e+02 7.550000000000000000e+02 7.560000000000000000e+02 7.570000000000000000e+02 7.580000000000000000e+02 7.590000000000000000e+02 7.600000000000000000e+02 7.610000000000000000e+02 7.620000000000000000e+02 7.630000000000000000e+02 7.640000000000000000e+02 7.650000000000000000e+02 7.660000000000000000e+02 7.670000000000000000e+02 7.680000000000000000e+02 7.690000000000000000e+02 7.700000000000000000e+02 7.710000000000000000e+02 7.720000000000000000e+02 7.730000000000000000e+02 7.740000000000000000e+02 7.750000000000000000e+02 7.760000000000000000e+02 7.770000000000000000e+02 7.780000000000000000e+02 7.790000000000000000e+02 7.800000000000000000e+02 7.810000000000000000e+02 7.820000000000000000e+02 7.830000000000000000e+02 7.840000000000000000e+02 7.850000000000000000e+02 7.860000000000000000e+02 7.870000000000000000e+02 7.880000000000000000e+02 7.890000000000000000e+02 7.900000000000000000e+02 7.910000000000000000e+02 7.920000000000000000e+02 7.930000000000000000e+02 7.940000000000000000e+02 7.950000000000000000e+02 7.960000000000000000e+02 7.970000000000000000e+02 7.980000000000000000e+02 7.990000000000000000e+02 8.000000000000000000e+02 8.010000000000000000e+02 8.020000000000000000e+02 8.030000000000000000e+02 8.040000000000000000e+02 8.050000000000000000e+02 8.060000000000000000e+02 8.070000000000000000e+02 8.080000000000000000e+02 8.090000000000000000e+02 8.100000000000000000e+02 8.110000000000000000e+02 8.120000000000000000e+02 8.130000000000000000e+02 8.140000000000000000e+02 8.150000000000000000e+02 8.160000000000000000e+02 8.170000000000000000e+02 8.180000000000000000e+02 8.190000000000000000e+02 8.200000000000000000e+02 8.210000000000000000e+02 8.220000000000000000e+02 8.230000000000000000e+02 8.240000000000000000e+02 8.250000000000000000e+02 8.260000000000000000e+02 8.270000000000000000e+02 8.280000000000000000e+02 8.290000000000000000e+02 8.300000000000000000e+02 8.310000000000000000e+02 8.320000000000000000e+02 8.330000000000000000e+02 8.340000000000000000e+02 8.350000000000000000e+02 8.360000000000000000e+02 8.370000000000000000e+02 8.380000000000000000e+02 8.390000000000000000e+02 8.400000000000000000e+02 8.410000000000000000e+02 8.420000000000000000e+02 8.430000000000000000e+02 8.440000000000000000e+02 8.450000000000000000e+02 8.460000000000000000e+02 8.470000000000000000e+02 8.480000000000000000e+02 8.490000000000000000e+02 8.500000000000000000e+02 8.510000000000000000e+02 8.520000000000000000e+02 8.530000000000000000e+02 8.540000000000000000e+02 8.550000000000000000e+02 8.560000000000000000e+02 8.570000000000000000e+02 8.580000000000000000e+02 8.590000000000000000e+02 8.600000000000000000e+02 8.610000000000000000e+02 8.620000000000000000e+02 8.630000000000000000e+02 8.640000000000000000e+02 8.650000000000000000e+02 8.660000000000000000e+02 8.670000000000000000e+02 8.680000000000000000e+02 8.690000000000000000e+02 8.700000000000000000e+02 8.710000000000000000e+02 8.720000000000000000e+02 8.730000000000000000e+02 8.740000000000000000e+02 8.750000000000000000e+02 8.760000000000000000e+02 8.770000000000000000e+02 8.780000000000000000e+02 8.790000000000000000e+02 8.800000000000000000e+02 8.810000000000000000e+02 8.820000000000000000e+02 8.830000000000000000e+02 8.840000000000000000e+02 8.850000000000000000e+02 8.860000000000000000e+02 8.870000000000000000e+02 8.880000000000000000e+02 8.890000000000000000e+02 8.900000000000000000e+02 8.910000000000000000e+02 8.920000000000000000e+02 8.930000000000000000e+02 8.940000000000000000e+02 8.950000000000000000e+02 8.960000000000000000e+02 8.970000000000000000e+02 8.980000000000000000e+02 8.990000000000000000e+02 9.000000000000000000e+02 9.010000000000000000e+02 9.020000000000000000e+02 9.030000000000000000e+02 9.040000000000000000e+02 9.050000000000000000e+02 9.060000000000000000e+02 9.070000000000000000e+02 9.080000000000000000e+02 9.090000000000000000e+02 9.100000000000000000e+02 9.110000000000000000e+02 9.120000000000000000e+02 9.130000000000000000e+02 9.140000000000000000e+02 9.150000000000000000e+02 9.160000000000000000e+02 9.170000000000000000e+02 9.180000000000000000e+02 9.190000000000000000e+02 9.200000000000000000e+02 9.210000000000000000e+02 9.220000000000000000e+02 9.230000000000000000e+02 9.240000000000000000e+02 9.250000000000000000e+02 9.260000000000000000e+02 9.270000000000000000e+02 9.280000000000000000e+02 9.290000000000000000e+02 9.300000000000000000e+02 9.310000000000000000e+02 9.320000000000000000e+02 9.330000000000000000e+02 9.340000000000000000e+02 9.350000000000000000e+02 9.360000000000000000e+02 9.370000000000000000e+02 9.380000000000000000e+02 9.390000000000000000e+02 9.400000000000000000e+02 9.410000000000000000e+02 9.420000000000000000e+02 9.430000000000000000e+02 9.440000000000000000e+02 9.450000000000000000e+02 9.460000000000000000e+02 9.470000000000000000e+02 9.480000000000000000e+02 9.490000000000000000e+02 9.500000000000000000e+02 9.510000000000000000e+02 9.520000000000000000e+02 9.530000000000000000e+02 9.540000000000000000e+02 9.550000000000000000e+02 9.560000000000000000e+02 9.570000000000000000e+02 9.580000000000000000e+02 9.590000000000000000e+02 9.600000000000000000e+02 9.610000000000000000e+02 9.620000000000000000e+02 9.630000000000000000e+02 9.640000000000000000e+02 9.650000000000000000e+02 9.660000000000000000e+02 9.670000000000000000e+02 9.680000000000000000e+02 9.690000000000000000e+02 9.700000000000000000e+02 9.710000000000000000e+02 9.720000000000000000e+02 9.730000000000000000e+02 9.740000000000000000e+02 9.750000000000000000e+02 9.760000000000000000e+02 9.770000000000000000e+02 9.780000000000000000e+02 9.790000000000000000e+02 9.800000000000000000e+02 9.810000000000000000e+02 9.820000000000000000e+02 9.830000000000000000e+02 9.840000000000000000e+02 9.850000000000000000e+02 9.860000000000000000e+02 9.870000000000000000e+02 9.880000000000000000e+02 9.890000000000000000e+02 9.900000000000000000e+02 9.910000000000000000e+02 9.920000000000000000e+02 9.930000000000000000e+02 9.940000000000000000e+02 9.950000000000000000e+02 9.960000000000000000e+02 9.970000000000000000e+02 9.980000000000000000e+02 9.990000000000000000e+02
1.000000000000000000e+00 1.000000000000000000e+00 1.000000000000000000e+00 1.000000000000000000e+00 1.000000000000000000e+00 1.000000000000000000e+00 1.000000000000000000e+00 1.000000000000000000e+00 1.000000000000000000e+00 1.000000000000000000e+00 1.000000000000000000e+00 1.000000000000000000e+00 1.000000000000000000e+00 1.000000000000000000e+00 1.000000000000000000e+00 1.000000000000000000e+00 1.000000000000000000e+00 1.000000000000000000e+00 1.000000000000000000e+00 1.000000000000000000e+00 1.000000000000000000e+00 1.000000000000000000e+00 1.000000000000000000e+00 1.000000000000000000e+00 1.000000000000000000e+00 1.000000000000000000e+00 1.000000000000000000e+00 1.000000000000000000e+00 1.000000000000000000e+00 1.000000000000000000e+00 1.000000000000000000e+00 1.000000000000000000e+00 1.000000000000000000e+00 1.000000000000000000e+00 1.000000000000000000e+00 1.000000000000000000e+00 1.000000000000000000e+00 1.000000000000000000e+00 1.000000000000000000e+00 1.000000000000000000e+00 1.000000000000000000e+00 1.000000000000000000e+00 1.000000000000000000e+00 1.000000000000000000e+00 1.000000000000000000e+00 1.000000000000000000e+00 1.000000000000000000e+00 1.000000000000000000e+00 1.000000000000000000e+00 1.000000000000000000e+00 1.000000000000000000e+00 1.000000000000000000e+00 1.000000000000000000e+00 1.000000000000000000e+00 1.000000000000000000e+00 1.000000000000000000e+00 1.000000000000000000e+00 1.000000000000000000e+00 1.000000000000000000e+00 1.000000000000000000e+00 1.000000000000000000e+00 1.000000000000000000e+00 1.000000000000000000e+00 1.000000000000000000e+00 1.000000000000000000e+00 1.000000000000000000e+00 1.000000000000000000e+00 1.000000000000000000e+00 1.000000000000000000e+00 1.000000000000000000e+00 1.000000000000000000e+00 1.000000000000000000e+00 1.000000000000000000e+00 1.000000000000000000e+00 1.000000000000000000e+00 1.000000000000000000e+00 1.000000000000000000e+00 1.000000000000000000e+00 1.000000000000000000e+00 1.000000000000000000e+00 1.000000000000000000e+00 1.000000000000000000e+00 1.000000000000000000e+00 1.000000000000000000e+00 1.000000000000000000e+00 1.000000000000000000e+00 1.000000000000000000e+00 1.000000000000000000e+00 1.000000000000000000e+00 1.000000000000000000e+00 1.000000000000000000e+00 1.000000000000000000e+00 1.000000000000000000e+00 1.000000000000000000e+00 1.000000000000000000e+00 1.000000000000000000e+00 1.000000000000000000e+00 1.000000000000000000e+00 1.000000000000000000e+00 1.000000000000000000e+00 1.000000000000000000e+00 1.000000000000000000e+00 1.000000000000000000e+00 1.000000000000000000e+00 1.000000000000000000e+00 1.000000000000000000e+00 1.000000000000000000e+00 1.000000000000000000e+00 1.000000000000000000e+00 1.000000000000000000e+00 1.000000000000000000e+00 1.000000000000000000e+00 1.000000000000000000e+00 1.000000000000000000e+00 1.000000000000000000e+00 1.000000000000000000e+00 1.000000000000000000e+00 1.000000000000000000e+00 1.000000000000000000e+00 1.000000000000000000e+00 1.000000000000000000e+00 1.000000000000000000e+00 1.000000000000000000e+00 1.000000000000000000e+00 1.000000000000000000e+00 1.000000000000000000e+00 1.000000000000000000e+00 1.000000000000000000e+00 1.000000000000000000e+00 1.000000000000000000e+00 1.000000000000000000e+00 1.000000000000000000e+00 1.000000000000000000e+00 1.000000000000000000e+00 1.000000000000000000e+00 1.000000000000000000e+00 1.000000000000000000e+00 1.000000000000000000e+00 1.000000000000000000e+00 1.000000000000000000e+00 1.000000000000000000e+00 1.000000000000000000e+00 1.000000000000000000e+00 1.000000000000000000e+00 1.000000000000000000e+00 1.000000000000000000e+00 1.000000000000000000e+00 1.000000000000000000e+00 1.000000000000000000e+00 1.000000000000000000e+00 1.000000000000000000e+00 1.000000000000000000e+00 1.000000000000000000e+00 1.000000000000000000e+00 1.000000000000000000e+00 1.000000000000000000e+00 1.000000000000000000e+00 1.000000000000000000e+00 1.000000000000000000e+00 1.000000000000000000e+00 1.000000000000000000e+00 1.000000000000000000e+00 1.000000000000000000e+00 1.000000000000000000e+00 1.000000000000000000e+00 1.000000000000000000e+00 1.000000000000000000e+00 1.000000000000000000e+00 1.000000000000000000e+00 1.000000000000000000e+00 1.000000000000000000e+00 1.000000000000000000e+00 1.000000000000000000e+00 1.000000000000000000e+00 1.000000000000000000e+00 1.000000000000000000e+00 1.000000000000000000e+00 1.000000000000000000e+00 1.000000000000000000e+00 1.000000000000000000e+00 1.000000000000000000e+00 1.000000000000000000e+00 1.000000000000000000e+00 1.000000000000000000e+00 1.000000000000000000e+00 1.000000000000000000e+00 1.000000000000000000e+00 1.000000000000000000e+00 1.000000000000000000e+00 1.000000000000000000e+00 1.000000000000000000e+00 1.000000000000000000e+00 1.000000000000000000e+00 1.000000000000000000e+00 1.000000000000000000e+00 1.000000000000000000e+00 1.000000000000000000e+00 1.000000000000000000e+00 1.000000000000000000e+00 1.000000000000000000e+00 1.000000000000000000e+00 1.000000000000000000e+00 1.000000000000000000e+00 1.000000000000000000e+00 1.000000000000000000e+00 1.000000000000000000e+00 1.000000000000000000e+00 1.000000000000000000e+00 1.000000000000000000e+00 1.000000000000000000e+00 1.000000000000000000e+00 1.000000000000000000e+00 1.000000000000000000e+00 1.000000000000000000e+00 1.000000000000000000e+00 1.000000000000000000e+00 1.000000000000000000e+00 1.000000000000000000e+00 1.000000000000000000e+00 1.000000000000000000e+00 1.000000000000000000e+00 1.000000000000000000e+00 1.000000000000000000e+00 1.000000000000000000e+00 1.000000000000000000e+00 1.000000000000000000e+00 1.000000000000000000e+00 1.000000000000000000e+00 1.000000000000000000e+00 1.000000000000000000e+00 1.000000000000000000e+00 1.000000000000000000e+00 1.000000000000000000e+00 1.000000000000000000e+00 1.000000000000000000e+00 1.000000000000000000e+00 1.000000000000000000e+00 1.000000000000000000e+00 1.000000000000000000e+00 1.000000000000000000e+00 1.000000000000000000e+00 1.000000000000000000e+00 1.000000000000000000e+00 1.000000000000000000e+00 1.000000000000000000e+00 1.000000000000000000e+00 1.000000000000000000e+00 1.000000000000000000e+00 1.000000000000000000e+00 1.000000000000000000e+00 1.000000000000000000e+00 1.000000000000000000e+00 1.000000000000000000e+00 1.000000000000000000e+00 1.000000000000000000e+00 1.000000000000000000e+00 1.000000000000000000e+00 1.000000000000000000e+00 1.000000000000000000e+00 1.000000000000000000e+00 1.000000000000000000e+00 1.000000000000000000e+00 1.000000000000000000e+00 1.000000000000000000e+00 1.000000000000000000e+00 1.000000000000000000e+00 1.000000000000000000e+00 1.000000000000000000e+00 1.000000000000000000e+00 1.000000000000000000e+00 1.000000000000000000e+00 1.000000000000000000e+00 1.000000000000000000e+00 1.000000000000000000e+00 1.000000000000000000e+00 1.000000000000000000e+00 1.000000000000000000e+00 1.000000000000000000e+00 1.000000000000000000e+00 1.000000000000000000e+00 1.000000000000000000e+00 1.000000000000000000e+00 1.000000000000000000e+00 1.000000000000000000e+00 1.000000000000000000e+00 1.000000000000000000e+00 1.000000000000000000e+00 1.000000000000000000e+00 1.000000000000000000e+00 1.000000000000000000e+00 1.000000000000000000e+00 1.000000000000000000e+00 1.000000000000000000e+00 1.000000000000000000e+00 1.000000000000000000e+00 1.000000000000000000e+00 1.000000000000000000e+00 1.000000000000000000e+00 1.000000000000000000e+00 1.000000000000000000e+00 1.000000000000000000e+00 1.000000000000000000e+00 1.000000000000000000e+00 1.000000000000000000e+00 1.000000000000000000e+00 1.000000000000000000e+00 1.000000000000000000e+00 1.000000000000000000e+00 1.000000000000000000e+00 1.000000000000000000e+00 1.000000000000000000e+00 1.000000000000000000e+00 1.000000000000000000e+00 1.000000000000000000e+00 1.000000000000000000e+00 1.000000000000000000e+00 1.000000000000000000e+00 1.000000000000000000e+00 1.000000000000000000e+00 1.000000000000000000e+00 1.000000000000000000e+00 1.000000000000000000e+00 1.000000000000000000e+00 1.000000000000000000e+00 1.000000000000000000e+00 1.000000000000000000e+00 1.000000000000000000e+00 1.000000000000000000e+00 1.000000000000000000e+00 1.000000000000000000e+00 1.000000000000000000e+00 1.000000000000000000e+00 1.000000000000000000e+00 1.000000000000000000e+00 1.000000000000000000e+00 1.000000000000000000e+00 1.000000000000000000e+00 1.000000000000000000e+00 1.000000000000000000e+00 1.000000000000000000e+00 1.000000000000000000e+00 1.000000000000000000e+00 1.000000000000000000e+00 1.000000000000000000e+00 1.000000000000000000e+00 1.000000000000000000e+00 1.000000000000000000e+00 1.000000000000000000e+00 1.000000000000000000e+00 1.000000000000000000e+00 1.000000000000000000e+00 1.000000000000000000e+00 1.000000000000000000e+00 1.000000000000000000e+00 1.000000000000000000e+00 1.000000000000000000e+00 1.000000000000000000e+00 1.000000000000000000e+00 1.000000000000000000e+00 1.000000000000000000e+00 1.000000000000000000e+00 1.000000000000000000e+00 1.000000000000000000e+00 1.000000000000000000e+00 1.000000000000000000e+00 1.000000000000000000e+00 1.000000000000000000e+00 1.000000000000000000e+00 1.000000000000000000e+00 1.000000000000000000e+00 1.000000000000000000e+00 1.000000000000000000e+00 1.000000000000000000e+00 1.000000000000000000e+00 1.000000000000000000e+00 1.000000000000000000e+00 1.000000000000000000e+00 1.000000000000000000e+00 1.000000000000000000e+00 1.000000000000000000e+00 1.000000000000000000e+00 1.000000000000000000e+00 1.000000000000000000e+00 1.000000000000000000e+00 1.000000000000000000e+00 1.000000000000000000e+00 1.000000000000000000e+00 1.000000000000000000e+00 1.000000000000000000e+00 1.000000000000000000e+00 1.000000000000000000e+00 1.000000000000000000e+00 1.000000000000000000e+00 1.000000000000000000e+00 1.000000000000000000e+00 1.000000000000000000e+00 1.000000000000000000e+00 1.000000000000000000e+00 1.000000000000000000e+00 1.000000000000000000e+00 1.000000000000000000e+00 1.000000000000000000e+00 1.000000000000000000e+00 1.000000000000000000e+00 1.000000000000000000e+00 1.000000000000000000e+00 1.000000000000000000e+00 1.000000000000000000e+00 1.000000000000000000e+00 1.000000000000000000e+00 1.000000000000000000e+00 1.000000000000000000e+00 1.000000000000000000e+00 1.000000000000000000e+00 1.000000000000000000e+00 1.000000000000000000e+00 1.000000000000000000e+00 1.000000000000000000e+00 1.000000000000000000e+00 1.000000000000000000e+00 1.000000000000000000e+00 1.000000000000000000e+00 1.000000000000000000e+00 1.000000000000000000e+00 1.000000000000000000e+00 1.000000000000000000e+00 1.000000000000000000e+00 1.000000000000000000e+00 1.000000000000000000e+00 1.000000000000000000e+00 1.000000000000000000e+00 1.000000000000000000e+00 1.000000000000000000e+00 1.000000000000000000e+00 1.000000000000000000e+00 1.000000000000000000e+00 1.000000000000000000e+00 1.000000000000000000e+00 1.000000000000000000e+00 1.000000000000000000e+00 1.000000000000000000e+00 1.000000000000000000e+00 1.000000000000000000e+00 1.000000000000000000e+00 1.000000000000000000e+00 1.000000000000000000e+00 1.000000000000000000e+00 1.000000000000000000e+00 1.000000000000000000e+00 1.000000000000000000e+00 1.000000000000000000e+00 1.000000000000000000e+00 1.000000000000000000e+00 1.000000000000000000e+00 1.000000000000000000e+00 1.000000000000000000e+00 1.000000000000000000e+00 1.000000000000000000e+00 1.000000000000000000e+00 1.000000000000000000e+00 1.000000000000000000e+00 1.000000000000000000e+00 1.000000000000000000e+00 1.000000000000000000e+00 1.000000000000000000e+00 1.000000000000000000e+00 1.000000000000000000e+00 1.000000000000000000e+00 1.000000000000000000e+00 1.000000000000000000e+00 1.000000000000000000e+00 1.000000000000000000e+00 1.000000000000000000e+00 1.000000000000000000e+00 1.000000000000000000e+00 1.000000000000000000e+00 1.000000000000000000e+00 1.000000000000000000e+00 1.000000000000000000e+00 1.000000000000000000e+00 1.000000000000000000e+00 1.000000000000000000e+00 1.000000000000000000e+00 1.000000000000000000e+00 1.000000000000000000e+00 1.000000000000000000e+00 1.000000000000000000e+00 1.000000000000000000e+00 1.000000000000000000e+00 1.000000000000000000e+00 1.000000000000000000e+00 1.000000000000000000e+00 1.000000000000000000e+00 1.000000000000000000e+00 1.000000000000000000e+00 1.000000000000000000e+00 1.000000000000000000e+00 1.000000000000000000e+00 1.000000000000000000e+00 1.000000000000000000e+00 1.000000000000000000e+00 1.000000000000000000e+00 1.000000000000000000e+00 1.000000000000000000e+00 1.000000000000000000e+00 1.000000000000000000e+00 1.000000000000000000e+00 1.000000000000000000e+00 1.000000000000000000e+00 1.000000000000000000e+00 1.000000000000000000e+00 1.000000000000000000e+00 1.000000000000000000e+00 1.000000000000000000e+00 1.000000000000000000e+00 1.000000000000000000e+00 1.000000000000000000e+00 1.000000000000000000e+00 1.000000000000000000e+00 1.000000000000000000e+00 1.000000000000000000e+00 1.000000000000000000e+00 1.000000000000000000e+00 1.000000000000000000e+00 1.000000000000000000e+00 1.000000000000000000e+00 1.000000000000000000e+00 1.000000000000000000e+00 1.000000000000000000e+00 1.000000000000000000e+00 1.000000000000000000e+00 1.000000000000000000e+00 1.000000000000000000e+00 1.000000000000000000e+00 1.000000000000000000e+00 1.000000000000000000e+00 1.000000000000000000e+00 1.000000000000000000e+00 1.000000000000000000e+00 1.000000000000000000e+00 1.000000000000000000e+00 1.000000000000000000e+00 1.000000000000000000e+00 1.000000000000000000e+00 1.000000000000000000e+00 1.000000000000000000e+00 1.000000000000000000e+00 1.000000000000000000e+00 1.000000000000000000e+00 1.000000000000000000e+00 1.000000000000000000e+00 1.000000000000000000e+00 1.000000000000000000e+00 1.000000000000000000e+00 1.000000000000000000e+00 1.000000000000000000e+00 1.000000000000000000e+00 1.000000000000000000e+00 1.000000000000000000e+00 1.000000000000000000e+00 1.000000000000000000e+00 1.000000000000000000e+00 1.000000000000000000e+00 1.000000000000000000e+00 1.000000000000000000e+00 1.000000000000000000e+00 1.000000000000000000e+00 1.000000000000000000e+00 1.000000000000000000e+00 1.000000000000000000e+00 1.000000000000000000e+00 1.000000000000000000e+00 1.000000000000000000e+00 1.000000000000000000e+00 1.000000000000000000e+00 1.000000000000000000e+00 1.000000000000000000e+00 1.000000000000000000e+00 1.000000000000000000e+00 1.000000000000000000e+00 1.000000000000000000e+00 1.000000000000000000e+00 1.000000000000000000e+00 1.000000000000000000e+00 1.000000000000000000e+00 1.000000000000000000e+00 1.000000000000000000e+00 1.000000000000000000e+00 1.000000000000000000e+00 1.000000000000000000e+00 1.000000000000000000e+00 1.000000000000000000e+00 1.000000000000000000e+00 1.000000000000000000e+00 1.000000000000000000e+00 1.000000000000000000e+00 1.000000000000000000e+00 1.000000000000000000e+00 1.000000000000000000e+00 1.000000000000000000e+00 1.000000000000000000e+00 1.000000000000000000e+00 1.000000000000000000e+00 1.000000000000000000e+00 1.000000000000000000e+00 1.000000000000000000e+00 1.000000000000000000e+00 1.000000000000000000e+00 1.000000000000000000e+00 1.000000000000000000e+00 1.000000000000000000e+00 1.000000000000000000e+00 1.000000000000000000e+00 1.000000000000000000e+00 1.000000000000000000e+00 1.000000000000000000e+00 1.000000000000000000e+00 1.000000000000000000e+00 1.000000000000000000e+00 1.000000000000000000e+00 1.000000000000000000e+00 1.000000000000000000e+00 1.000000000000000000e+00 1.000000000000000000e+00 1.000000000000000000e+00 1.000000000000000000e+00 1.000000000000000000e+00 1.000000000000000000e+00 1.000000000000000000e+00 1.000000000000000000e+00 1.000000000000000000e+00 1.000000000000000000e+00 1.000000000000000000e+00 1.000000000000000000e+00 1.000000000000000000e+00 1.000000000000000000e+00 1.000000000000000000e+00 1.000000000000000000e+00 1.000000000000000000e+00 1.000000000000000000e+00 1.000000000000000000e+00 1.000000000000000000e+00 1.000000000000000000e+00 1.000000000000000000e+00 1.000000000000000000e+00 1.000000000000000000e+00 1.000000000000000000e+00 1.000000000000000000e+00 1.000000000000000000e+00 1.000000000000000000e+00 1.000000000000000000e+00 1.000000000000000000e+00 1.000000000000000000e+00 1.000000000000000000e+00 1.000000000000000000e+00 1.000000000000000000e+00 1.000000000000000000e+00 1.000000000000000000e+00 1.000000000000000000e+00 1.000000000000000000e+00 1.000000000000000000e+00 1.000000000000000000e+00 1.000000000000000000e+00 1.000000000000000000e+00 1.000000000000000000e+00 1.000000000000000000e+00 1.000000000000000000e+00 1.000000000000000000e+00 1.000000000000000000e+00 1.000000000000000000e+00 1.000000000000000000e+00 1.000000000000000000e+00 1.000000000000000000e+00 1.000000000000000000e+00 1.000000000000000000e+00 1.000000000000000000e+00 1.000000000000000000e+00 1.000000000000000000e+00 1.000000000000000000e+00 1.000000000000000000e+00 1.000000000000000000e+00 1.000000000000000000e+00 1.000000000000000000e+00 1.000000000000000000e+00 1.000000000000000000e+00 1.000000000000000000e+00 1.000000000000000000e+00 1.000000000000000000e+00 1.000000000000000000e+00 1.000000000000000000e+00 1.000000000000000000e+00 1.000000000000000000e+00 1.000000000000000000e+00 1.000000000000000000e+00 1.000000000000000000e+00 1.000000000000000000e+00 1.000000000000000000e+00 1.000000000000000000e+00 1.000000000000000000e+00 1.000000000000000000e+00 1.000000000000000000e+00 1.000000000000000000e+00 1.000000000000000000e+00 1.000000000000000000e+00 1.000000000000000000e+00 1.000000000000000000e+00 1.000000000000000000e+00 1.000000000000000000e+00 1.000000000000000000e+00 1.000000000000000000e+00 1.000000000000000000e+00 1.000000000000000000e+00 1.000000000000000000e+00 1.000000000000000000e+00 1.000000000000000000e+00 1.000000000000000000e+00 1.000000000000000000e+00 1.000000000000000000e+00 1.000000000000000000e+00 1.000000000000000000e+00 1.000000000000000000e+00 1.000000000000000000e+00 1.000000000000000000e+00 1.000000000000000000e+00 1.000000000000000000e+00 1.000000000000000000e+00 1.000000000000000000e+00 1.000000000000000000e+00 1.000000000000000000e+00 1.000000000000000000e+00 1.000000000000000000e+00 1.000000000000000000e+00 1.000000000000000000e+00 1.000000000000000000e+00 1.000000000000000000e+00 1.000000000000000000e+00 1.000000000000000000e+00 1.000000000000000000e+00 1.000000000000000000e+00 1.000000000000000000e+00 1.000000000000000000e+00 1.000000000000000000e+00 1.000000000000000000e+00 1.000000000000000000e+00 1.000000000000000000e+00 1.000000000000000000e+00 1.000000000000000000e+00 1.000000000000000000e+00 1.000000000000000000e+00 1.000000000000000000e+00 1.000000000000000000e+00 1.000000000000000000e+00 1.000000000000000000e+00 1.000000000000000000e+00 1.000000000000000000e+00 1.000000000000000000e+00 1.000000000000000000e+00 1.000000000000000000e+00 1.000000000000000000e+00 1.000000000000000000e+00 1.000000000000000000e+00 1.000000000000000000e+00 1.000000000000000000e+00 1.000000000000000000e+00 1.000000000000000000e+00 1.000000000000000000e+00 1.000000000000000000e+00 1.000000000000000000e+00 1.000000000000000000e+00 1.000000000000000000e+00 1.000000000000000000e+00 1.000000000000000000e+00 1.000000000000000000e+00 1.000000000000000000e+00 1.000000000000000000e+00 1.000000000000000000e+00 1.000000000000000000e+00 1.000000000000000000e+00 1.000000000000000000e+00 1.000000000000000000e+00 1.000000000000000000e+00 1.000000000000000000e+00 1.000000000000000000e+00 1.000000000000000000e+00 1.000000000000000000e+00 1.000000000000000000e+00 1.000000000000000000e+00 1.000000000000000000e+00 1.000000000000000000e+00 1.000000000000000000e+00 1.000000000000000000e+00 1.000000000000000000e+00 1.000000000000000000e+00 1.000000000000000000e+00 1.000000000000000000e+00 1.000000000000000000e+00 1.000000000000000000e+00 1.000000000000000000e+00 1.000000000000000000e+00 1.000000000000000000e+00 1.000000000000000000e+00 1.000000000000000000e+00 1.000000000000000000e+00 1.000000000000000000e+00 1.000000000000000000e+00 1.000000000000000000e+00 1.000000000000000000e+00 1.000000000000000000e+00 1.000000000000000000e+00 1.000000000000000000e+00 1.000000000000000000e+00 1.000000000000000000e+00 1.000000000000000000e+00 1.000000000000000000e+00 1.000000000000000000e+00 1.000000000000000000e+00 1.000000000000000000e+00 1.000000000000000000e+00 1.000000000000000000e+00 1.000000000000000000e+00 1.000000000000000000e+00 1.000000000000000000e+00 1.000000000000000000e+00 1.000000000000000000e+00 1.000000000000000000e+00 1.000000000000000000e+00 1.000000000000000000e+00 1.000000000000000000e+00 1.000000000000000000e+00 1.000000000000000000e+00 1.000000000000000000e+00 1.000000000000000000e+00 1.000000000000000000e+00 1.000000000000000000e+00 1.000000000000000000e+00 1.000000000000000000e+00 1.000000000000000000e+00 1.000000000000000000e+00 1.000000000000000000e+00 1.000000000000000000e+00 1.000000000000000000e+00 1.000000000000000000e+00 1.000000000000000000e+00 1.000000000000000000e+00 1.000000000000000000e+00 1.000000000000000000e+00 1.000000000000000000e+00 1.000000000000000000e+00 1.000000000000000000e+00 1.000000000000000000e+00 1.000000000000000000e+00 1.000000000000000000e+00 1.000000000000000000e+00 1.000000000000000000e+00 1.000000000000000000e+00 1.000000000000000000e+00 1.000000000000000000e+00 1.000000000000000000e+00 1.000000000000000000e+00 1.000000000000000000e+00 1.000000000000000000e+00 1.000000000000000000e+00 1.000000000000000000e+00 1.000000000000000000e+00 1.000000000000000000e+00 1.000000000000000000e+00 1.000000000000000000e+00 1.000000000000000000e+00 1.000000000000000000e+00 1.000000000000000000e+00 1.000000000000000000e+00 1.000000000000000000e+00 1.000000000000000000e+00 1.000000000000000000e+00 1.000000000000000000e+00 1.000000000000000000e+00 1.000000000000000000e+00 1.000000000000000000e+00 1.000000000000000000e+00 1.000000000000000000e+00 1.000000000000000000e+00 1.000000000000000000e+00 1.000000000000000000e+00 1.000000000000000000e+00 1.000000000000000000e+00 1.000000000000000000e+00 1.000000000000000000e+00 1.000000000000000000e+00 1.000000000000000000e+00 1.000000000000000000e+00 1.000000000000000000e+00 1.000000000000000000e+00 1.000000000000000000e+00 1.000000000000000000e+00 1.000000000000000000e+00 1.000000000000000000e+00 1.000000000000000000e+00 1.000000000000000000e+00 1.000000000000000000e+00 1.000000000000000000e+00 1.000000000000000000e+00 1.000000000000000000e+00 1.000000000000000000e+00 1.000000000000000000e+00 1.000000000000000000e+00 1.000000000000000000e+00 1.000000000000000000e+00 1.000000000000000000e+00 1.000000000000000000e+00 1.000000000000000000e+00 1.000000000000000000e+00 1.000000000000000000e+00 1.000000000000000000e+00 1.000000000000000000e+00 1.000000000000000000e+00 1.000000000000000000e+00 1.000000000000000000e+00 1.000000000000000000e+00 1.000000000000000000e+00 1.000000000000000000e+00 1.000000000000000000e+00 1.000000000000000000e+00 1.000000000000000000e+00 1.000000000000000000e+00 1.000000000000000000e+00 1.000000000000000000e+00 1.000000000000000000e+00 1.000000000000000000e+00 1.000000000000000000e+00 1.000000000000000000e+00 1.000000000000000000e+00 1.000000000000000000e+00 1.000000000000000000e+00 1.000000000000000000e+00 1.000000000000000000e+00 1.000000000000000000e+00 1.000000000000000000e+00 1.000000000000000000e+00 1.000000000000000000e+00 1.000000000000000000e+00 1.000000000000000000e+00 1.000000000000000000e+00 1.000000000000000000e+00 1.000000000000000000e+00 1.000000000000000000e+00 1.000000000000000000e+00 1.000000000000000000e+00 1.000000000000000000e+00 1.000000000000000000e+00 1.000000000000000000e+00 1.000000000000000000e+00 1.000000000000000000e+00 1.000000000000000000e+00 1.000000000000000000e+00 1.000000000000000000e+00 1.000000000000000000e+00 1.000000000000000000e+00 1.000000000000000000e+00 1.000000000000000000e+00 1.000000000000000000e+00 1.000000000000000000e+00 1.000000000000000000e+00 1.000000000000000000e+00 1.000000000000000000e+00 1.000000000000000000e+00 1.000000000000000000e+00 1.000000000000000000e+00 1.000000000000000000e+00 1.000000000000000000e+00 1.000000000000000000e+00 1.000000000000000000e+00 1.000000000000000000e+00 1.000000000000000000e+00 1.000000000000000000e+00 1.000000000000000000e+00 1.000000000000000000e+00 1.000000000000000000e+00 1.000000000000000000e+00 1.000000000000000000e+00 1.000000000000000000e+00 1.000000000000000000e+00 1.000000000000000000e+00 1.000000000000000000e+00 1.000000000000000000e+00 1.000000000000000000e+00 1.000000000000000000e+00 1.000000000000000000e+00 1.000000000000000000e+00 1.000000000000000000e+00 1.000000000000000000e+00 1.000000000000000000e+00 1.000000000000000000e+00 1.000000000000000000e+00 1.000000000000000000e+00 1.000000000000000000e+00 1.000000000000000000e+00 1.000000000000000000e+00 1.000000000000000000e+00 1.000000000000000000e+00 1.000000000000000000e+00
5.860589220263735799e-02 4.932336478390094148e-01 8.612974389502503492e-01 4.875205024290403255e-01 5.159318905986876036e-01 5.535025845436685188e-01 3.170410215475401583e-01 3.146339539896164661e-01 4.060992928157554083e-01 5.073169559038880339e-01 1.008738509914552717e+00 -2.711030936259825053e-01 1.138554272863652850e+00 5.243008010544742969e-01 4.957644748220485509e-01 4.797695827688444603e-01 9.433847447442430534e-01 6.654459641807740633e-01 3.703700155191921306e-01 5.080748309853601041e-01 3.707860500883577437e-01 8.594439248600344028e-01 3.145845603940398694e-01 4.902675219497567571e-01 6.868049814871001191e-01 7.851595117283056702e-01 4.706454182225460747e-01 5.016314201027755049e-01 5.072153310867818510e-01 8.947877815322056172e-01 5.001970748376612930e-01 4.561172812699450518e-01 8.185997644314035870e-01 5.191083159166106631e-01 7.366230033054377291e-01 4.887351908133505396e-01 6.899651700906090923e-01 8.757014927069114441e-01 1.241239418920411092e-01 5.159809861814041998e-01 5.682303792445191348e-01 -3.581719164868397143e-01 7.448982491330291555e-01 2.014593233715076537e-01 2.227184801091821875e-01 4.843676003108388084e-01 4.956285140261016409e-01 5.372095644245503676e-01 4.956550766917277029e-01 6.871899023259050998e-02 2.957061085495725494e-02 2.990621030297525573e-01 5.113106749576512566e-01 5.091978257557135956e-01 4.997116582523697392e-01 5.512877219103757415e-02 5.245322775519375424e-01 7.886098011140783015e-01 1.683414482641472365e-01 4.885114506412694402e-01 7.363523211077958042e-01 5.226669039267223260e-01 4.445248034761088984e-01 3.145866271720584306e-01 5.438806844171398813e-01 5.788206252572209998e-01 5.121932123577817020e-01 5.057431794339604103e-01 5.565085613199690640e-01 8.784696377760336725e-03 5.068542885267817155e-01 5.170958482698362335e-01 5.090165950724599986e-01 9.822075440732880303e-03 1.260107510001210684e+00 5.873929681354905785e-01 5.905370425683119651e-01 7.682158188866961002e-01 5.243798455661992097e-01 1.262435455515534599e+00 5.538074339999079498e-01 1.929720995212068357e-01 8.320798813602527932e-01 4.750398948662684639e-01 5.129425755244115814e-01 7.299243412399609721e-01 8.482890534208573641e-01 5.008023460080589517e-01 2.997374113395848694e-01 5.634056358562571365e-01 2.270893951162331059e-01 1.465743646072733775e+00 5.351204274567494812e-01 7.798731453006214898e-02 3.209483991020611882e-01 5.021265537954555658e-01 5.357462049176087149e-01 6.821419076960990591e-01 2.183527300002032767e-01 7.912719874149936050e-01 8.661885232406106860e-01 4.925865714157535158e-01 5.050711256061268806e-01 1.062650205496448841e+00 1.298581072537966508e-01 -1.118450139890519335e+00 -8.053347193408122440e-01 5.516015710785887594e-01 4.188792483413269485e-01 9.009588755788318082e-01 3.514346860921444549e-01 4.844338648032439076e-01 8.975633380469812961e-01 5.242149838751603008e-01 4.455061275606962967e-01 5.296131537459982663e-01 4.205844493037462772e-01 5.550911927607162788e-01 5.668518219612870279e-01 4.387768916407782105e-01 1.100027998060416623e+00 3.506974762305707372e-01 5.264032454968159414e-01 5.821370462994117645e-01 4.787046774423415196e-01 1.559397184907115319e+00 3.878015746286172516e-01 7.516876906639871070e-01 4.881407319897279051e-01 5.061872889869721837e-01 5.468999398677271140e-01 4.880670633812211889e-01 4.877403903959193210e-01 3.330221481727393962e-01 5.243475229382508207e-01 -1.651389757426714386e-02 9.060319866890730323e-01 -2.311043681769465660e-02 8.642403260907075557e-01 5.193860679756082677e-01 5.037867978228708354e-01 6.487125999953688993e-01 4.552687206362824313e-01 4.574830765401548538e-01 5.239871747341308117e-01 -3.249903981594187696e-02 5.387493374777347910e-01 4.907643956885324732e-01 4.336357317759889085e-01 -4.369094052548652130e-01 7.428645174364968407e-01 -5.726434819050020553e-02 4.846519232995232240e-01 5.011053650200749665e-01 7.974948557797491011e-01 4.511902969327572510e-01 7.732942507308946389e-01 5.780541517147780306e-01 7.946943022729683337e-01 7.884280956626978920e-01 3.363592109292188881e-01 4.600197730231665449e-01 5.090177722062229071e-01 4.585248330668331151e-01 1.131047220230953387e+00 -1.387928992363245129e-01 7.733427716903755744e-01 5.265866852293183964e-01 5.607074288024499475e-01 5.724626433828140515e-01 5.785478151244778378e-01 4.872329853980694736e-01 4.840627640791423381e-01 5.061177680700064130e-01 4.319394611176411436e-01 4.516226913416689082e-02 1.606797797445368436e-01 7.336486545286498295e-02 5.917493093240157043e-01 1.034350248610142797e+00 5.077593244714655452e-01 4.782299391032708846e-01 -2.327584704049716624e-01 7.760382151132440010e-01 5.100128736057089052e-01 5.606690896837983606e-01 5.046619003632509814e-01 4.878819373585971397e-01 1.758507057703255549e+00 7.860768919763453377e-01 4.573201098302975831e-01 -2.786913838634584306e-01 5.146167673781617546e-01 6.190332624887938673e-01 1.071000397112538000e-01 4.868157327879521490e-01 7.744078748416569624e-01 5.130423481003030250e-01 4.869228645136911560e-01 4.655797158866573082e-01 4.048108086342902534e-01 5.721031946698600379e-01 9.686990887007740358e-01 5.608177024894360763e-01 5.392013018612585862e-01 4.869227317397279431e-01 5.276338592132853167e-01 1.099300062594864791e+00 5.051241399342145666e-01 4.573689321397357843e-01 3.580589964359789379e-01 1.378865545551219429e-01 5.162125417140214223e-01 3.780302436426184465e-01 5.004819012265494527e-01 4.998874203284555673e-01 5.081324382652018246e-01 4.884142942032107526e-01 5.163311967473344088e-01 4.922566193504648857e-01 4.747015572223930446e-01 5.543339559574728126e-01 -3.630283004628442334e-01 6.106362021827037578e-01 7.716531728976144811e-01 4.282609659293874493e-01 6.173237132992919207e-01 6.068730976796872234e-01 7.854162967139420859e-01 8.286465075163650384e-01 -1.118012750735728200e-01 8.899414239185138298e-01 5.051712816033464559e-01 5.430394974510088790e-01 -5.535896071153793840e-02 6.467246967764216370e-01 3.897545129497592131e-01 4.366732706089902494e-01 -2.326344007738167900e-03 -1.099819647149182233e-01 5.701588615794237480e-01 5.195577711980347013e-01 7.228011880243939702e-02 4.354838151643580790e-01 4.761473876006663830e-01 1.067304680483201595e+00 -1.037133673346126994e-01 4.273087754186800091e-01 -1.046426498046739484e+00 5.663750629552511962e-01 5.522140808692054259e-01 5.024604366602076766e-01 5.135329512145380138e-01 3.145911090737315563e-01 5.201167488368104719e-01 5.088512789278466508e-01 4.507715726623487962e-01 4.789796763536614543e-01 6.291595906614303457e-01 1.431801929967865927e+00 4.416883736832223351e-01 4.587910550861658554e-01 2.636528378857450616e-01 5.083054887415604517e-01 7.406356778339769908e-01 4.885050524096060665e-01 1.819256365059125580e+00 5.179491029288919579e-01 3.891764421268048557e-01 9.253601699833466920e-01 5.443993896464536242e-01 7.409328523318619020e-01 5.078012987817731583e-01 4.999762859797600711e-01 5.029827248013204466e-01 4.817933620262508376e-01 1.326169329474466696e-01 8.803171682996826508e-01 8.530948278912443561e-01 -8.698547211508769750e-02 6.016319873512177008e-01 5.006345575008122051e-01 5.965009703040003997e-01 -3.442279540964833240e-01 3.441723586661731837e-01 7.879830991585425881e-01 5.574633512494492349e-01 5.182163242302060269e-01 5.296137019705725590e-01 6.067477998070167633e-01 5.119392650802933042e-01 4.694329117395136253e-01 4.524917710924298286e-01 5.460582060182296305e-01 -2.126005533869679623e-03 4.996447841349050956e-01 1.605674380345861518e+00 6.271805936527320435e-01 5.016681226622393686e-01 4.332063795175470911e-01 -2.188359931415030157e+00 5.007255582911512848e-01 1.056518855711761518e+00 4.939636138913726660e-01 5.666530692793900759e-01 -5.440571282380249896e-01 5.103166073691234317e-01 5.194504426977089029e-01 3.952848768691725190e-01 5.161253237784408920e-01 7.580401073394914535e-01 5.449844368207283907e-01 3.349730669837236441e-01 5.020676592380955983e-01 5.355171416563211384e-01 5.082166631704017057e-01 4.986592171360136883e-01 4.868413064309353167e-01 5.017645599900261155e-01 1.006794386621961301e+00 6.770882319491859647e-02 1.881817036984311908e+00 1.972196487657919439e+00 4.738490797826506729e-01 7.990824178041158743e-02 5.200976894282821616e-01 4.016336054959164792e-01 5.216106542183347461e-01 1.102077892034634132e+00 5.044276152114970380e-01 9.791760766675542405e-01 5.237530600736914899e-01 3.817140108467135251e-01 1.126429858401815975e+00 4.771913700861097340e-01 6.136472960220027417e-01 5.259922863838398799e-01 6.543348644915368828e-01 -2.010927147193354081e+00 1.270582754495929168e+00 5.100032494554734841e-01 6.446174262695439916e-01 5.029268173842748046e-01 8.757014937648572861e-01 4.412660642501071706e-01 4.979033330037083149e-01 3.244990763017802093e-01 4.944699411386481724e-01 1.362826306384575137e+00 2.846818089069235169e-01 4.869233457816211086e-01 4.354691950494192776e-01 5.608177024894339668e-01 4.017329037287745153e-01 4.352345566999157866e-01 7.685282161852563521e-01 5.120043786975619904e-01 5.165198067507422719e-01 4.660486489696831214e-01 6.168246859478253574e-01 5.157036312884257789e-01 3.776172794869757099e-01 4.979047521850449853e-01 6.107164613139537401e-01 5.170540893822938022e-01 6.239759248790693880e-01 1.025727128657670129e+00 8.260796649166571859e-01 4.954707873789179762e-01 5.913990184773476599e-01 7.382766036490389094e-01 5.774779117430006541e-03 7.462118909603938643e-01 4.932441512970232589e-01 7.360770060931082215e-02 5.108409804695384082e-01 1.021657618261712530e+00 5.561696177060770907e-01 3.629796296984335591e-01 2.443875478860319528e-01 -2.138440650316280611e-01 -1.624853122611498391e+00 4.943431317978425610e-01 5.608177024891525253e-01 5.608177024891642937e-01 5.104089383454408768e-01 2.736654978382749848e-01 4.460746306574958631e-02 4.895372626153366991e-01 5.229573425858417002e-01 3.067528778813872758e-01 5.120206815095292852e-01 1.159290836707450367e+00 4.869227445264638909e-01 5.154897003545857448e-01 5.276059127234427049e-01 4.236327722377370986e-01 5.029492032811212487e-01 5.021845934681794521e-01 3.491984201871290439e-01 7.504212046552105608e-01 5.039591414022953630e-01 2.985462972593261322e-02 5.608177292012238579e-01 5.796940639055305766e-01 5.298064025814079869e-01 7.083260208957329329e-01 7.162782684696803459e-01 7.077022044868459538e-01 5.495085592201892633e-01 1.005706267895797090e+00 4.807497781666194570e-01 -1.383047738731842946e+00 4.877276283951858526e-01 1.199344912298420329e+00 4.974091439990915298e-01 -4.588488308086287604e-01 4.803546099986250595e-01 3.370391863859964476e-01 8.955392718051835566e-01 5.150645277979992720e-01 7.108632956539333581e-01 5.311775631884043669e-01 9.613331632068021770e-01 4.604340369097312813e-01 4.785212882455065486e-01 5.469330527653050167e-01 4.817165229825513539e-01 6.762519929711777733e-01 5.099417227016892484e-01 8.316557876884895784e-01 7.616949467791209183e-02 4.252942002991556003e-01 5.249537470141329987e-01 6.842553140043149407e-01 5.163792567324536620e-01 7.154695520129358277e-01 4.825761884834212645e-01 6.107019294667676013e-01 6.677244389968347571e-01 5.226427683412859793e-01 1.893039992276054906e-01 9.229738660924442784e-02 1.353997701873451698e-01 8.107242282717841420e-01 5.004539017571133508e-01 2.386696572298734775e+00 5.669716784064441351e-01 6.481678312929765040e-01 5.806352265525412948e-01 7.561824434065621547e-01 1.968439805920567040e-02 5.168055039063975675e-01 4.729622090098332676e-01 4.897318746387570587e-01 1.034615442243263406e+00 7.163147183777014426e-01 5.179924262047430616e-01 3.798978243832248358e-01 8.513477021859835459e-01 4.917340317095731383e-01 5.114902724370820053e-01 4.932723695705238942e-01 4.850141437934092914e-01 5.116499471732669502e-01 7.122084233791657892e-01 5.096723815912161948e-01 5.115421141529096216e-01 7.112218450581202223e-02 5.546686662015613001e-01 5.244135826487226343e-03 5.218418195381677727e-01 4.885180728578044640e-01 5.116855481749050805e-01 6.772401374084003889e-01 4.933380259054999106e-01 4.909819188164006309e-01 2.334540381117257701e-01 4.988002977309325958e-01 4.897829241807137857e-01 4.181199989290040331e-01 5.817374476163395675e-02 5.608067937636401767e-01 5.434768306601607257e-01 5.078289059519868198e-01 5.135091609650992428e-01 5.845404221499056474e-01 3.740778899486870146e-01 5.260682946698270746e-01 4.574123020870887735e-01 4.664081830529971384e-01 5.748220788037178286e-01 8.518137276406640979e-01 6.644135202968730614e-01 4.251865020940183704e-01 5.756652647332827222e-01 1.504249070466305183e+00 4.999934841367020821e-01 4.788400975858455033e-01 6.477231654284766327e-01 4.513629648139723671e-01 2.293959900789424022e-01 4.339504219551176267e-01 -3.434435506209835842e-01 4.377990597613386492e-01 5.206697022400672559e-01 6.027774274411995536e-01 5.815672104494853389e-01 -1.413301879563038654e-01 4.288167183756984024e-01 5.272894495981548246e-01 5.223401817466586383e-01 5.710768658321342395e-01 4.937211734581670730e-01 5.390672052805952630e-01 5.283118873330138188e-01 -1.272441381601749910e-01 4.914426705726185896e-01 8.360738280640835907e-01 5.362192074613378878e-01 7.231670073412553579e-02 4.867016788086555579e-01 5.709481574760730815e-01 5.382210419643091992e-01 4.600169999387563879e-01 9.399499299969337196e-01 8.467688098264879448e-01 5.025511511730637038e-01 4.544116279524228474e-01 2.142274129910596292e-01 4.916118537144457679e-01 4.214029285121183577e-01 6.821956908994120106e-01 2.808498499144029478e-02 4.585790421401852446e-01 4.968303990273061910e-01 6.479742503199353854e-01 6.479196394892350330e-01 7.469478923619198296e-01 1.980856540365548146e-01 -6.316079074231921442e-02 -7.661178501518538242e-02 5.421561309768470061e-01 5.107473497120855743e-01 5.630471902752801627e-01 5.102400459941041078e-01 -4.177434040870807719e-01 2.354471636385738975e+00 4.129408179929204836e-01 5.046496657548702469e-01 1.035062396278197516e+00 4.970331198566566022e-01 5.346026212707994940e-01 5.612884807239476581e-01 5.799402343368985635e-01 4.777723600852865626e-01 4.968754551671382136e-01 3.645820985159674010e-01 3.671458210605187400e-01 5.053011714485547978e-01 5.156026228336455519e-01 4.165486181628372253e-01 5.885338807807165562e-01 5.123056195208601782e-01 4.655405263391522719e-01 7.245101435857980166e-01 1.815692937474364221e+00 5.356912350352669439e-01 4.928182730620253027e-01 5.491365705317772239e-01 3.235518876443885805e-01 3.878646280454091655e-01 5.199664234037312260e-01 5.340969104365145270e-01 5.575540001550355340e-01 5.185962658175438111e-01 5.565733519025084508e-01 4.915693771824163338e-01 4.722910684028299166e-01 5.909033764751360218e-01 1.019715224829915945e+00 9.606591347508618428e-01 2.798622396585065397e-01 7.417099263691602218e-01 5.073616705464071286e-01 4.283482719811737560e-01 1.701760874954791447e+00 2.264031772533663112e-01 4.342129204568152545e-01 4.962353514870598836e-01 3.106761774645645791e-02 5.888145233855325289e-01 1.206844318893108836e+00 4.592202837640231294e-01 8.689737883341523972e-01 5.165277020879166514e-01 5.252795245622223774e-01 5.071975273226050351e-01 5.724183586540829705e-01 5.153810325097011313e-01 5.144851349954200348e-01 5.052869271165340015e-01 6.233640148590761099e-01 3.782113084318656226e-01 5.278221072047922791e-01 4.278755446038809973e-01 5.198992912615096884e-01 4.328054260227077177e-01 7.417625876991376099e-01 6.572564892360444055e-01 4.314571820152242054e-01 7.746578841815632277e-01 -1.628365762644721493e-01 5.032637970576957498e-01 6.664887895091727854e-01 7.410096256069973464e-01 5.730715520737499347e-01 4.973015290870162475e-01 1.105856369417517193e-01 -1.018785878280158430e+00 3.954009749974581878e-01 5.463585447940418893e-01 6.987242684587083863e-01 5.060276762996123168e-01 4.827407102738062727e-01 5.455384904814591929e-01 -9.854929756403711660e-02 7.793825990432491357e-01 5.296120217266842012e-01 6.655958502820334965e-01 5.329159837768583374e-01 -1.253812309997258678e-01 -1.608504730092938650e-01 1.097045203731271457e+00 4.798983888088078631e-01 4.524358053023945780e-01 5.113141338419514570e-01 4.278611298979196897e-01 4.498099356625817058e-01 4.876353769928530868e-01 8.005457132452561408e-01 5.546872704985855718e-01 5.116061615663898277e-01 5.560273719688731964e-01 6.127584111183729254e-01 5.053555669296299069e-01 5.073075339761071723e-01 5.192210954792553235e-01 6.096667663151940086e-01 8.456072622561323637e-01 5.079632143616032991e-01 5.092882677593424390e-01 5.007670393315606372e-01 4.735800501911232585e-01 5.461034423765355195e-01 1.556060092427436967e-02 4.979035059978805799e-01 2.610844169055955843e-01 5.002902529496724426e-01 5.690900960871521086e-01 1.163099769092548641e+00 4.339335054967464189e-01 1.201494401211857382e-01 4.615453911363955330e-01 5.090620764834246081e-01 5.209962659847855448e-01 5.866312916698022129e-01 5.669736602758865818e-01 4.639666792265061401e-01 5.036682981785161051e-01 8.855683742161508665e-01 -3.817249044839241545e-01 1.463389629614592069e+00 7.997827346454533526e-01 7.547936660448963941e-01 2.088941206383253812e-01 3.835620230353897764e-01 5.819058862770665197e-01 1.698449593716855888e-01 4.905751534787877732e-01 5.531382743357531329e-01 2.614145269336940608e-02 5.034293501039703855e-01 4.125971757204843771e-01 5.204189789572241098e-01 9.792987482158289625e-01 4.805790997819176513e-01 3.100483076328985343e-01 2.574311554345707909e-01 4.581470138974832462e-01 4.290102552049494533e-01 4.955645905068603030e-01 4.652704781856628613e-01 5.519328822723462702e-01 -4.666005197744401145e-01 4.388473639499653745e-01 5.669670945507490067e-01 4.967551059070359765e-01 4.932197967342408784e-01 7.375397599440073337e-01 7.545040710095639591e-01 -3.014291268894828124e-01 1.009454736082356696e+00 8.757014479299848331e-01 4.622311646954504472e-01 4.649919595728086441e-01 9.139581520472092047e-01 5.036417848442624745e-01 4.865564443466292022e-01 4.961719427737584232e-01 9.655643749584470470e-01 5.167809832384281377e-01 4.354708385291004014e-01 1.148963890549099309e+00 -1.817037475042208167e-02 7.033414145242957716e-01 -3.757097002062356056e-02 -5.228472919300419797e-01 -1.615582537771927674e-01 6.713790448987873027e-01 5.006794690846553264e-01 4.190093705688805459e-01 -2.933331768583110621e-01 5.281004915586823278e-01 4.096771184627426288e-02 5.850722275878661449e-01 3.868089287623150963e-01 5.065017691245883302e-01 5.288269229984280395e-01 4.945429029428949907e-01 5.906071091701246001e-01 7.645454249221724785e-01 1.253781802750918717e-01 4.868654211531277531e-01 4.491479714760191477e-01 5.657048057387606965e-01 1.002180246579099654e+00 3.257217376101179118e-01 7.029908564220384015e-01 4.398417757560120767e-01 9.452733387888241634e-02 7.132060372910187240e-01 5.120124596032852304e-01 5.214944979434248395e-01 4.993647289584000615e-01 4.972298772753224738e-01 4.384405862621795213e-01 4.878250665238867412e-01 5.041098970085667874e-01 4.899880076174257248e-01 6.215982816603846661e-01 7.705011640016278252e-01 1.893834915805296948e+00 -9.573942601577045686e-02 5.698450252441674690e-01 5.162559627469736068e-01 5.049070523814854772e-01 7.112011780708462627e-01 3.427737040609232233e-01 -6.451514675992556791e-01 5.160988561845779588e-01 1.964946712612170243e+00 5.340342131069488740e-01 2.692689132640951333e-01 3.829420096274908647e-01 5.296127748451070483e-01 7.090018711551310249e-01 1.095364640345998453e+00 3.733318704032289048e-01 4.870063206543839146e-02 5.341052255343383681e-01 9.376125963255963480e-01 3.554064101920321184e-01 5.582253457873311842e-01 5.234105173879235462e-01 7.768822084571805897e-01 5.083572187120808383e-01 3.921499210809015201e-01 -9.954961558346114153e-03 4.841657413466430304e-01 5.380278229074103580e-01 -3.518146246085654405e-01 6.188131728782731988e-01 1.000582343256677387e+00 2.558600108283753949e-01 3.636154054607573238e-01 9.272855263853837515e-01 5.213379770663928436e-01 1.674967654228865621e+00 3.763531028895331643e-01 2.374338700184545903e-02 4.761992849762706759e-01 5.334924266874647714e-01 3.376482642804843892e-01 5.577677855419972408e-01 5.341128171638506034e-02 5.394521718574410984e-01 -7.527556204394425521e-02 5.278334602608649728e-01 5.150600855322862159e-01 8.334861291028811126e-02 -1.470380526006693708e-02 6.057481395443909955e-01 4.772338957566435447e-01 5.193654353571968141e-01 4.948052640646665723e-01 7.213962073691108090e-01 5.195849108584054132e-01 4.960799006274910772e-01 4.400477757852359062e-01 4.624415186197309846e-01 4.433270978672490537e-01 9.394645189754011749e-01 2.346764956980958328e+00 4.443695668210329575e-01 4.987133057306670780e-01 5.114272718265735485e-01 1.003629785536258312e-01 5.215747386896635307e-01 4.732404479081905868e-01 5.062811005337424231e-01 1.258536598305671328e+00 5.928465933355226980e-01 -3.253224037155004744e-01 9.227517471337737254e-02 5.769673234635387393e-01 5.742369599215262355e-01 5.269585083989520857e-01 4.761921823077462923e-01 6.271252216489414666e-02 5.187742519317362078e-01 4.832704469016894100e-01 -1.418439605583964980e+00 4.540051677488702864e-01 5.121424723683544178e-01 9.405798417369236608e-01 5.826606098978419634e-01 6.846880148224741003e-01 7.849528433930361704e-01 -4.660189120181716382e-01 -4.209654910818454443e-01 -1.324455088531309270e-02 5.145308670587857014e-01 4.666251721655321205e-01 1.115458456484688776e+00 5.192361809101726511e-01 -1.109477941593288441e-01 9.160544571835224081e-01 4.860091467992073699e-01 6.474873421639927296e-01 4.563483191833123676e-01 5.115225870404126463e-01 3.174556562511359759e-01 -3.089448419372722854e-01 5.349251613958569962e-01 4.851931617545658937e-01 2.817370833534860730e-01 5.961357596358376476e-01 3.728343635367233899e-01 5.198445382888333688e-01 5.227370885989910398e-01 4.833332089460429803e-01 4.638378278471738669e-01 5.194709868385550822e-01 8.757015121078146613e-01 4.790911821249467795e-01 5.169746093818571309e-01 1.197359291661716368e-01 5.216448313092931777e-01 5.273660104081607791e-01 4.839099303891318815e-01 3.148934633161947216e-01 2.301459381079748179e-01 6.702501175721744531e-01 3.040936035529041015e-01 4.246016862671801451e-01 5.041126580203169061e-01 4.429506986595305729e-01 4.515667040412350564e-01 5.202633165599662712e-01 5.094424200942127001e-01 1.009459357017710390e+00 6.480388086420109106e-01 -2.588917304739635772e-01 3.345304861521445350e-01 7.398202994781157837e-01 5.611737632086979399e-01 2.682600034445231096e-01 5.149418651225536880e-01 1.541680641746468183e-01 -2.060352243279850101e-02 8.375107096771358117e-01 3.942098063603724500e-01 4.732189532656894126e-01 6.091637545764461148e-01 5.106812227886726729e-01 4.343222738500673308e-01 1.204048483137718506e+00 4.627090294148897831e-01 4.235813432879207419e-01 2.915132139990270765e-01 2.323671221084962768e-01 1.045982431871384399e+00 3.434874038487093495e-01 4.493120540268506491e-01 3.546817244486198395e-01 -2.315626151440395297e-01 6.123759528626142590e-01 9.519775484563061108e-01 -6.416023601178975078e-01 5.446345627455390082e-01 5.164415701768224620e-01 -9.263334203523526655e-02 5.083643495209678731e-01 6.764909562160315026e-01 5.031775992637856909e-01 5.156513533457995901e-01 3.213386487022645843e-01 3.365689873100632390e-01 4.988497138090779992e-01 5.085936454051537270e-01 4.634800199079187610e-01 1.047468559690248185e-01 1.103010521147702594e+00 5.593994964001519632e-01 9.649630747308034495e-01 6.743385098161600588e-01 -3.472642433286773356e-01 7.060491326083808694e-01 4.983380685498566831e-01 3.162947110849070875e-01 3.165155386806522281e-02 4.562857145693268168e-01 5.065059621160049597e-01 5.023548554570732572e-01 3.378033426813770168e-01 6.875977100956739974e-02 5.140478699627409886e-01 3.916711727407196086e-01 4.994491593150686692e-01 1.704752306610979318e+00 8.390092349162322494e-01 3.352110850745097514e-01 4.990036981313671349e-01 1.423958125892259341e+00 2.578824864493151625e-01 5.105572329637814155e-01 8.513850056699718838e-01 4.979033652384912689e-01 5.148212846726324399e-01 3.995137504122612815e-01 5.233969825678456145e-01 4.985566387873258121e-01 4.059747057276337223e-01 5.141659340849369375e-01 4.776635416014082119e-03 5.102281916472894974e-01 7.091076484194145380e-01 5.532062633159875453e-01 5.084963673285253227e-01 5.246076294902499715e-01 -6.957954512167019434e-04 3.214270412595515714e-01 -4.736984288138071930e-01 -1.960354603699470122e-01 4.564128995652004805e-01 4.976233068992020891e-01 5.911740098252296072e-01 5.123186910284548423e-01 5.251839619931840675e-01 4.430717360593028897e-01 4.979032483342822890e-01 5.054964840211444432e-01 5.959109425349423672e-01 4.301208162040176530e-01 5.228626108354585966e-01 1.025987340753832022e+00 4.972494744582987569e-01 5.293153775984535958e-01 1.374200879986917923e-01 4.984587230368287547e-01 5.007014274659878916e-01 5.127208773614814197e-01 7.197975147813563401e-01 5.147908680859493158e-01 8.205245593226712097e-01 7.688188361751160382e-01 5.085648701808922478e-01 4.032287035111346563e-01 2.070610975316568569e-01 7.018328551441139762e-01 1.518510008118526544e+00 5.127738910781878268e-01 2.494920948746732203e-01 5.417760586958020319e-01 4.917815095122977098e-01 9.932645346619755067e-01 4.194863189650651081e-01 8.022179153597907009e-01 4.978649904502292500e-01
7.297610824204535662e-01 3.344959280568484683e-01 6.410633332101863813e-01 4.077080943812171343e-01 3.047258671971829758e-01 2.552680997365757154e-01 2.613306421274644298e-01 5.131988227846518980e-01 3.725368877170667226e-01 3.157512375731877374e-01 1.586715817920976601e+00 1.383270438160506544e+00 -8.786680162147304518e-01 3.178062611479092192e-01 1.459532569286880743e-01 3.703528569121216085e-01 2.452333328444774307e-01 3.557525298439850880e-01 1.895158116520803127e-01 3.071894342261280997e-01 5.482835951799099883e-01 1.528416530454657973e+00 4.390385027346115909e-01 3.287308286465376872e-01 1.603754058726403753e-01 -6.164751973246679340e-01 4.078707733455385065e-01 3.804215015071893968e-01 3.121618684475769845e-01 -1.181374749831631543e-01 3.492763605365304946e-01 3.195732237654352881e-01 3.397727744095296321e-01 3.158287526500405673e-01 -1.677282524119652896e-01 3.419178288378723063e-01 1.799738240372609210e-01 1.988586006027241448e-01 -2.185591045402353050e+00 3.088082777839246118e-01 1.164871754039884244e-01 1.260388944011402723e-01 -5.312472014714113983e-02 6.835338709746680008e-01 9.009016532050166948e-01 3.555767091780817069e-01 4.116731605315790965e-01 3.051592977480060420e-01 3.389759075275828315e-01 7.794651789115442098e-01 7.927849201574347360e-01 4.747782132758065488e-01 -7.171278299149976831e-01 3.087496629933454417e-01 3.130552661294619399e-01 8.151029785035633912e-01 3.096684124401590243e-01 1.432942241961514818e-01 3.828541358522986604e-01 2.860837651034513485e-01 3.635799413527662227e-01 3.039596998966797581e-01 3.467966092356838392e-01 4.390386161280062649e-01 2.463259425389703883e-01 1.883580053716664149e-01 3.177048680818113646e-01 2.213627846895335483e-01 2.363840985377201886e-01 8.232691048303086845e-01 4.109326246516374348e-01 3.032142343817045282e-01 3.254790832809000278e-01 7.528353274044735643e-01 1.464532102385005086e+00 2.360053897953235114e-01 3.814990021250292407e-01 3.595803657891538108e-01 2.826084376692846178e-01 -9.114483519559609670e-01 3.293510526971458741e-01 9.306711707275443501e-01 1.092172805569944449e+00 3.679655897033091150e-01 3.132881329266832271e-01 -6.946714290948047266e-01 -4.391665982763971049e-02 3.169389912412727273e-01 -3.782520763481918014e-01 -4.169257213931645834e-01 9.044692249019599117e-01 1.013963504543914818e+00 1.805134041615637508e-01 7.104444323115787219e-01 5.509992765534258430e-01 3.399627358318250692e-01 1.662183849060579477e-01 2.209358934853891121e-01 7.739086816552827042e-01 -6.152138958114363732e-01 7.913069447073545204e-02 2.672209600318772860e-01 2.964706224108516475e-01 3.011687869552444607e-01 2.953080817249389978e-01 2.059319699056888719e+00 -1.401851569856171764e-01 -6.141380364893341826e-01 3.949406480833498323e-01 6.644201964691306417e-01 4.773398086502964044e-01 3.530468891675985210e-01 4.152381280741233582e-01 3.101122490817663224e-01 -5.587151767811638914e-01 3.498240736325292088e-01 4.640001248764337172e-01 4.271726666261673189e-01 -2.782427120915577645e-01 3.036572266663102315e-01 -1.038526693086655461e+00 2.822001616397428192e-01 2.741212739287512412e-01 3.191182490771158481e-02 3.747830986170190837e-01 1.574875679069224432e+00 4.960073459866316536e-01 3.562588160460822273e-01 4.436749929207727261e-01 3.212621956195615969e-01 3.298403425941893174e-01 3.451668412261876817e-01 2.550209074247584695e-01 1.571198465999961158e-01 2.662084815095725476e-01 9.207529444750930381e-01 7.492706853954456125e-02 8.204043028395986425e-01 -2.143389040134204837e-01 2.912236550816315606e-01 3.354291978291576437e-01 3.200351036298657581e-01 2.864499460294835376e-01 3.083559625517741098e-01 3.272783249815862106e-01 7.531782241270696954e-01 6.838585124562567286e-01 3.202865173570079715e-01 2.718284407513764656e-01 3.311421238414979373e-01 -5.477816974931997152e-01 8.630837736450408526e-02 3.551445307980923838e-01 3.188470307342128884e-01 4.524222917704841529e-01 3.682933712455547792e-01 -1.952491793183582791e-01 2.820529604456988304e-01 -4.606102796401364552e-01 -6.048727519735060953e-01 3.150488085579517539e-01 4.677278679170717574e-02 3.193000379772117370e-01 3.051652870416698971e-01 2.124978694666253796e-03 -1.242949535497446523e-01 3.442554196434220448e-01 4.952949606437799801e-01 2.486971032945689553e-01 2.650412798260984859e-01 7.393220865971791289e-01 4.086672505651738341e-01 3.558726519691420287e-01 3.194932007569377674e-01 -1.816877954199328515e+00 7.620231718991010705e-01 8.384795025749423036e-01 9.914407872816026757e-01 -3.025247248473367234e-01 1.016271467692246633e+00 3.234359102360683802e-01 3.808274858806559582e-01 9.608961959625961224e-01 2.277765198071452779e-01 2.505857742009857114e-01 2.497203996462993014e-01 3.398153969383818085e-01 3.306581936935648613e-01 -1.027548463930159084e-01 1.380742226231422287e-01 3.216405154926661458e-01 5.734042875433374986e-01 2.941381020315960160e-01 1.987503907218614863e-01 5.527330347739239230e-02 3.335003335453748941e-01 -8.546248793881744410e-01 3.280911777528167095e-01 4.216046209329391559e-01 3.966940196976957989e-01 3.224158049224412070e-01 1.973205682335385791e-01 1.896050878330854395e-01 4.757306646683386042e-02 -9.346159213742372129e-01 4.216069276980083935e-01 2.873855969374337072e-01 -3.240840319720237339e-01 3.091824395610134890e-01 1.302549475547244706e-01 5.523866826798605745e-01 -2.175832090798987206e+00 3.017750423638352331e-01 7.670150706676777119e-01 3.177694384617660295e-01 3.187728913620002102e-01 2.985105395908953518e-01 3.544652385634733394e-01 2.854205177036046592e-01 3.071630795886687304e-01 4.059141073486978724e-01 4.389349590204694174e-01 5.129507736386144101e-01 1.261719221641409983e-01 2.332657913686081996e-01 4.065634214415525527e-01 1.447154436399635813e-01 1.957123594431028901e-01 1.443491575103212465e+00 -6.534779121366726673e-02 1.020110457169175033e+00 -1.133672213117310923e+00 3.495604892636505201e-01 2.133266288757791340e-01 2.609719783310819330e-01 1.870984642223701144e-01 -1.779064310386086756e-01 4.515686693956340592e-01 2.077988151347448520e-01 5.297388845188953921e-01 4.755820237837762865e-01 3.011322572230786809e-01 -8.361467195749696657e-01 4.505249213627857685e-01 3.545666073225453019e-01 4.342449892517155630e-02 1.043155236331592350e+00 4.486960578875918149e-01 1.888368306313880529e+00 1.838892101076568808e-01 2.782902733453156419e-01 3.046790408935689531e-01 2.826418462425768219e-01 4.390353369326190358e-01 3.249077095432543194e-01 3.123277285352180632e-01 1.353000505264364758e-02 3.277840835791489549e-01 2.971444949378613809e-01 5.179505788200517991e-01 3.347426742368562746e-01 4.086619872560121602e-01 3.409823143553419311e-01 4.482662311137275979e-01 3.558584614315157268e-01 5.787432810273809847e-02 2.054120870777593311e+00 3.187948630088878743e-01 6.708587164193681174e-01 5.001957983440442207e-02 2.580892994314442079e-01 3.534982453197460517e-01 2.985399036320973698e-01 3.126361309735616323e-01 3.261410039298145991e-01 4.029713437814312904e-01 1.440420952586969061e-01 2.810080349203399330e-01 -3.998507045914142383e-02 8.973515241956948885e-02 1.167798045881955238e+00 3.222577448737946604e-01 -3.949616042678977951e-03 1.674946154675339027e+00 3.390250000290754295e-01 7.257067417101558116e-01 2.726707220995432945e-01 3.210055709895384135e-01 3.498250368485715800e-01 -1.541610701117290150e+00 3.078958138680515377e-01 3.398088966021977075e-01 4.168931157782960750e-01 -4.910891789971012500e-01 7.832468672363966933e-01 3.144967325632924138e-01 -4.813804690415473542e-01 2.192633668338594410e-01 2.996624400411308509e-01 2.721858931883465171e-01 -1.709748105744484659e-01 3.589826843539254964e-01 -2.720789739091314940e-01 4.118766182558311617e-01 2.866835937789876110e-01 6.537601471878378145e-01 3.102773476424298127e-01 2.915566128571164262e-01 3.322787897856198103e-01 3.332264563210656227e-01 1.185710173033817927e-01 -5.328190088327940943e-01 9.235468150820703992e-02 3.263999902190659053e-01 3.157786721283860065e-01 3.294800700732718468e-01 3.424120083500265532e-01 4.092180773628112944e-01 3.026333932253803538e-01 1.769754706588087645e+00 7.793282790137457949e-01 2.418544344384019884e-01 -6.990876061675115327e-01 3.718021557055329884e-01 2.936076521792867933e+00 2.665388417195224680e-01 7.684896389014048146e-02 5.154445686376706304e-01 -3.720649739530743183e+00 3.329758214241666514e-01 1.037932038559636894e+00 3.202609917094476621e-01 5.528914267243950631e-01 -3.028153305834247466e-01 1.946162863008889798e-01 2.486243660596463845e-01 3.228746291320375161e-01 3.655342152942424039e-01 1.859393165899537070e+00 -2.005586998694996737e-01 3.116841705385283157e-01 -1.545591747611627653e+00 3.165776247535085353e-01 1.988586009302719670e-01 4.911400417325790801e-01 3.336852830817186866e-01 3.698599307452880014e-01 5.059302223455549585e-01 1.337562900887828699e+00 4.368443490758177061e-01 4.216028650746366790e-01 4.505048982592376183e-01 4.757306646685530160e-02 1.722911571027521405e-01 4.204803476932436057e-01 -4.216399833666015784e-01 3.011886999868079173e-01 5.200668200864430046e-01 4.632472940531931482e-01 2.110445698857553731e-01 3.115365650129799935e-01 2.322096804494805100e-01 3.336834547989096511e-01 4.545548682889302694e-01 2.993929663202744007e-01 3.036902631395155261e-01 7.510265089423370233e-01 1.717477965547904439e+00 3.310646450803338414e-01 3.039707954016688252e-01 3.505423305480842577e-01 9.093661119221344569e-01 3.376367806831418461e-01 3.200950943964827045e-01 7.727395429395952364e-01 2.103776212199448548e-01 1.991087285541814356e-01 2.241040576590105082e-01 5.130006389955171775e-01 9.197985880198484843e-01 5.782260749206188377e-01 6.828136202016402700e-01 3.219641275542735603e-01 4.757306646741425726e-02 4.757306645316738275e-02 3.099423030867990425e-01 2.898101987513878597e-01 1.089294855522615846e+00 -1.231602934419781109e-01 3.485779959740793466e-01 3.375776102301451531e-01 3.029677781089199495e-01 9.110015126743848946e-01 4.216077707654359297e-01 3.092253231857079454e-01 2.790258133762384407e-01 -2.084750017568996749e-02 -4.580407409187685075e-01 2.924649766687023034e-01 2.606041143657473746e-01 1.570108176780741216e-01 2.733062178832879607e-01 7.242898552004598534e-01 4.757299482533568907e-02 -3.889054362170876189e-01 3.092654962169253952e-01 8.112959413781239970e-02 -4.093868175469311810e-01 1.618411062637871711e-01 -2.372609388889088233e+00 9.404301379249575543e-01 2.498986970428748733e-01 -9.590746691337413699e-02 4.085238538596485114e-01 1.474159027312658354e+00 3.066886974566638835e-01 4.728295751559397631e-01 7.847562753219858855e-01 3.414536098124144603e-01 1.514302715406772304e-01 3.247529494677445228e-01 7.417611171834072037e-01 2.847933533686224372e-01 1.490928000495753247e+00 3.683610243705774390e-01 2.802549159819681668e-01 2.656433850130264784e-01 3.514850146589371116e-01 -1.070647510984287676e+00 3.168994438925215595e-01 8.045479229905563856e-02 3.804266535334805410e-01 4.568199491929259004e-01 3.195588064384023430e-01 2.684656405811421398e-01 3.029730415605629279e-01 -1.257410911832657907e-01 3.204036207303923023e-01 1.261111319982394785e-01 2.843193511874467228e-01 2.845968457245506289e-01 6.420113032034003853e-01 7.345908293684514367e-01 8.526047526494494599e-01 -7.993759029970201047e-01 4.667899373336673041e-01 7.311184210979011257e-03 -3.759412818556495672e-01 1.574846634992289607e-01 3.328553007842035560e-01 3.159823558854140679e-01 7.546452433915752378e-01 3.206461542322986413e-01 2.965862573585553164e-01 3.371941314178331095e-01 1.255094193162192007e-01 -1.261278025422859217e-01 3.047649379926291036e-01 4.881296814111856230e-01 4.021512397646325732e-01 3.510296379667535716e-01 3.291475954578367280e-01 3.026747405168932481e-01 2.998189484601739840e-01 3.151596514269335292e-01 3.934430021053830773e-01 3.221818954819964387e-01 3.159295602906324607e-01 7.904919628653382935e-01 2.220313038884907386e-01 7.570189613349523894e-01 -2.291979463089800426e-03 3.150234452520184192e-01 3.133420474542021883e-01 -1.078180181884543121e+00 3.180193912661793965e-01 3.240625800888510821e-01 5.133889326881597714e-01 3.338744805616311595e-01 3.470236512323788824e-01 4.720838903599388625e-01 8.044428869252049363e-01 2.665278661689259310e-01 4.167585821214743191e-01 3.197839247464111523e-01 1.698446760637038477e-01 4.189689627387370718e-01 1.657033358346569341e-01 3.189951737830730161e-01 -3.219929056450698129e-02 3.529380688318104475e-01 2.274621656856324337e-01 1.120010609653779854e+00 2.589623659906167830e-01 3.550487531964271470e-01 2.679486751298209013e-01 -4.780507170820890717e-01 3.004164021982135835e-01 4.335568226191185981e-01 3.933463940650426260e-01 4.178671576119650788e-01 5.276512593103241944e-01 -4.143150119512953311e-02 7.963676014305022255e-01 5.330521264424548100e-01 3.631679864532267876e-01 2.447618496714670522e-01 2.523545559578456166e-01 6.412392854881417970e-01 2.151917319533132034e+00 2.822132291976852669e-01 3.086449000063124504e-01 5.730052655543903528e-01 2.983653109701305817e-01 3.505064423919055927e-01 2.840838425422879121e-01 6.912706318433278208e-01 3.196769085073095096e-01 -1.856945377756775983e-03 2.569886773719062267e-01 4.200513592179790090e-02 -7.388988066484565576e-02 2.722257934146554148e-01 3.148754323094646868e-01 3.960057404899711697e-01 1.360995607779199368e+00 4.634428536992951098e-01 3.317518452468465329e-01 5.701081761431708861e-01 2.782078948112342576e-01 4.111736103191336866e-01 2.723909903013883582e-01 2.082305673130828427e-01 7.489383584165540952e-01 3.328101724722945520e-01 4.078071725175514417e-01 2.117203630123301317e-01 2.714346394228114301e-01 1.244247825581507594e-01 4.470377240500398308e-01 9.200729696539899916e-01 3.772290590369724583e-01 3.415710476964803899e-01 3.281133106059217486e-01 4.139869641308401849e-01 3.340675985957609062e-01 5.172798824223546754e-01 5.962076785775062282e-01 4.218009076080711517e-01 3.092457815539620403e-01 4.694063745353171391e-01 3.183677187662482533e-01 3.660795352694429794e-01 2.193633937502001141e-01 2.645907480942594758e-01 4.367064022799925782e-01 3.299041260129713660e-01 4.043521110375856153e-01 4.697421475614743658e-01 1.924507084385474187e-01 3.054571619182952502e-01 1.123651621293972891e+00 1.786184253439516700e-01 3.205182670315839255e-01 3.480289082335867867e-01 7.514588711255646425e-01 9.174039646387665004e-01 2.004677584394178591e-01 -1.072039609784711800e-01 -1.136403620687746058e-01 4.686355132339231067e-01 4.246309489568190765e-01 3.246120374412070353e-01 2.817260939122551155e-01 3.255352866153348179e-01 3.028273391183403107e-01 3.086971324909262848e-01 4.113515318051811920e-01 4.305822442065693756e-01 4.156263364768948421e-01 8.056721543468166047e-01 -3.286450331778386497e-02 6.499826909932744368e-01 3.552760198171313610e-01 3.171479339535360764e-01 -2.704185717463860033e-03 4.607325510592397144e-01 9.038542832256460935e-01 3.944966029783271710e-01 5.821086598641131982e-01 1.226342305287134060e+00 2.834902225031270540e-01 1.442804728315661755e+00 5.428520011185995475e-01 1.479374904705770544e-01 3.035564605417644390e-01 2.961261235132340297e-01 3.127226580972238823e-01 2.650556154137982956e-01 3.296643194205919891e-01 3.035737326465399177e-01 1.448933051761662483e-01 2.751035709420569519e-01 2.919348060475278062e-01 2.914579477279736208e-01 4.238947649401546003e-01 3.135115501022892603e-01 2.723392791167290050e-01 3.552716146615962911e-01 3.112635088198275057e-01 3.670255102557424265e-01 -2.182204508845862201e-01 1.444265950961051148e+00 3.101593759388038274e-01 6.058421443629650321e-02 3.073286363767128160e-01 1.816013913259804102e-01 2.900814025929767670e-01 -3.226696051215173000e+00 2.540218205408442564e+00 4.968873249446580931e-01 2.567330525302974342e-01 1.427685016643677474e-01 2.957241178385165981e-01 3.645650243589506068e-01 1.868815351562546301e+00 4.877506593221604958e-01 3.731429462375661643e-01 3.498235952134711169e-01 8.443886887288164500e-01 2.861511963535303127e-01 9.178945182060085362e-01 -3.278518292079535823e-01 -3.862774035529706329e-01 -6.129097684013854463e-01 1.702195387167388385e-01 2.994834486746318913e-01 4.145223332014312256e-01 3.621724814627279021e-01 3.427360446973213848e-01 1.476544303937992186e-01 2.169352703756051715e-01 3.081571894736294115e-01 3.126646251214519334e-01 1.286005374365289666e-01 3.174399617632381321e-01 3.137333768687551316e-01 3.013782473182595734e-01 3.398051804152057431e-01 1.049533683649938598e-01 3.028812831069492284e-01 3.204242751456829463e-01 3.563531731109259026e-01 3.565257377797287908e-01 2.652019694600910027e-01 8.201079708186272965e-01 3.336850797205317964e-01 4.112884229450737283e-01 3.090126223907305736e-01 1.946660740350819319e-01 1.913599097448683006e-01 -4.138500339336512179e-02 9.393585218121959235e-01 3.342924606142997912e-01 3.148580372981416575e-01 2.945407932915833360e-01 2.123400497915781393e-01 1.437375164222389756e-01 7.191647247543891952e-02 3.278698967871148673e-01 2.027061785332028299e-01 6.166937251456645619e-01 5.976242513293609226e-01 1.848685272193264506e-01 1.375849853076469120e+00 2.052319153666982976e-01 1.505031090907748559e-01 4.112849432895155921e-01 -3.992154180311723866e-01 3.187507685090644749e-01 3.603560701965172752e-01 7.594153309892324177e-01 3.292653337383505407e-01 3.915198057804903931e-01 2.876964754183821693e-01 2.419364883429222235e-01 3.669554620446217608e-01 6.831831584909128230e-01 5.579585663235110404e-01 4.559799935692354644e-01 3.542216324391099236e-01 3.158727151468557204e-01 3.935804682957851908e-01 1.564444090470765436e-01 3.408403249261878765e-01 -3.231106058116984814e-01 2.081545336311737271e-01 3.154539925079633544e-01 4.084951415192945023e-01 3.488738759459692473e-01 1.158110413261181249e+00 7.169959222743609306e-01 -7.010424253834179886e-01 1.988585517908507683e-01 3.536888526836050040e-01 -2.273625337819653591e+00 1.319939393778226000e+00 3.202968999365437552e-01 4.088683308673005112e-01 3.075492332666216466e-01 5.565803241679881941e-01 2.959671659555421219e-01 4.505166306585594582e-01 -3.222460100967950436e-01 7.673994463747021433e-01 -3.965332136756335654e-03 9.425944116971999298e-01 1.606623610232502442e+00 -3.283291632857008868e-01 -1.093509893249411169e+00 3.133083010548491365e-01 6.329419291682265580e-01 9.548091841885582021e-01 2.953615775286402290e-01 7.285198554391049131e-01 2.844137173834381804e-01 2.391438157031459677e-01 3.262377361123100505e-01 2.820390489475128049e-01 3.287620496289951899e-01 -1.078985173947213244e-02 9.071621884263593172e-01 9.011395453173350889e-01 3.401430822230214202e-01 4.065999656060947931e-01 -2.841919122119132557e-02 -2.998414328433488679e-02 4.956165507107251900e-01 1.980381591813685505e-01 4.174032080713361847e-01 7.362603439423054397e-01 7.394742714306143938e-01 3.162523245348409229e-01 3.244807498328902695e-01 3.711920088936773165e-01 3.128409674801032048e-01 7.289555505650681388e-02 3.330425531274622264e-01 3.217470578591478669e-01 3.010379495504998393e-01 2.052617529833343502e-01 4.806599155694154524e-01 8.373421392911780670e-01 9.560126007273601623e-01 5.088300977990273255e-01 3.214609326407683043e-01 3.383761697000310931e-01 -4.899883315985653631e-02 1.455866177443997378e-01 -1.054666530493607368e+00 3.178576217252004343e-01 5.546407903537664552e-01 2.862961274986652871e-01 5.796708033382699243e-01 1.053655139626931581e+00 3.498231815443809678e-01 9.953470920451469584e-02 3.368243425284548342e-01 2.295961490473125699e-01 7.485335111877045033e-01 4.056542361463844060e-01 -7.973095978897279390e-02 5.223852925580612094e-01 2.727860515388214058e-01 3.004581371476268137e-01 3.680710185437947590e-01 3.068351301415844778e-01 1.530582799586159837e-01 2.262597144211867806e-01 3.682134229384712021e-01 2.772396365659406947e-01 7.965364756040294036e-01 2.143169231223902571e-01 -1.171170769552575264e-01 7.320598311919710444e-01 3.364577640282330195e-01 2.568329350995802174e-01 2.838787758324269328e-01 1.063758514395848342e+00 -7.377554401485502539e-03 7.442706546854843674e-01 3.186511433780147562e-01 3.122549849508268194e-01 4.593092967203168397e-01 2.764874939048025948e-01 7.558692787063958640e-01 3.409930685803438943e-01 9.320770405492866395e-01 2.803431189600177342e-01 3.076225004709116084e-01 7.297205681598135651e-01 -1.391136216659416905e-02 -1.568820490332008433e+00 2.047482214657153909e-01 3.027140133417263734e-01 3.377193830433877220e-01 7.062578165592133805e-01 3.015414044420728357e-01 3.321634128997881796e-01 4.025384997630482853e-01 4.429966252285275630e-01 3.699470623180399764e-01 -1.335399228396268123e+00 6.301583508565985481e-01 3.268527865559870960e-01 3.205039472558047220e-01 2.948378757364605307e-01 6.921150309115545740e-01 3.059499134882348592e-01 3.947040851304400855e-01 2.806980566996545856e-01 9.760563732063552989e-01 4.152624996208537089e-01 4.005576414780874783e-01 1.078938411018520060e+00 4.119558550153508136e-01 1.609328655461763402e+00 2.997547641156873000e-01 3.521474473354903600e-01 7.658276049428619503e-01 3.053107555335250467e-01 2.640302122294403420e-01 -8.043404253964508976e-01 2.583948863729186862e-01 3.245972876114794903e-01 4.496855496921097761e-01 1.682000354350470517e-01 4.570831867334532173e-01 -6.009700480306955361e-01 1.503110775984655589e+00 -4.231566515122532346e-01 4.949401712824229027e-01 2.725236230847645769e-01 4.396311963768763098e-01 3.866803220260821572e-01 3.104826756267832777e-01 9.475836321443515953e-01 -7.739040389328426250e-02 3.427186955140704150e-01 -5.844060274122918619e-01 5.446494650598713294e-01 3.152480064127080595e-01 -1.875118667528138383e+00 2.005716118135933534e+00 3.444493407558645304e-01 3.379217708461823566e-01 -8.258918454706022372e-01 2.526199571822458911e-01 1.252305838831127040e-02 2.923887257529043104e-01 2.970639160871195728e-01 5.662955510932761172e-01 3.703332504351433685e-01 3.066931170200313250e-01 1.988586209151825268e-01 4.098359082501208950e-01 3.013141064432563465e-01 -8.630008940436953990e-01 3.145956591650227452e-01 -4.549531533756612789e-01 2.967163465827589719e-01 -2.643138941661493657e-02 3.117247404861993032e-01 2.767783852716204085e-01 4.403137229655068041e-01 4.375820631967184404e-01 2.985069390563472314e-01 3.166260613633129495e-01 4.016941747988455602e-01 3.204660611196918918e-01 3.124287292395883098e-01 -7.003643573043681902e-01 1.303708494960965913e-01 1.265207683564787189e+00 -1.518245636581178276e-03 2.798662845919779874e-01 2.691528386287666552e-01 1.204187755394998227e+00 3.122148094600454282e-01 2.508986441616649632e-01 9.210073107759206845e-01 1.538333609883213993e-01 1.217199516197303266e+00 3.252205820908286027e-01 3.383685622442864083e-01 2.991889839662724149e-01 4.356390398661715846e-01 1.185993120546182666e+00 4.317165464531314556e-01 2.732542768740448547e-01 4.633558986268424551e-01 4.508439752931759359e-01 8.353058039230711052e-02 -2.965200321837990760e-01 3.870592006116608808e-01 6.275230702987053544e-01 1.748444706292232864e-01 4.468765315237093194e-01 1.888886617234573559e-02 1.240451435850157491e+00 2.557896181860218610e-01 2.940530759582383746e-01 -1.759358235937157344e+00 3.054808495212330000e-01 3.039127247870373472e-01 3.583734571504495481e-01 -3.674332196110811910e-02 2.998169865210765228e-01 -1.748637903256763937e-01 1.385888113817684286e-01 3.248526244643533123e-01 3.046819265909232466e-01 1.090255155041754520e+00 1.412696455923021510e-01 3.026858216378237598e-01 -1.044453895213914185e+00 1.963399062274620854e-01 7.965736966772872796e-01 8.021083486118009143e-01 3.200815538037213859e-01 -2.362076503789219961e-01 7.738916239762041460e-01 4.156635220667724839e-01 3.145912572324364165e-01 3.061725563115423321e-01 6.330534598926614853e-01 7.783719770931006865e-01 3.060764950407231511e-01 4.328628958794766834e-01 3.593332204342468694e-01 6.062725022988567636e-01 5.243512158528683686e-01 -1.299071932769424897e+00 3.421077409041839434e-01 4.506481211390425679e-02 4.591165451035560952e-01 3.000630861637538782e-01 2.977740793911369255e-01 3.336852209281089277e-01 3.045863573630974708e-01 4.055045549357739199e-01 2.987118314419833776e-01 2.990648056582816960e-01 4.075899752832308764e-01 3.131553793060402047e-01 -2.341449633830015309e-01 3.207739759652539768e-01 2.836043149940718489e-01 3.051879622405774817e-01 2.485868248270982073e-01 3.020907771220886495e-01 3.869955968375516364e-01 3.583336069851404959e-01 7.035736206717158048e-01 4.550322772693157769e-01 3.565492060882897718e-01 2.986656139148283762e-01 -1.575792586931828332e+00 3.160192447957849704e-01 2.950333609723230777e-01 2.827764003388502645e-01 3.336853884974901319e-01 3.284023098624800907e-01 2.030423255522937620e-01 2.989941568011624806e-01 3.017574610342239616e-01 1.971501747416768147e-01 3.555884106723493088e-01 3.105027717485978611e-01 4.699895774091378264e-01 3.104448584191889515e-01 3.456165583110842321e-01 3.190832426445872061e-01 4.313456302662995734e-01 3.020156413641119642e-01 2.902765785435258983e-01 2.915029026530126938e-02 3.087666494231717795e-01 3.772727864522086305e-01 5.667879649437229661e-02 -3.999664692153132028e-01 2.486879043294635494e+00 3.246086222888399653e-01 7.121855598976331025e-01 2.264468540670046548e-01 3.511077153469218670e-01 1.176599659308529278e+00 5.496028814141835639e-01 7.606040366097160943e-01 3.188509044600446596e-01
