# 
#                 ----------------------------------------------------
#                 Data from a 3D direct N-body simulation. 
# 
#                 rows are i-particle; 
#                 coumns are :mass, tag, x ,y, z, vx, vy, vz, ax, ay, az
# 
#                 NTHU, Computational Physics 
# 
#                 ----------------------------------------------------
#                 Time = 0.0
0.000000000000000000e+00 1.000000000000000000e+00 2.000000000000000000e+00 3.000000000000000000e+00 4.000000000000000000e+00 5.000000000000000000e+00 6.000000000000000000e+00 7.000000000000000000e+00 8.000000000000000000e+00 9.000000000000000000e+00 1.000000000000000000e+01 1.100000000000000000e+01 1.200000000000000000e+01 1.300000000000000000e+01 1.400000000000000000e+01 1.500000000000000000e+01 1.600000000000000000e+01 1.700000000000000000e+01 1.800000000000000000e+01 1.900000000000000000e+01 2.000000000000000000e+01 2.100000000000000000e+01 2.200000000000000000e+01 2.300000000000000000e+01 2.400000000000000000e+01 2.500000000000000000e+01 2.600000000000000000e+01 2.700000000000000000e+01 2.800000000000000000e+01 2.900000000000000000e+01 3.000000000000000000e+01 3.100000000000000000e+01 3.200000000000000000e+01 3.300000000000000000e+01 3.400000000000000000e+01 3.500000000000000000e+01 3.600000000000000000e+01 3.700000000000000000e+01 3.800000000000000000e+01 3.900000000000000000e+01 4.000000000000000000e+01 4.100000000000000000e+01 4.200000000000000000e+01 4.300000000000000000e+01 4.400000000000000000e+01 4.500000000000000000e+01 4.600000000000000000e+01 4.700000000000000000e+01 4.800000000000000000e+01 4.900000000000000000e+01 5.000000000000000000e+01 5.100000000000000000e+01 5.200000000000000000e+01 5.300000000000000000e+01 5.400000000000000000e+01 5.500000000000000000e+01 5.600000000000000000e+01 5.700000000000000000e+01 5.800000000000000000e+01 5.900000000000000000e+01 6.000000000000000000e+01 6.100000000000000000e+01 6.200000000000000000e+01 6.300000000000000000e+01 6.400000000000000000e+01 6.500000000000000000e+01 6.600000000000000000e+01 6.700000000000000000e+01 6.800000000000000000e+01 6.900000000000000000e+01 7.000000000000000000e+01 7.100000000000000000e+01 7.200000000000000000e+01 7.300000000000000000e+01 7.400000000000000000e+01 7.500000000000000000e+01 7.600000000000000000e+01 7.700000000000000000e+01 7.800000000000000000e+01 7.900000000000000000e+01 8.000000000000000000e+01 8.100000000000000000e+01 8.200000000000000000e+01 8.300000000000000000e+01 8.400000000000000000e+01 8.500000000000000000e+01 8.600000000000000000e+01 8.700000000000000000e+01 8.800000000000000000e+01 8.900000000000000000e+01 9.000000000000000000e+01 9.100000000000000000e+01 9.200000000000000000e+01 9.300000000000000000e+01 9.400000000000000000e+01 9.500000000000000000e+01 9.600000000000000000e+01 9.700000000000000000e+01 9.800000000000000000e+01 9.900000000000000000e+01 1.000000000000000000e+02 1.010000000000000000e+02 1.020000000000000000e+02 1.030000000000000000e+02 1.040000000000000000e+02 1.050000000000000000e+02 1.060000000000000000e+02 1.070000000000000000e+02 1.080000000000000000e+02 1.090000000000000000e+02 1.100000000000000000e+02 1.110000000000000000e+02 1.120000000000000000e+02 1.130000000000000000e+02 1.140000000000000000e+02 1.150000000000000000e+02 1.160000000000000000e+02 1.170000000000000000e+02 1.180000000000000000e+02 1.190000000000000000e+02 1.200000000000000000e+02 1.210000000000000000e+02 1.220000000000000000e+02 1.230000000000000000e+02 1.240000000000000000e+02 1.250000000000000000e+02 1.260000000000000000e+02 1.270000000000000000e+02 1.280000000000000000e+02 1.290000000000000000e+02 1.300000000000000000e+02 1.310000000000000000e+02 1.320000000000000000e+02 1.330000000000000000e+02 1.340000000000000000e+02 1.350000000000000000e+02 1.360000000000000000e+02 1.370000000000000000e+02 1.380000000000000000e+02 1.390000000000000000e+02 1.400000000000000000e+02 1.410000000000000000e+02 1.420000000000000000e+02 1.430000000000000000e+02 1.440000000000000000e+02 1.450000000000000000e+02 1.460000000000000000e+02 1.470000000000000000e+02 1.480000000000000000e+02 1.490000000000000000e+02 1.500000000000000000e+02 1.510000000000000000e+02 1.520000000000000000e+02 1.530000000000000000e+02 1.540000000000000000e+02 1.550000000000000000e+02 1.560000000000000000e+02 1.570000000000000000e+02 1.580000000000000000e+02 1.590000000000000000e+02 1.600000000000000000e+02 1.610000000000000000e+02 1.620000000000000000e+02 1.630000000000000000e+02 1.640000000000000000e+02 1.650000000000000000e+02 1.660000000000000000e+02 1.670000000000000000e+02 1.680000000000000000e+02 1.690000000000000000e+02 1.700000000000000000e+02 1.710000000000000000e+02 1.720000000000000000e+02 1.730000000000000000e+02 1.740000000000000000e+02 1.750000000000000000e+02 1.760000000000000000e+02 1.770000000000000000e+02 1.780000000000000000e+02 1.790000000000000000e+02 1.800000000000000000e+02 1.810000000000000000e+02 1.820000000000000000e+02 1.830000000000000000e+02 1.840000000000000000e+02 1.850000000000000000e+02 1.860000000000000000e+02 1.870000000000000000e+02 1.880000000000000000e+02 1.890000000000000000e+02 1.900000000000000000e+02 1.910000000000000000e+02 1.920000000000000000e+02 1.930000000000000000e+02 1.940000000000000000e+02 1.950000000000000000e+02 1.960000000000000000e+02 1.970000000000000000e+02 1.980000000000000000e+02 1.990000000000000000e+02 2.000000000000000000e+02 2.010000000000000000e+02 2.020000000000000000e+02 2.030000000000000000e+02 2.040000000000000000e+02 2.050000000000000000e+02 2.060000000000000000e+02 2.070000000000000000e+02 2.080000000000000000e+02 2.090000000000000000e+02 2.100000000000000000e+02 2.110000000000000000e+02 2.120000000000000000e+02 2.130000000000000000e+02 2.140000000000000000e+02 2.150000000000000000e+02 2.160000000000000000e+02 2.170000000000000000e+02 2.180000000000000000e+02 2.190000000000000000e+02 2.200000000000000000e+02 2.210000000000000000e+02 2.220000000000000000e+02 2.230000000000000000e+02 2.240000000000000000e+02 2.250000000000000000e+02 2.260000000000000000e+02 2.270000000000000000e+02 2.280000000000000000e+02 2.290000000000000000e+02 2.300000000000000000e+02 2.310000000000000000e+02 2.320000000000000000e+02 2.330000000000000000e+02 2.340000000000000000e+02 2.350000000000000000e+02 2.360000000000000000e+02 2.370000000000000000e+02 2.380000000000000000e+02 2.390000000000000000e+02 2.400000000000000000e+02 2.410000000000000000e+02 2.420000000000000000e+02 2.430000000000000000e+02 2.440000000000000000e+02 2.450000000000000000e+02 2.460000000000000000e+02 2.470000000000000000e+02 2.480000000000000000e+02 2.490000000000000000e+02 2.500000000000000000e+02 2.510000000000000000e+02 2.520000000000000000e+02 2.530000000000000000e+02 2.540000000000000000e+02 2.550000000000000000e+02 2.560000000000000000e+02 2.570000000000000000e+02 2.580000000000000000e+02 2.590000000000000000e+02 2.600000000000000000e+02 2.610000000000000000e+02 2.620000000000000000e+02 2.630000000000000000e+02 2.640000000000000000e+02 2.650000000000000000e+02 2.660000000000000000e+02 2.670000000000000000e+02 2.680000000000000000e+02 2.690000000000000000e+02 2.700000000000000000e+02 2.710000000000000000e+02 2.720000000000000000e+02 2.730000000000000000e+02 2.740000000000000000e+02 2.750000000000000000e+02 2.760000000000000000e+02 2.770000000000000000e+02 2.780000000000000000e+02 2.790000000000000000e+02 2.800000000000000000e+02 2.810000000000000000e+02 2.820000000000000000e+02 2.830000000000000000e+02 2.840000000000000000e+02 2.850000000000000000e+02 2.860000000000000000e+02 2.870000000000000000e+02 2.880000000000000000e+02 2.890000000000000000e+02 2.900000000000000000e+02 2.910000000000000000e+02 2.920000000000000000e+02 2.930000000000000000e+02 2.940000000000000000e+02 2.950000000000000000e+02 2.960000000000000000e+02 2.970000000000000000e+02 2.980000000000000000e+02 2.990000000000000000e+02 3.000000000000000000e+02 3.010000000000000000e+02 3.020000000000000000e+02 3.030000000000000000e+02 3.040000000000000000e+02 3.050000000000000000e+02 3.060000000000000000e+02 3.070000000000000000e+02 3.080000000000000000e+02 3.090000000000000000e+02 3.100000000000000000e+02 3.110000000000000000e+02 3.120000000000000000e+02 3.130000000000000000e+02 3.140000000000000000e+02 3.150000000000000000e+02 3.160000000000000000e+02 3.170000000000000000e+02 3.180000000000000000e+02 3.190000000000000000e+02 3.200000000000000000e+02 3.210000000000000000e+02 3.220000000000000000e+02 3.230000000000000000e+02 3.240000000000000000e+02 3.250000000000000000e+02 3.260000000000000000e+02 3.270000000000000000e+02 3.280000000000000000e+02 3.290000000000000000e+02 3.300000000000000000e+02 3.310000000000000000e+02 3.320000000000000000e+02 3.330000000000000000e+02 3.340000000000000000e+02 3.350000000000000000e+02 3.360000000000000000e+02 3.370000000000000000e+02 3.380000000000000000e+02 3.390000000000000000e+02 3.400000000000000000e+02 3.410000000000000000e+02 3.420000000000000000e+02 3.430000000000000000e+02 3.440000000000000000e+02 3.450000000000000000e+02 3.460000000000000000e+02 3.470000000000000000e+02 3.480000000000000000e+02 3.490000000000000000e+02 3.500000000000000000e+02 3.510000000000000000e+02 3.520000000000000000e+02 3.530000000000000000e+02 3.540000000000000000e+02 3.550000000000000000e+02 3.560000000000000000e+02 3.570000000000000000e+02 3.580000000000000000e+02 3.590000000000000000e+02 3.600000000000000000e+02 3.610000000000000000e+02 3.620000000000000000e+02 3.630000000000000000e+02 3.640000000000000000e+02 3.650000000000000000e+02 3.660000000000000000e+02 3.670000000000000000e+02 3.680000000000000000e+02 3.690000000000000000e+02 3.700000000000000000e+02 3.710000000000000000e+02 3.720000000000000000e+02 3.730000000000000000e+02 3.740000000000000000e+02 3.750000000000000000e+02 3.760000000000000000e+02 3.770000000000000000e+02 3.780000000000000000e+02 3.790000000000000000e+02 3.800000000000000000e+02 3.810000000000000000e+02 3.820000000000000000e+02 3.830000000000000000e+02 3.840000000000000000e+02 3.850000000000000000e+02 3.860000000000000000e+02 3.870000000000000000e+02 3.880000000000000000e+02 3.890000000000000000e+02 3.900000000000000000e+02 3.910000000000000000e+02 3.920000000000000000e+02 3.930000000000000000e+02 3.940000000000000000e+02 3.950000000000000000e+02 3.960000000000000000e+02 3.970000000000000000e+02 3.980000000000000000e+02 3.990000000000000000e+02 4.000000000000000000e+02 4.010000000000000000e+02 4.020000000000000000e+02 4.030000000000000000e+02 4.040000000000000000e+02 4.050000000000000000e+02 4.060000000000000000e+02 4.070000000000000000e+02 4.080000000000000000e+02 4.090000000000000000e+02 4.100000000000000000e+02 4.110000000000000000e+02 4.120000000000000000e+02 4.130000000000000000e+02 4.140000000000000000e+02 4.150000000000000000e+02 4.160000000000000000e+02 4.170000000000000000e+02 4.180000000000000000e+02 4.190000000000000000e+02 4.200000000000000000e+02 4.210000000000000000e+02 4.220000000000000000e+02 4.230000000000000000e+02 4.240000000000000000e+02 4.250000000000000000e+02 4.260000000000000000e+02 4.270000000000000000e+02 4.280000000000000000e+02 4.290000000000000000e+02 4.300000000000000000e+02 4.310000000000000000e+02 4.320000000000000000e+02 4.330000000000000000e+02 4.340000000000000000e+02 4.350000000000000000e+02 4.360000000000000000e+02 4.370000000000000000e+02 4.380000000000000000e+02 4.390000000000000000e+02 4.400000000000000000e+02 4.410000000000000000e+02 4.420000000000000000e+02 4.430000000000000000e+02 4.440000000000000000e+02 4.450000000000000000e+02 4.460000000000000000e+02 4.470000000000000000e+02 4.480000000000000000e+02 4.490000000000000000e+02 4.500000000000000000e+02 4.510000000000000000e+02 4.520000000000000000e+02 4.530000000000000000e+02 4.540000000000000000e+02 4.550000000000000000e+02 4.560000000000000000e+02 4.570000000000000000e+02 4.580000000000000000e+02 4.590000000000000000e+02 4.600000000000000000e+02 4.610000000000000000e+02 4.620000000000000000e+02 4.630000000000000000e+02 4.640000000000000000e+02 4.650000000000000000e+02 4.660000000000000000e+02 4.670000000000000000e+02 4.680000000000000000e+02 4.690000000000000000e+02 4.700000000000000000e+02 4.710000000000000000e+02 4.720000000000000000e+02 4.730000000000000000e+02 4.740000000000000000e+02 4.750000000000000000e+02 4.760000000000000000e+02 4.770000000000000000e+02 4.780000000000000000e+02 4.790000000000000000e+02 4.800000000000000000e+02 4.810000000000000000e+02 4.820000000000000000e+02 4.830000000000000000e+02 4.840000000000000000e+02 4.850000000000000000e+02 4.860000000000000000e+02 4.870000000000000000e+02 4.880000000000000000e+02 4.890000000000000000e+02 4.900000000000000000e+02 4.910000000000000000e+02 4.920000000000000000e+02 4.930000000000000000e+02 4.940000000000000000e+02 4.950000000000000000e+02 4.960000000000000000e+02 4.970000000000000000e+02 4.980000000000000000e+02 4.990000000000000000e+02 5.000000000000000000e+02 5.010000000000000000e+02 5.020000000000000000e+02 5.030000000000000000e+02 5.040000000000000000e+02 5.050000000000000000e+02 5.060000000000000000e+02 5.070000000000000000e+02 5.080000000000000000e+02 5.090000000000000000e+02 5.100000000000000000e+02 5.110000000000000000e+02 5.120000000000000000e+02 5.130000000000000000e+02 5.140000000000000000e+02 5.150000000000000000e+02 5.160000000000000000e+02 5.170000000000000000e+02 5.180000000000000000e+02 5.190000000000000000e+02 5.200000000000000000e+02 5.210000000000000000e+02 5.220000000000000000e+02 5.230000000000000000e+02 5.240000000000000000e+02 5.250000000000000000e+02 5.260000000000000000e+02 5.270000000000000000e+02 5.280000000000000000e+02 5.290000000000000000e+02 5.300000000000000000e+02 5.310000000000000000e+02 5.320000000000000000e+02 5.330000000000000000e+02 5.340000000000000000e+02 5.350000000000000000e+02 5.360000000000000000e+02 5.370000000000000000e+02 5.380000000000000000e+02 5.390000000000000000e+02 5.400000000000000000e+02 5.410000000000000000e+02 5.420000000000000000e+02 5.430000000000000000e+02 5.440000000000000000e+02 5.450000000000000000e+02 5.460000000000000000e+02 5.470000000000000000e+02 5.480000000000000000e+02 5.490000000000000000e+02 5.500000000000000000e+02 5.510000000000000000e+02 5.520000000000000000e+02 5.530000000000000000e+02 5.540000000000000000e+02 5.550000000000000000e+02 5.560000000000000000e+02 5.570000000000000000e+02 5.580000000000000000e+02 5.590000000000000000e+02 5.600000000000000000e+02 5.610000000000000000e+02 5.620000000000000000e+02 5.630000000000000000e+02 5.640000000000000000e+02 5.650000000000000000e+02 5.660000000000000000e+02 5.670000000000000000e+02 5.680000000000000000e+02 5.690000000000000000e+02 5.700000000000000000e+02 5.710000000000000000e+02 5.720000000000000000e+02 5.730000000000000000e+02 5.740000000000000000e+02 5.750000000000000000e+02 5.760000000000000000e+02 5.770000000000000000e+02 5.780000000000000000e+02 5.790000000000000000e+02 5.800000000000000000e+02 5.810000000000000000e+02 5.820000000000000000e+02 5.830000000000000000e+02 5.840000000000000000e+02 5.850000000000000000e+02 5.860000000000000000e+02 5.870000000000000000e+02 5.880000000000000000e+02 5.890000000000000000e+02 5.900000000000000000e+02 5.910000000000000000e+02 5.920000000000000000e+02 5.930000000000000000e+02 5.940000000000000000e+02 5.950000000000000000e+02 5.960000000000000000e+02 5.970000000000000000e+02 5.980000000000000000e+02 5.990000000000000000e+02 6.000000000000000000e+02 6.010000000000000000e+02 6.020000000000000000e+02 6.030000000000000000e+02 6.040000000000000000e+02 6.050000000000000000e+02 6.060000000000000000e+02 6.070000000000000000e+02 6.080000000000000000e+02 6.090000000000000000e+02 6.100000000000000000e+02 6.110000000000000000e+02 6.120000000000000000e+02 6.130000000000000000e+02 6.140000000000000000e+02 6.150000000000000000e+02 6.160000000000000000e+02 6.170000000000000000e+02 6.180000000000000000e+02 6.190000000000000000e+02 6.200000000000000000e+02 6.210000000000000000e+02 6.220000000000000000e+02 6.230000000000000000e+02 6.240000000000000000e+02 6.250000000000000000e+02 6.260000000000000000e+02 6.270000000000000000e+02 6.280000000000000000e+02 6.290000000000000000e+02 6.300000000000000000e+02 6.310000000000000000e+02 6.320000000000000000e+02 6.330000000000000000e+02 6.340000000000000000e+02 6.350000000000000000e+02 6.360000000000000000e+02 6.370000000000000000e+02 6.380000000000000000e+02 6.390000000000000000e+02 6.400000000000000000e+02 6.410000000000000000e+02 6.420000000000000000e+02 6.430000000000000000e+02 6.440000000000000000e+02 6.450000000000000000e+02 6.460000000000000000e+02 6.470000000000000000e+02 6.480000000000000000e+02 6.490000000000000000e+02 6.500000000000000000e+02 6.510000000000000000e+02 6.520000000000000000e+02 6.530000000000000000e+02 6.540000000000000000e+02 6.550000000000000000e+02 6.560000000000000000e+02 6.570000000000000000e+02 6.580000000000000000e+02 6.590000000000000000e+02 6.600000000000000000e+02 6.610000000000000000e+02 6.620000000000000000e+02 6.630000000000000000e+02 6.640000000000000000e+02 6.650000000000000000e+02 6.660000000000000000e+02 6.670000000000000000e+02 6.680000000000000000e+02 6.690000000000000000e+02 6.700000000000000000e+02 6.710000000000000000e+02 6.720000000000000000e+02 6.730000000000000000e+02 6.740000000000000000e+02 6.750000000000000000e+02 6.760000000000000000e+02 6.770000000000000000e+02 6.780000000000000000e+02 6.790000000000000000e+02 6.800000000000000000e+02 6.810000000000000000e+02 6.820000000000000000e+02 6.830000000000000000e+02 6.840000000000000000e+02 6.850000000000000000e+02 6.860000000000000000e+02 6.870000000000000000e+02 6.880000000000000000e+02 6.890000000000000000e+02 6.900000000000000000e+02 6.910000000000000000e+02 6.920000000000000000e+02 6.930000000000000000e+02 6.940000000000000000e+02 6.950000000000000000e+02 6.960000000000000000e+02 6.970000000000000000e+02 6.980000000000000000e+02 6.990000000000000000e+02 7.000000000000000000e+02 7.010000000000000000e+02 7.020000000000000000e+02 7.030000000000000000e+02 7.040000000000000000e+02 7.050000000000000000e+02 7.060000000000000000e+02 7.070000000000000000e+02 7.080000000000000000e+02 7.090000000000000000e+02 7.100000000000000000e+02 7.110000000000000000e+02 7.120000000000000000e+02 7.130000000000000000e+02 7.140000000000000000e+02 7.150000000000000000e+02 7.160000000000000000e+02 7.170000000000000000e+02 7.180000000000000000e+02 7.190000000000000000e+02 7.200000000000000000e+02 7.210000000000000000e+02 7.220000000000000000e+02 7.230000000000000000e+02 7.240000000000000000e+02 7.250000000000000000e+02 7.260000000000000000e+02 7.270000000000000000e+02 7.280000000000000000e+02 7.290000000000000000e+02 7.300000000000000000e+02 7.310000000000000000e+02 7.320000000000000000e+02 7.330000000000000000e+02 7.340000000000000000e+02 7.350000000000000000e+02 7.360000000000000000e+02 7.370000000000000000e+02 7.380000000000000000e+02 7.390000000000000000e+02 7.400000000000000000e+02 7.410000000000000000e+02 7.420000000000000000e+02 7.430000000000000000e+02 7.440000000000000000e+02 7.450000000000000000e+02 7.460000000000000000e+02 7.470000000000000000e+02 7.480000000000000000e+02 7.490000000000000000e+02 7.500000000000000000e+02 7.510000000000000000e+02 7.520000000000000000e+02 7.530000000000000000e+02 7.540000000000000000e+02 7.550000000000000000e+02 7.560000000000000000e+02 7.570000000000000000e+02 7.580000000000000000e+02 7.590000000000000000e+02 7.600000000000000000e+02 7.610000000000000000e+02 7.620000000000000000e+02 7.630000000000000000e+02 7.640000000000000000e+02 7.650000000000000000e+02 7.660000000000000000e+02 7.670000000000000000e+02 7.680000000000000000e+02 7.690000000000000000e+02 7.700000000000000000e+02 7.710000000000000000e+02 7.720000000000000000e+02 7.730000000000000000e+02 7.740000000000000000e+02 7.750000000000000000e+02 7.760000000000000000e+02 7.770000000000000000e+02 7.780000000000000000e+02 7.790000000000000000e+02 7.800000000000000000e+02 7.810000000000000000e+02 7.820000000000000000e+02 7.830000000000000000e+02 7.840000000000000000e+02 7.850000000000000000e+02 7.860000000000000000e+02 7.870000000000000000e+02 7.880000000000000000e+02 7.890000000000000000e+02 7.900000000000000000e+02 7.910000000000000000e+02 7.920000000000000000e+02 7.930000000000000000e+02 7.940000000000000000e+02 7.950000000000000000e+02 7.960000000000000000e+02 7.970000000000000000e+02 7.980000000000000000e+02 7.990000000000000000e+02 8.000000000000000000e+02 8.010000000000000000e+02 8.020000000000000000e+02 8.030000000000000000e+02 8.040000000000000000e+02 8.050000000000000000e+02 8.060000000000000000e+02 8.070000000000000000e+02 8.080000000000000000e+02 8.090000000000000000e+02 8.100000000000000000e+02 8.110000000000000000e+02 8.120000000000000000e+02 8.130000000000000000e+02 8.140000000000000000e+02 8.150000000000000000e+02 8.160000000000000000e+02 8.170000000000000000e+02 8.180000000000000000e+02 8.190000000000000000e+02 8.200000000000000000e+02 8.210000000000000000e+02 8.220000000000000000e+02 8.230000000000000000e+02 8.240000000000000000e+02 8.250000000000000000e+02 8.260000000000000000e+02 8.270000000000000000e+02 8.280000000000000000e+02 8.290000000000000000e+02 8.300000000000000000e+02 8.310000000000000000e+02 8.320000000000000000e+02 8.330000000000000000e+02 8.340000000000000000e+02 8.350000000000000000e+02 8.360000000000000000e+02 8.370000000000000000e+02 8.380000000000000000e+02 8.390000000000000000e+02 8.400000000000000000e+02 8.410000000000000000e+02 8.420000000000000000e+02 8.430000000000000000e+02 8.440000000000000000e+02 8.450000000000000000e+02 8.460000000000000000e+02 8.470000000000000000e+02 8.480000000000000000e+02 8.490000000000000000e+02 8.500000000000000000e+02 8.510000000000000000e+02 8.520000000000000000e+02 8.530000000000000000e+02 8.540000000000000000e+02 8.550000000000000000e+02 8.560000000000000000e+02 8.570000000000000000e+02 8.580000000000000000e+02 8.590000000000000000e+02 8.600000000000000000e+02 8.610000000000000000e+02 8.620000000000000000e+02 8.630000000000000000e+02 8.640000000000000000e+02 8.650000000000000000e+02 8.660000000000000000e+02 8.670000000000000000e+02 8.680000000000000000e+02 8.690000000000000000e+02 8.700000000000000000e+02 8.710000000000000000e+02 8.720000000000000000e+02 8.730000000000000000e+02 8.740000000000000000e+02 8.750000000000000000e+02 8.760000000000000000e+02 8.770000000000000000e+02 8.780000000000000000e+02 8.790000000000000000e+02 8.800000000000000000e+02 8.810000000000000000e+02 8.820000000000000000e+02 8.830000000000000000e+02 8.840000000000000000e+02 8.850000000000000000e+02 8.860000000000000000e+02 8.870000000000000000e+02 8.880000000000000000e+02 8.890000000000000000e+02 8.900000000000000000e+02 8.910000000000000000e+02 8.920000000000000000e+02 8.930000000000000000e+02 8.940000000000000000e+02 8.950000000000000000e+02 8.960000000000000000e+02 8.970000000000000000e+02 8.980000000000000000e+02 8.990000000000000000e+02 9.000000000000000000e+02 9.010000000000000000e+02 9.020000000000000000e+02 9.030000000000000000e+02 9.040000000000000000e+02 9.050000000000000000e+02 9.060000000000000000e+02 9.070000000000000000e+02 9.080000000000000000e+02 9.090000000000000000e+02 9.100000000000000000e+02 9.110000000000000000e+02 9.120000000000000000e+02 9.130000000000000000e+02 9.140000000000000000e+02 9.150000000000000000e+02 9.160000000000000000e+02 9.170000000000000000e+02 9.180000000000000000e+02 9.190000000000000000e+02 9.200000000000000000e+02 9.210000000000000000e+02 9.220000000000000000e+02 9.230000000000000000e+02 9.240000000000000000e+02 9.250000000000000000e+02 9.260000000000000000e+02 9.270000000000000000e+02 9.280000000000000000e+02 9.290000000000000000e+02 9.300000000000000000e+02 9.310000000000000000e+02 9.320000000000000000e+02 9.330000000000000000e+02 9.340000000000000000e+02 9.350000000000000000e+02 9.360000000000000000e+02 9.370000000000000000e+02 9.380000000000000000e+02 9.390000000000000000e+02 9.400000000000000000e+02 9.410000000000000000e+02 9.420000000000000000e+02 9.430000000000000000e+02 9.440000000000000000e+02 9.450000000000000000e+02 9.460000000000000000e+02 9.470000000000000000e+02 9.480000000000000000e+02 9.490000000000000000e+02 9.500000000000000000e+02 9.510000000000000000e+02 9.520000000000000000e+02 9.530000000000000000e+02 9.540000000000000000e+02 9.550000000000000000e+02 9.560000000000000000e+02 9.570000000000000000e+02 9.580000000000000000e+02 9.590000000000000000e+02 9.600000000000000000e+02 9.610000000000000000e+02 9.620000000000000000e+02 9.630000000000000000e+02 9.640000000000000000e+02 9.650000000000000000e+02 9.660000000000000000e+02 9.670000000000000000e+02 9.680000000000000000e+02 9.690000000000000000e+02 9.700000000000000000e+02 9.710000000000000000e+02 9.720000000000000000e+02 9.730000000000000000e+02 9.740000000000000000e+02 9.750000000000000000e+02 9.760000000000000000e+02 9.770000000000000000e+02 9.780000000000000000e+02 9.790000000000000000e+02 9.800000000000000000e+02 9.810000000000000000e+02 9.820000000000000000e+02 9.830000000000000000e+02 9.840000000000000000e+02 9.850000000000000000e+02 9.860000000000000000e+02 9.870000000000000000e+02 9.880000000000000000e+02 9.890000000000000000e+02 9.900000000000000000e+02 9.910000000000000000e+02 9.920000000000000000e+02 9.930000000000000000e+02 9.940000000000000000e+02 9.950000000000000000e+02 9.960000000000000000e+02 9.970000000000000000e+02 9.980000000000000000e+02 9.990000000000000000e+02
1.000000000000000000e+00 1.000000000000000000e+00 1.000000000000000000e+00 1.000000000000000000e+00 1.000000000000000000e+00 1.000000000000000000e+00 1.000000000000000000e+00 1.000000000000000000e+00 1.000000000000000000e+00 1.000000000000000000e+00 1.000000000000000000e+00 1.000000000000000000e+00 1.000000000000000000e+00 1.000000000000000000e+00 1.000000000000000000e+00 1.000000000000000000e+00 1.000000000000000000e+00 1.000000000000000000e+00 1.000000000000000000e+00 1.000000000000000000e+00 1.000000000000000000e+00 1.000000000000000000e+00 1.000000000000000000e+00 1.000000000000000000e+00 1.000000000000000000e+00 1.000000000000000000e+00 1.000000000000000000e+00 1.000000000000000000e+00 1.000000000000000000e+00 1.000000000000000000e+00 1.000000000000000000e+00 1.000000000000000000e+00 1.000000000000000000e+00 1.000000000000000000e+00 1.000000000000000000e+00 1.000000000000000000e+00 1.000000000000000000e+00 1.000000000000000000e+00 1.000000000000000000e+00 1.000000000000000000e+00 1.000000000000000000e+00 1.000000000000000000e+00 1.000000000000000000e+00 1.000000000000000000e+00 1.000000000000000000e+00 1.000000000000000000e+00 1.000000000000000000e+00 1.000000000000000000e+00 1.000000000000000000e+00 1.000000000000000000e+00 1.000000000000000000e+00 1.000000000000000000e+00 1.000000000000000000e+00 1.000000000000000000e+00 1.000000000000000000e+00 1.000000000000000000e+00 1.000000000000000000e+00 1.000000000000000000e+00 1.000000000000000000e+00 1.000000000000000000e+00 1.000000000000000000e+00 1.000000000000000000e+00 1.000000000000000000e+00 1.000000000000000000e+00 1.000000000000000000e+00 1.000000000000000000e+00 1.000000000000000000e+00 1.000000000000000000e+00 1.000000000000000000e+00 1.000000000000000000e+00 1.000000000000000000e+00 1.000000000000000000e+00 1.000000000000000000e+00 1.000000000000000000e+00 1.000000000000000000e+00 1.000000000000000000e+00 1.000000000000000000e+00 1.000000000000000000e+00 1.000000000000000000e+00 1.000000000000000000e+00 1.000000000000000000e+00 1.000000000000000000e+00 1.000000000000000000e+00 1.000000000000000000e+00 1.000000000000000000e+00 1.000000000000000000e+00 1.000000000000000000e+00 1.000000000000000000e+00 1.000000000000000000e+00 1.000000000000000000e+00 1.000000000000000000e+00 1.000000000000000000e+00 1.000000000000000000e+00 1.000000000000000000e+00 1.000000000000000000e+00 1.000000000000000000e+00 1.000000000000000000e+00 1.000000000000000000e+00 1.000000000000000000e+00 1.000000000000000000e+00 1.000000000000000000e+00 1.000000000000000000e+00 1.000000000000000000e+00 1.000000000000000000e+00 1.000000000000000000e+00 1.000000000000000000e+00 1.000000000000000000e+00 1.000000000000000000e+00 1.000000000000000000e+00 1.000000000000000000e+00 1.000000000000000000e+00 1.000000000000000000e+00 1.000000000000000000e+00 1.000000000000000000e+00 1.000000000000000000e+00 1.000000000000000000e+00 1.000000000000000000e+00 1.000000000000000000e+00 1.000000000000000000e+00 1.000000000000000000e+00 1.000000000000000000e+00 1.000000000000000000e+00 1.000000000000000000e+00 1.000000000000000000e+00 1.000000000000000000e+00 1.000000000000000000e+00 1.000000000000000000e+00 1.000000000000000000e+00 1.000000000000000000e+00 1.000000000000000000e+00 1.000000000000000000e+00 1.000000000000000000e+00 1.000000000000000000e+00 1.000000000000000000e+00 1.000000000000000000e+00 1.000000000000000000e+00 1.000000000000000000e+00 1.000000000000000000e+00 1.000000000000000000e+00 1.000000000000000000e+00 1.000000000000000000e+00 1.000000000000000000e+00 1.000000000000000000e+00 1.000000000000000000e+00 1.000000000000000000e+00 1.000000000000000000e+00 1.000000000000000000e+00 1.000000000000000000e+00 1.000000000000000000e+00 1.000000000000000000e+00 1.000000000000000000e+00 1.000000000000000000e+00 1.000000000000000000e+00 1.000000000000000000e+00 1.000000000000000000e+00 1.000000000000000000e+00 1.000000000000000000e+00 1.000000000000000000e+00 1.000000000000000000e+00 1.000000000000000000e+00 1.000000000000000000e+00 1.000000000000000000e+00 1.000000000000000000e+00 1.000000000000000000e+00 1.000000000000000000e+00 1.000000000000000000e+00 1.000000000000000000e+00 1.000000000000000000e+00 1.000000000000000000e+00 1.000000000000000000e+00 1.000000000000000000e+00 1.000000000000000000e+00 1.000000000000000000e+00 1.000000000000000000e+00 1.000000000000000000e+00 1.000000000000000000e+00 1.000000000000000000e+00 1.000000000000000000e+00 1.000000000000000000e+00 1.000000000000000000e+00 1.000000000000000000e+00 1.000000000000000000e+00 1.000000000000000000e+00 1.000000000000000000e+00 1.000000000000000000e+00 1.000000000000000000e+00 1.000000000000000000e+00 1.000000000000000000e+00 1.000000000000000000e+00 1.000000000000000000e+00 1.000000000000000000e+00 1.000000000000000000e+00 1.000000000000000000e+00 1.000000000000000000e+00 1.000000000000000000e+00 1.000000000000000000e+00 1.000000000000000000e+00 1.000000000000000000e+00 1.000000000000000000e+00 1.000000000000000000e+00 1.000000000000000000e+00 1.000000000000000000e+00 1.000000000000000000e+00 1.000000000000000000e+00 1.000000000000000000e+00 1.000000000000000000e+00 1.000000000000000000e+00 1.000000000000000000e+00 1.000000000000000000e+00 1.000000000000000000e+00 1.000000000000000000e+00 1.000000000000000000e+00 1.000000000000000000e+00 1.000000000000000000e+00 1.000000000000000000e+00 1.000000000000000000e+00 1.000000000000000000e+00 1.000000000000000000e+00 1.000000000000000000e+00 1.000000000000000000e+00 1.000000000000000000e+00 1.000000000000000000e+00 1.000000000000000000e+00 1.000000000000000000e+00 1.000000000000000000e+00 1.000000000000000000e+00 1.000000000000000000e+00 1.000000000000000000e+00 1.000000000000000000e+00 1.000000000000000000e+00 1.000000000000000000e+00 1.000000000000000000e+00 1.000000000000000000e+00 1.000000000000000000e+00 1.000000000000000000e+00 1.000000000000000000e+00 1.000000000000000000e+00 1.000000000000000000e+00 1.000000000000000000e+00 1.000000000000000000e+00 1.000000000000000000e+00 1.000000000000000000e+00 1.000000000000000000e+00 1.000000000000000000e+00 1.000000000000000000e+00 1.000000000000000000e+00 1.000000000000000000e+00 1.000000000000000000e+00 1.000000000000000000e+00 1.000000000000000000e+00 1.000000000000000000e+00 1.000000000000000000e+00 1.000000000000000000e+00 1.000000000000000000e+00 1.000000000000000000e+00 1.000000000000000000e+00 1.000000000000000000e+00 1.000000000000000000e+00 1.000000000000000000e+00 1.000000000000000000e+00 1.000000000000000000e+00 1.000000000000000000e+00 1.000000000000000000e+00 1.000000000000000000e+00 1.000000000000000000e+00 1.000000000000000000e+00 1.000000000000000000e+00 1.000000000000000000e+00 1.000000000000000000e+00 1.000000000000000000e+00 1.000000000000000000e+00 1.000000000000000000e+00 1.000000000000000000e+00 1.000000000000000000e+00 1.000000000000000000e+00 1.000000000000000000e+00 1.000000000000000000e+00 1.000000000000000000e+00 1.000000000000000000e+00 1.000000000000000000e+00 1.000000000000000000e+00 1.000000000000000000e+00 1.000000000000000000e+00 1.000000000000000000e+00 1.000000000000000000e+00 1.000000000000000000e+00 1.000000000000000000e+00 1.000000000000000000e+00 1.000000000000000000e+00 1.000000000000000000e+00 1.000000000000000000e+00 1.000000000000000000e+00 1.000000000000000000e+00 1.000000000000000000e+00 1.000000000000000000e+00 1.000000000000000000e+00 1.000000000000000000e+00 1.000000000000000000e+00 1.000000000000000000e+00 1.000000000000000000e+00 1.000000000000000000e+00 1.000000000000000000e+00 1.000000000000000000e+00 1.000000000000000000e+00 1.000000000000000000e+00 1.000000000000000000e+00 1.000000000000000000e+00 1.000000000000000000e+00 1.000000000000000000e+00 1.000000000000000000e+00 1.000000000000000000e+00 1.000000000000000000e+00 1.000000000000000000e+00 1.000000000000000000e+00 1.000000000000000000e+00 1.000000000000000000e+00 1.000000000000000000e+00 1.000000000000000000e+00 1.000000000000000000e+00 1.000000000000000000e+00 1.000000000000000000e+00 1.000000000000000000e+00 1.000000000000000000e+00 1.000000000000000000e+00 1.000000000000000000e+00 1.000000000000000000e+00 1.000000000000000000e+00 1.000000000000000000e+00 1.000000000000000000e+00 1.000000000000000000e+00 1.000000000000000000e+00 1.000000000000000000e+00 1.000000000000000000e+00 1.000000000000000000e+00 1.000000000000000000e+00 1.000000000000000000e+00 1.000000000000000000e+00 1.000000000000000000e+00 1.000000000000000000e+00 1.000000000000000000e+00 1.000000000000000000e+00 1.000000000000000000e+00 1.000000000000000000e+00 1.000000000000000000e+00 1.000000000000000000e+00 1.000000000000000000e+00 1.000000000000000000e+00 1.000000000000000000e+00 1.000000000000000000e+00 1.000000000000000000e+00 1.000000000000000000e+00 1.000000000000000000e+00 1.000000000000000000e+00 1.000000000000000000e+00 1.000000000000000000e+00 1.000000000000000000e+00 1.000000000000000000e+00 1.000000000000000000e+00 1.000000000000000000e+00 1.000000000000000000e+00 1.000000000000000000e+00 1.000000000000000000e+00 1.000000000000000000e+00 1.000000000000000000e+00 1.000000000000000000e+00 1.000000000000000000e+00 1.000000000000000000e+00 1.000000000000000000e+00 1.000000000000000000e+00 1.000000000000000000e+00 1.000000000000000000e+00 1.000000000000000000e+00 1.000000000000000000e+00 1.000000000000000000e+00 1.000000000000000000e+00 1.000000000000000000e+00 1.000000000000000000e+00 1.000000000000000000e+00 1.000000000000000000e+00 1.000000000000000000e+00 1.000000000000000000e+00 1.000000000000000000e+00 1.000000000000000000e+00 1.000000000000000000e+00 1.000000000000000000e+00 1.000000000000000000e+00 1.000000000000000000e+00 1.000000000000000000e+00 1.000000000000000000e+00 1.000000000000000000e+00 1.000000000000000000e+00 1.000000000000000000e+00 1.000000000000000000e+00 1.000000000000000000e+00 1.000000000000000000e+00 1.000000000000000000e+00 1.000000000000000000e+00 1.000000000000000000e+00 1.000000000000000000e+00 1.000000000000000000e+00 1.000000000000000000e+00 1.000000000000000000e+00 1.000000000000000000e+00 1.000000000000000000e+00 1.000000000000000000e+00 1.000000000000000000e+00 1.000000000000000000e+00 1.000000000000000000e+00 1.000000000000000000e+00 1.000000000000000000e+00 1.000000000000000000e+00 1.000000000000000000e+00 1.000000000000000000e+00 1.000000000000000000e+00 1.000000000000000000e+00 1.000000000000000000e+00 1.000000000000000000e+00 1.000000000000000000e+00 1.000000000000000000e+00 1.000000000000000000e+00 1.000000000000000000e+00 1.000000000000000000e+00 1.000000000000000000e+00 1.000000000000000000e+00 1.000000000000000000e+00 1.000000000000000000e+00 1.000000000000000000e+00 1.000000000000000000e+00 1.000000000000000000e+00 1.000000000000000000e+00 1.000000000000000000e+00 1.000000000000000000e+00 1.000000000000000000e+00 1.000000000000000000e+00 1.000000000000000000e+00 1.000000000000000000e+00 1.000000000000000000e+00 1.000000000000000000e+00 1.000000000000000000e+00 1.000000000000000000e+00 1.000000000000000000e+00 1.000000000000000000e+00 1.000000000000000000e+00 1.000000000000000000e+00 1.000000000000000000e+00 1.000000000000000000e+00 1.000000000000000000e+00 1.000000000000000000e+00 1.000000000000000000e+00 1.000000000000000000e+00 1.000000000000000000e+00 1.000000000000000000e+00 1.000000000000000000e+00 1.000000000000000000e+00 1.000000000000000000e+00 1.000000000000000000e+00 1.000000000000000000e+00 1.000000000000000000e+00 1.000000000000000000e+00 1.000000000000000000e+00 1.000000000000000000e+00 1.000000000000000000e+00 1.000000000000000000e+00 1.000000000000000000e+00 1.000000000000000000e+00 1.000000000000000000e+00 1.000000000000000000e+00 1.000000000000000000e+00 1.000000000000000000e+00 1.000000000000000000e+00 1.000000000000000000e+00 1.000000000000000000e+00 1.000000000000000000e+00 1.000000000000000000e+00 1.000000000000000000e+00 1.000000000000000000e+00 1.000000000000000000e+00 1.000000000000000000e+00 1.000000000000000000e+00 1.000000000000000000e+00 1.000000000000000000e+00 1.000000000000000000e+00 1.000000000000000000e+00 1.000000000000000000e+00 1.000000000000000000e+00 1.000000000000000000e+00 1.000000000000000000e+00 1.000000000000000000e+00 1.000000000000000000e+00 1.000000000000000000e+00 1.000000000000000000e+00 1.000000000000000000e+00 1.000000000000000000e+00 1.000000000000000000e+00 1.000000000000000000e+00 1.000000000000000000e+00 1.000000000000000000e+00 1.000000000000000000e+00 1.000000000000000000e+00 1.000000000000000000e+00 1.000000000000000000e+00 1.000000000000000000e+00 1.000000000000000000e+00 1.000000000000000000e+00 1.000000000000000000e+00 1.000000000000000000e+00 1.000000000000000000e+00 1.000000000000000000e+00 1.000000000000000000e+00 1.000000000000000000e+00 1.000000000000000000e+00 1.000000000000000000e+00 1.000000000000000000e+00 1.000000000000000000e+00 1.000000000000000000e+00 1.000000000000000000e+00 1.000000000000000000e+00 1.000000000000000000e+00 1.000000000000000000e+00 1.000000000000000000e+00 1.000000000000000000e+00 1.000000000000000000e+00 1.000000000000000000e+00 1.000000000000000000e+00 1.000000000000000000e+00 1.000000000000000000e+00 1.000000000000000000e+00 1.000000000000000000e+00 1.000000000000000000e+00 1.000000000000000000e+00 1.000000000000000000e+00 1.000000000000000000e+00 1.000000000000000000e+00 1.000000000000000000e+00 1.000000000000000000e+00 1.000000000000000000e+00 1.000000000000000000e+00 1.000000000000000000e+00 1.000000000000000000e+00 1.000000000000000000e+00 1.000000000000000000e+00 1.000000000000000000e+00 1.000000000000000000e+00 1.000000000000000000e+00 1.000000000000000000e+00 1.000000000000000000e+00 1.000000000000000000e+00 1.000000000000000000e+00 1.000000000000000000e+00 1.000000000000000000e+00 1.000000000000000000e+00 1.000000000000000000e+00 1.000000000000000000e+00 1.000000000000000000e+00 1.000000000000000000e+00 1.000000000000000000e+00 1.000000000000000000e+00 1.000000000000000000e+00 1.000000000000000000e+00 1.000000000000000000e+00 1.000000000000000000e+00 1.000000000000000000e+00 1.000000000000000000e+00 1.000000000000000000e+00 1.000000000000000000e+00 1.000000000000000000e+00 1.000000000000000000e+00 1.000000000000000000e+00 1.000000000000000000e+00 1.000000000000000000e+00 1.000000000000000000e+00 1.000000000000000000e+00 1.000000000000000000e+00 1.000000000000000000e+00 1.000000000000000000e+00 1.000000000000000000e+00 1.000000000000000000e+00 1.000000000000000000e+00 1.000000000000000000e+00 1.000000000000000000e+00 1.000000000000000000e+00 1.000000000000000000e+00 1.000000000000000000e+00 1.000000000000000000e+00 1.000000000000000000e+00 1.000000000000000000e+00 1.000000000000000000e+00 1.000000000000000000e+00 1.000000000000000000e+00 1.000000000000000000e+00 1.000000000000000000e+00 1.000000000000000000e+00 1.000000000000000000e+00 1.000000000000000000e+00 1.000000000000000000e+00 1.000000000000000000e+00 1.000000000000000000e+00 1.000000000000000000e+00 1.000000000000000000e+00 1.000000000000000000e+00 1.000000000000000000e+00 1.000000000000000000e+00 1.000000000000000000e+00 1.000000000000000000e+00 1.000000000000000000e+00 1.000000000000000000e+00 1.000000000000000000e+00 1.000000000000000000e+00 1.000000000000000000e+00 1.000000000000000000e+00 1.000000000000000000e+00 1.000000000000000000e+00 1.000000000000000000e+00 1.000000000000000000e+00 1.000000000000000000e+00 1.000000000000000000e+00 1.000000000000000000e+00 1.000000000000000000e+00 1.000000000000000000e+00 1.000000000000000000e+00 1.000000000000000000e+00 1.000000000000000000e+00 1.000000000000000000e+00 1.000000000000000000e+00 1.000000000000000000e+00 1.000000000000000000e+00 1.000000000000000000e+00 1.000000000000000000e+00 1.000000000000000000e+00 1.000000000000000000e+00 1.000000000000000000e+00 1.000000000000000000e+00 1.000000000000000000e+00 1.000000000000000000e+00 1.000000000000000000e+00 1.000000000000000000e+00 1.000000000000000000e+00 1.000000000000000000e+00 1.000000000000000000e+00 1.000000000000000000e+00 1.000000000000000000e+00 1.000000000000000000e+00 1.000000000000000000e+00 1.000000000000000000e+00 1.000000000000000000e+00 1.000000000000000000e+00 1.000000000000000000e+00 1.000000000000000000e+00 1.000000000000000000e+00 1.000000000000000000e+00 1.000000000000000000e+00 1.000000000000000000e+00 1.000000000000000000e+00 1.000000000000000000e+00 1.000000000000000000e+00 1.000000000000000000e+00 1.000000000000000000e+00 1.000000000000000000e+00 1.000000000000000000e+00 1.000000000000000000e+00 1.000000000000000000e+00 1.000000000000000000e+00 1.000000000000000000e+00 1.000000000000000000e+00 1.000000000000000000e+00 1.000000000000000000e+00 1.000000000000000000e+00 1.000000000000000000e+00 1.000000000000000000e+00 1.000000000000000000e+00 1.000000000000000000e+00 1.000000000000000000e+00 1.000000000000000000e+00 1.000000000000000000e+00 1.000000000000000000e+00 1.000000000000000000e+00 1.000000000000000000e+00 1.000000000000000000e+00 1.000000000000000000e+00 1.000000000000000000e+00 1.000000000000000000e+00 1.000000000000000000e+00 1.000000000000000000e+00 1.000000000000000000e+00 1.000000000000000000e+00 1.000000000000000000e+00 1.000000000000000000e+00 1.000000000000000000e+00 1.000000000000000000e+00 1.000000000000000000e+00 1.000000000000000000e+00 1.000000000000000000e+00 1.000000000000000000e+00 1.000000000000000000e+00 1.000000000000000000e+00 1.000000000000000000e+00 1.000000000000000000e+00 1.000000000000000000e+00 1.000000000000000000e+00 1.000000000000000000e+00 1.000000000000000000e+00 1.000000000000000000e+00 1.000000000000000000e+00 1.000000000000000000e+00 1.000000000000000000e+00 1.000000000000000000e+00 1.000000000000000000e+00 1.000000000000000000e+00 1.000000000000000000e+00 1.000000000000000000e+00 1.000000000000000000e+00 1.000000000000000000e+00 1.000000000000000000e+00 1.000000000000000000e+00 1.000000000000000000e+00 1.000000000000000000e+00 1.000000000000000000e+00 1.000000000000000000e+00 1.000000000000000000e+00 1.000000000000000000e+00 1.000000000000000000e+00 1.000000000000000000e+00 1.000000000000000000e+00 1.000000000000000000e+00 1.000000000000000000e+00 1.000000000000000000e+00 1.000000000000000000e+00 1.000000000000000000e+00 1.000000000000000000e+00 1.000000000000000000e+00 1.000000000000000000e+00 1.000000000000000000e+00 1.000000000000000000e+00 1.000000000000000000e+00 1.000000000000000000e+00 1.000000000000000000e+00 1.000000000000000000e+00 1.000000000000000000e+00 1.000000000000000000e+00 1.000000000000000000e+00 1.000000000000000000e+00 1.000000000000000000e+00 1.000000000000000000e+00 1.000000000000000000e+00 1.000000000000000000e+00 1.000000000000000000e+00 1.000000000000000000e+00 1.000000000000000000e+00 1.000000000000000000e+00 1.000000000000000000e+00 1.000000000000000000e+00 1.000000000000000000e+00 1.000000000000000000e+00 1.000000000000000000e+00 1.000000000000000000e+00 1.000000000000000000e+00 1.000000000000000000e+00 1.000000000000000000e+00 1.000000000000000000e+00 1.000000000000000000e+00 1.000000000000000000e+00 1.000000000000000000e+00 1.000000000000000000e+00 1.000000000000000000e+00 1.000000000000000000e+00 1.000000000000000000e+00 1.000000000000000000e+00 1.000000000000000000e+00 1.000000000000000000e+00 1.000000000000000000e+00 1.000000000000000000e+00 1.000000000000000000e+00 1.000000000000000000e+00 1.000000000000000000e+00 1.000000000000000000e+00 1.000000000000000000e+00 1.000000000000000000e+00 1.000000000000000000e+00 1.000000000000000000e+00 1.000000000000000000e+00 1.000000000000000000e+00 1.000000000000000000e+00 1.000000000000000000e+00 1.000000000000000000e+00 1.000000000000000000e+00 1.000000000000000000e+00 1.000000000000000000e+00 1.000000000000000000e+00 1.000000000000000000e+00 1.000000000000000000e+00 1.000000000000000000e+00 1.000000000000000000e+00 1.000000000000000000e+00 1.000000000000000000e+00 1.000000000000000000e+00 1.000000000000000000e+00 1.000000000000000000e+00 1.000000000000000000e+00 1.000000000000000000e+00 1.000000000000000000e+00 1.000000000000000000e+00 1.000000000000000000e+00 1.000000000000000000e+00 1.000000000000000000e+00 1.000000000000000000e+00 1.000000000000000000e+00 1.000000000000000000e+00 1.000000000000000000e+00 1.000000000000000000e+00 1.000000000000000000e+00 1.000000000000000000e+00 1.000000000000000000e+00 1.000000000000000000e+00 1.000000000000000000e+00 1.000000000000000000e+00 1.000000000000000000e+00 1.000000000000000000e+00 1.000000000000000000e+00 1.000000000000000000e+00 1.000000000000000000e+00 1.000000000000000000e+00 1.000000000000000000e+00 1.000000000000000000e+00 1.000000000000000000e+00 1.000000000000000000e+00 1.000000000000000000e+00 1.000000000000000000e+00 1.000000000000000000e+00 1.000000000000000000e+00 1.000000000000000000e+00 1.000000000000000000e+00 1.000000000000000000e+00 1.000000000000000000e+00 1.000000000000000000e+00 1.000000000000000000e+00 1.000000000000000000e+00 1.000000000000000000e+00 1.000000000000000000e+00 1.000000000000000000e+00 1.000000000000000000e+00 1.000000000000000000e+00 1.000000000000000000e+00 1.000000000000000000e+00 1.000000000000000000e+00 1.000000000000000000e+00 1.000000000000000000e+00 1.000000000000000000e+00 1.000000000000000000e+00 1.000000000000000000e+00 1.000000000000000000e+00 1.000000000000000000e+00 1.000000000000000000e+00 1.000000000000000000e+00 1.000000000000000000e+00 1.000000000000000000e+00 1.000000000000000000e+00 1.000000000000000000e+00 1.000000000000000000e+00 1.000000000000000000e+00 1.000000000000000000e+00 1.000000000000000000e+00 1.000000000000000000e+00 1.000000000000000000e+00 1.000000000000000000e+00 1.000000000000000000e+00 1.000000000000000000e+00 1.000000000000000000e+00 1.000000000000000000e+00 1.000000000000000000e+00 1.000000000000000000e+00 1.000000000000000000e+00 1.000000000000000000e+00 1.000000000000000000e+00 1.000000000000000000e+00 1.000000000000000000e+00 1.000000000000000000e+00 1.000000000000000000e+00 1.000000000000000000e+00 1.000000000000000000e+00 1.000000000000000000e+00 1.000000000000000000e+00 1.000000000000000000e+00 1.000000000000000000e+00 1.000000000000000000e+00 1.000000000000000000e+00 1.000000000000000000e+00 1.000000000000000000e+00 1.000000000000000000e+00 1.000000000000000000e+00 1.000000000000000000e+00 1.000000000000000000e+00 1.000000000000000000e+00 1.000000000000000000e+00 1.000000000000000000e+00 1.000000000000000000e+00 1.000000000000000000e+00 1.000000000000000000e+00 1.000000000000000000e+00 1.000000000000000000e+00 1.000000000000000000e+00 1.000000000000000000e+00 1.000000000000000000e+00 1.000000000000000000e+00 1.000000000000000000e+00 1.000000000000000000e+00 1.000000000000000000e+00 1.000000000000000000e+00 1.000000000000000000e+00 1.000000000000000000e+00 1.000000000000000000e+00 1.000000000000000000e+00 1.000000000000000000e+00 1.000000000000000000e+00 1.000000000000000000e+00 1.000000000000000000e+00 1.000000000000000000e+00 1.000000000000000000e+00 1.000000000000000000e+00 1.000000000000000000e+00 1.000000000000000000e+00 1.000000000000000000e+00 1.000000000000000000e+00 1.000000000000000000e+00 1.000000000000000000e+00 1.000000000000000000e+00 1.000000000000000000e+00 1.000000000000000000e+00 1.000000000000000000e+00 1.000000000000000000e+00 1.000000000000000000e+00 1.000000000000000000e+00 1.000000000000000000e+00 1.000000000000000000e+00 1.000000000000000000e+00 1.000000000000000000e+00 1.000000000000000000e+00 1.000000000000000000e+00 1.000000000000000000e+00 1.000000000000000000e+00 1.000000000000000000e+00 1.000000000000000000e+00 1.000000000000000000e+00 1.000000000000000000e+00 1.000000000000000000e+00 1.000000000000000000e+00 1.000000000000000000e+00 1.000000000000000000e+00 1.000000000000000000e+00 1.000000000000000000e+00 1.000000000000000000e+00 1.000000000000000000e+00 1.000000000000000000e+00 1.000000000000000000e+00 1.000000000000000000e+00 1.000000000000000000e+00 1.000000000000000000e+00 1.000000000000000000e+00 1.000000000000000000e+00 1.000000000000000000e+00 1.000000000000000000e+00 1.000000000000000000e+00 1.000000000000000000e+00 1.000000000000000000e+00 1.000000000000000000e+00 1.000000000000000000e+00 1.000000000000000000e+00 1.000000000000000000e+00 1.000000000000000000e+00 1.000000000000000000e+00 1.000000000000000000e+00 1.000000000000000000e+00 1.000000000000000000e+00 1.000000000000000000e+00 1.000000000000000000e+00 1.000000000000000000e+00 1.000000000000000000e+00 1.000000000000000000e+00 1.000000000000000000e+00 1.000000000000000000e+00 1.000000000000000000e+00 1.000000000000000000e+00 1.000000000000000000e+00 1.000000000000000000e+00 1.000000000000000000e+00 1.000000000000000000e+00 1.000000000000000000e+00 1.000000000000000000e+00 1.000000000000000000e+00 1.000000000000000000e+00 1.000000000000000000e+00 1.000000000000000000e+00 1.000000000000000000e+00 1.000000000000000000e+00 1.000000000000000000e+00 1.000000000000000000e+00 1.000000000000000000e+00 1.000000000000000000e+00 1.000000000000000000e+00 1.000000000000000000e+00 1.000000000000000000e+00
4.950647719599506058e-02 4.691204675005297697e-01 6.327733312431088608e-02 4.708499013345179285e-01 5.229931691233697943e-01 6.156162372148440420e-01 7.499137592901653493e-01 1.787593307775919294e-01 4.288521968866961798e-01 5.323890647159849054e-01 1.055095860832862220e+00 -5.428428722541722706e-01 1.317954170955628834e+00 4.667563891405593357e-01 5.067811311137410124e-01 7.868140157622542930e-01 9.939501776422219326e-01 8.567634695871599870e-01 3.097483254687029008e-01 5.254372893722231153e-01 6.195027731743574240e-01 9.382121087684478500e-01 7.357057658416180645e-01 6.286742301195638039e-01 2.837623960896681896e-01 7.289203514042089660e-01 3.479098461694582478e-01 5.400751886359753673e-01 5.052390178575625335e-01 1.339404991612823004e+00 5.032591110811134305e-01 5.594710963912674639e-01 7.404498904958789485e-01 5.253029266752093918e-01 7.464806857595178702e-01 6.046062827268023909e-01 6.041101062254645715e-01 1.482591981812528825e+00 4.251495184884824564e-03 5.312980723291020890e-01 4.999324205229961626e-02 -5.293271463941439103e-01 7.566911003862876184e-01 2.059545427626626735e-01 2.344889866872941209e-01 5.572602011950711365e-01 4.700498922855458339e-01 5.442815044323735529e-01 4.791340602560170692e-01 -5.082681712655280626e-03 1.426355860578175545e-02 8.196016902371487944e-01 6.228505189640101136e-01 4.221672782445053396e-01 4.603248843878994800e-01 1.657177359604386849e-02 4.667924653844381933e-01 5.571983790784280632e-01 1.634747198657315881e-01 5.379221481983517128e-01 8.689720899112625130e-01 5.043105175476727542e-01 5.266965576577748998e-01 7.357061537605777968e-01 6.804391381103255254e-01 4.005862510492583795e-01 5.366288766323842330e-01 3.720214616806293284e-01 5.092043215259181022e-01 3.565097796395958613e-02 5.720213219220936507e-01 5.797643586360814449e-01 5.174045572625055600e-01 7.300977549356912552e-03 1.419325340702465299e+00 5.265419325647408000e-01 6.184820528468524259e-01 7.782057749803342750e-01 5.333430382580487406e-01 1.352209899628497025e+00 5.710059086851352328e-01 1.825605236532252262e-01 1.202281203742570748e+00 4.369350045627620194e-01 6.086189689361380939e-01 7.579967317739790822e-01 8.375437642306261532e-01 5.606211456705130214e-01 3.632527592385182413e-01 5.724224176203218661e-01 2.401645755583014519e-01 1.924339988929601786e+00 4.960490784100803907e-01 -1.022134786064595874e-01 5.262751599783382916e-01 5.237227649544292651e-01 5.568277605459910351e-01 4.514200894000628961e-01 1.970353038231679732e-01 7.398254536235436829e-01 1.406565247114339723e+00 6.478069608286453063e-01 5.437294106370842428e-01 9.850481495326870451e-01 7.436668978268003993e-01 -1.722036771712662118e+00 -1.070303859901565735e+00 5.671035531490630222e-01 4.738737300400299723e-01 9.706608125500131301e-01 4.463425454826249750e-01 5.107971090349220367e-01 3.144236616791429850e-01 4.391133327679005993e-01 4.949889478423329381e-01 4.741393068170507430e-01 4.339014998420327451e-01 5.142877472244233861e-01 5.363312547942252762e-01 5.514287202897265594e-01 1.232985268239426224e+00 5.293805082529279282e-01 4.564818593246683931e-01 4.950278116621324026e-02 5.001728656005390850e-01 1.805622918105457941e+00 5.163004156669677158e-01 5.059198695175270988e-01 4.514897484280505080e-01 5.305890665762330594e-01 6.261190993082407230e-01 5.163665692022388898e-01 3.885482647591207983e-01 8.999117637231836275e-02 1.938292335516065279e-01 -1.091376852183248564e-01 4.805332580617066585e-01 -6.430230897856633113e-03 9.512902290072420275e-01 6.286240889263570164e-01 5.387646866637524345e-01 8.119990286200494678e-01 5.709596446146707471e-01 5.609049384799561500e-01 5.337039937611771645e-01 -4.484680708948666356e-02 5.435973087367265144e-01 6.122504636459065175e-01 4.963223661759609828e-01 -7.240856392983990863e-01 7.794021659525454115e-01 -2.855973901448555785e-01 5.572424660463316526e-01 5.149458714111670998e-01 7.059676453646238636e-01 5.344905299572506596e-01 1.528568485734594473e+00 1.712089627004966808e-01 7.949399446346814280e-01 7.371395277103540700e-01 4.684497342420285149e-01 6.366632864914031353e-01 5.361044942030948057e-01 5.402079080053798776e-01 1.126665326216942598e+00 -2.367039555574913801e-03 7.993042114264342635e-01 5.038948759129766586e-01 5.946331860526101742e-01 4.777230119882531767e-01 3.598983151274907089e-01 4.696695477112944328e-01 5.573405558513104818e-01 5.182703438259749218e-01 4.139738199842098454e-01 1.196249031678510433e-02 1.363171448510303585e-01 3.836096404016703376e-02 6.961047149834069803e-01 1.121411321193032995e+00 7.248501686194505078e-01 4.841648068350294376e-01 -2.182963680443286147e-01 4.313495412946766194e-01 5.142059886626850762e-01 5.009689667983112660e-01 5.225673720857946236e-01 5.177346463486607320e-01 2.430587502833760016e+00 5.724534318795073684e-01 4.528960927737887832e-01 -7.121894261084390498e-01 5.346083606168119395e-01 4.781972270840308958e-01 1.405022712786198613e-01 5.417619164599802861e-01 8.815629653678824784e-01 5.351619387206402179e-01 7.585901296556716300e-01 5.933164634425042161e-01 3.314764918512006497e-01 5.159003817786632640e-01 1.073811116035414903e+00 5.907838265802740629e-01 5.432728095182103312e-01 7.585901447677203535e-01 5.651254725284479141e-01 1.225078875171447423e+00 4.956447345743778543e-01 3.859787859691176104e-01 5.221028873892924471e-01 -6.891932293760971197e-03 5.118778884087690217e-01 2.065479104366582386e-01 5.248458881290265499e-01 5.258718173035046295e-01 5.162485004135712874e-01 5.774326314677985517e-01 5.251735055752582149e-01 5.475363866680211800e-01 5.421298322548626647e-01 2.904784075155582568e-01 -6.172368988457762606e-01 4.107283879620129974e-01 1.895123265411641222e-01 5.652957896472788901e-01 5.062332583981075107e-01 1.119838119374974017e+00 8.972863276791711584e-01 6.075591876925590107e-01 -1.089992322398517094e-01 9.983421027607477516e-01 5.235243513597103160e-01 4.283339706585855278e-01 1.296721062690991966e-01 4.431202624445205740e-01 5.548709729485664655e-01 2.753378223044424811e-01 -1.009331053468923989e-01 -1.890447845407212391e-01 2.273726600248706931e-01 4.953295030858830827e-01 -5.296667107768375515e-02 5.335249960750799714e-01 5.421831449637823930e-01 7.643195485846606685e-01 -1.188695017528348108e-01 6.640940731730660129e-01 -1.831653700549652264e+00 5.304290666334711135e-01 -2.690913198694445119e-01 4.755409248695466884e-01 5.418675356147216737e-01 7.357068873831588141e-01 5.240092326540233270e-01 5.178600529585055678e-01 4.351593800520550115e-01 5.079829081702348370e-01 5.639088074797843353e-01 1.623745787569667920e+00 6.130768179101142579e-01 6.665067657267806922e-01 4.799784411249736205e-01 6.771689781684780973e-01 8.689715462632258136e-01 3.259232851922128638e-01 2.365973741301462763e+00 4.649213378886433712e-01 2.907204940283046879e-01 4.158866355670725601e-01 5.081704331167193889e-01 8.651542352636878430e-01 5.055340014660597570e-01 5.175201320885496337e-01 5.270904503979160216e-01 8.473343399370015794e-01 5.682173366036089579e-01 8.825801874908979494e-01 8.351327629865999969e-01 6.641875461045060325e-02 6.508052538991495606e-01 5.618400623166470709e-01 4.568260869117568013e-01 -5.887991783678113711e-01 3.649648023116612294e-01 8.561729772045570952e-01 5.620952895068590527e-01 5.043119474055314244e-01 4.741392900214145278e-01 6.128372678892460845e-01 5.493226975676344104e-01 -4.186944378749216100e-01 4.815234984327350642e-01 5.086841905444778877e-01 -3.099491476523430836e-02 5.504399416373946252e-01 1.785588603697179977e+00 4.846148261695059634e-01 5.285082546608513843e-01 4.962861953272388327e-01 -2.968704795301232213e+00 5.185837011461367219e-01 2.176477966394631647e+00 4.706129391697322362e-01 5.060944712308202975e-01 -5.920381728648014263e-01 5.286294746565270986e-01 5.411949744502472237e-01 7.325907462219481969e-01 4.543686815813964275e-01 5.117150848289832021e-01 6.034170244506508185e-01 3.187407879996436155e-01 4.964588845740440792e-01 5.396195545196442733e-01 4.932526143140505415e-01 5.297649320698907260e-01 4.696957494350002538e-01 5.195887869138143822e-01 1.129334746096311237e+00 -2.894067956555855959e-03 2.106823736006675496e+00 2.405738153073412100e+00 3.212342816354356034e-01 -1.062554281816296270e-01 5.331871454194964111e-01 4.450702176734787630e-01 6.654116866436969868e-01 1.275535006285585471e+00 5.526414548041936881e-01 1.073015665129739116e+00 5.370261554260871151e-01 1.754137252874495290e-01 1.208932287057864707e+00 5.911639982730920728e-01 5.021987704039350131e-01 5.156149658547540815e-01 5.575914645167411310e-01 -3.091398830044598256e+00 1.500146742579333115e+00 4.674689987102950139e-01 6.491920140066740341e-01 5.221712392051462981e-01 1.482592056783109902e+00 3.468700573174949287e-01 4.498408230563558097e-01 3.063486264453090802e-01 5.953837612267928181e-01 1.395475665531071829e+00 7.592125267137495026e-01 7.585901215501269501e-01 5.335257015007444092e-01 5.907838260341844450e-01 7.113213581171163868e-01 5.174123607831583316e-01 8.295108331784389888e-01 5.377158672404951378e-01 5.449862071053609425e-01 6.549198125814770233e-01 5.037751115789229628e-01 5.283011692188350761e-01 5.373168075716862058e-01 4.498410163781499382e-01 4.541765070515587643e-01 5.318190322320495156e-01 7.527574379492530943e-01 1.082989594599736316e+00 1.025364470152002161e+00 5.590857402812865473e-01 3.977016252638166938e-01 8.689111464558749720e-01 -1.185466564454836225e-01 9.202208049707041315e-01 6.022004059743631954e-01 3.997122194426103343e-04 4.694709597379041477e-01 1.125119574185829974e+00 4.355393332971694287e-01 6.155445233834375696e-01 2.442904886331382919e-01 -2.984592985301008916e-01 -2.159888787529890664e+00 4.533830567402317158e-01 5.907838216554814892e-01 5.907838259532403047e-01 5.200356290061791675e-01 7.010456794604833508e-01 -1.271487818208569820e-01 5.441275968467180757e-01 5.241855328059916719e-01 2.989229045649194894e-01 5.435641464103713183e-01 1.122840081193849704e+00 7.585901461099119336e-01 5.190281074941412998e-01 5.120389906823571424e-01 3.680667763133687598e-01 5.818810416941275765e-01 5.353694617272737322e-01 4.856013537118285539e-01 5.123509889124969741e-01 2.387915790035188557e-01 5.469419443009626049e-03 5.907838259557136595e-01 6.496393795227770607e-01 5.223577508079535470e-01 7.583232432560830238e-01 8.473892571676157059e-01 5.350788812476079404e-01 5.589892232757017743e-01 1.549356935774719224e+00 5.181883699337926918e-01 -2.454566682594304439e+00 4.694808093622016010e-01 1.397414869506047541e+00 4.887072666227237350e-01 -8.549881961743392988e-01 4.811982772424127086e-01 6.042114519433132713e-01 4.646306900722803612e-01 5.229270309911949743e-01 1.388697560855778890e-01 5.180717504039140664e-01 1.030302250612226578e+00 4.944001749991407402e-01 -1.114075127322207426e-01 4.822122056499544840e-01 4.768737823336366977e-01 7.449528702700117799e-01 5.487348035443869732e-01 6.767839251021851021e-01 -3.719644228181293033e-01 4.903132446630525387e-01 5.278633322153639673e-01 6.325190679632326507e-01 5.446699711851660242e-01 7.487572605892820476e-01 5.359584377667051536e-01 4.107413359645442075e-01 9.403569826844087043e-01 4.718036571752554087e-01 6.209281111753071070e-01 1.530589774442174256e-01 1.748722483474043354e-01 9.069435945017421119e-01 5.156449888291896322e-01 2.900959806212632497e+00 6.274054570084036664e-01 3.825454923665195794e-01 5.876412656181007055e-01 7.450623541500339675e-01 1.197401619362610352e-02 5.173453794483487966e-01 5.259555698951861036e-01 4.903770364701107165e-01 1.160707960696611751e+00 7.492063692839794342e-01 5.368272417167637700e-01 5.649913978638667622e-01 1.078913452925894356e+00 5.355125356966765615e-01 5.188003263513506491e-01 5.404823122124235990e-01 4.169560769822313051e-01 5.263832341321713626e-01 8.454584639002967750e-01 5.354401662166322629e-01 5.321985903209435209e-01 -7.703261803565302716e-04 5.446080960352432943e-01 6.059552455882320776e-04 5.509186192080652855e-01 5.136224894638867777e-01 5.673514974460314164e-01 7.491394880800368306e-01 4.987428731166110296e-01 5.152319799585068916e-01 -2.134840724429452885e-02 5.044950127912496418e-01 5.477175679367958239e-01 4.290021988762807714e-01 -8.225839716160228757e-03 5.166347856548325623e-01 3.974472931965659650e-01 5.326793973349582823e-01 6.304098742104325970e-01 1.166469159621431384e+00 7.474658242620282333e-01 5.335532006742701450e-01 4.505193858644220284e-01 3.539174076330380281e-01 4.234859343138780430e-01 9.445314408917953042e-01 3.834365045222503099e-01 3.566532371326910922e-01 6.349108973471386808e-01 1.812965298865448993e+00 5.798804683383236291e-01 4.206161796446726830e-01 5.088712473369236822e-01 4.814718138067971553e-01 5.049499651079770723e-01 7.033383620188580210e-01 -5.009923054380014396e-01 3.721247715037913073e-01 3.811848947318821068e-01 5.970702655892381472e-01 6.422744968347094963e-01 -4.817730564276109240e-01 4.029996276303216551e-01 5.400289863852425487e-01 6.627168233258242669e-01 6.430533341152308013e-01 1.062792149453750001e+00 5.255663182302441339e-01 5.558996793644519485e-01 -5.364895164869235566e-01 5.325722990579613292e-01 1.082219318072576097e+00 5.824824904029585193e-01 1.734413199512468140e-01 4.253586215489945643e-01 -9.077684785743938001e-01 5.145113290030216557e-01 4.307400145287844095e-01 1.046102691978605392e+00 8.133202540843957884e-01 5.539724357840591917e-01 4.545866309519179804e-01 3.201144491141867388e-01 4.692091880270274351e-01 6.177009901126250258e-01 5.985877966065614730e-01 5.967521172711751087e-03 5.338034401943734242e-01 3.191586103032372779e-01 7.296315196643571310e-01 6.260478913404634582e-01 5.499064978255898684e-01 9.747762988828946318e-01 -1.347696509622978434e-01 -1.791222119004753366e-01 5.737254542405157975e-01 4.590573844688835559e-01 3.723468306084948276e-01 4.605232811867474019e-01 -6.942163185395933134e-01 2.848785919089160679e+00 3.467787096768016331e-01 4.745648870036170419e-01 7.399767808213004727e-01 5.173100180695834327e-01 5.322019527454562304e-01 4.901870022384601788e-01 4.045525597565538534e-01 4.952873103925932163e-01 5.249826950340105158e-01 5.375960118328627635e-01 5.491228733005604212e-01 6.432832671208398301e-01 5.569673942332421523e-01 4.092205934058945616e-01 4.322841248016805471e-01 5.591887275052739303e-01 5.450035198866749475e-01 9.288189732332697846e-01 2.145361517999002210e+00 6.251767888134681650e-01 4.827539950319807427e-01 5.796172821652482154e-01 5.067375618667424586e-01 4.996119596857622192e-01 5.382008481458127047e-01 5.066836266717701376e-01 3.142231894299266082e-01 5.099709660644343723e-01 5.805155871937097700e-01 4.695234673342723597e-01 4.475556629154958665e-01 7.407922970773617166e-01 7.873567381070563087e-01 7.626145980979167627e-01 1.750006419399406932e-01 8.689720742304449796e-01 4.637647104571418488e-01 3.432280439025477969e-01 1.870077309359463147e+00 2.395875191641368973e-01 4.947561416063575579e-01 5.552719797236389532e-01 4.857348174640269134e-02 6.029145611826602913e-01 1.405493123690081836e+00 4.995422154435538165e-01 9.155826178692290096e-01 5.271525013664375425e-01 5.569502813330470259e-01 4.289871806871351501e-01 4.776750262613381204e-01 5.258550134007561327e-01 5.249508427875576588e-01 1.964858012098611439e-01 4.705451730500467278e-01 -8.104370608596038750e-01 5.164137655501173096e-01 4.692700337917947162e-01 4.773699860636147485e-01 4.962579861946603277e-01 8.689720709754082950e-01 3.515970558951257985e-01 3.647724816756922062e-01 1.153978975681112296e+00 -4.115259571650279335e-01 5.321155324260401498e-01 1.004523107469098564e+00 1.261298565876742828e+00 3.919800951457749205e-01 5.165086815378293617e-01 6.386016122380262609e-03 -1.436888521773216576e+00 3.203266228994395837e-01 4.863932534849742528e-01 5.166577361808892821e-01 5.290106072236249179e-01 4.705857170416001267e-01 5.072487694046307061e-01 -2.950410019970199915e-01 7.734409428935640207e-01 4.741392695079988950e-01 5.536287992274766534e-01 5.543760393427562549e-01 -7.937772290931216501e-02 -1.898937313611829825e-01 1.551742889688817906e+00 4.334959540949211432e-01 4.307299115286398195e-01 5.289046604330556178e-01 3.613607359334770064e-01 3.510774877338121436e-01 2.947382810113578500e-01 -1.816971869053748412e-01 5.452926065249472654e-01 5.901496831978088053e-01 5.373241968014457193e-01 5.522086138167615621e-01 4.696608203320039587e-01 5.081053633313991069e-01 5.143803341375219329e-01 5.166283503093918039e-01 9.780574195196305443e-01 6.687520725144033840e-01 4.663347877520937490e-01 5.199660032187798375e-01 5.651600156691914956e-01 4.726147465402099623e-01 2.413597630667358232e-02 4.498409171263701434e-01 7.567349807258948458e-01 5.600743848325007157e-01 4.830637992059458319e-01 1.144365374569342952e+00 7.033548004353152860e-01 -2.767319916729670815e-01 4.655173305874880652e-01 4.901526147223931318e-01 5.308277684304795185e-01 4.232694518026284269e-01 7.858659285885585266e-01 4.865364642631172520e-01 5.453750927176834740e-01 1.195608897392826941e-01 -6.875430590889730631e-01 2.009123778068160338e+00 5.328924521581492879e-01 8.436862280503003575e-01 7.276915820229673537e-01 5.342226234493051562e-01 2.938750039705410599e-01 1.462811599981106436e-01 5.300064519714854372e-01 5.548688623897611860e-01 1.629939077307828582e-02 5.372049703506424079e-01 5.500473422527814016e-01 5.339027104003983837e-01 9.939805692352067235e-01 5.063365692653453154e-01 4.835026799451561663e-01 3.025826832365085539e-01 6.160943232218295540e-01 1.663073483219738857e-01 5.235187110857668635e-01 6.513402775626259134e-01 5.500720148115642028e-01 -3.783305666653117294e-01 4.813754268423273142e-01 6.339263426885726194e-01 5.044242298031826888e-01 4.684273062242400032e-01 8.690001351774822025e-01 7.508748356562959803e-01 -4.895922089208734063e-01 1.016381038574227569e+00 1.482591981887802390e+00 4.536823437366099832e-01 4.641956202687504418e-01 1.018272411839170832e+00 5.172054658028191199e-01 4.692394280899515047e-01 5.283767685602392961e-01 1.530849945396308032e+00 5.185766769852665492e-01 5.335264493391174145e-01 1.216086144521660861e+00 2.645237549443225575e-02 4.889015764257965690e-01 -9.329304925017281591e-02 -8.007539166826150856e-01 -1.902489098731233730e-01 7.262452174543477801e-01 5.162661722174490819e-01 6.201299930496309010e-01 -3.528849277345910140e-01 4.670634326471176934e-01 1.091961414831052815e-02 -1.622660467898152381e-01 4.305754578345130645e-01 5.378429565421010139e-01 5.269077755994512335e-01 4.399009141528372191e-01 4.821503809841826693e-01 8.579196326553278906e-01 -2.214781221514655063e-01 5.291002425302504530e-01 5.349467880656821883e-01 6.564299803876754158e-01 1.114651082859780651e+00 6.163142043759692879e-01 4.456622809013912057e-01 4.921086818444365130e-01 1.685215933207410630e-02 1.397854165671236215e-01 5.166997487320933446e-01 5.249668783837404540e-01 4.911020312051425640e-01 5.821701342351340847e-01 3.960847877619104174e-01 5.438986135090744245e-01 5.181474272626744870e-01 2.433822695186201313e-01 5.008392919572857149e-01 8.226529684790535590e-01 2.317279208419366743e+00 -1.952038772614519690e-01 6.738985390512085560e-01 4.998414044302587622e-01 3.304872735633768155e-01 7.306979170885942176e-01 -1.470764314736652464e-02 -1.210253182074515044e+00 4.962000227627440530e-01 2.376012403487331337e+00 5.466903475889692832e-01 1.222507022322206899e-01 2.455672634142004596e-01 4.741393062344761988e-01 5.296465239617395016e-01 1.405616634229343465e+00 5.652303057053674751e-01 1.174890175349874305e-01 5.788589347868562385e-01 1.455189026152138965e+00 5.545171504153257880e-01 4.426997620373389064e-01 4.775557576548305483e-01 7.788998319543148918e-01 4.405388774057855117e-01 5.292515184815883567e-01 -1.464998150135001127e-02 5.170557429632430813e-01 6.030639977310613409e-01 -5.008780141978337319e-01 1.984387790033599330e-01 1.120360318347162432e+00 2.295614428985031374e-01 5.514151793662246392e-01 4.534469522060703972e-01 5.562005416295572324e-01 1.889522873367835754e+00 6.772593559335290392e-01 1.046959566606849718e-02 2.626015006234017068e-01 5.373957099507984392e-01 9.506334603016439733e-01 5.290598070391714369e-01 4.727161621113233625e-02 5.201858794671517794e-01 -5.621376773713040315e-02 5.024008069115929453e-01 5.265557968290771607e-01 4.606395258267262371e-02 -1.266617587368597253e-01 6.333908062966914221e-01 4.014820868070768101e-01 5.153408505953686047e-01 5.842962324603476754e-01 4.851654605930403874e-01 6.119482132460845047e-01 5.185030941634555246e-01 5.435290974516790996e-01 5.172415210323053625e-01 7.348284144210309732e-01 9.913798674725013971e-01 2.857268960099877741e+00 5.147071887933970524e-01 5.148622011813043242e-01 6.006125519045661942e-01 1.928219411117517157e-01 5.313691016385322374e-01 7.437382166418481377e-01 5.737817860212431897e-01 1.306448765821228264e+00 6.185226054562820153e-01 -4.877695079172639780e-01 2.429248570234296065e-02 6.073627253276396853e-01 5.988060232701248875e-01 4.903988036615553603e-01 5.672527714084953931e-01 1.929230420242342148e-02 5.287514680993471439e-01 6.264271766719523571e-01 -2.844660900276300364e+00 5.086626246453517242e-01 5.225086902211690809e-01 1.061129177202547291e+00 4.970311985790760168e-01 4.775308962664230328e-01 7.340172680309001718e-01 -7.305083520035159372e-01 -5.064941090481570596e-01 8.244854980892200869e-02 5.011873881059488722e-01 5.076827959136027690e-01 3.371311631483956406e-01 4.966079083100639613e-01 -2.787809724016220847e-01 8.107340848592708982e-01 6.257423482783758262e-01 6.825277929889786988e-01 5.112034159328395777e-01 5.569401957951537474e-01 2.155792888013145225e-01 -5.928560254294974463e-01 3.706989860736270570e-01 5.232943476486576762e-01 1.979086613121268656e-01 5.345064318798977698e-01 5.184223344387760557e-01 5.223198273329512364e-01 6.054492634109044369e-01 5.343090186129249020e-01 5.015324133911231996e-01 4.803288332985901632e-01 1.482591986977650267e+00 4.292766137741689803e-01 5.463208182390930645e-01 -2.374145707925434667e-02 5.134866716704897804e-01 6.019569227124395017e-01 5.331615671911322796e-01 5.428902992170532293e-01 4.101842038890662345e-01 7.705123581204882388e-01 9.677336301264310991e-01 5.540231944702954658e-01 4.754692954550715500e-01 5.825360820316349830e-01 5.740068267304557770e-01 5.245047741308948019e-01 5.432469152239978172e-01 1.016385760384544534e+00 7.092359730297714826e-01 -3.982230665135492176e-01 3.969028324752681414e-01 9.207822137083627734e-01 5.142127841526225041e-01 8.751671822813478219e-02 5.239735904347332385e-01 4.119089030427331988e-01 -1.392187740789858907e-01 6.172511818008930007e-01 2.966779905864518896e-01 5.271813390834493296e-01 6.395815245378249081e-01 5.060415294434928990e-01 3.593209626677642543e-01 1.332817947741796960e+00 6.276396029053115111e-01 4.930510123062641914e-01 -3.633035290715048160e-01 5.371457063223862294e-01 1.052255378327596080e+00 4.869479423271864116e-01 3.671232812519906741e-01 7.594071746712549587e-01 -1.503303808346160286e-01 3.919439073609838897e-01 1.399129163809819332e+00 -7.947559920787022891e-01 5.519467011634492382e-01 5.143509664498802092e-01 -3.236651324945136188e-01 6.118016501339383906e-01 6.025984103307832074e-01 5.790701280337083867e-01 4.928440877675998033e-01 3.922693438454304959e-01 2.725137356381799325e-01 5.346317830053242126e-01 5.506523798142740622e-01 5.259657175742666890e-01 5.060963657434091462e-03 2.955513866469268724e-01 5.168780326155519855e-01 1.030991458568441876e+00 2.639275574063171814e-01 -5.021453168962793923e-01 4.702354656839123903e-01 5.349300585837326594e-01 3.668634871097861128e-01 3.931787498383063940e-03 4.384036067012533344e-01 5.223186598285795013e-01 5.229567556900760472e-01 4.915064289142844767e-01 1.109029250743858060e-02 5.126312738105582856e-01 4.373786089576787717e-01 5.016939770894287554e-01 1.951060987152067661e+00 1.525664522936094059e-01 3.638288367745708962e-01 4.926323647830885832e-01 1.688095230626326160e+00 3.435566287500305127e-01 4.510825423873154327e-01 7.910978940074328558e-02 4.498406651234487796e-01 5.158704216438719792e-01 4.501225676160988676e-01 5.498638280697394354e-01 5.191632446919826060e-01 5.113923761039755878e-01 6.046672794273567630e-01 -3.583249372366194563e-01 5.211315218001001393e-01 5.062414476409056174e-01 5.373948952060607631e-01 3.878282355086369315e-01 5.239828940165197624e-01 -1.987304743002550889e-01 8.260683701542592683e-01 -9.760575088533057775e-01 -4.017503651735834236e-01 4.966688478349928215e-01 5.310819191164776187e-01 6.297943185433098057e-01 5.180158492514418400e-01 2.611665900736062640e-01 6.735887617543363515e-01 4.498409732336026146e-01 5.209157667430058813e-01 4.917062737336006517e-01 4.242590995482953820e-01 5.199447248258737275e-01 4.017017240722225990e-01 5.605639724403330693e-01 5.284022069238760722e-01 2.668835993401461049e-01 5.306054970166910190e-01 5.210411764519969902e-01 5.596076093635575788e-01 5.214339717533045260e-01 5.570473936208477639e-01 4.192884451966344406e-01 4.151551619859235043e-01 5.437768997064647003e-01 5.655291732256028103e-01 1.840822534065926774e-01 6.184863184080032772e-01 2.082254121683772219e+00 5.048016152484194885e-01 4.040925560981544762e-01 6.474512908796621335e-01 4.714868959390228764e-01 1.067706311451768642e+00 5.116267718347802251e-01 7.595330109923650319e-01 5.301287731660675462e-01
7.938288855433688340e-01 4.170445409105127954e-01 2.933631106057465465e-01 3.547761826708066835e-01 3.065050865872268604e-01 1.416339847006960195e-01 4.688325798109627685e-01 5.218715619307470188e-01 4.355147105406322883e-01 3.004616205375554849e-01 1.882093143245360922e+00 1.594534360172175980e+00 -1.252992336034809640e+00 4.126335661794884868e-01 2.932051576646315660e-01 2.496976999455751967e-01 1.420877230722247808e-01 3.817404901469529932e-01 3.323621866033820704e-01 3.056330171278053842e-01 2.591436424359803148e-01 1.897416974104072285e+00 3.131061212282559847e-01 2.113663216430243241e-01 5.342991426635956831e-01 -4.267964349336314522e-01 4.969450512556202737e-01 2.329944928486506472e-01 3.183378783115928812e-01 -6.075709034209318959e-01 3.445977559850592620e-01 2.844464748768301132e-01 3.037715638258031148e-01 2.822267430340503203e-01 -4.125010793123417563e-01 2.165723946573364922e-01 3.752003014887745902e-01 -1.596031555283859982e-01 -2.841228106277987830e+00 2.907787419385350347e-01 8.813949331324423264e-01 1.259096764426374804e-01 -1.408268947653672776e-01 7.766186324772327287e-01 8.008216535741679021e-01 2.407175205606887913e-01 3.558435593071256342e-01 2.826902521765128906e-01 4.792187906993523594e-01 7.535579593562871104e-01 7.969151084499925819e-01 2.468154549695312505e-01 -4.973900467919236124e-01 4.319219527374811296e-01 4.192097435054718546e-01 7.802904215577317615e-01 3.447270771712255821e-01 4.612258013106280141e-01 3.564916104821258536e-01 2.814838272497467986e-01 3.952648504725911893e-01 4.120777562558457507e-01 2.972341826271327481e-01 3.131060743227698229e-01 -2.864748664158483504e-01 4.806554325860720733e-01 3.049262025320228497e-01 3.930791313420671784e-01 1.852232991113720306e-01 7.132534268525723142e-01 3.858343561898048280e-01 2.415712101685227320e-01 3.118728666701363617e-01 6.809698115704513333e-01 1.751294753303275664e+00 5.099659109347161046e-01 4.384228760429565996e-01 4.562701170433727804e-01 2.971005524681974985e-01 -1.199973453630252429e+00 2.652707745237386505e-01 8.177565790170805426e-01 1.881384572034382252e+00 5.025228506498978787e-01 2.482101974795145605e-01 -5.649736949427284216e-01 5.849037250591147125e-02 2.675826137553400375e-01 -5.220705800198409685e-01 -7.344366488916288516e-01 7.991871958977353474e-01 1.372587290507497837e+00 3.505152976988247238e-01 7.808445733265281241e-01 3.010030732267691134e-01 3.468893424297196382e-01 2.661194789876226152e-01 5.382451520654026877e-01 7.478002688602699566e-01 -4.252023944577255632e-01 -1.133854361483393330e-01 9.240977071395756193e-02 2.794839317809548751e-01 2.403693802137098490e-01 2.547328721582994837e-01 2.715449764189788784e+00 -2.329465473649739715e-01 -2.876586563501523086e-01 3.762321842456481935e-01 7.802777782635776926e-01 3.784712511025541404e-01 3.287634760142532087e-01 2.655834392298013769e-01 4.535335252286621932e-01 -5.332269182366367044e-01 3.370323732216217172e-01 5.459853643190381023e-01 3.456934038793268993e-01 3.417353940091856779e-01 2.535516795225030706e-01 -1.303980255060267712e+00 4.501173407036781482e-01 3.881086272106532009e-01 8.276995979165508999e-01 3.415466963511091247e-01 1.946483070131385107e+00 3.450064595500535458e-01 2.924785228602810316e-01 2.869853487228524735e-01 2.998040045952656274e-01 2.467114797834930318e-01 3.119057928514332168e-01 5.825328797449891294e-01 2.750225124932379472e-01 2.531340117275376334e-01 9.044339116936992440e-01 5.178361146642109780e-01 7.313923839684451922e-01 -2.943605713183684025e-01 2.216948451474144155e-01 3.130824558597103402e-01 3.194355953861344743e-01 1.534292432893937241e-01 2.664941048196295403e-01 3.156867667546400802e-01 7.699897873376723156e-01 1.923214407322400010e-01 2.326911466922168825e-01 8.972485380590895787e-02 3.733039878681919665e-01 -4.419620768994072524e-01 1.822993832602490608e-02 2.407161811847528532e-01 3.097632371899463610e-01 4.875365875384397030e-01 2.912171915145602696e-01 -1.571777711725333759e+00 3.865631186846211764e-01 -5.236768159911643350e-01 -4.238463752260469009e-01 3.033373853463237069e-01 2.064376529359165102e-01 2.880781777656823417e-01 3.164159121553672405e-01 6.094419267198521173e-02 -4.577275358182637116e-02 3.238292829852416066e-01 1.998660226538924722e-01 1.917578838384727535e-01 1.643645206985128449e-01 4.693045771111268860e-01 3.555360310543232982e-01 2.406357167160081689e-01 2.973482526201224330e-01 -2.256683669387165025e+00 6.724432740161877531e-01 7.425538859328321140e-01 1.048121132579521442e+00 -4.208623506076115683e-01 1.138419573243577565e+00 -2.976370885593535021e-02 3.778340833681139155e-01 1.160313800079268098e+00 3.964831092762717835e-01 3.002191702269100815e-01 2.666835931706374452e-01 2.933833067362892066e-01 2.813377589336352180e-01 -3.428994347102931051e-01 2.754879781341129652e-01 1.441226958914040013e-01 7.371146465431783756e-01 2.963692041939182120e-01 3.918962870759866712e-01 1.605841109038506631e-01 2.874493475316197144e-01 -1.380436448642025749e+00 2.902812539099439704e-01 3.062249254377476249e-02 2.432177568619796337e-01 4.528631097896221314e-01 3.045243422047270720e-01 3.152301449291138313e-01 8.110455303670700833e-02 -8.864251229633856033e-01 3.062249425943888367e-02 2.804940729282799916e-01 -4.457121473642359777e-01 3.684966968271649046e-01 2.536433265029232609e-01 2.856942374965127929e-01 -2.848385445197019195e+00 3.283409978219573588e-01 9.506727679778426143e-01 2.937478204288464512e-01 3.040440301153700120e-01 3.077675113926090500e-01 2.593714274188011482e-01 3.219932682782616351e-01 2.863878285675790503e-01 3.074863772801056383e-01 3.390568681346314839e-01 6.148468597439362693e-01 4.739271830105582506e-01 5.168213126344324282e-01 2.823581400558495269e-01 3.042288591732218439e-01 -4.288320561006334075e-01 1.974561084804420830e+00 1.229386219518280171e-01 1.160497150447709069e+00 -1.305100153385565287e+00 3.031808749393233304e-01 3.260935695257723976e-01 3.033907881700522724e-01 9.645345494132760988e-01 -1.921402489392821239e-02 6.797081788271115421e-01 2.526412931139328522e-01 6.543426550078750292e-01 5.492771501404174472e-01 3.340997794242548391e-01 -1.031990036967318058e+00 3.114735580490540223e-01 2.870243011145642287e-01 1.368925516291560895e-01 1.006581484296753759e+00 -1.731026364551227215e-01 2.678761253120223618e+00 2.146741201161007639e-01 9.646924802482165218e-01 3.283295809156200895e-01 3.015196386272618323e-01 3.131055900494832955e-01 3.041573756767887438e-01 3.080772699336568055e-01 2.025155525050224559e-01 3.509243992986734728e-01 4.155682394344243358e-01 5.519353539892360994e-01 3.863891419894845414e-01 1.383342675975829106e-01 2.318940381773398063e-01 1.739246400529474157e-01 3.952655017147511107e-01 3.377260345144786347e-01 2.791603179537077484e+00 2.561808962528021594e-01 6.652559860784144075e-01 2.813235662037137930e-01 3.378383589261428344e-01 3.985362976862927842e-01 3.173915685677420884e-01 3.070329885774083500e-01 3.022827163557647578e-01 -1.907534540321370597e-01 4.624754959054222514e-01 2.854697742386993475e-01 5.707754751612487826e-02 1.279328902628696085e-01 1.398575419120966279e+00 2.748059189571181449e-01 1.768477926252232102e-01 1.883959074465103356e+00 4.397001865283783895e-01 5.773924160357284396e-01 2.687033458337718672e-01 2.809825565805398884e-01 3.370323854166047961e-01 -1.928053914392250379e+00 2.624862301135760800e-01 1.134730039719991090e+00 3.556953237031269532e-01 -1.443586008860968106e-01 7.697119256219486783e-01 2.759186222461696980e-01 -6.490434341259465612e-01 3.866959666931762407e-01 3.022337307948537721e-01 8.963095700412394840e-02 -3.087172682896073828e-01 3.227141112155569314e-01 -1.504813958438805388e+00 3.553405024374763910e-01 3.340192198627808806e-01 6.279345313268660522e-01 2.930261967710269810e-01 2.797216463990322977e-01 2.124905309481305293e-01 4.337435800981064848e-01 -1.485205569966731587e-01 -6.841633342812928342e-01 3.186710737496299684e-02 5.749759297259490198e-01 2.913532429781237054e-01 3.346905738331674152e-01 2.944965091441477667e-01 3.563839121837384938e-01 2.992919076736760831e-01 2.188439567346994519e+00 7.885011287219906295e-01 2.447769213668351818e-01 -9.924315486531466446e-01 4.785020306036315008e-01 4.024993462222019147e+00 2.890583691145085510e-01 1.654895865802935573e-01 5.536375159585498196e-01 -4.874888982876017351e+00 4.175322204834160944e-01 1.348273304701665065e+00 2.895660590023769188e-01 5.741668676989611919e-01 -4.087545222042098803e-01 1.676045336817634512e-01 1.404366069849780074e-01 3.175574579944929754e-01 3.286771178714037456e-01 2.525055136812291767e+00 -3.081217842312584110e-01 4.157474600363472717e-01 -1.770609054313069919e+00 2.859396576654734123e-01 -1.596032010076948171e-01 6.800544484479110752e-01 5.495028655647530291e-01 4.682091892710486536e-01 3.723226496060347279e-01 1.326323410870673403e+00 1.468237524531844640e-01 3.062248968511244868e-02 3.114740230070207616e-01 8.110455567223839868e-02 1.427472455948601560e-01 4.136909319348924252e-01 -5.347229955643710841e-01 2.933192283089212093e-01 2.692219440123437835e-01 3.152618448132274986e-01 4.419731791501457785e-01 2.937228744218338128e-01 9.048162126587895593e-02 5.495024501872372014e-01 1.084299821439463907e-01 3.003450558187566455e-01 3.029979631584311384e-01 6.001071218641601535e-01 2.784390800355850626e+00 2.657570948798835819e-01 3.501424235183276390e-01 3.952882385306022983e-01 9.151499494751538233e-01 4.326707968554556749e-01 -1.055062013045040548e-01 7.782427691288328342e-01 3.159738114052166869e-01 1.108987171746691064e-01 3.053496692667854173e-01 4.701775961744376620e-01 8.037971008275803797e-01 7.083051905814300442e-01 7.653560998556386830e-01 3.297822792968158612e-01 8.110455951256370644e-02 8.110455493848790776e-02 3.134414747352142205e-01 2.090142401193537114e-01 1.116965765006333822e+00 2.035523059641967392e-01 2.946675608520261114e-01 4.773089861162320702e-01 2.694465598548425600e-01 8.540467215561307057e-01 3.062249559932820817e-02 2.862692071894506474e-01 3.312075017992862636e-01 5.023444052600062326e-01 -5.695263009257952591e-01 3.210408833700537645e-01 3.406812084910912919e-01 2.752628736196032766e-01 6.763051857536577227e-01 7.335022425261694679e-01 8.110455493185660114e-02 -1.424953590164650397e-01 2.935842259960095291e-01 2.288098931709782111e-02 -5.605258799954839777e-01 4.572133486731658203e-01 -3.080517121309343409e+00 1.583088838700978274e+00 2.312942173774036880e-01 -3.239131917378878511e-01 3.561256610455155180e-01 1.840075389800523320e+00 3.844248708389251257e-01 5.773230651807859104e-01 5.977171623940252809e-01 3.119868194965074171e-01 5.379372012055493313e-01 3.010548773762451447e-01 -4.767209672180261482e-02 3.062920278423357234e-01 1.843241643682325126e+00 3.832226628907366428e-01 -2.193095372345348071e-01 3.604885636120431225e-01 3.941466234987552886e-01 -1.330443925800796512e+00 2.743623872242462181e-01 3.934778131761004077e-02 3.997989032770361550e-01 4.324127401047888064e-01 2.941945601539112665e-01 3.937436439923885367e-01 2.769245994527542165e-01 -1.536132702631328173e-01 2.926756857236337828e-01 4.738829795262261557e-01 3.711148916768863826e-01 4.145490958531926617e-01 3.859578600090747269e-01 5.826819368648276098e-01 7.941204908551325881e-01 -1.166190498080840188e+00 1.144417767895464233e-03 -6.718021973841743766e-02 -1.404251768720912452e-01 5.235944626551092274e-01 3.923416974075511487e-01 3.518838191726815778e-01 6.830836227965747520e-01 2.569089888184913351e-01 2.682931989329176981e-01 3.672475439566344479e-01 9.008316386738897397e-02 -1.538821725443402788e-01 3.129038142909269515e-01 3.005823752580681907e-01 4.684364898879052053e-01 2.940544561550091918e-01 3.112419583736849016e-01 2.891028217170568682e-01 3.447167207002502787e-01 2.979638120680874747e-01 5.276030172269208229e-01 3.105349007695673569e-01 2.949478649080771175e-01 7.794759280338531271e-01 2.762650058493523741e-01 6.732468331850680610e-01 3.716900564384069128e-01 3.235811689759147125e-01 2.748416458769517567e-01 -1.309307819981315291e+00 3.710797051246746414e-01 3.871745075224378163e-01 4.733172027456861719e-01 3.897400417282989027e-01 2.802402876878291038e-01 5.671470615695501927e-01 7.504163268985398760e-01 3.029591986007287296e-01 2.052622466120518352e-01 2.946216505225963678e-01 1.243846132053551962e-01 3.216500748258910858e-01 5.228580469320328605e-01 2.717173824876827348e-01 4.800281336764042339e-01 3.959923158711316504e-01 1.350181208937822203e-02 1.449049330375947298e+00 5.508231795518846452e-01 3.388112744245416197e-01 3.323613640258985535e-01 -7.049897213494086268e-01 2.524506024875752819e-01 4.571323260498709740e-01 6.123597116299579479e-01 3.560756433990105996e-01 2.377073816948078455e-01 9.896516241316590801e-01 8.606930223912665490e-01 1.597719303218425035e-01 3.720968149560718863e-01 8.943878290674191212e-02 2.325914557594745413e-01 8.338786709549272924e-01 2.700657167961698857e+00 3.029581232504208743e-01 2.292150614385854712e-01 6.074502323924558800e-01 3.795974338679222737e-02 2.984878718106571682e-01 2.839109902683610298e-01 9.535460019224510919e-01 3.831792191595297936e-01 -2.080719243401338292e-01 3.170281932360698440e-01 6.819701900245415949e-02 6.674521857346580322e-01 1.241015765261726633e+00 3.225041694689710914e-01 2.136684204369918849e-01 1.558974480968669418e+00 4.619369873072030619e-01 2.720323701083259826e-01 1.896506669681385371e-01 4.874598350225666232e-01 3.547882989986535507e-01 1.151072293856949119e-01 2.115878758151440719e-01 6.830199782861929858e-01 4.393542747419382777e-01 3.090701636985515588e-01 3.006154726038074432e-01 1.288417227870834736e-01 3.442527903007437939e-01 2.325650236271451232e-01 9.840884972165241384e-01 4.602904177195908386e-01 3.127020128235957763e-01 4.137701621300072241e-01 2.743383117298197615e-01 3.577748575836174338e-01 5.591799861243295089e-01 7.057317902145313626e-01 2.255925826949478907e-01 3.433899250648811963e-01 2.198507500840796991e-01 3.086101273433268233e-01 7.387868750340872426e-01 3.304065342914923042e-01 3.178604607368795687e-01 -2.593882626248333323e-01 2.966724505723274952e-01 1.409520087783777131e-01 2.955361678560779470e-01 1.605141331785692183e-01 2.700320831139103595e-01 1.538532462161753323e+00 5.086839493900796594e-01 2.679207762545517957e-01 8.817951718382688320e-02 1.358752046478329811e+00 1.068527221968872842e+00 3.930567294995437333e-01 -4.501026077229718370e-01 -9.188904883403412049e-02 5.797510163356347362e-02 3.025909923809477764e-01 3.020419082951641410e-01 3.150111276467593702e-01 4.728104558682879044e-01 3.911929408496096494e-01 2.609029446903275429e-01 3.548062175220971226e-01 1.314063912955092117e-01 2.621447907914229991e-01 6.188518614536850926e-01 8.573144795172907284e-02 7.893668447331901872e-01 3.952651021153429367e-01 4.242872261552979030e-01 6.469181269953377944e-01 4.756636496174235784e-01 7.999195653909527692e-01 1.174154679744561919e-01 6.502168697770059902e-01 1.387328130333574716e+00 1.809540003817229625e-01 1.831760423161357343e+00 2.909128756662729409e-01 1.012737685088600237e-01 3.068674857695957714e-01 2.703269860903399491e-01 3.602154465013392981e-01 1.643724749602093194e-01 3.380343875968030987e-01 2.987016152322209961e-01 3.107788808643957568e-01 3.380987008009549988e-01 -9.317848437700028408e-02 3.024665771014316551e-01 8.225848330323887181e-02 4.237334425942547722e-01 8.945399967938651165e-02 3.952651030160274082e-01 1.701611231538770475e-01 4.822261146998244596e-01 -8.972304725584312468e-01 1.763384997718363323e+00 2.978096796506364274e-01 -5.007599532525836006e-01 3.013759538626074042e-01 3.327552237597342089e-01 2.987029695184895695e-01 -4.180714402591420686e+00 3.155857731252000864e+00 5.777594319826686586e-01 4.645113901860365990e-01 4.630265753825755781e-01 3.012777333726204265e-01 4.648021396035039166e-01 2.329394115070105187e+00 5.718322719510380292e-01 3.339251039081614358e-01 3.370324063698202366e-01 2.560269535021423293e-01 2.746532495377166927e-01 9.147279975601237956e-01 -3.808644356261507435e-01 -8.991950091355468411e-01 -1.025009935011379714e+00 3.847164587638778888e-01 3.005349152822217040e-01 6.131131758108154806e-01 3.552567454434895633e-01 6.754951896222473051e-01 3.881068958496876053e-01 2.808096100715329335e-01 2.339475683806984119e-01 3.384598778632026406e-01 3.023970517920744339e-01 4.186932921257994211e-01 6.353668427410084085e-01 3.177148103010458136e-01 2.844010334487665492e-01 1.715091602633966594e-01 5.798759417243427861e-02 4.179175542859767112e-01 3.100440734158096956e-01 2.797784979922269821e-01 2.381108993612412184e-01 7.726224530571499383e-01 5.495026708917977176e-01 5.457327429554903464e-01 2.671672269925230436e-01 3.400338501343846964e-01 2.172082801658011819e-01 9.896766420224871741e-01 1.528717605466745066e+00 4.175408787351519435e-01 3.300025317393342483e-01 2.953923857517213314e-01 4.948651308407006066e-01 2.979409134679296134e-01 3.035341368382752925e-01 2.814579987498419533e-01 3.120520229190841821e-01 7.317031699356599805e-01 7.803361678674812785e-01 5.087837854975346685e-01 1.678284026012457852e+00 1.209065727567176229e-01 2.418630129682558250e-01 -1.976716189362885678e-01 -3.631623374402168647e-01 2.990828330479791686e-01 2.662997681091084368e-01 7.136984652276563423e-01 2.923574371290141860e-01 2.713972535635882366e-01 3.073777827231538029e-01 3.559270715011201291e-01 3.286766613915096391e-01 4.313580605987979433e-01 9.825263703566436968e-01 2.198603183050622523e-01 5.999177236319467310e-01 2.975408671149492590e-01 6.656209472537814170e-03 2.935536275852773103e-01 3.661739386169449162e-01 -2.055225147982195633e-01 2.280778995681086718e-01 3.333364572215132271e-01 3.551361531151749351e-01 3.952415008428136756e-01 1.158814520105920343e+00 8.668386925024985645e-01 -7.599088895506010966e-01 -1.596031558139181794e-01 4.441525069119628966e-01 -2.920495973163649506e+00 1.475009609294886559e+00 3.101251008856230063e-01 3.546894002120124512e-01 3.016121697067104535e-01 7.719260555506008981e-01 3.027462697890765386e-01 3.114732408096210770e-01 -3.874347991640126332e-01 7.470380783540651048e-01 3.629794734411110335e-01 9.171880851022428116e-01 1.906812490244091718e+00 -3.810581142643695851e-01 -1.323080424855076265e+00 3.108133752590564458e-01 1.298222018797178245e-01 8.480032993182277101e-01 3.628060052214457931e-01 7.643475928670944164e-01 4.651392664206931982e-01 1.459395099622267100e-01 2.903694311235702763e-01 2.979675997427733702e-01 3.837587910241724298e-01 4.488790995848990217e-01 1.219230622555365295e+00 1.364683201689554259e+00 2.934611327750231702e-01 3.091606105928175197e-01 -1.899085336328855955e-01 -1.735227789933497800e-01 1.895793816258599385e-01 3.203921554965375451e-01 3.432180965511034687e-01 7.135647636263962035e-01 -4.943196622623917402e-02 3.083286265233565748e-01 3.352956426331716311e-01 4.345384921294629388e-01 3.093553014219434516e-01 4.942734977568800647e-01 2.974760855085879507e-01 3.129659337611516157e-01 -9.565673322774533027e-02 3.950743262267787936e-01 4.605349175943541096e-01 1.014341675251117847e+00 1.055942901108310350e+00 9.284487195808782678e-01 2.857349550256803594e-01 5.863545244947694357e-01 3.802270819530151336e-02 3.297453699680746309e-01 -1.720078088470966549e+00 3.091532600188799940e-01 6.177016090739877452e-01 2.807739511133459653e-01 9.296419484350474383e-01 1.269346015976425823e+00 3.370323726574218637e-01 1.334154269821715699e-01 3.611973037046233292e-01 7.241507301722091561e-02 5.946082696153446312e-01 2.019618478939917694e-01 -5.488165982629696904e-01 4.319961437953529493e-01 4.176137484455254567e-01 3.188372782021109964e-01 3.507195671880229959e-01 6.187681709821608589e-01 2.367204794303135462e-01 3.290697625148012451e-01 3.114832995826335438e-01 2.292210781101833850e-01 8.597446594388973296e-01 3.821772161529798373e-01 -1.745474703125935168e-01 8.455728874594536926e-01 1.507552596304433667e-01 3.662869860974621306e-01 2.724284843647841736e-01 1.205117464160806229e+00 2.820108678947566561e-01 6.833288286304929349e-01 3.409189737675166199e-01 3.158770112744601621e-01 -2.851998526682272828e-01 3.335522323152103619e-01 6.987955526212656920e-01 2.937858044668314461e-01 7.366135972342695570e-01 3.275378116514695570e-01 2.940910679579548659e-01 7.305977206394914658e-01 3.915811115393713626e-02 -1.875782834418059153e+00 2.595659911184428625e-01 3.102935518943910065e-01 1.794037384200695973e-01 1.242927764258324047e-01 2.082669828344898000e-01 3.312243131662750417e-01 2.763190965238807029e-01 2.795289761634293102e-01 -5.079497143050315522e-02 -1.526651301570389974e+00 7.072233761504901350e-01 3.346127585728775888e-01 3.209510650567056200e-01 1.973386020773846283e-01 8.070470344092502968e-01 2.973179736890948499e-01 -2.306917062012481257e-02 2.312878960180032029e-01 1.076250267258339166e+00 4.016171760163603222e-01 4.095831080798482127e-01 1.076349998598217894e+00 3.674464723798310795e-01 2.337310899100308870e+00 3.707277875128195399e-01 2.799486877149640063e-01 8.139601960037452510e-01 2.959962539252818381e-01 2.667471812442460122e-01 -1.605981590287856475e+00 3.299590305930810707e-01 3.019634377943163361e-01 4.919022470381362866e-01 3.029192839045087293e-01 5.298061335808295080e-01 -4.126095135013467807e-01 1.843258836684909419e+00 -5.105145820045184912e-01 7.415047760295887525e-01 2.733817609292565898e-01 3.877850482838681723e-01 4.366614374520229602e-01 3.766501345444753235e-01 1.215019532945970315e+00 1.832446768440999449e-02 1.452033858416222345e-01 -8.235735300529837266e-01 5.453448494921734474e-02 4.483416507761162628e-01 -3.158450222356210091e+00 2.597198917393759299e+00 4.155523575737353204e-01 2.923283475319234381e-01 -1.348843582258866691e+00 2.856337906245965952e-01 -2.325005081480076632e-02 2.957042957045290521e-01 9.434458714490605302e-02 6.196741765701422322e-01 5.450132616968946797e-01 6.593127971700356582e-01 -1.596031574897259220e-01 -1.295330374276018048e-01 2.789765127549888035e-01 -1.086459232085696724e+00 3.121285044886058513e-01 -5.787052137466921486e-01 3.009959191069534468e-01 5.253787506227326487e-01 2.517137191872147184e-02 3.324998400758971684e-01 2.975450772503844821e-01 -1.736826209944775101e-01 4.134204920459438881e-01 3.493439157212805957e-01 1.870256354842134427e-01 3.377189813255588868e-01 2.965904974796124693e-01 -7.596054696532706929e-01 6.641855491360143526e-01 1.455818971101035642e+00 1.588713020778392132e-02 2.578938009249441832e-01 3.283549191145465063e-01 1.229964912541284150e+00 3.006590779729428897e-01 3.082325117405993464e-01 9.091093146381888923e-01 2.361991906617660064e-01 1.652276075248751086e+00 3.162057025712486369e-01 6.668248343155461777e-01 3.160825421154885295e-01 7.155257345245318312e-01 1.293134719679850386e+00 3.543597087728374562e-01 1.468973863166079252e-01 7.816065013083063340e-01 -3.645369433972933670e-02 -2.107829932808881652e-03 -5.591324570523664717e-02 2.847230193417951694e-01 2.840994118187528672e-01 1.409881775199146037e-01 4.930335026870993897e-01 -2.401059629839398246e-01 1.286014819544126109e+00 2.754851322794582558e-01 3.015712942828896459e-01 -2.644871716172630283e+00 2.148881299751068952e-01 2.176756876000784935e-01 2.631890816078508721e-01 5.535003910003184757e-02 4.273483868440187128e-01 -7.922440929910110619e-01 2.912197277205800239e-01 2.813066709685719813e-01 2.925116561643295032e-01 1.113313949764219490e+00 3.564807024589675688e-01 2.916336112534453906e-01 -1.274712165106144379e+00 5.345738274684610492e-01 8.593935283705118611e-01 2.369441949984199269e-01 2.928957949216881018e-01 1.426868437937803616e-02 7.556188709940622195e-01 -9.298721521837542692e-02 3.031279678781474418e-01 2.936894237080465153e-01 8.776937168678698720e-02 7.487467655270717559e-01 3.307620295127221555e-01 7.784518845229408956e-01 3.296330165779234878e-01 6.595677838330498144e-01 -6.127789921508489113e-02 -1.454361271923785282e+00 3.704281865705074672e-01 3.456880836939192712e-03 3.317846164097196793e-01 3.660362359600161097e-01 1.081122025776673906e-01 5.495028540269391026e-01 3.023459088359530256e-01 1.508563254434898415e-01 2.724312212305519121e-01 3.174551083619698288e-01 2.492283425489619231e-01 2.496664766639136723e-01 -6.355137944416231477e-01 3.011489116595018611e-01 2.855983337790940491e-01 2.946417827857097382e-01 3.834137874471930107e-01 3.027964612436572778e-01 6.678317863338772975e-01 -1.374530264806969604e-01 9.589623518734222696e-01 5.516000358267051373e-01 3.596477242978757261e-01 2.959386153211929216e-01 -1.861602712638144919e+00 3.130114008944417936e-01 2.227011925303802597e-01 1.925439585625560723e-01 5.495027351299833773e-01 3.071677249164796453e-01 4.318874266383287974e-01 4.230389769696506486e-01 2.961096669987048902e-01 3.467675921367984193e-01 2.689605128679177226e-01 3.045045830164746503e-01 3.607534007444314073e-01 2.991983733556980996e-01 3.210969980471702345e-01 2.645488950018702323e-01 -8.296868821560857143e-02 2.734337191122541699e-01 2.319441874172987195e-01 3.880289367347153351e-01 2.852560865203412344e-01 -2.217010232048310242e-02 5.104667681162891081e-03 -6.979637656229575882e-02 3.707586628711009968e+00 3.404939942759194760e-01 4.019169856144154118e-01 1.974402198617343784e-01 4.691189779345202315e-01 1.414915632176844129e+00 2.460372274276327320e-01 7.147764664238297483e-01 3.038228520206593952e-01
