# 
#                 ----------------------------------------------------
#                 Data from a 3D direct N-body simulation. 
# 
#                 rows are i-particle; 
#                 coumns are :mass, tag, x ,y, z, vx, vy, vz, ax, ay, az
# 
#                 NTHU, Computational Physics 
# 
#                 ----------------------------------------------------
#                 Time = 0.0
0.000000000000000000e+00 1.000000000000000000e+00 2.000000000000000000e+00 3.000000000000000000e+00 4.000000000000000000e+00 5.000000000000000000e+00 6.000000000000000000e+00 7.000000000000000000e+00 8.000000000000000000e+00 9.000000000000000000e+00 1.000000000000000000e+01 1.100000000000000000e+01 1.200000000000000000e+01 1.300000000000000000e+01 1.400000000000000000e+01 1.500000000000000000e+01 1.600000000000000000e+01 1.700000000000000000e+01 1.800000000000000000e+01 1.900000000000000000e+01 2.000000000000000000e+01 2.100000000000000000e+01 2.200000000000000000e+01 2.300000000000000000e+01 2.400000000000000000e+01 2.500000000000000000e+01 2.600000000000000000e+01 2.700000000000000000e+01 2.800000000000000000e+01 2.900000000000000000e+01 3.000000000000000000e+01 3.100000000000000000e+01 3.200000000000000000e+01 3.300000000000000000e+01 3.400000000000000000e+01 3.500000000000000000e+01 3.600000000000000000e+01 3.700000000000000000e+01 3.800000000000000000e+01 3.900000000000000000e+01 4.000000000000000000e+01 4.100000000000000000e+01 4.200000000000000000e+01 4.300000000000000000e+01 4.400000000000000000e+01 4.500000000000000000e+01 4.600000000000000000e+01 4.700000000000000000e+01 4.800000000000000000e+01 4.900000000000000000e+01 5.000000000000000000e+01 5.100000000000000000e+01 5.200000000000000000e+01 5.300000000000000000e+01 5.400000000000000000e+01 5.500000000000000000e+01 5.600000000000000000e+01 5.700000000000000000e+01 5.800000000000000000e+01 5.900000000000000000e+01 6.000000000000000000e+01 6.100000000000000000e+01 6.200000000000000000e+01 6.300000000000000000e+01 6.400000000000000000e+01 6.500000000000000000e+01 6.600000000000000000e+01 6.700000000000000000e+01 6.800000000000000000e+01 6.900000000000000000e+01 7.000000000000000000e+01 7.100000000000000000e+01 7.200000000000000000e+01 7.300000000000000000e+01 7.400000000000000000e+01 7.500000000000000000e+01 7.600000000000000000e+01 7.700000000000000000e+01 7.800000000000000000e+01 7.900000000000000000e+01 8.000000000000000000e+01 8.100000000000000000e+01 8.200000000000000000e+01 8.300000000000000000e+01 8.400000000000000000e+01 8.500000000000000000e+01 8.600000000000000000e+01 8.700000000000000000e+01 8.800000000000000000e+01 8.900000000000000000e+01 9.000000000000000000e+01 9.100000000000000000e+01 9.200000000000000000e+01 9.300000000000000000e+01 9.400000000000000000e+01 9.500000000000000000e+01 9.600000000000000000e+01 9.700000000000000000e+01 9.800000000000000000e+01 9.900000000000000000e+01 1.000000000000000000e+02 1.010000000000000000e+02 1.020000000000000000e+02 1.030000000000000000e+02 1.040000000000000000e+02 1.050000000000000000e+02 1.060000000000000000e+02 1.070000000000000000e+02 1.080000000000000000e+02 1.090000000000000000e+02 1.100000000000000000e+02 1.110000000000000000e+02 1.120000000000000000e+02 1.130000000000000000e+02 1.140000000000000000e+02 1.150000000000000000e+02 1.160000000000000000e+02 1.170000000000000000e+02 1.180000000000000000e+02 1.190000000000000000e+02 1.200000000000000000e+02 1.210000000000000000e+02 1.220000000000000000e+02 1.230000000000000000e+02 1.240000000000000000e+02 1.250000000000000000e+02 1.260000000000000000e+02 1.270000000000000000e+02 1.280000000000000000e+02 1.290000000000000000e+02 1.300000000000000000e+02 1.310000000000000000e+02 1.320000000000000000e+02 1.330000000000000000e+02 1.340000000000000000e+02 1.350000000000000000e+02 1.360000000000000000e+02 1.370000000000000000e+02 1.380000000000000000e+02 1.390000000000000000e+02 1.400000000000000000e+02 1.410000000000000000e+02 1.420000000000000000e+02 1.430000000000000000e+02 1.440000000000000000e+02 1.450000000000000000e+02 1.460000000000000000e+02 1.470000000000000000e+02 1.480000000000000000e+02 1.490000000000000000e+02 1.500000000000000000e+02 1.510000000000000000e+02 1.520000000000000000e+02 1.530000000000000000e+02 1.540000000000000000e+02 1.550000000000000000e+02 1.560000000000000000e+02 1.570000000000000000e+02 1.580000000000000000e+02 1.590000000000000000e+02 1.600000000000000000e+02 1.610000000000000000e+02 1.620000000000000000e+02 1.630000000000000000e+02 1.640000000000000000e+02 1.650000000000000000e+02 1.660000000000000000e+02 1.670000000000000000e+02 1.680000000000000000e+02 1.690000000000000000e+02 1.700000000000000000e+02 1.710000000000000000e+02 1.720000000000000000e+02 1.730000000000000000e+02 1.740000000000000000e+02 1.750000000000000000e+02 1.760000000000000000e+02 1.770000000000000000e+02 1.780000000000000000e+02 1.790000000000000000e+02 1.800000000000000000e+02 1.810000000000000000e+02 1.820000000000000000e+02 1.830000000000000000e+02 1.840000000000000000e+02 1.850000000000000000e+02 1.860000000000000000e+02 1.870000000000000000e+02 1.880000000000000000e+02 1.890000000000000000e+02 1.900000000000000000e+02 1.910000000000000000e+02 1.920000000000000000e+02 1.930000000000000000e+02 1.940000000000000000e+02 1.950000000000000000e+02 1.960000000000000000e+02 1.970000000000000000e+02 1.980000000000000000e+02 1.990000000000000000e+02 2.000000000000000000e+02 2.010000000000000000e+02 2.020000000000000000e+02 2.030000000000000000e+02 2.040000000000000000e+02 2.050000000000000000e+02 2.060000000000000000e+02 2.070000000000000000e+02 2.080000000000000000e+02 2.090000000000000000e+02 2.100000000000000000e+02 2.110000000000000000e+02 2.120000000000000000e+02 2.130000000000000000e+02 2.140000000000000000e+02 2.150000000000000000e+02 2.160000000000000000e+02 2.170000000000000000e+02 2.180000000000000000e+02 2.190000000000000000e+02 2.200000000000000000e+02 2.210000000000000000e+02 2.220000000000000000e+02 2.230000000000000000e+02 2.240000000000000000e+02 2.250000000000000000e+02 2.260000000000000000e+02 2.270000000000000000e+02 2.280000000000000000e+02 2.290000000000000000e+02 2.300000000000000000e+02 2.310000000000000000e+02 2.320000000000000000e+02 2.330000000000000000e+02 2.340000000000000000e+02 2.350000000000000000e+02 2.360000000000000000e+02 2.370000000000000000e+02 2.380000000000000000e+02 2.390000000000000000e+02 2.400000000000000000e+02 2.410000000000000000e+02 2.420000000000000000e+02 2.430000000000000000e+02 2.440000000000000000e+02 2.450000000000000000e+02 2.460000000000000000e+02 2.470000000000000000e+02 2.480000000000000000e+02 2.490000000000000000e+02 2.500000000000000000e+02 2.510000000000000000e+02 2.520000000000000000e+02 2.530000000000000000e+02 2.540000000000000000e+02 2.550000000000000000e+02 2.560000000000000000e+02 2.570000000000000000e+02 2.580000000000000000e+02 2.590000000000000000e+02 2.600000000000000000e+02 2.610000000000000000e+02 2.620000000000000000e+02 2.630000000000000000e+02 2.640000000000000000e+02 2.650000000000000000e+02 2.660000000000000000e+02 2.670000000000000000e+02 2.680000000000000000e+02 2.690000000000000000e+02 2.700000000000000000e+02 2.710000000000000000e+02 2.720000000000000000e+02 2.730000000000000000e+02 2.740000000000000000e+02 2.750000000000000000e+02 2.760000000000000000e+02 2.770000000000000000e+02 2.780000000000000000e+02 2.790000000000000000e+02 2.800000000000000000e+02 2.810000000000000000e+02 2.820000000000000000e+02 2.830000000000000000e+02 2.840000000000000000e+02 2.850000000000000000e+02 2.860000000000000000e+02 2.870000000000000000e+02 2.880000000000000000e+02 2.890000000000000000e+02 2.900000000000000000e+02 2.910000000000000000e+02 2.920000000000000000e+02 2.930000000000000000e+02 2.940000000000000000e+02 2.950000000000000000e+02 2.960000000000000000e+02 2.970000000000000000e+02 2.980000000000000000e+02 2.990000000000000000e+02 3.000000000000000000e+02 3.010000000000000000e+02 3.020000000000000000e+02 3.030000000000000000e+02 3.040000000000000000e+02 3.050000000000000000e+02 3.060000000000000000e+02 3.070000000000000000e+02 3.080000000000000000e+02 3.090000000000000000e+02 3.100000000000000000e+02 3.110000000000000000e+02 3.120000000000000000e+02 3.130000000000000000e+02 3.140000000000000000e+02 3.150000000000000000e+02 3.160000000000000000e+02 3.170000000000000000e+02 3.180000000000000000e+02 3.190000000000000000e+02 3.200000000000000000e+02 3.210000000000000000e+02 3.220000000000000000e+02 3.230000000000000000e+02 3.240000000000000000e+02 3.250000000000000000e+02 3.260000000000000000e+02 3.270000000000000000e+02 3.280000000000000000e+02 3.290000000000000000e+02 3.300000000000000000e+02 3.310000000000000000e+02 3.320000000000000000e+02 3.330000000000000000e+02 3.340000000000000000e+02 3.350000000000000000e+02 3.360000000000000000e+02 3.370000000000000000e+02 3.380000000000000000e+02 3.390000000000000000e+02 3.400000000000000000e+02 3.410000000000000000e+02 3.420000000000000000e+02 3.430000000000000000e+02 3.440000000000000000e+02 3.450000000000000000e+02 3.460000000000000000e+02 3.470000000000000000e+02 3.480000000000000000e+02 3.490000000000000000e+02 3.500000000000000000e+02 3.510000000000000000e+02 3.520000000000000000e+02 3.530000000000000000e+02 3.540000000000000000e+02 3.550000000000000000e+02 3.560000000000000000e+02 3.570000000000000000e+02 3.580000000000000000e+02 3.590000000000000000e+02 3.600000000000000000e+02 3.610000000000000000e+02 3.620000000000000000e+02 3.630000000000000000e+02 3.640000000000000000e+02 3.650000000000000000e+02 3.660000000000000000e+02 3.670000000000000000e+02 3.680000000000000000e+02 3.690000000000000000e+02 3.700000000000000000e+02 3.710000000000000000e+02 3.720000000000000000e+02 3.730000000000000000e+02 3.740000000000000000e+02 3.750000000000000000e+02 3.760000000000000000e+02 3.770000000000000000e+02 3.780000000000000000e+02 3.790000000000000000e+02 3.800000000000000000e+02 3.810000000000000000e+02 3.820000000000000000e+02 3.830000000000000000e+02 3.840000000000000000e+02 3.850000000000000000e+02 3.860000000000000000e+02 3.870000000000000000e+02 3.880000000000000000e+02 3.890000000000000000e+02 3.900000000000000000e+02 3.910000000000000000e+02 3.920000000000000000e+02 3.930000000000000000e+02 3.940000000000000000e+02 3.950000000000000000e+02 3.960000000000000000e+02 3.970000000000000000e+02 3.980000000000000000e+02 3.990000000000000000e+02 4.000000000000000000e+02 4.010000000000000000e+02 4.020000000000000000e+02 4.030000000000000000e+02 4.040000000000000000e+02 4.050000000000000000e+02 4.060000000000000000e+02 4.070000000000000000e+02 4.080000000000000000e+02 4.090000000000000000e+02 4.100000000000000000e+02 4.110000000000000000e+02 4.120000000000000000e+02 4.130000000000000000e+02 4.140000000000000000e+02 4.150000000000000000e+02 4.160000000000000000e+02 4.170000000000000000e+02 4.180000000000000000e+02 4.190000000000000000e+02 4.200000000000000000e+02 4.210000000000000000e+02 4.220000000000000000e+02 4.230000000000000000e+02 4.240000000000000000e+02 4.250000000000000000e+02 4.260000000000000000e+02 4.270000000000000000e+02 4.280000000000000000e+02 4.290000000000000000e+02 4.300000000000000000e+02 4.310000000000000000e+02 4.320000000000000000e+02 4.330000000000000000e+02 4.340000000000000000e+02 4.350000000000000000e+02 4.360000000000000000e+02 4.370000000000000000e+02 4.380000000000000000e+02 4.390000000000000000e+02 4.400000000000000000e+02 4.410000000000000000e+02 4.420000000000000000e+02 4.430000000000000000e+02 4.440000000000000000e+02 4.450000000000000000e+02 4.460000000000000000e+02 4.470000000000000000e+02 4.480000000000000000e+02 4.490000000000000000e+02 4.500000000000000000e+02 4.510000000000000000e+02 4.520000000000000000e+02 4.530000000000000000e+02 4.540000000000000000e+02 4.550000000000000000e+02 4.560000000000000000e+02 4.570000000000000000e+02 4.580000000000000000e+02 4.590000000000000000e+02 4.600000000000000000e+02 4.610000000000000000e+02 4.620000000000000000e+02 4.630000000000000000e+02 4.640000000000000000e+02 4.650000000000000000e+02 4.660000000000000000e+02 4.670000000000000000e+02 4.680000000000000000e+02 4.690000000000000000e+02 4.700000000000000000e+02 4.710000000000000000e+02 4.720000000000000000e+02 4.730000000000000000e+02 4.740000000000000000e+02 4.750000000000000000e+02 4.760000000000000000e+02 4.770000000000000000e+02 4.780000000000000000e+02 4.790000000000000000e+02 4.800000000000000000e+02 4.810000000000000000e+02 4.820000000000000000e+02 4.830000000000000000e+02 4.840000000000000000e+02 4.850000000000000000e+02 4.860000000000000000e+02 4.870000000000000000e+02 4.880000000000000000e+02 4.890000000000000000e+02 4.900000000000000000e+02 4.910000000000000000e+02 4.920000000000000000e+02 4.930000000000000000e+02 4.940000000000000000e+02 4.950000000000000000e+02 4.960000000000000000e+02 4.970000000000000000e+02 4.980000000000000000e+02 4.990000000000000000e+02 5.000000000000000000e+02 5.010000000000000000e+02 5.020000000000000000e+02 5.030000000000000000e+02 5.040000000000000000e+02 5.050000000000000000e+02 5.060000000000000000e+02 5.070000000000000000e+02 5.080000000000000000e+02 5.090000000000000000e+02 5.100000000000000000e+02 5.110000000000000000e+02 5.120000000000000000e+02 5.130000000000000000e+02 5.140000000000000000e+02 5.150000000000000000e+02 5.160000000000000000e+02 5.170000000000000000e+02 5.180000000000000000e+02 5.190000000000000000e+02 5.200000000000000000e+02 5.210000000000000000e+02 5.220000000000000000e+02 5.230000000000000000e+02 5.240000000000000000e+02 5.250000000000000000e+02 5.260000000000000000e+02 5.270000000000000000e+02 5.280000000000000000e+02 5.290000000000000000e+02 5.300000000000000000e+02 5.310000000000000000e+02 5.320000000000000000e+02 5.330000000000000000e+02 5.340000000000000000e+02 5.350000000000000000e+02 5.360000000000000000e+02 5.370000000000000000e+02 5.380000000000000000e+02 5.390000000000000000e+02 5.400000000000000000e+02 5.410000000000000000e+02 5.420000000000000000e+02 5.430000000000000000e+02 5.440000000000000000e+02 5.450000000000000000e+02 5.460000000000000000e+02 5.470000000000000000e+02 5.480000000000000000e+02 5.490000000000000000e+02 5.500000000000000000e+02 5.510000000000000000e+02 5.520000000000000000e+02 5.530000000000000000e+02 5.540000000000000000e+02 5.550000000000000000e+02 5.560000000000000000e+02 5.570000000000000000e+02 5.580000000000000000e+02 5.590000000000000000e+02 5.600000000000000000e+02 5.610000000000000000e+02 5.620000000000000000e+02 5.630000000000000000e+02 5.640000000000000000e+02 5.650000000000000000e+02 5.660000000000000000e+02 5.670000000000000000e+02 5.680000000000000000e+02 5.690000000000000000e+02 5.700000000000000000e+02 5.710000000000000000e+02 5.720000000000000000e+02 5.730000000000000000e+02 5.740000000000000000e+02 5.750000000000000000e+02 5.760000000000000000e+02 5.770000000000000000e+02 5.780000000000000000e+02 5.790000000000000000e+02 5.800000000000000000e+02 5.810000000000000000e+02 5.820000000000000000e+02 5.830000000000000000e+02 5.840000000000000000e+02 5.850000000000000000e+02 5.860000000000000000e+02 5.870000000000000000e+02 5.880000000000000000e+02 5.890000000000000000e+02 5.900000000000000000e+02 5.910000000000000000e+02 5.920000000000000000e+02 5.930000000000000000e+02 5.940000000000000000e+02 5.950000000000000000e+02 5.960000000000000000e+02 5.970000000000000000e+02 5.980000000000000000e+02 5.990000000000000000e+02 6.000000000000000000e+02 6.010000000000000000e+02 6.020000000000000000e+02 6.030000000000000000e+02 6.040000000000000000e+02 6.050000000000000000e+02 6.060000000000000000e+02 6.070000000000000000e+02 6.080000000000000000e+02 6.090000000000000000e+02 6.100000000000000000e+02 6.110000000000000000e+02 6.120000000000000000e+02 6.130000000000000000e+02 6.140000000000000000e+02 6.150000000000000000e+02 6.160000000000000000e+02 6.170000000000000000e+02 6.180000000000000000e+02 6.190000000000000000e+02 6.200000000000000000e+02 6.210000000000000000e+02 6.220000000000000000e+02 6.230000000000000000e+02 6.240000000000000000e+02 6.250000000000000000e+02 6.260000000000000000e+02 6.270000000000000000e+02 6.280000000000000000e+02 6.290000000000000000e+02 6.300000000000000000e+02 6.310000000000000000e+02 6.320000000000000000e+02 6.330000000000000000e+02 6.340000000000000000e+02 6.350000000000000000e+02 6.360000000000000000e+02 6.370000000000000000e+02 6.380000000000000000e+02 6.390000000000000000e+02 6.400000000000000000e+02 6.410000000000000000e+02 6.420000000000000000e+02 6.430000000000000000e+02 6.440000000000000000e+02 6.450000000000000000e+02 6.460000000000000000e+02 6.470000000000000000e+02 6.480000000000000000e+02 6.490000000000000000e+02 6.500000000000000000e+02 6.510000000000000000e+02 6.520000000000000000e+02 6.530000000000000000e+02 6.540000000000000000e+02 6.550000000000000000e+02 6.560000000000000000e+02 6.570000000000000000e+02 6.580000000000000000e+02 6.590000000000000000e+02 6.600000000000000000e+02 6.610000000000000000e+02 6.620000000000000000e+02 6.630000000000000000e+02 6.640000000000000000e+02 6.650000000000000000e+02 6.660000000000000000e+02 6.670000000000000000e+02 6.680000000000000000e+02 6.690000000000000000e+02 6.700000000000000000e+02 6.710000000000000000e+02 6.720000000000000000e+02 6.730000000000000000e+02 6.740000000000000000e+02 6.750000000000000000e+02 6.760000000000000000e+02 6.770000000000000000e+02 6.780000000000000000e+02 6.790000000000000000e+02 6.800000000000000000e+02 6.810000000000000000e+02 6.820000000000000000e+02 6.830000000000000000e+02 6.840000000000000000e+02 6.850000000000000000e+02 6.860000000000000000e+02 6.870000000000000000e+02 6.880000000000000000e+02 6.890000000000000000e+02 6.900000000000000000e+02 6.910000000000000000e+02 6.920000000000000000e+02 6.930000000000000000e+02 6.940000000000000000e+02 6.950000000000000000e+02 6.960000000000000000e+02 6.970000000000000000e+02 6.980000000000000000e+02 6.990000000000000000e+02 7.000000000000000000e+02 7.010000000000000000e+02 7.020000000000000000e+02 7.030000000000000000e+02 7.040000000000000000e+02 7.050000000000000000e+02 7.060000000000000000e+02 7.070000000000000000e+02 7.080000000000000000e+02 7.090000000000000000e+02 7.100000000000000000e+02 7.110000000000000000e+02 7.120000000000000000e+02 7.130000000000000000e+02 7.140000000000000000e+02 7.150000000000000000e+02 7.160000000000000000e+02 7.170000000000000000e+02 7.180000000000000000e+02 7.190000000000000000e+02 7.200000000000000000e+02 7.210000000000000000e+02 7.220000000000000000e+02 7.230000000000000000e+02 7.240000000000000000e+02 7.250000000000000000e+02 7.260000000000000000e+02 7.270000000000000000e+02 7.280000000000000000e+02 7.290000000000000000e+02 7.300000000000000000e+02 7.310000000000000000e+02 7.320000000000000000e+02 7.330000000000000000e+02 7.340000000000000000e+02 7.350000000000000000e+02 7.360000000000000000e+02 7.370000000000000000e+02 7.380000000000000000e+02 7.390000000000000000e+02 7.400000000000000000e+02 7.410000000000000000e+02 7.420000000000000000e+02 7.430000000000000000e+02 7.440000000000000000e+02 7.450000000000000000e+02 7.460000000000000000e+02 7.470000000000000000e+02 7.480000000000000000e+02 7.490000000000000000e+02 7.500000000000000000e+02 7.510000000000000000e+02 7.520000000000000000e+02 7.530000000000000000e+02 7.540000000000000000e+02 7.550000000000000000e+02 7.560000000000000000e+02 7.570000000000000000e+02 7.580000000000000000e+02 7.590000000000000000e+02 7.600000000000000000e+02 7.610000000000000000e+02 7.620000000000000000e+02 7.630000000000000000e+02 7.640000000000000000e+02 7.650000000000000000e+02 7.660000000000000000e+02 7.670000000000000000e+02 7.680000000000000000e+02 7.690000000000000000e+02 7.700000000000000000e+02 7.710000000000000000e+02 7.720000000000000000e+02 7.730000000000000000e+02 7.740000000000000000e+02 7.750000000000000000e+02 7.760000000000000000e+02 7.770000000000000000e+02 7.780000000000000000e+02 7.790000000000000000e+02 7.800000000000000000e+02 7.810000000000000000e+02 7.820000000000000000e+02 7.830000000000000000e+02 7.840000000000000000e+02 7.850000000000000000e+02 7.860000000000000000e+02 7.870000000000000000e+02 7.880000000000000000e+02 7.890000000000000000e+02 7.900000000000000000e+02 7.910000000000000000e+02 7.920000000000000000e+02 7.930000000000000000e+02 7.940000000000000000e+02 7.950000000000000000e+02 7.960000000000000000e+02 7.970000000000000000e+02 7.980000000000000000e+02 7.990000000000000000e+02 8.000000000000000000e+02 8.010000000000000000e+02 8.020000000000000000e+02 8.030000000000000000e+02 8.040000000000000000e+02 8.050000000000000000e+02 8.060000000000000000e+02 8.070000000000000000e+02 8.080000000000000000e+02 8.090000000000000000e+02 8.100000000000000000e+02 8.110000000000000000e+02 8.120000000000000000e+02 8.130000000000000000e+02 8.140000000000000000e+02 8.150000000000000000e+02 8.160000000000000000e+02 8.170000000000000000e+02 8.180000000000000000e+02 8.190000000000000000e+02 8.200000000000000000e+02 8.210000000000000000e+02 8.220000000000000000e+02 8.230000000000000000e+02 8.240000000000000000e+02 8.250000000000000000e+02 8.260000000000000000e+02 8.270000000000000000e+02 8.280000000000000000e+02 8.290000000000000000e+02 8.300000000000000000e+02 8.310000000000000000e+02 8.320000000000000000e+02 8.330000000000000000e+02 8.340000000000000000e+02 8.350000000000000000e+02 8.360000000000000000e+02 8.370000000000000000e+02 8.380000000000000000e+02 8.390000000000000000e+02 8.400000000000000000e+02 8.410000000000000000e+02 8.420000000000000000e+02 8.430000000000000000e+02 8.440000000000000000e+02 8.450000000000000000e+02 8.460000000000000000e+02 8.470000000000000000e+02 8.480000000000000000e+02 8.490000000000000000e+02 8.500000000000000000e+02 8.510000000000000000e+02 8.520000000000000000e+02 8.530000000000000000e+02 8.540000000000000000e+02 8.550000000000000000e+02 8.560000000000000000e+02 8.570000000000000000e+02 8.580000000000000000e+02 8.590000000000000000e+02 8.600000000000000000e+02 8.610000000000000000e+02 8.620000000000000000e+02 8.630000000000000000e+02 8.640000000000000000e+02 8.650000000000000000e+02 8.660000000000000000e+02 8.670000000000000000e+02 8.680000000000000000e+02 8.690000000000000000e+02 8.700000000000000000e+02 8.710000000000000000e+02 8.720000000000000000e+02 8.730000000000000000e+02 8.740000000000000000e+02 8.750000000000000000e+02 8.760000000000000000e+02 8.770000000000000000e+02 8.780000000000000000e+02 8.790000000000000000e+02 8.800000000000000000e+02 8.810000000000000000e+02 8.820000000000000000e+02 8.830000000000000000e+02 8.840000000000000000e+02 8.850000000000000000e+02 8.860000000000000000e+02 8.870000000000000000e+02 8.880000000000000000e+02 8.890000000000000000e+02 8.900000000000000000e+02 8.910000000000000000e+02 8.920000000000000000e+02 8.930000000000000000e+02 8.940000000000000000e+02 8.950000000000000000e+02 8.960000000000000000e+02 8.970000000000000000e+02 8.980000000000000000e+02 8.990000000000000000e+02 9.000000000000000000e+02 9.010000000000000000e+02 9.020000000000000000e+02 9.030000000000000000e+02 9.040000000000000000e+02 9.050000000000000000e+02 9.060000000000000000e+02 9.070000000000000000e+02 9.080000000000000000e+02 9.090000000000000000e+02 9.100000000000000000e+02 9.110000000000000000e+02 9.120000000000000000e+02 9.130000000000000000e+02 9.140000000000000000e+02 9.150000000000000000e+02 9.160000000000000000e+02 9.170000000000000000e+02 9.180000000000000000e+02 9.190000000000000000e+02 9.200000000000000000e+02 9.210000000000000000e+02 9.220000000000000000e+02 9.230000000000000000e+02 9.240000000000000000e+02 9.250000000000000000e+02 9.260000000000000000e+02 9.270000000000000000e+02 9.280000000000000000e+02 9.290000000000000000e+02 9.300000000000000000e+02 9.310000000000000000e+02 9.320000000000000000e+02 9.330000000000000000e+02 9.340000000000000000e+02 9.350000000000000000e+02 9.360000000000000000e+02 9.370000000000000000e+02 9.380000000000000000e+02 9.390000000000000000e+02 9.400000000000000000e+02 9.410000000000000000e+02 9.420000000000000000e+02 9.430000000000000000e+02 9.440000000000000000e+02 9.450000000000000000e+02 9.460000000000000000e+02 9.470000000000000000e+02 9.480000000000000000e+02 9.490000000000000000e+02 9.500000000000000000e+02 9.510000000000000000e+02 9.520000000000000000e+02 9.530000000000000000e+02 9.540000000000000000e+02 9.550000000000000000e+02 9.560000000000000000e+02 9.570000000000000000e+02 9.580000000000000000e+02 9.590000000000000000e+02 9.600000000000000000e+02 9.610000000000000000e+02 9.620000000000000000e+02 9.630000000000000000e+02 9.640000000000000000e+02 9.650000000000000000e+02 9.660000000000000000e+02 9.670000000000000000e+02 9.680000000000000000e+02 9.690000000000000000e+02 9.700000000000000000e+02 9.710000000000000000e+02 9.720000000000000000e+02 9.730000000000000000e+02 9.740000000000000000e+02 9.750000000000000000e+02 9.760000000000000000e+02 9.770000000000000000e+02 9.780000000000000000e+02 9.790000000000000000e+02 9.800000000000000000e+02 9.810000000000000000e+02 9.820000000000000000e+02 9.830000000000000000e+02 9.840000000000000000e+02 9.850000000000000000e+02 9.860000000000000000e+02 9.870000000000000000e+02 9.880000000000000000e+02 9.890000000000000000e+02 9.900000000000000000e+02 9.910000000000000000e+02 9.920000000000000000e+02 9.930000000000000000e+02 9.940000000000000000e+02 9.950000000000000000e+02 9.960000000000000000e+02 9.970000000000000000e+02 9.980000000000000000e+02 9.990000000000000000e+02
1.000000000000000000e+00 1.000000000000000000e+00 1.000000000000000000e+00 1.000000000000000000e+00 1.000000000000000000e+00 1.000000000000000000e+00 1.000000000000000000e+00 1.000000000000000000e+00 1.000000000000000000e+00 1.000000000000000000e+00 1.000000000000000000e+00 1.000000000000000000e+00 1.000000000000000000e+00 1.000000000000000000e+00 1.000000000000000000e+00 1.000000000000000000e+00 1.000000000000000000e+00 1.000000000000000000e+00 1.000000000000000000e+00 1.000000000000000000e+00 1.000000000000000000e+00 1.000000000000000000e+00 1.000000000000000000e+00 1.000000000000000000e+00 1.000000000000000000e+00 1.000000000000000000e+00 1.000000000000000000e+00 1.000000000000000000e+00 1.000000000000000000e+00 1.000000000000000000e+00 1.000000000000000000e+00 1.000000000000000000e+00 1.000000000000000000e+00 1.000000000000000000e+00 1.000000000000000000e+00 1.000000000000000000e+00 1.000000000000000000e+00 1.000000000000000000e+00 1.000000000000000000e+00 1.000000000000000000e+00 1.000000000000000000e+00 1.000000000000000000e+00 1.000000000000000000e+00 1.000000000000000000e+00 1.000000000000000000e+00 1.000000000000000000e+00 1.000000000000000000e+00 1.000000000000000000e+00 1.000000000000000000e+00 1.000000000000000000e+00 1.000000000000000000e+00 1.000000000000000000e+00 1.000000000000000000e+00 1.000000000000000000e+00 1.000000000000000000e+00 1.000000000000000000e+00 1.000000000000000000e+00 1.000000000000000000e+00 1.000000000000000000e+00 1.000000000000000000e+00 1.000000000000000000e+00 1.000000000000000000e+00 1.000000000000000000e+00 1.000000000000000000e+00 1.000000000000000000e+00 1.000000000000000000e+00 1.000000000000000000e+00 1.000000000000000000e+00 1.000000000000000000e+00 1.000000000000000000e+00 1.000000000000000000e+00 1.000000000000000000e+00 1.000000000000000000e+00 1.000000000000000000e+00 1.000000000000000000e+00 1.000000000000000000e+00 1.000000000000000000e+00 1.000000000000000000e+00 1.000000000000000000e+00 1.000000000000000000e+00 1.000000000000000000e+00 1.000000000000000000e+00 1.000000000000000000e+00 1.000000000000000000e+00 1.000000000000000000e+00 1.000000000000000000e+00 1.000000000000000000e+00 1.000000000000000000e+00 1.000000000000000000e+00 1.000000000000000000e+00 1.000000000000000000e+00 1.000000000000000000e+00 1.000000000000000000e+00 1.000000000000000000e+00 1.000000000000000000e+00 1.000000000000000000e+00 1.000000000000000000e+00 1.000000000000000000e+00 1.000000000000000000e+00 1.000000000000000000e+00 1.000000000000000000e+00 1.000000000000000000e+00 1.000000000000000000e+00 1.000000000000000000e+00 1.000000000000000000e+00 1.000000000000000000e+00 1.000000000000000000e+00 1.000000000000000000e+00 1.000000000000000000e+00 1.000000000000000000e+00 1.000000000000000000e+00 1.000000000000000000e+00 1.000000000000000000e+00 1.000000000000000000e+00 1.000000000000000000e+00 1.000000000000000000e+00 1.000000000000000000e+00 1.000000000000000000e+00 1.000000000000000000e+00 1.000000000000000000e+00 1.000000000000000000e+00 1.000000000000000000e+00 1.000000000000000000e+00 1.000000000000000000e+00 1.000000000000000000e+00 1.000000000000000000e+00 1.000000000000000000e+00 1.000000000000000000e+00 1.000000000000000000e+00 1.000000000000000000e+00 1.000000000000000000e+00 1.000000000000000000e+00 1.000000000000000000e+00 1.000000000000000000e+00 1.000000000000000000e+00 1.000000000000000000e+00 1.000000000000000000e+00 1.000000000000000000e+00 1.000000000000000000e+00 1.000000000000000000e+00 1.000000000000000000e+00 1.000000000000000000e+00 1.000000000000000000e+00 1.000000000000000000e+00 1.000000000000000000e+00 1.000000000000000000e+00 1.000000000000000000e+00 1.000000000000000000e+00 1.000000000000000000e+00 1.000000000000000000e+00 1.000000000000000000e+00 1.000000000000000000e+00 1.000000000000000000e+00 1.000000000000000000e+00 1.000000000000000000e+00 1.000000000000000000e+00 1.000000000000000000e+00 1.000000000000000000e+00 1.000000000000000000e+00 1.000000000000000000e+00 1.000000000000000000e+00 1.000000000000000000e+00 1.000000000000000000e+00 1.000000000000000000e+00 1.000000000000000000e+00 1.000000000000000000e+00 1.000000000000000000e+00 1.000000000000000000e+00 1.000000000000000000e+00 1.000000000000000000e+00 1.000000000000000000e+00 1.000000000000000000e+00 1.000000000000000000e+00 1.000000000000000000e+00 1.000000000000000000e+00 1.000000000000000000e+00 1.000000000000000000e+00 1.000000000000000000e+00 1.000000000000000000e+00 1.000000000000000000e+00 1.000000000000000000e+00 1.000000000000000000e+00 1.000000000000000000e+00 1.000000000000000000e+00 1.000000000000000000e+00 1.000000000000000000e+00 1.000000000000000000e+00 1.000000000000000000e+00 1.000000000000000000e+00 1.000000000000000000e+00 1.000000000000000000e+00 1.000000000000000000e+00 1.000000000000000000e+00 1.000000000000000000e+00 1.000000000000000000e+00 1.000000000000000000e+00 1.000000000000000000e+00 1.000000000000000000e+00 1.000000000000000000e+00 1.000000000000000000e+00 1.000000000000000000e+00 1.000000000000000000e+00 1.000000000000000000e+00 1.000000000000000000e+00 1.000000000000000000e+00 1.000000000000000000e+00 1.000000000000000000e+00 1.000000000000000000e+00 1.000000000000000000e+00 1.000000000000000000e+00 1.000000000000000000e+00 1.000000000000000000e+00 1.000000000000000000e+00 1.000000000000000000e+00 1.000000000000000000e+00 1.000000000000000000e+00 1.000000000000000000e+00 1.000000000000000000e+00 1.000000000000000000e+00 1.000000000000000000e+00 1.000000000000000000e+00 1.000000000000000000e+00 1.000000000000000000e+00 1.000000000000000000e+00 1.000000000000000000e+00 1.000000000000000000e+00 1.000000000000000000e+00 1.000000000000000000e+00 1.000000000000000000e+00 1.000000000000000000e+00 1.000000000000000000e+00 1.000000000000000000e+00 1.000000000000000000e+00 1.000000000000000000e+00 1.000000000000000000e+00 1.000000000000000000e+00 1.000000000000000000e+00 1.000000000000000000e+00 1.000000000000000000e+00 1.000000000000000000e+00 1.000000000000000000e+00 1.000000000000000000e+00 1.000000000000000000e+00 1.000000000000000000e+00 1.000000000000000000e+00 1.000000000000000000e+00 1.000000000000000000e+00 1.000000000000000000e+00 1.000000000000000000e+00 1.000000000000000000e+00 1.000000000000000000e+00 1.000000000000000000e+00 1.000000000000000000e+00 1.000000000000000000e+00 1.000000000000000000e+00 1.000000000000000000e+00 1.000000000000000000e+00 1.000000000000000000e+00 1.000000000000000000e+00 1.000000000000000000e+00 1.000000000000000000e+00 1.000000000000000000e+00 1.000000000000000000e+00 1.000000000000000000e+00 1.000000000000000000e+00 1.000000000000000000e+00 1.000000000000000000e+00 1.000000000000000000e+00 1.000000000000000000e+00 1.000000000000000000e+00 1.000000000000000000e+00 1.000000000000000000e+00 1.000000000000000000e+00 1.000000000000000000e+00 1.000000000000000000e+00 1.000000000000000000e+00 1.000000000000000000e+00 1.000000000000000000e+00 1.000000000000000000e+00 1.000000000000000000e+00 1.000000000000000000e+00 1.000000000000000000e+00 1.000000000000000000e+00 1.000000000000000000e+00 1.000000000000000000e+00 1.000000000000000000e+00 1.000000000000000000e+00 1.000000000000000000e+00 1.000000000000000000e+00 1.000000000000000000e+00 1.000000000000000000e+00 1.000000000000000000e+00 1.000000000000000000e+00 1.000000000000000000e+00 1.000000000000000000e+00 1.000000000000000000e+00 1.000000000000000000e+00 1.000000000000000000e+00 1.000000000000000000e+00 1.000000000000000000e+00 1.000000000000000000e+00 1.000000000000000000e+00 1.000000000000000000e+00 1.000000000000000000e+00 1.000000000000000000e+00 1.000000000000000000e+00 1.000000000000000000e+00 1.000000000000000000e+00 1.000000000000000000e+00 1.000000000000000000e+00 1.000000000000000000e+00 1.000000000000000000e+00 1.000000000000000000e+00 1.000000000000000000e+00 1.000000000000000000e+00 1.000000000000000000e+00 1.000000000000000000e+00 1.000000000000000000e+00 1.000000000000000000e+00 1.000000000000000000e+00 1.000000000000000000e+00 1.000000000000000000e+00 1.000000000000000000e+00 1.000000000000000000e+00 1.000000000000000000e+00 1.000000000000000000e+00 1.000000000000000000e+00 1.000000000000000000e+00 1.000000000000000000e+00 1.000000000000000000e+00 1.000000000000000000e+00 1.000000000000000000e+00 1.000000000000000000e+00 1.000000000000000000e+00 1.000000000000000000e+00 1.000000000000000000e+00 1.000000000000000000e+00 1.000000000000000000e+00 1.000000000000000000e+00 1.000000000000000000e+00 1.000000000000000000e+00 1.000000000000000000e+00 1.000000000000000000e+00 1.000000000000000000e+00 1.000000000000000000e+00 1.000000000000000000e+00 1.000000000000000000e+00 1.000000000000000000e+00 1.000000000000000000e+00 1.000000000000000000e+00 1.000000000000000000e+00 1.000000000000000000e+00 1.000000000000000000e+00 1.000000000000000000e+00 1.000000000000000000e+00 1.000000000000000000e+00 1.000000000000000000e+00 1.000000000000000000e+00 1.000000000000000000e+00 1.000000000000000000e+00 1.000000000000000000e+00 1.000000000000000000e+00 1.000000000000000000e+00 1.000000000000000000e+00 1.000000000000000000e+00 1.000000000000000000e+00 1.000000000000000000e+00 1.000000000000000000e+00 1.000000000000000000e+00 1.000000000000000000e+00 1.000000000000000000e+00 1.000000000000000000e+00 1.000000000000000000e+00 1.000000000000000000e+00 1.000000000000000000e+00 1.000000000000000000e+00 1.000000000000000000e+00 1.000000000000000000e+00 1.000000000000000000e+00 1.000000000000000000e+00 1.000000000000000000e+00 1.000000000000000000e+00 1.000000000000000000e+00 1.000000000000000000e+00 1.000000000000000000e+00 1.000000000000000000e+00 1.000000000000000000e+00 1.000000000000000000e+00 1.000000000000000000e+00 1.000000000000000000e+00 1.000000000000000000e+00 1.000000000000000000e+00 1.000000000000000000e+00 1.000000000000000000e+00 1.000000000000000000e+00 1.000000000000000000e+00 1.000000000000000000e+00 1.000000000000000000e+00 1.000000000000000000e+00 1.000000000000000000e+00 1.000000000000000000e+00 1.000000000000000000e+00 1.000000000000000000e+00 1.000000000000000000e+00 1.000000000000000000e+00 1.000000000000000000e+00 1.000000000000000000e+00 1.000000000000000000e+00 1.000000000000000000e+00 1.000000000000000000e+00 1.000000000000000000e+00 1.000000000000000000e+00 1.000000000000000000e+00 1.000000000000000000e+00 1.000000000000000000e+00 1.000000000000000000e+00 1.000000000000000000e+00 1.000000000000000000e+00 1.000000000000000000e+00 1.000000000000000000e+00 1.000000000000000000e+00 1.000000000000000000e+00 1.000000000000000000e+00 1.000000000000000000e+00 1.000000000000000000e+00 1.000000000000000000e+00 1.000000000000000000e+00 1.000000000000000000e+00 1.000000000000000000e+00 1.000000000000000000e+00 1.000000000000000000e+00 1.000000000000000000e+00 1.000000000000000000e+00 1.000000000000000000e+00 1.000000000000000000e+00 1.000000000000000000e+00 1.000000000000000000e+00 1.000000000000000000e+00 1.000000000000000000e+00 1.000000000000000000e+00 1.000000000000000000e+00 1.000000000000000000e+00 1.000000000000000000e+00 1.000000000000000000e+00 1.000000000000000000e+00 1.000000000000000000e+00 1.000000000000000000e+00 1.000000000000000000e+00 1.000000000000000000e+00 1.000000000000000000e+00 1.000000000000000000e+00 1.000000000000000000e+00 1.000000000000000000e+00 1.000000000000000000e+00 1.000000000000000000e+00 1.000000000000000000e+00 1.000000000000000000e+00 1.000000000000000000e+00 1.000000000000000000e+00 1.000000000000000000e+00 1.000000000000000000e+00 1.000000000000000000e+00 1.000000000000000000e+00 1.000000000000000000e+00 1.000000000000000000e+00 1.000000000000000000e+00 1.000000000000000000e+00 1.000000000000000000e+00 1.000000000000000000e+00 1.000000000000000000e+00 1.000000000000000000e+00 1.000000000000000000e+00 1.000000000000000000e+00 1.000000000000000000e+00 1.000000000000000000e+00 1.000000000000000000e+00 1.000000000000000000e+00 1.000000000000000000e+00 1.000000000000000000e+00 1.000000000000000000e+00 1.000000000000000000e+00 1.000000000000000000e+00 1.000000000000000000e+00 1.000000000000000000e+00 1.000000000000000000e+00 1.000000000000000000e+00 1.000000000000000000e+00 1.000000000000000000e+00 1.000000000000000000e+00 1.000000000000000000e+00 1.000000000000000000e+00 1.000000000000000000e+00 1.000000000000000000e+00 1.000000000000000000e+00 1.000000000000000000e+00 1.000000000000000000e+00 1.000000000000000000e+00 1.000000000000000000e+00 1.000000000000000000e+00 1.000000000000000000e+00 1.000000000000000000e+00 1.000000000000000000e+00 1.000000000000000000e+00 1.000000000000000000e+00 1.000000000000000000e+00 1.000000000000000000e+00 1.000000000000000000e+00 1.000000000000000000e+00 1.000000000000000000e+00 1.000000000000000000e+00 1.000000000000000000e+00 1.000000000000000000e+00 1.000000000000000000e+00 1.000000000000000000e+00 1.000000000000000000e+00 1.000000000000000000e+00 1.000000000000000000e+00 1.000000000000000000e+00 1.000000000000000000e+00 1.000000000000000000e+00 1.000000000000000000e+00 1.000000000000000000e+00 1.000000000000000000e+00 1.000000000000000000e+00 1.000000000000000000e+00 1.000000000000000000e+00 1.000000000000000000e+00 1.000000000000000000e+00 1.000000000000000000e+00 1.000000000000000000e+00 1.000000000000000000e+00 1.000000000000000000e+00 1.000000000000000000e+00 1.000000000000000000e+00 1.000000000000000000e+00 1.000000000000000000e+00 1.000000000000000000e+00 1.000000000000000000e+00 1.000000000000000000e+00 1.000000000000000000e+00 1.000000000000000000e+00 1.000000000000000000e+00 1.000000000000000000e+00 1.000000000000000000e+00 1.000000000000000000e+00 1.000000000000000000e+00 1.000000000000000000e+00 1.000000000000000000e+00 1.000000000000000000e+00 1.000000000000000000e+00 1.000000000000000000e+00 1.000000000000000000e+00 1.000000000000000000e+00 1.000000000000000000e+00 1.000000000000000000e+00 1.000000000000000000e+00 1.000000000000000000e+00 1.000000000000000000e+00 1.000000000000000000e+00 1.000000000000000000e+00 1.000000000000000000e+00 1.000000000000000000e+00 1.000000000000000000e+00 1.000000000000000000e+00 1.000000000000000000e+00 1.000000000000000000e+00 1.000000000000000000e+00 1.000000000000000000e+00 1.000000000000000000e+00 1.000000000000000000e+00 1.000000000000000000e+00 1.000000000000000000e+00 1.000000000000000000e+00 1.000000000000000000e+00 1.000000000000000000e+00 1.000000000000000000e+00 1.000000000000000000e+00 1.000000000000000000e+00 1.000000000000000000e+00 1.000000000000000000e+00 1.000000000000000000e+00 1.000000000000000000e+00 1.000000000000000000e+00 1.000000000000000000e+00 1.000000000000000000e+00 1.000000000000000000e+00 1.000000000000000000e+00 1.000000000000000000e+00 1.000000000000000000e+00 1.000000000000000000e+00 1.000000000000000000e+00 1.000000000000000000e+00 1.000000000000000000e+00 1.000000000000000000e+00 1.000000000000000000e+00 1.000000000000000000e+00 1.000000000000000000e+00 1.000000000000000000e+00 1.000000000000000000e+00 1.000000000000000000e+00 1.000000000000000000e+00 1.000000000000000000e+00 1.000000000000000000e+00 1.000000000000000000e+00 1.000000000000000000e+00 1.000000000000000000e+00 1.000000000000000000e+00 1.000000000000000000e+00 1.000000000000000000e+00 1.000000000000000000e+00 1.000000000000000000e+00 1.000000000000000000e+00 1.000000000000000000e+00 1.000000000000000000e+00 1.000000000000000000e+00 1.000000000000000000e+00 1.000000000000000000e+00 1.000000000000000000e+00 1.000000000000000000e+00 1.000000000000000000e+00 1.000000000000000000e+00 1.000000000000000000e+00 1.000000000000000000e+00 1.000000000000000000e+00 1.000000000000000000e+00 1.000000000000000000e+00 1.000000000000000000e+00 1.000000000000000000e+00 1.000000000000000000e+00 1.000000000000000000e+00 1.000000000000000000e+00 1.000000000000000000e+00 1.000000000000000000e+00 1.000000000000000000e+00 1.000000000000000000e+00 1.000000000000000000e+00 1.000000000000000000e+00 1.000000000000000000e+00 1.000000000000000000e+00 1.000000000000000000e+00 1.000000000000000000e+00 1.000000000000000000e+00 1.000000000000000000e+00 1.000000000000000000e+00 1.000000000000000000e+00 1.000000000000000000e+00 1.000000000000000000e+00 1.000000000000000000e+00 1.000000000000000000e+00 1.000000000000000000e+00 1.000000000000000000e+00 1.000000000000000000e+00 1.000000000000000000e+00 1.000000000000000000e+00 1.000000000000000000e+00 1.000000000000000000e+00 1.000000000000000000e+00 1.000000000000000000e+00 1.000000000000000000e+00 1.000000000000000000e+00 1.000000000000000000e+00 1.000000000000000000e+00 1.000000000000000000e+00 1.000000000000000000e+00 1.000000000000000000e+00 1.000000000000000000e+00 1.000000000000000000e+00 1.000000000000000000e+00 1.000000000000000000e+00 1.000000000000000000e+00 1.000000000000000000e+00 1.000000000000000000e+00 1.000000000000000000e+00 1.000000000000000000e+00 1.000000000000000000e+00 1.000000000000000000e+00 1.000000000000000000e+00 1.000000000000000000e+00 1.000000000000000000e+00 1.000000000000000000e+00 1.000000000000000000e+00 1.000000000000000000e+00 1.000000000000000000e+00 1.000000000000000000e+00 1.000000000000000000e+00 1.000000000000000000e+00 1.000000000000000000e+00 1.000000000000000000e+00 1.000000000000000000e+00 1.000000000000000000e+00 1.000000000000000000e+00 1.000000000000000000e+00 1.000000000000000000e+00 1.000000000000000000e+00 1.000000000000000000e+00 1.000000000000000000e+00 1.000000000000000000e+00 1.000000000000000000e+00 1.000000000000000000e+00 1.000000000000000000e+00 1.000000000000000000e+00 1.000000000000000000e+00 1.000000000000000000e+00 1.000000000000000000e+00 1.000000000000000000e+00 1.000000000000000000e+00 1.000000000000000000e+00 1.000000000000000000e+00 1.000000000000000000e+00 1.000000000000000000e+00 1.000000000000000000e+00 1.000000000000000000e+00 1.000000000000000000e+00 1.000000000000000000e+00 1.000000000000000000e+00 1.000000000000000000e+00 1.000000000000000000e+00 1.000000000000000000e+00 1.000000000000000000e+00 1.000000000000000000e+00 1.000000000000000000e+00 1.000000000000000000e+00 1.000000000000000000e+00 1.000000000000000000e+00 1.000000000000000000e+00 1.000000000000000000e+00 1.000000000000000000e+00 1.000000000000000000e+00 1.000000000000000000e+00 1.000000000000000000e+00 1.000000000000000000e+00 1.000000000000000000e+00 1.000000000000000000e+00 1.000000000000000000e+00 1.000000000000000000e+00 1.000000000000000000e+00 1.000000000000000000e+00 1.000000000000000000e+00 1.000000000000000000e+00 1.000000000000000000e+00 1.000000000000000000e+00 1.000000000000000000e+00 1.000000000000000000e+00 1.000000000000000000e+00 1.000000000000000000e+00 1.000000000000000000e+00 1.000000000000000000e+00 1.000000000000000000e+00 1.000000000000000000e+00 1.000000000000000000e+00 1.000000000000000000e+00 1.000000000000000000e+00 1.000000000000000000e+00 1.000000000000000000e+00 1.000000000000000000e+00 1.000000000000000000e+00 1.000000000000000000e+00 1.000000000000000000e+00 1.000000000000000000e+00 1.000000000000000000e+00 1.000000000000000000e+00 1.000000000000000000e+00 1.000000000000000000e+00 1.000000000000000000e+00 1.000000000000000000e+00 1.000000000000000000e+00 1.000000000000000000e+00 1.000000000000000000e+00 1.000000000000000000e+00 1.000000000000000000e+00 1.000000000000000000e+00 1.000000000000000000e+00 1.000000000000000000e+00 1.000000000000000000e+00 1.000000000000000000e+00 1.000000000000000000e+00 1.000000000000000000e+00 1.000000000000000000e+00 1.000000000000000000e+00 1.000000000000000000e+00 1.000000000000000000e+00 1.000000000000000000e+00 1.000000000000000000e+00 1.000000000000000000e+00 1.000000000000000000e+00 1.000000000000000000e+00 1.000000000000000000e+00 1.000000000000000000e+00 1.000000000000000000e+00 1.000000000000000000e+00 1.000000000000000000e+00 1.000000000000000000e+00 1.000000000000000000e+00 1.000000000000000000e+00 1.000000000000000000e+00 1.000000000000000000e+00 1.000000000000000000e+00 1.000000000000000000e+00 1.000000000000000000e+00 1.000000000000000000e+00 1.000000000000000000e+00 1.000000000000000000e+00 1.000000000000000000e+00 1.000000000000000000e+00 1.000000000000000000e+00 1.000000000000000000e+00 1.000000000000000000e+00 1.000000000000000000e+00 1.000000000000000000e+00 1.000000000000000000e+00 1.000000000000000000e+00 1.000000000000000000e+00 1.000000000000000000e+00 1.000000000000000000e+00 1.000000000000000000e+00 1.000000000000000000e+00 1.000000000000000000e+00 1.000000000000000000e+00 1.000000000000000000e+00 1.000000000000000000e+00 1.000000000000000000e+00 1.000000000000000000e+00 1.000000000000000000e+00 1.000000000000000000e+00 1.000000000000000000e+00 1.000000000000000000e+00 1.000000000000000000e+00 1.000000000000000000e+00 1.000000000000000000e+00 1.000000000000000000e+00 1.000000000000000000e+00 1.000000000000000000e+00 1.000000000000000000e+00 1.000000000000000000e+00 1.000000000000000000e+00 1.000000000000000000e+00 1.000000000000000000e+00 1.000000000000000000e+00 1.000000000000000000e+00 1.000000000000000000e+00 1.000000000000000000e+00 1.000000000000000000e+00 1.000000000000000000e+00 1.000000000000000000e+00 1.000000000000000000e+00 1.000000000000000000e+00 1.000000000000000000e+00 1.000000000000000000e+00 1.000000000000000000e+00 1.000000000000000000e+00 1.000000000000000000e+00 1.000000000000000000e+00 1.000000000000000000e+00 1.000000000000000000e+00 1.000000000000000000e+00 1.000000000000000000e+00 1.000000000000000000e+00 1.000000000000000000e+00 1.000000000000000000e+00 1.000000000000000000e+00 1.000000000000000000e+00 1.000000000000000000e+00 1.000000000000000000e+00 1.000000000000000000e+00 1.000000000000000000e+00 1.000000000000000000e+00 1.000000000000000000e+00 1.000000000000000000e+00 1.000000000000000000e+00 1.000000000000000000e+00 1.000000000000000000e+00 1.000000000000000000e+00 1.000000000000000000e+00 1.000000000000000000e+00 1.000000000000000000e+00 1.000000000000000000e+00 1.000000000000000000e+00 1.000000000000000000e+00 1.000000000000000000e+00 1.000000000000000000e+00 1.000000000000000000e+00 1.000000000000000000e+00 1.000000000000000000e+00 1.000000000000000000e+00 1.000000000000000000e+00 1.000000000000000000e+00 1.000000000000000000e+00 1.000000000000000000e+00 1.000000000000000000e+00 1.000000000000000000e+00 1.000000000000000000e+00 1.000000000000000000e+00 1.000000000000000000e+00 1.000000000000000000e+00 1.000000000000000000e+00 1.000000000000000000e+00 1.000000000000000000e+00 1.000000000000000000e+00 1.000000000000000000e+00 1.000000000000000000e+00 1.000000000000000000e+00 1.000000000000000000e+00 1.000000000000000000e+00 1.000000000000000000e+00 1.000000000000000000e+00 1.000000000000000000e+00 1.000000000000000000e+00 1.000000000000000000e+00 1.000000000000000000e+00 1.000000000000000000e+00 1.000000000000000000e+00 1.000000000000000000e+00 1.000000000000000000e+00 1.000000000000000000e+00 1.000000000000000000e+00 1.000000000000000000e+00 1.000000000000000000e+00 1.000000000000000000e+00 1.000000000000000000e+00 1.000000000000000000e+00 1.000000000000000000e+00 1.000000000000000000e+00 1.000000000000000000e+00 1.000000000000000000e+00 1.000000000000000000e+00 1.000000000000000000e+00 1.000000000000000000e+00 1.000000000000000000e+00 1.000000000000000000e+00 1.000000000000000000e+00 1.000000000000000000e+00 1.000000000000000000e+00 1.000000000000000000e+00 1.000000000000000000e+00 1.000000000000000000e+00 1.000000000000000000e+00 1.000000000000000000e+00 1.000000000000000000e+00 1.000000000000000000e+00 1.000000000000000000e+00 1.000000000000000000e+00 1.000000000000000000e+00 1.000000000000000000e+00 1.000000000000000000e+00 1.000000000000000000e+00 1.000000000000000000e+00 1.000000000000000000e+00 1.000000000000000000e+00 1.000000000000000000e+00 1.000000000000000000e+00 1.000000000000000000e+00 1.000000000000000000e+00 1.000000000000000000e+00 1.000000000000000000e+00 1.000000000000000000e+00 1.000000000000000000e+00 1.000000000000000000e+00 1.000000000000000000e+00 1.000000000000000000e+00 1.000000000000000000e+00 1.000000000000000000e+00 1.000000000000000000e+00 1.000000000000000000e+00 1.000000000000000000e+00 1.000000000000000000e+00 1.000000000000000000e+00 1.000000000000000000e+00 1.000000000000000000e+00 1.000000000000000000e+00 1.000000000000000000e+00 1.000000000000000000e+00 1.000000000000000000e+00 1.000000000000000000e+00 1.000000000000000000e+00 1.000000000000000000e+00 1.000000000000000000e+00 1.000000000000000000e+00 1.000000000000000000e+00 1.000000000000000000e+00 1.000000000000000000e+00 1.000000000000000000e+00 1.000000000000000000e+00 1.000000000000000000e+00 1.000000000000000000e+00 1.000000000000000000e+00 1.000000000000000000e+00 1.000000000000000000e+00 1.000000000000000000e+00 1.000000000000000000e+00 1.000000000000000000e+00 1.000000000000000000e+00 1.000000000000000000e+00 1.000000000000000000e+00 1.000000000000000000e+00 1.000000000000000000e+00 1.000000000000000000e+00 1.000000000000000000e+00 1.000000000000000000e+00 1.000000000000000000e+00 1.000000000000000000e+00
-1.288207342479685217e-03 5.602814622250210652e-01 -1.998132819358618972e-01 7.246906422364806089e-01 5.063819617062607081e-01 5.752456478648425575e-01 6.399148832954473232e-01 2.594556528537957929e-01 5.192564997306248209e-01 5.090310457014820544e-01 1.076444437608140792e+00 -6.708300957999908665e-01 1.390893835443782534e+00 4.458951149255532820e-01 5.115005804039821635e-01 3.993332934888407793e-01 9.104662427211017706e-01 9.709101194806089019e-01 6.627743311886439281e-01 5.212753939079259879e-01 4.308626882639450262e-01 9.762062162629262518e-01 4.844953152560816934e-01 4.611440554588415175e-01 1.134681371979111286e-01 6.823022161397888086e-01 3.618415590316222397e-01 5.903193410350466852e-01 5.291788266948097563e-01 1.539018832993368946e+00 5.330875664894940691e-01 6.133877875770822330e-01 7.208534169896092525e-01 4.866644960737617209e-01 7.137733020266697759e-01 4.513410609534100337e-01 5.572920486750432278e-01 1.740253386070398811e+00 -6.250103276487690984e-02 4.952546905345960870e-01 -1.370622205560396434e-01 -5.589272131677074373e-01 7.509730040261990425e-01 2.233632942231998375e-01 2.608211378435328909e-01 5.216546540820706790e-01 7.247603083160224502e-01 5.263652129615746800e-01 5.729625097998662930e-01 2.622460531570703843e-02 4.406405091917258050e-03 8.434789056271256857e-01 6.694181382524942991e-01 4.744287368898941759e-01 4.518088799719128801e-01 1.743140135725131101e-02 4.804982492771185387e-01 5.443432612023214601e-01 1.855880182446452975e-01 4.685277643432772532e-01 9.090177745868212034e-01 5.520906540245368310e-01 4.802034802049403583e-01 4.844951766493497125e-01 6.828771292942926729e-01 5.261123798770396265e-01 5.102607804207670572e-01 2.868865745994521044e-01 5.359022467621163965e-01 -9.422108992987142384e-03 4.088095630496848543e-01 4.770523740045448102e-01 5.233464160033206580e-01 3.855499980113723246e-02 1.492740956283139298e+00 5.592044484766323098e-01 6.320996310327651191e-01 7.423903991798128654e-01 5.081539836953482547e-01 1.379078502367241166e+00 5.399030340923688387e-01 2.886732177624178330e-01 1.370278288423764312e+00 6.753297588849641597e-01 4.860771494908655566e-01 7.577099482684739318e-01 8.158321105180477151e-01 5.454040531302860595e-01 4.043040636973779800e-01 5.754314887740694662e-01 2.655946331275728656e-01 2.136539175951308600e+00 7.140223619582607428e-01 -5.231987208050369736e-02 5.587649608847254923e-01 5.764671321814335281e-01 5.288794622470521789e-01 4.720383610931156437e-01 1.895036960349189836e-01 6.872894009431480544e-01 1.577062620200633258e+00 6.872363909857662767e-01 5.416842984550974682e-01 7.710224829649037215e-01 8.587895517398373979e-01 -2.010086441880380992e+00 -1.193399427714674665e+00 5.477577273015008519e-01 5.578758681071321890e-01 9.729334507825149192e-01 5.261906171321595327e-01 4.671478586524190346e-01 1.661743533967469377e-01 4.729502320619280442e-01 5.175360200904400854e-01 5.131317715050978112e-01 5.268304865115875923e-01 5.533651277185624995e-01 8.710587443438382316e-01 5.122751253079302902e-01 1.291740927103171233e+00 5.624133807683030506e-01 5.417137958281345034e-01 -3.594203914991456750e-01 5.134013677736342096e-01 1.923107935287008186e+00 5.535430680839882323e-01 4.888246872537639343e-01 6.871916098314990728e-01 5.071825839810990555e-01 5.350093079418626330e-01 5.043208578543667553e-01 4.111760243176721952e-01 2.685174841642617993e-01 -2.190341715856101434e-01 -1.544441907480957332e-01 6.196213555351951507e-01 4.016295399724206100e-02 9.917971373837066729e-01 6.754418203625767170e-01 5.137825983627724025e-01 8.568343770524903258e-01 6.469815552099705824e-01 5.957260004863673686e-01 5.114449383535021321e-01 3.192738246612496222e-02 8.712634484658623446e-01 9.911292568349357179e-02 4.746050596731458127e-01 -8.616256277724870793e-01 7.786921631949074163e-01 -2.988642922578217953e-01 5.216556447349628423e-01 5.342767518496400747e-01 4.929633316215191741e-01 5.115343299681944789e-01 1.877281783079509658e+00 -6.037045945580257755e-02 8.082166147459913796e-01 6.994500894623792986e-01 5.142378525092132779e-01 4.231519582002130631e-01 5.156907033165851750e-01 5.106440519450434756e-01 1.090042096283475592e+00 1.503787617020733713e-01 8.448031258879988847e-01 4.323909122113119285e-01 5.920373669688480112e-01 6.148886617279580857e-01 4.378584429600589911e-01 7.238349179789976828e-01 5.216628171939780012e-01 5.156535848967843672e-01 4.062461468996992342e-01 2.236640195849479498e-02 1.778571925212421856e-01 7.743971510306545125e-02 7.389674387614039164e-01 1.140047870503909211e+00 7.158886229480863062e-01 5.033315940703769753e-01 -1.856174727265880453e-01 4.627828075614852654e-01 6.734801437470212537e-01 5.236738218970666825e-01 5.250974957610980987e-01 5.025868294277173742e-01 2.731949611707968462e+00 5.365204108980019537e-01 5.130109389329003955e-01 -8.634772686084859483e-01 5.323070355186211300e-01 5.736882064819240901e-01 1.788599820753574710e-01 5.124492105516759155e-01 9.262480517217589471e-01 5.275842566820969637e-01 6.778761453010742066e-01 4.198576723795221510e-01 6.164375193505814421e-01 5.537964575437835935e-01 9.615773869320078937e-01 5.996134337409656512e-01 5.432502186165815150e-01 6.778762117160452849e-01 2.846727074102916033e-01 1.278099293322755292e+00 5.003302958608312201e-01 3.590580315615676255e-01 4.447094741596349099e-01 -6.636942496807959890e-02 4.717213629065564184e-01 1.634043562912847747e-01 5.081442459098607367e-01 5.089009121933912860e-01 5.069862043761531600e-01 5.200089171903542473e-01 5.067263732723752412e-01 5.152962453831511080e-01 4.490575781586098048e-01 6.133556646283329084e-01 -6.945388229516469281e-01 5.677736093224071690e-01 3.215552953670884340e-01 3.989032973991036846e-01 1.537777461629639131e-01 1.276367382290853891e+00 9.488330577504058283e-01 5.017971777288010582e-01 -1.045646147649141600e-01 1.046183252626215809e+00 5.067754983801431301e-01 4.504761876730343784e-01 4.799342725759915829e-01 4.173708936992190921e-01 4.115435471100775677e-01 1.996580937378135412e-01 -1.453943875308855715e-01 -1.204538761448160911e-01 3.149155935102263548e-01 5.144776664952094292e-01 -9.823687887465132329e-02 4.695821671572414924e-01 5.030542729390252710e-01 4.542090273425996583e-01 -1.045019555568573316e-01 7.435591931349972983e-01 -2.203467895833591594e+00 5.904779115778798770e-01 -5.467346451676828867e-01 4.961858201350231035e-01 5.097985573408881921e-01 4.844949614424409745e-01 4.742253295185112627e-01 5.341741517481805035e-01 5.202031324256152223e-01 7.339024508476884590e-01 5.386284145700692694e-01 1.681634712502421136e+00 6.720633863531362273e-01 6.972454241914340933e-01 5.081656521602094800e-01 3.478911669054183253e-01 9.090178122104247693e-01 3.780682999378119358e-01 2.624440933314820867e+00 5.555333352997374741e-01 2.425321726082547147e-01 6.819726538328952925e-01 5.125707868668116785e-01 9.086941612388471645e-01 5.117881489140417850e-01 5.366439272497339763e-01 5.092762227745933901e-01 1.058361603990734201e+00 7.620458395375794280e-01 8.670473914058328679e-01 8.104239797861526595e-01 3.508385124465496774e-01 6.742860261097409769e-01 5.579530177800420265e-01 3.962537465376406720e-01 -6.987533546967389375e-01 3.817390680113169066e-01 6.900429916621332316e-01 5.494831548782745934e-01 5.440481480247438828e-01 5.131317705182067979e-01 6.062579284424822745e-01 5.425066396756597076e-01 -7.673988891100115284e-01 6.881678794717993597e-01 5.165138409346613502e-01 5.558360423031857844e-02 5.385094564306984743e-01 1.840647808310185374e+00 4.941866257717402733e-01 5.102810228849147256e-01 4.746173466048665412e-01 -3.336918001652589005e+00 5.220115286326617587e-01 2.702654427102043844e+00 7.242012951172763779e-01 4.935878927144663475e-01 -5.817590882881192860e-01 5.099330829677829469e-01 5.086147992433392995e-01 4.318000124987246280e-01 4.619828818160341966e-01 3.837081286915561273e-01 6.354983488159678950e-01 3.149022696218504724e-01 5.169714899481179238e-01 5.216593009621395272e-01 3.679679946032756721e-01 5.165497366172349114e-01 7.244847019976484725e-01 5.133872146890346988e-01 1.187226714104025360e+00 1.119182296160791366e-02 2.200323398656639728e+00 2.598431030194041202e+00 5.497233613083807313e-01 -1.950399150125682601e-01 4.663653583602891950e-01 4.053031348798616929e-01 7.213139250271169978e-01 1.359097402267189336e+00 5.387732128795188480e-01 1.117063263707701148e+00 5.112746129276719564e-01 1.293396462244090772e-01 1.243439266566781942e+00 3.893475965678970252e-01 5.036291461022605054e-01 5.363219555438074604e-01 8.709789059052112092e-01 -3.607646722337821910e+00 1.609661565076615064e+00 5.542345439567271104e-01 6.397823149337791282e-01 5.071525643505347958e-01 1.740253385724261470e+00 3.108637209082866226e-01 5.356600920465094395e-01 4.951974111296315595e-01 4.253822186064314392e-01 1.382904723046992634e+00 6.220171663946068019e-01 6.778761443878534854e-01 4.695771276650910764e-01 5.996134348338985065e-01 6.482453900958583537e-01 5.600214804540309954e-01 8.887591865585754425e-01 5.103112507819200783e-01 3.965231366993138828e-01 2.339485159504096912e-01 6.418655524822739489e-01 5.066799118547467007e-01 4.625933539510559411e-01 5.356600859102864653e-01 6.611724698164763714e-01 5.140365490306211260e-01 9.903849288067749779e-01 1.003479471837626757e+00 1.117599745669788813e+00 5.172233661984177999e-01 2.456813405351524482e-01 9.090182367492265492e-01 -1.086382889688013720e-01 9.329713454525145888e-01 6.268594296146194900e-01 1.229116661670708044e-02 5.581748926730190075e-01 1.000230156977166329e+00 3.925847699457503115e-01 5.315037913932391112e-01 2.678051148092171485e-01 -3.288834511003466687e-01 -2.411499920611121173e+00 4.681322050736020368e-01 5.996134337781344747e-01 5.996133898085590497e-01 5.246924775405502617e-01 4.617609734741050520e-01 -2.040541855332974885e-01 3.400265037190008388e-01 5.155038550228925320e-01 6.393403047957673113e-01 5.126294283404422281e-01 1.062978862878119823e+00 6.778760050103573853e-01 5.080141616609052946e-01 4.724131528104349997e-01 2.660130078128439823e-01 6.467525244020123631e-01 5.270220246564254474e-01 5.117331032967057380e-01 5.601522751177968606e-01 2.689985331900142662e-01 2.625675887606277251e-02 5.996134348842051542e-01 6.553867205532452056e-01 5.134889470298490410e-01 4.453566255858811829e-01 8.569060448873602187e-01 6.540276526041635119e-01 5.629144266074080916e-01 1.803399973240808585e+00 5.246560929073545987e-01 -2.962712913398803050e+00 7.243795505705026283e-01 1.498705141059128554e+00 5.071760805956302409e-01 -1.033273960385522106e+00 7.006493994718667739e-01 4.734114153244188272e-01 5.142396631858281442e-01 5.258531383124923630e-01 -2.631437519352743948e-01 5.095435242369420470e-01 1.063060983604694032e+00 6.286204543689926094e-01 -3.163628389846089850e-01 5.138575522804427198e-01 5.121348016494925437e-01 7.643449774746087222e-01 5.298484284275705170e-01 4.961762253749799068e-01 -5.007700647379350611e-01 5.626006197674404685e-01 5.062540090770206724e-01 7.121986478063373482e-01 4.841884256326495217e-01 7.637497178317036450e-01 5.152117774129917338e-01 5.678069249909916127e-01 7.263726222063165983e-01 5.523161199369578389e-01 3.432618666791181772e-01 2.635922766120936678e-01 3.093998371314561346e-01 9.524330893131525144e-01 5.445735345872974031e-01 3.146211898888103597e+00 6.607021332569119609e-01 5.976917600017406240e-01 5.605909496261614056e-01 6.350859289162266164e-01 2.774441408206139437e-02 4.826608363696482384e-01 5.958085749598698300e-01 5.234351545550366414e-01 1.165746614400483550e+00 7.640684034387054124e-01 5.282086279832148845e-01 4.529780866467391087e-01 1.113786216942608487e+00 5.302534461695194157e-01 5.324132459422663555e-01 5.165659263480618657e-01 7.101374800994280090e-01 5.096583240327593467e-01 9.167217525200318518e-01 4.798518532083901889e-01 5.102410469559920392e-01 1.019617128265781422e-02 5.357734859562796048e-01 3.491302597844043315e-02 3.666632164357605528e-01 4.199073090578964162e-01 5.491097716561774700e-01 7.698567865489699402e-01 5.154502794706846691e-01 4.020878318070090218e-01 4.448358420236051686e-02 5.625825455905122396e-01 5.407404655120242598e-01 5.282782341997203091e-01 4.634365660644493984e-02 5.078653849797031272e-01 2.473344144196538141e-01 5.086188835671301423e-01 4.330239478706010559e-01 1.248836727049616346e+00 7.919086581406798997e-01 5.129209407875203741e-01 2.790713139713378865e-01 6.208429534697731400e-01 4.178917506544425065e-01 9.850892269566421389e-01 5.799970378057072162e-01 5.271086885128738464e-01 6.828075934169811623e-01 1.961389338175968167e+00 4.532827292172145750e-01 4.120314642165002761e-01 5.139165811638763959e-01 6.880177560756061128e-01 4.364769390925150039e-01 8.199596556135992920e-01 -5.611865912197078199e-01 3.158050067324740806e-01 5.472970526073447362e-01 4.381977017389710460e-01 3.735444980400774440e-01 -5.954824272472034608e-01 3.907217041948072289e-01 5.072838300929733979e-01 7.391044952577026095e-01 6.635675617675909077e-01 1.411427014600248553e+00 5.109237529685438650e-01 5.033510930731600608e-01 -6.767524691817451421e-01 4.945135907134567965e-01 1.194598225772263378e+00 6.914950488017512775e-01 2.503322808110370334e-01 2.864285473686730699e-01 -1.550729700549920986e+00 4.866827399359116013e-01 1.934783756412652156e-01 1.090626109938049426e+00 8.113366381824541618e-01 5.159503523266257830e-01 5.052196379462959852e-01 6.178391041737711920e-01 7.242246438532703445e-01 4.730017737831987423e-01 5.657417828573322316e-01 2.463318823828949955e-02 5.165469920356344780e-01 6.251502649862252792e-01 6.545426544738622843e-01 4.969623479342584194e-01 5.923793159222721094e-01 1.181464712326528055e+00 -1.103398698650588095e-01 -2.254502289774552304e-01 4.552276265126264931e-01 5.419785488228823223e-01 5.624718788154309257e-01 5.293363031850518707e-01 -8.267965420380815056e-01 3.111185550695023228e+00 5.931353531567271631e-01 4.600223721777993435e-01 4.127394227060583454e-01 5.069279374454316311e-01 5.168373720222837475e-01 6.395653814381389024e-01 3.275847979209041694e-01 5.756418393799014321e-01 5.063127100406503711e-01 6.559310035066937550e-01 3.769368134541175586e-01 5.329639320758389198e-01 5.248072278563822302e-01 4.063367957497924787e-01 4.670251572717724065e-01 5.470125156078844419e-01 6.411640703817158560e-01 9.975621356320106825e-01 2.286346468350315408e+00 5.787746314283380711e-01 4.936102312808658410e-01 5.500474891095220586e-01 5.441707187675706159e-01 3.641680528520566118e-01 5.101160032353170282e-01 5.060157880257584173e-01 5.501750325049330481e-01 4.780107663203461144e-01 4.868957501343750827e-01 7.244017657499530749e-01 3.701300325794314450e-01 5.747353119197514681e-01 5.303175513011078035e-01 5.827473425835679732e-01 1.270997710961374039e-01 9.090177978730606956e-01 5.432983056005454836e-01 1.502903222551808526e-01 1.906545198130253249e+00 2.658909634149581036e-01 4.680488076351570492e-01 5.839369948948052169e-01 6.014047615077283693e-02 5.307247923535063361e-01 1.494824303009127497e+00 7.462731144000431804e-01 7.912286327695569055e-01 5.087047689840240583e-01 5.418819723017379575e-01 5.069145133723427232e-01 6.148759808210030320e-01 5.086507310442123231e-01 5.101959038536715285e-01 -1.521663960517610492e-01 5.907210942849941970e-01 -1.357209626889182452e+00 5.394476224671403974e-01 4.907214340143151166e-01 5.533017208060004855e-01 4.746313597487122338e-01 9.090177979240202655e-01 2.277623424594477086e-01 5.673692965725981585e-01 1.306750106046697946e+00 -5.296380378789562471e-01 5.164704324062775465e-01 1.113865141996038366e+00 1.470758820254238541e+00 3.873689727962099094e-01 5.175618655136152713e-01 -4.345523302674328403e-02 -1.633978704207341481e+00 2.843765081589129107e-01 7.254301712422657200e-01 5.267222501314866578e-01 5.089005185679817966e-01 4.714836836816336252e-01 4.887320040713466485e-01 -3.864316509443063152e-01 8.077006552540632045e-01 5.131317724701526251e-01 3.449915817903859150e-01 5.444490033733691003e-01 -2.437224855527061335e-02 -1.763614965297194970e-01 1.747683027908378373e+00 4.173063933752335086e-01 4.389214171666567799e-01 5.141006505690629558e-01 3.329735775175058365e-01 6.252802559163748164e-01 -1.052278218508068824e-02 -9.790553283213425662e-01 5.089039233241129390e-01 5.131700053326250233e-01 4.858140978374259622e-01 5.901823722169645681e-01 5.543681043942774167e-01 5.411842577469466731e-01 5.222637309887628865e-01 5.821179159455672769e-01 1.023034026220914994e+00 7.286282956758504126e-01 5.541519484675950791e-01 5.423327741382724110e-01 4.703602699794305342e-01 4.264867196158067530e-01 1.692936828040764131e-03 5.356600875722955513e-01 5.585703552027188046e-01 4.604344202020536625e-01 7.417400427147964326e-01 9.744999032916340509e-01 8.199630718451021982e-01 -4.621580960204315636e-01 5.542796308646629200e-01 5.265423404066360558e-01 5.121244132505533564e-01 5.717011907407073545e-01 8.950901223835270315e-01 5.484494424964002635e-01 4.968159099857126226e-01 -1.971516825131105766e-01 -8.348190077465752479e-01 2.243552649153028433e+00 5.236961464264178190e-01 8.862219899745411578e-01 4.872008582355960016e-01 5.666182442323229873e-01 3.593086588042895269e-01 1.487065973914709904e-01 5.102975171794621456e-01 5.420241332698082504e-01 4.233417626704020879e-03 5.122420606919499964e-01 4.244400726452303152e-01 5.011945817524317004e-01 7.522036468016448651e-01 5.029967899087584016e-01 5.845147786711427651e-01 3.854635195937493597e-01 5.427988184408648609e-01 3.466377069301301850e-01 5.060052325235614434e-01 4.517368271743684716e-01 5.294450322166037726e-01 -2.952639425473621571e-01 5.058797511709671735e-01 6.430573754022914645e-01 5.383847352469103287e-01 7.248669879277664929e-01 9.090177231483768105e-01 7.356212430352760956e-01 -5.775176508834731770e-01 9.940709966588102686e-01 1.740253386099209321e+00 4.745113645559831395e-01 4.638841186495968327e-01 1.066920843170413802e+00 5.329830229845206047e-01 7.249786576626341406e-01 5.119529596261510607e-01 1.776065924499706572e+00 5.162138279757291226e-01 4.695813295894975536e-01 1.234017882148023881e+00 -5.067537653069548870e-02 5.399699134765947317e-01 -1.688703171171328510e-01 -9.306355780711931258e-01 -1.766399386450960840e-01 7.806817507909280529e-01 5.344839171946939027e-01 5.759838427056089838e-01 -3.357634500801658928e-01 5.076224487860448997e-01 1.085084772970180446e-02 -3.435887680709709402e-01 4.585247955907322814e-01 5.083298621149838770e-01 5.153284100541112300e-01 5.692258866578532306e-01 5.644252014627449965e-01 9.001781072454795307e-01 -3.759221102017540339e-01 5.065214284411122536e-01 5.666385668949157628e-01 6.289206604560615421e-01 1.156645229868413338e+00 5.192700514574289938e-01 6.053306751429455845e-01 5.082878227305663854e-01 2.068989075075917949e-02 -2.627152356350894169e-01 5.158147879989909423e-01 5.097046616608056357e-01 6.580834438677040099e-01 4.982017005223035588e-01 3.342917418408593577e-01 5.127894536261666802e-01 5.153909721238137953e-01 3.322039604421628267e-01 5.085994808022588076e-01 8.367948453361448991e-01 2.511500451525648270e+00 -2.345144897514845339e-01 6.684653057186483727e-01 3.421307569212567734e-01 2.242443310331027617e-01 6.870134054716201533e-01 -5.637484401749166818e-02 -1.474680909581235211e+00 5.210320772040650805e-01 2.572085626788298107e+00 5.046760663770306632e-01 1.450463038564134555e-01 1.826166281902335820e-01 5.131317713770071620e-01 5.534077324155891597e-01 1.532238962248432923e+00 4.871905365984132152e-01 1.255576221162481299e-01 4.468584512996923164e-01 1.657116960555237162e+00 5.682158732852776728e-01 7.041957690970555017e-01 5.134498477500157865e-01 7.425694663757395064e-01 4.524521447606327240e-01 5.602692906085988689e-01 9.609841767837187104e-03 5.051864892253660200e-01 5.520433539064064643e-01 -5.609329079950436947e-01 -2.558937685497972986e-02 1.166938553108190613e+00 2.345980683435778258e-01 4.938113465322373496e-01 6.687576862099919861e-01 5.443655295734192157e-01 1.983050807107282543e+00 7.088906699803753098e-01 2.805652413913142101e-02 2.560226392956830299e-01 4.077808739328460663e-01 1.090861855436596528e+00 5.503243743870127602e-01 -1.982193214262375006e-02 4.927692464063280209e-01 -2.478432383292814706e-02 5.223181325422074917e-01 5.052318888428463106e-01 1.054049489091600858e-02 -7.337782814157602085e-02 6.647868909122899295e-01 6.221749548817823161e-01 5.250983258953297872e-01 3.132004027823273584e-01 5.331008207513684427e-01 4.810399568726831943e-01 5.675808185193604860e-01 5.490372546857121838e-01 4.822723308350752025e-01 6.433811826547184420e-01 1.012368558836478583e+00 3.074639387607990493e+00 8.868707886330053913e-01 5.226370890529293822e-01 6.549306947981902161e-01 2.103079734636719711e-01 5.140978755614286078e-01 8.329948601578534007e-01 4.813244490879784454e-01 1.315692331438388818e+00 5.208317793338285151e-01 -5.610041686557378782e-01 -1.051444392525764313e-02 4.190682902024398526e-01 6.104928211297000473e-01 5.455159462906984391e-01 5.036426280377241937e-01 -5.350958094652289755e-03 4.909259312146007082e-01 3.926075485276571131e-01 -3.526657942008428304e+00 4.913244017663840335e-01 5.279653679210952744e-01 1.115697172950860905e+00 5.168339126694232455e-01 5.964335275645512580e-01 6.793733194563245092e-01 -8.562613452385792190e-01 -5.071272884505788614e-01 5.713347841981880615e-02 5.131276470628398645e-01 4.055980013680428597e-01 2.267590490618636712e-01 4.861289838780400441e-01 -3.286807018355967225e-01 6.589488377562964239e-01 5.553766554325364480e-01 6.930675497708539412e-01 5.337157048744065602e-01 4.778308175957492465e-01 1.671629944287714165e-01 -7.251720846878384474e-01 6.479493725599848597e-01 5.248809416251664084e-01 1.673468085137782280e-01 5.104674952370242824e-01 5.870418636925094358e-01 4.937762164773010776e-01 6.684018100212676394e-01 5.653677689417356822e-01 5.357400080541461218e-01 4.973140951386850195e-01 1.740253385986972434e+00 3.733784282489479023e-01 5.523662246429165146e-01 -1.023171401374535217e-01 5.338218729574230048e-01 6.179831230119842145e-01 5.183201648311077658e-01 5.036920862111458064e-01 3.469655998239657424e-01 8.918624339632209574e-01 1.173096315052005068e+00 5.577554234095871699e-01 5.519934815066960265e-01 5.949876648207114149e-01 4.656482862526022393e-01 5.278049133573965435e-01 5.116241405571481105e-01 9.940969010311810905e-01 7.329477825553644132e-01 -4.464656398472196530e-01 4.418710295883231387e-01 9.208363110913602156e-01 4.849154482551270573e-01 1.391512432202712118e-03 5.328799338347318670e-01 1.166818547124008454e+00 -1.381086876936479246e-01 5.306732326139781408e-01 2.539570605083059096e-01 5.438116313971789184e-01 8.041791868377446972e-01 5.054305488693719983e-01 3.660904483110741792e-01 1.387767896521699074e+00 5.245376921502866718e-01 5.199524488261815236e-01 -6.055766568927043458e-01 4.627787716344795577e-01 1.044383272228052606e+00 5.810410944809064615e-01 1.094776678944183457e-01 9.408944235161403880e-01 -6.638189698542852624e-02 5.358729341889780784e-01 1.579105886193286290e+00 -8.476302495788571312e-01 5.309940585770988042e-01 5.085927474909058832e-01 -4.313347624039580719e-01 3.414372386519555769e-01 5.566169398784870381e-01 4.633060133981897200e-01 5.329775320483362000e-01 3.463486251367856039e-01 2.642780939597682011e-01 3.479238359322330831e-01 5.305567403006150595e-01 5.120327107720323845e-01 3.464115535588230266e-03 -5.008589034460768363e-02 5.128522056956877906e-01 1.057508203767011823e+00 3.898691143598801978e-01 -5.607520316072855948e-01 5.537811545110420397e-01 5.150391406609540201e-01 4.724729500377995994e-01 2.355247137526360335e-02 3.439303651239404847e-01 5.091261570108528423e-01 4.967521235359411147e-01 4.561335479185544828e-01 4.845368977250653214e-02 4.419108544048682696e-01 5.024107050269055463e-01 6.630397655426883974e-01 2.060523225802481928e+00 2.847941626981219734e-02 3.808661931929129829e-01 4.707988586470299164e-01 1.804965754525607702e+00 5.227251251669147170e-01 4.997021904124149816e-01 1.406499292021612391e-02 5.356600892528567970e-01 5.148144474890803401e-01 4.693873119052106024e-01 3.820676351664791248e-01 5.217811357007150486e-01 5.804037642472702485e-01 5.361957221332361856e-01 -5.006856438082697425e-01 5.069625217528770378e-01 5.065423883467012889e-01 5.115454906899519205e-01 9.433385208722979698e-01 5.027934226291413955e-01 -2.381617383679663080e-01 1.036998815805998841e+00 -1.211228109673491593e+00 -4.995513344583833448e-01 5.068070595694387226e-01 5.133105138823257363e-01 6.475141615821249363e-01 5.248902141955865686e-01 3.564034420523289337e-01 6.294713802867832886e-01 5.356600903571319128e-01 5.126506114927306124e-01 6.070910104862408119e-01 5.708459170302400132e-01 5.127135351171485667e-01 2.808767103147318256e-01 4.905042028222980632e-01 4.456745842340580355e-01 3.589864760914381892e-01 5.016989767128159361e-01 5.083990949243913926e-01 5.448886645081185698e-01 6.321551637840112647e-01 5.162281264037069661e-01 6.481092310063663042e-01 4.724680235805322481e-01 4.961616890969021143e-01 5.472014043878142830e-01 3.270427329692329743e-01 4.576582766209398856e-01 2.352580152304491801e+00 5.800405609036884957e-01 5.583444410098280519e-01 3.280223439467061519e-01 5.769989756743162390e-01 1.103516577380103669e+00 5.752974148048700664e-01 7.160520554803353477e-01 5.081229893321955737e-01
6.807371725508993832e-01 2.465898208689495663e-01 4.051367506341894131e-01 5.191979098031975631e-02 3.185187151551215345e-01 2.899050024365313338e-01 5.255746696385251715e-01 4.568421684714192854e-01 2.129081218073755610e-01 3.280305540617220461e-01 2.019747051289359607e+00 1.692373907195630522e+00 -1.408101860404049832e+00 6.223966377444242193e-01 3.127666831676176873e-01 3.789977795006412298e-01 1.282132656829298167e-01 4.205165470123420901e-01 4.489083319484173384e-01 3.007839984551887724e-01 4.731361066889701039e-01 2.073423117323351050e+00 4.037825711703482701e-01 3.610026954076836492e-01 7.020464280941079993e-01 -2.672184265511097223e-01 4.704825522134529758e-01 2.639378565701019919e-01 2.856232660528912337e-01 -8.290361344665958532e-01 2.263071957648961630e-01 -9.431411777018584852e-02 2.895365004556270661e-01 2.537478601516878207e-01 -4.295433193128443961e-01 4.164770604130175191e-01 3.083082955816258686e-01 -3.206828070505928219e-01 -3.161148103884834804e+00 2.898730556600876418e-01 1.102286937797053890e+00 1.383374558325547732e-01 -1.626857185308662745e-01 7.913618471283967448e-01 6.595282924060621443e-01 2.764351422309108131e-01 5.175061372760189626e-02 3.006950844001241574e-01 2.802928978742678101e-01 7.202477480769328144e-01 6.968427668268334374e-01 4.476347523069946766e-01 -2.860358641552372960e-01 1.967086278402951915e-01 6.049415688485090259e-01 6.896381715319717109e-01 3.327084546132430543e-01 2.826265787072754776e-01 3.482119897207708314e-01 3.361174402783739246e-01 4.222483009824226641e-01 3.344072236184903457e-01 3.262515069901097409e-01 4.037825868820951181e-01 -3.455512085995529614e-01 2.282927922011614430e-01 3.144733044541337397e-01 3.424598062854966596e-01 2.615666218382632358e-01 7.306869139911807975e-01 1.182869461452037418e-01 3.325088360167550716e-01 2.911333083732857707e-01 7.098412911987728169e-01 1.885965338701199201e+00 5.191886755232393291e-01 4.657074792011066666e-01 4.781945439563309863e-01 3.122932106216688708e-01 -1.312249375929009032e+00 2.795286852232997665e-01 6.483328919724029582e-01 2.239206271163916018e+00 1.337090341412376926e-01 2.861341502347677923e-01 -4.340856301823015073e-01 1.179086539979680298e-01 2.884471957168777689e-01 -5.678458480190157198e-01 -8.593239388709368320e-01 6.590102452991817295e-01 1.538455169858389482e+00 1.106027697096922113e-01 7.087549535553162583e-01 3.009576826354155576e-01 2.956988765456640689e-01 2.780971332473102242e-01 7.192991793228445951e-01 7.390932520868238598e-01 -2.680206109531657610e-01 -1.638727554155512967e-01 5.687409635302285299e-02 2.855003711737987837e-01 2.174189363862064073e-01 2.130454713404800193e-02 3.028707237707222610e+00 -2.758903334241006311e-01 5.502249897453360267e-02 2.174679538643870813e-01 8.060994773713636707e-01 2.277095248350802514e-01 3.851217364236366181e-01 1.721085368571553531e-01 4.831652862659431280e-01 -4.953070965217035160e-01 2.068218661365704980e-01 3.566740168690238910e-01 3.739936333734651397e-01 9.462477949939277488e-01 3.227717573722520550e-01 -1.423278676941795551e+00 2.771851973399711566e-01 2.402996933203533081e-01 1.278604702899886592e+00 2.980384810931310247e-01 2.124705837460806102e+00 1.651827267509941022e-01 3.860614650396493874e-01 2.911155022059512265e-01 3.306491129945248741e-01 2.468235081260174435e-01 3.121787349556509050e-01 6.708846421377866465e-01 3.981763283019908450e-01 1.861071936390177595e-01 8.857524240030193452e-01 6.912360617522589346e-01 7.260771934111553971e-01 -3.268870815240168537e-01 1.964002649255035815e-01 3.111866295353866163e-01 3.212591545105418223e-01 2.216990012942050003e-01 3.326292786915370780e-01 3.192244867557307852e-01 6.972367795844447436e-01 -1.076213326559245925e-01 3.183709509613886768e-01 4.465701852346523060e-01 3.940102071900211111e-01 -2.922884704104725673e-01 1.977255047041670891e-02 2.764376796104818790e-01 2.878089853743943660e-01 3.748862512934240110e-01 3.073185218539983277e-01 -2.207951016050516024e+00 4.421149460353636096e-01 -5.810539190817050059e-01 -2.663405069417071336e-01 3.754534135624598701e-01 1.832033402283084755e-01 3.204604205032250408e-01 3.118080319987277527e-01 1.062167422242733528e-01 5.339504008084324654e-02 3.136258325445474004e-01 3.914244970673875224e-01 2.477318174695261332e-01 3.725302820339519427e-01 1.912656085331074229e-01 5.088935985371221410e-02 2.764643949107717935e-01 3.119928794637249481e-01 -2.452244278293392199e+00 7.205164816446356646e-01 6.405252324836661071e-01 9.854307594280937721e-01 -4.511247754907318774e-01 1.167236906366458937e+00 -2.515814805221017192e-02 3.445073518653888889e-01 1.223711299665196206e+00 2.502136326584826209e-01 3.029302784272366877e-01 2.583825993245844610e-01 2.606183843465509353e-01 2.953502777509410815e-01 -4.517214954318449771e-01 3.767597637177909631e-01 1.926343766536501856e-01 7.991681576038737189e-01 3.069098526816872452e-01 2.156886519910412858e-01 2.190745473117574893e-01 3.236576808742180900e-01 -1.600202729085005382e+00 2.967516075848664059e-01 1.758990970756990069e-01 3.475382639049758304e-01 1.320456652561736721e-01 3.016257350203730980e-01 3.740903919270249234e-01 1.252805569641484151e-01 -8.076693115506413667e-01 1.758990645163555355e-01 4.428993438692383489e-01 -5.000871371120695352e-01 3.233673131652536337e-01 1.518378934641568534e-01 2.693075041502464018e-01 -3.164938128201089107e+00 4.295440444993631202e-01 9.395828984526993777e-01 3.078092128331554878e-01 3.285259346124546065e-01 3.183770437242318119e-01 2.965519271495584697e-01 3.191287941182872623e-01 3.094699561736932170e-01 3.149978969911755300e-01 2.033359917152613161e-01 6.553685088757540411e-01 1.547821267986431437e-01 5.301530566563860125e-01 4.351712958124099861e-01 3.777996750371898638e-01 -6.247099988140525362e-01 2.222046289608210490e+00 3.746905569455421525e-01 1.223999310009621588e+00 -1.373441397853035317e+00 3.128962847223688559e-01 2.003326189179936712e-01 3.456802350132788249e-01 1.136638556980778869e+00 4.659780042748113416e-01 7.856440145649938867e-01 2.768458926815429155e-01 6.705253488425096942e-01 3.481859735509542642e-01 3.200262865166389470e-01 -1.138399953079494376e+00 3.319418559733675611e-01 3.227874267990772372e-01 4.581974228611134792e-01 9.214586781735482068e-01 -3.311722249839564869e-01 3.053046776571982424e+00 4.518672905275656349e-01 1.202127364997596093e+00 -7.167618396108117740e-02 3.222216928690475601e-01 4.037827576765901649e-01 3.011342731234741832e-01 3.027314035950458559e-01 3.413195530856915072e-01 -7.730923897163258229e-02 1.685748610089514432e-01 5.603308938150027840e-01 2.923342450643501844e-01 9.069689901792066244e-02 2.803750458814782687e-01 3.109185282516936377e-01 4.222482764881945183e-01 2.724569388578183537e-01 3.140598027419612581e+00 3.827068801988930957e-01 6.564557876159140548e-01 5.443605650334152335e-01 3.536194396067278700e-01 4.224839123382466699e-01 3.163771349454875814e-01 2.641930435507697239e-01 3.132184582783370530e-01 -4.892408714044785834e-01 4.808356083618487986e-01 2.855437108843930649e-01 1.122773014932413604e-01 2.322321840081913169e-01 1.505750473316866067e+00 2.223795668199314290e-01 2.739745546527845854e-01 1.972828481219887742e+00 4.882507945529336868e-01 3.587424498461566080e-01 2.783062838219667046e-01 3.023339071148306023e-01 2.068218649122308128e-01 -2.036826623449263796e+00 2.866769522830336925e-01 1.452074068265695850e+00 1.912269916209043824e-02 2.167717730007313603e-01 7.169192513748414708e-01 2.484342396149300247e-01 -7.083748487152012885e-01 4.464602013392302005e-01 3.247037006962542049e-01 4.466075142229392059e-01 -3.736619260384335117e-01 2.943756079421893657e-01 -2.085124704992383560e+00 5.127413890175189920e-02 3.354019692761203708e-01 6.079711868453983037e-01 3.059752187866090489e-01 3.200587166448275456e-01 4.383760091029446082e-01 2.281587892744897927e-01 -1.292748318614605485e-01 -7.479343324906712054e-01 7.117763069913552419e-03 6.783961422934351448e-01 2.983639842143779308e-01 4.764086988684074209e-01 3.102848642852765182e-01 5.164932107746062623e-02 3.057854049361993787e-01 2.387140222915477228e+00 6.932153727974359469e-01 2.464418342375170878e-01 -1.123474267621187295e+00 2.222366316098053907e-01 4.543460490981336974e+00 3.125895988033824402e-01 -9.714213184953160440e-02 5.677075346552020729e-01 -5.430922205446180762e+00 4.963220314559191881e-01 1.504773431864267375e+00 3.088441524813129724e-01 5.442986059857521930e-01 -4.288594367126131179e-01 3.445682946104019484e-01 3.004665141261136929e-01 3.503564796916190383e-01 2.584711381669904662e-01 2.843229928718277399e+00 -3.589920625815276600e-01 2.545012911660206600e-01 -1.884233051264373682e+00 2.813891236620271741e-01 -3.206828093957108106e-01 7.365926380104532711e-01 5.580226899935917251e-01 3.634963698798769904e-01 3.489510453733637996e-01 1.289190467876643487e+00 1.337519619724682196e-01 1.758990979210318661e-01 3.319480529518940570e-01 1.252805547894031979e-01 2.423874748043306493e-01 3.992447154092889638e-01 -5.936443509615834113e-01 3.131459979937587512e-01 5.277539398390891368e-01 3.637153754931193306e-01 1.743983207255737911e-01 3.206028155100689170e-01 4.341067044429240962e-01 5.580227073114188974e-01 3.398914441865679148e-01 3.125166766747452529e-01 2.101774150774347871e-01 4.621572386381044284e-01 3.282272198163623145e+00 3.032424112313473752e-01 1.761289867903587658e-01 4.222477517374082501e-01 8.566308752418481109e-01 4.620535925804833410e-01 -1.885135356828952780e-01 6.960804135616844857e-01 2.239709559641892556e-01 1.111303057744197909e-01 3.845964338328758947e-01 6.459195213349400166e-01 6.682946232371964612e-01 7.686269733028278095e-01 8.042296005799591807e-01 3.880919250712591140e-01 1.252805569316607359e-01 1.252806295390350155e-01 3.644270763278640857e-01 1.035315145599269154e-01 1.120039847795542665e+00 4.174414102553668515e-01 3.215780994585210606e-01 3.882387798140136681e-01 3.120143192832042223e-01 7.897600185128598183e-01 1.758994149977738120e-01 3.139253333578662097e-01 4.336708057322798959e-01 3.145834824060284030e-01 -6.279702920848982961e-01 2.934537625750627821e-01 3.049756581858094062e-01 3.520808405048305723e-01 7.056403595689750841e-01 7.484286714791442696e-01 1.252805549020509224e-01 3.155607061588181633e-02 3.127788088375823561e-01 4.060604313493466622e-01 -5.883962364352022245e-01 2.214375697172347168e-01 -3.419452756719191022e+00 1.883770341662174941e+00 6.179217331439200711e-01 -4.318984706545652141e-01 5.193538262746286160e-02 2.014214219367627567e+00 3.229094041872812015e-01 6.274725358471824332e-01 6.739514158447769410e-02 2.735990758302716541e-01 4.646293514064524510e-01 3.282759304038930792e-01 -3.939891960138391380e-01 2.686624524260577407e-01 2.012184691692561422e+00 3.466740237343504671e-01 -3.855963605514658443e-01 2.475278598951752840e-01 3.077429091201600575e-01 -1.434871593867312001e+00 2.737189386098732302e-01 2.824066130373145689e-01 4.025842996756888170e-01 2.362402237497203961e-01 3.131014520214498442e-01 2.435670673695227439e-01 3.247995241275280498e-01 -1.597502934899529548e-01 3.101207379726190205e-01 1.547294770007613396e-01 3.424550203212968769e-01 2.607430922719611854e-01 3.104434670053896408e-02 4.525367592317189325e-01 6.385802042851616012e-01 -1.339830897900440299e+00 -4.641126068728448906e-01 -1.023418710532365411e-01 3.682221789971046322e-02 3.269910977167559407e-01 4.228134878735330116e-01 3.623307959968220526e-01 7.145339828509135183e-01 -9.119207572912901849e-02 3.298845757734431006e-01 2.937431185093830055e-01 9.142944721822836296e-02 -1.600403635362552812e-01 3.372911188261775162e-01 4.270386186146059027e-01 4.783328643337281805e-01 3.025825942979565308e-01 2.920013453098378453e-01 3.218573455256765747e-01 2.626009230720795506e-01 3.183311475137028945e-01 5.168449570601983956e-01 4.284765646248313020e-01 3.124583081359541548e-01 6.968842110559914094e-01 2.908178433105663707e-01 7.077302443294932743e-01 1.207673736969336331e-01 4.707799110714474544e-01 2.124410378490142193e-01 -1.425142002018713994e+00 3.137750666190164961e-01 6.398852128488251578e-01 3.947359850666837255e-01 2.530217570071686128e-01 2.824441939502854160e-01 3.260054660992622311e-01 7.094001916199484947e-01 3.212833784798980186e-01 3.551989368756864329e-01 3.113406133440076440e-01 2.975704682906510357e-01 2.258310863804781909e-01 5.300207950667559231e-01 2.977791154004149621e-01 2.855092746517225999e-01 2.208699838552023176e-01 3.521572297992597161e-02 1.597834393575725542e+00 3.430782457357004489e-01 3.752661976644232622e-01 3.708880288111323642e-01 -8.140162243563041633e-01 4.419677515496781006e-01 3.556392169757092159e-01 5.396452497563497541e-01 1.966416248571433573e-02 3.367334599601237710e-01 1.471808265560349049e+00 8.842241566192599045e-01 3.778266570844156513e-01 2.575776291540123886e-01 3.975957692923383080e-01 3.182647679296455867e-01 9.040553551069404614e-01 2.964661596422611289e+00 3.219926268799584990e-01 6.749021334986282650e-02 5.967145537637132957e-01 -1.541132120530811500e-01 3.183628507947710573e-01 3.080901131297042461e-01 1.047405991116370005e+00 3.425756379871337520e-01 -3.009008207597144158e-01 3.662970056609395897e-01 1.113511901129412007e-01 6.661972919315465314e-01 1.657447512605610074e+00 3.839504822261630146e-01 2.318600979023154318e-01 1.638560398124937034e+00 4.175280909473707003e-01 2.825688099954509758e-01 2.934121229889105620e-01 3.768833259913987321e-01 5.214465019615366348e-02 4.141780345822210774e-01 2.333677535489422639e-01 7.153355490718898979e-01 3.277048491141979492e-01 3.506296404697991642e-01 2.973872750727571401e-01 4.597293451124594421e-01 2.633439897719460632e-01 2.508144137595071932e-01 9.278763205802764702e-01 4.989935786811298679e-01 3.679168776603073954e-01 2.898790286708180508e-01 3.200112613114953208e-01 3.307442988758924063e-01 5.816420694590277440e-01 7.623982026853399763e-01 3.016908940683710738e-01 2.713390026066794247e-01 3.829066487756428994e-01 3.085105736639867646e-01 7.476363805238672722e-01 2.047707203270529852e-01 4.319771377976910909e-01 -3.173120038738919679e-01 3.164802323661163874e-01 2.254146218690190884e-01 4.004708271222237603e-01 3.537118064530013761e-01 2.269047188995567121e-01 1.732060309322961844e+00 1.545458319182028972e-01 2.892440148986826776e-01 -1.362924259024372309e-01 1.584353384415746913e+00 1.133210693537980651e+00 8.515938052902731481e-02 -4.651501276925439354e-01 3.037014330501955905e-01 3.281668569294317606e-01 5.133609180894648238e-01 3.123028002443919426e-01 3.132387556940983142e-01 2.033798935730967428e-01 3.268354557923397463e-01 3.554459200388035423e-01 5.223100110260278650e-02 -1.612988558593680399e-01 3.862806519917973969e-01 3.790411198124668535e-01 1.870848464321260562e-01 8.522297068071903459e-01 4.222482871369319102e-01 2.166094210805333820e-01 8.167466508425972327e-01 4.763551238710876934e-01 6.593091057204755190e-01 4.208758821175108689e-01 6.831837289915162481e-01 1.453747966577538353e+00 3.073977807286355501e-01 2.020767661364390566e+00 -1.050310430050740290e-02 1.304170961947659080e-01 3.181986136357265460e-01 2.869149403891060324e-01 3.091766140819132147e-01 3.725478049577828354e-01 3.275835185997363341e-01 3.175026615561341026e-01 3.507053570499133466e-01 1.807411935169160877e-01 -2.690846497955660110e-01 3.099439349879475891e-01 -7.728456728584567892e-02 2.529417687719769381e-01 4.466742667662430555e-01 4.222482870830454038e-01 1.945945675915514428e-01 2.581508311291629276e-01 -1.170039734245183372e+00 1.913984302351652733e+00 3.140170257966621858e-01 -6.811018316890522506e-01 2.981773864820671527e-01 3.166236152113049429e-01 3.099730297957209446e-01 -4.637601612169570231e+00 3.445818081007747224e+00 6.161175855222764675e-01 1.221377174997121534e-01 3.424967436770489648e-01 3.143700148754536849e-01 3.364479589369405721e-01 2.551124261305521390e+00 6.116806791746788319e-01 3.209197217710012540e-01 2.068218514322039958e-01 2.350675945407648959e-01 2.919583695854340299e-01 8.772961368927865156e-01 -3.798127178313346342e-01 -1.123159959730524182e+00 -1.174383701205185426e+00 3.211570806966611014e-01 3.175730974133190165e-01 6.988868240309763502e-01 3.248669654933140638e-01 1.237124859472867433e+00 4.575582841586096072e-01 3.076551635371475024e-01 3.030995503907737976e-01 2.918880731348708069e-01 2.657282044718952685e-01 2.539661912264095101e-01 6.536122157859109993e-01 2.864940579170712209e-01 6.306982252545852985e-01 2.126476458449470253e-01 1.685547642576526450e-02 2.540592379656354538e-01 2.226541833426915196e-01 3.247674302992051287e-01 3.654040210367254793e-01 7.157209035001634856e-01 5.580227017754914032e-01 4.907550545980980394e-01 3.951710812333323886e-01 3.209027548447088707e-01 2.514905335954754628e-01 1.471831225137463450e+00 1.804616241002009458e+00 2.529465415928522920e-01 3.277472323058712722e-01 3.086006754719223810e-01 1.872911035317030570e-01 2.412038625676574677e-01 1.860763542004918447e-01 3.463499958152373992e-01 3.192826528410250830e-01 7.845432026796416158e-01 8.589162233329090679e-01 2.622742760063531131e-01 1.822571253450185891e+00 1.678700342157325165e-01 -1.303229440275177065e-01 -2.695180617829849301e-01 -3.265526684857501527e-01 3.175695648769200075e-01 2.854533366517351678e-01 7.033340305746647037e-01 3.132478904895380500e-01 4.461871533012261581e-01 2.980783940534856291e-01 3.798807926723933304e-01 4.062419619372575341e-01 6.345184123616534611e-02 1.023216640089808394e+00 3.063431276494508193e-01 5.013365714837900722e-01 3.194143117195389348e-01 3.629812661151264885e-01 3.022789114758722695e-01 3.851255061708548366e-01 -1.253091625069993331e-01 2.237626012486760851e-01 2.996638311463779569e-01 5.153321806547036393e-02 4.222483066687506281e-01 1.123112502561993020e+00 9.373992893770517476e-01 -7.408717076713987604e-01 -3.206828070501696049e-01 6.349408441602790720e-01 -3.228493224892007074e+00 1.547766826362911630e+00 2.903757211365337598e-01 5.180217566097182480e-02 3.199457409488810078e-01 8.626815974339258064e-01 3.117256073244413783e-01 3.319424653401849001e-01 -4.349986836045355854e-01 8.297717503213218881e-01 2.689590319261484508e-01 8.897170535265366276e-01 2.046390625954778830e+00 -3.798794758574444153e-01 -1.418029270016352594e+00 2.976985033692197691e-01 2.346351586860165872e-01 7.835813794308084113e-01 3.089850173294167446e-01 6.975647982732027241e-01 4.689314342089997423e-01 1.308451592114924789e-01 3.130327871918578975e-01 3.488026219954051821e-01 2.215899534333217180e-01 3.692134272531000239e-01 1.364806518767880172e+00 1.569609402218028027e+00 3.130513966739131293e-01 2.571550523495019225e-01 9.559371540941778017e-03 -2.316738045958914582e-01 1.954081164867602916e-01 2.891460561752275810e-02 3.118852208042833807e-01 7.018983074803473166e-01 -3.951326258850236806e-01 3.098675507511173266e-01 3.386723302801873947e-01 1.617479767448788130e-01 3.233889046994647964e-01 2.880236216132961435e-01 3.094126625123670427e-01 3.136473044379798347e-01 -3.727394527831173754e-02 2.408372046889985796e-01 4.431095250490553750e-01 1.095861717116817013e+00 1.094016918183307263e+00 9.417253069117624831e-01 1.972500791244446994e-01 7.611638948827924578e-01 1.170107938764379379e-01 4.473164385828679590e-01 -2.031595798029698585e+00 2.933202508910423556e-01 6.480078630047593213e-01 2.834454128375654136e-01 9.590231158848211424e-01 1.348463534056076663e+00 2.068218652431675075e-01 3.052790161574386318e-01 3.713805628890881616e-01 1.990208603326799885e-01 5.583097434095217748e-01 7.771141613614691579e-01 -7.334826520572961250e-01 1.414238391981229581e-01 1.455136823423612003e-01 3.107137414748826765e-01 3.442420100050433418e-01 7.672023850784628340e-01 -1.349495698080369621e-01 3.836520999506304319e-01 3.214174059776301329e-01 2.541657463892019742e-01 8.846041420587746895e-01 4.197437583204447487e-01 -2.008310537759382675e-01 8.592313479784829955e-01 -4.191200494782391234e-02 5.718386334673917215e-01 2.857782645368156516e-01 1.267941630386148821e+00 5.298187869031799613e-01 7.141081731705637425e-01 4.335878627897112314e-01 4.741408581975302683e-01 -4.998924678931801480e-01 2.971187595644546042e-01 7.625928009355252835e-01 2.917438253880123011e-01 6.508182223270625455e-01 3.498013610029777620e-01 3.203186733073851156e-01 7.329052252002445922e-01 1.166840484126393657e-01 -2.004320725281051097e+00 3.187137561761836935e-01 2.799214830247586105e-01 7.076843833291748265e-01 3.795357933787796845e-01 3.850161956655754336e-01 2.421884366463333549e-01 2.384410077324164989e-01 3.577077787916586038e-01 1.671055969410080444e-02 -1.601384521528728566e+00 7.394329114267915726e-01 2.691938601254350583e-01 2.981503208093467805e-01 1.843122374052575951e-01 8.240885481654391942e-01 3.084525451289588105e-01 -1.233776325111280159e-01 3.097376184978837266e-01 1.111775871784015157e+00 3.249688775561842546e-01 4.141888473873656107e-01 1.067827110031540405e+00 3.005803170794199564e-01 2.681760585388433427e+00 2.695245460944109550e-01 3.281044400670500294e-01 6.906089053517786569e-01 3.226014068144057445e-01 2.806118886288824776e-01 -1.989189546516626050e+00 3.586186251679919224e-01 2.898140359694335033e-01 5.106633986839507200e-01 2.959601110767235976e-01 3.510683034725605167e-01 -2.621760608155258576e-01 2.005134572747942379e+00 -5.205327792202374404e-01 8.264488527879862989e-01 3.120235972705785454e-01 4.000256283053113537e-01 7.404559362580913628e-01 3.434990506743796912e-01 1.308486401293428081e+00 1.513113645496594883e-01 2.921557443729358439e-01 -8.751367867933859124e-01 -1.250395568899715926e-01 -2.183551004884254354e-01 -3.770769194877969799e+00 2.872357189885987427e+00 8.870871935664727259e-02 2.858147989542618173e-01 -1.566831582595089589e+00 3.074974418755035965e-01 1.737431184119088978e-01 3.431805191709084712e-01 1.297660670517601922e-01 6.365877119072362866e-01 5.894761368895539144e-01 9.645205745678855358e-01 -3.206828070435099876e-01 -2.085447917856139144e-01 2.086806487881377181e-01 -1.167323891158380311e+00 2.815946029319124078e-01 -6.239357108471402791e-01 3.513370291531684453e-01 4.854249694506829749e-01 3.552491672537127360e-02 4.094609211264031989e-01 2.751604040558892628e-01 -1.170840739497340799e-01 2.062772454256730781e-01 3.069968861116422754e-01 3.436260917241622526e-01 3.106148209723794684e-01 3.142422242707800795e-01 -7.407206146040096195e-01 5.867151782251246450e-01 1.521524950983587310e+00 5.188974030132391391e-02 2.431372150261656151e-01 4.132263023487368070e-01 1.215937741214904833e+00 2.825544983774554986e-01 1.711643798657914717e-01 8.980473981071266376e-01 3.370459628259857565e-01 1.817463231320451511e+00 4.035150591905894979e-01 1.154254771647012623e+00 3.212357651467848685e-01 7.368250506602050942e-01 1.338028851696716481e+00 3.037880804403844115e-01 3.968839637023742761e-01 8.980308704892872029e-01 -1.827146893298430830e-01 -4.569280513535764476e-02 1.404607410253576605e-01 2.941329916320868931e-01 3.415210483445599299e-01 1.409020542697283496e-01 2.672167381641530892e-01 -3.410429258848112211e-01 1.292401114698006559e+00 2.693087893839813951e-01 3.164880851435898923e-01 -3.060658804074436468e+00 4.667365560440916439e-01 3.920171133659178242e-01 4.731521928340039485e-01 4.374920305152360522e-01 5.085967537490796442e-01 -1.022023175914751114e+00 5.833939915599960502e-01 2.706049061382433951e-01 3.082376319182225100e-01 1.048473948486418283e+00 4.400672307627930824e-01 3.173930565997644671e-01 -1.374025976489371415e+00 4.667571514832801749e-01 8.846701441886072326e-01 2.939297030829817747e-01 3.083610156541570224e-01 2.892962715729753276e-01 6.934775151555978567e-01 -8.919042898065580871e-02 3.169143607513990046e-01 3.409055496268142416e-01 6.519693097330647724e-02 7.193205187738586082e-01 3.596979720615158804e-01 7.450240380663614159e-01 1.803051547068234561e-01 6.829954650632439339e-01 -1.996789690862903477e-01 -1.497952683420374242e+00 3.461134303857615335e-01 -1.355785766169005126e-02 2.961690651984725808e-01 2.889859925078988589e-01 5.716759380504515126e-02 5.580227009535067006e-01 3.107365213026739292e-01 8.912766525739970747e-02 4.582754478343850635e-01 3.350023005534089049e-01 2.897915712964133084e-01 2.721668308737079656e-01 -7.937087656018156911e-01 3.276887809956014475e-01 3.243086848196826133e-01 3.449137990528310382e-01 -5.508947903215279801e-02 3.187986064047745316e-01 7.856056727608687895e-01 -4.679361319777937678e-01 1.079883035961012094e+00 5.980522009220812230e-01 3.451597346538630151e-01 3.098945954004022063e-01 -2.008041146997744608e+00 2.924640579496107784e-01 1.775894646571726521e-01 2.219960814285907302e-01 5.580227053236506141e-01 3.094820324241761011e-01 2.619642629094285913e-01 1.363003463692088191e-01 3.157908055939324110e-01 4.348533055998373698e-01 4.268151953471617799e-01 4.004168496565070345e-01 3.066099207363360279e-01 3.125543565264670143e-01 3.233410039846296713e-01 2.888977585733480957e-01 7.698052687574053615e-04 3.114553488439270046e-01 5.743520907731093361e-01 2.351873851053057907e-01 2.877646593142334508e-01 -1.148172569250113795e-01 1.169548300132750990e-01 4.632461549675734869e-01 4.293109238551265250e+00 2.540965652138293951e-01 1.516434945302477799e-01 5.040243066490806001e-01 2.287410285683163513e-01 1.522105288885979402e+00 3.000940179586225609e-01 6.654024564878255887e-01 3.087329621070859509e-01
