# 
#                 ----------------------------------------------------
#                 Data from a 3D direct N-body simulation. 
# 
#                 rows are i-particle; 
#                 coumns are :mass, tag, x ,y, z, vx, vy, vz, ax, ay, az
# 
#                 NTHU, Computational Physics 
# 
#                 ----------------------------------------------------
#                 Time = 0.0
0.000000000000000000e+00 1.000000000000000000e+00 2.000000000000000000e+00 3.000000000000000000e+00 4.000000000000000000e+00 5.000000000000000000e+00 6.000000000000000000e+00 7.000000000000000000e+00 8.000000000000000000e+00 9.000000000000000000e+00 1.000000000000000000e+01 1.100000000000000000e+01 1.200000000000000000e+01 1.300000000000000000e+01 1.400000000000000000e+01 1.500000000000000000e+01 1.600000000000000000e+01 1.700000000000000000e+01 1.800000000000000000e+01 1.900000000000000000e+01 2.000000000000000000e+01 2.100000000000000000e+01 2.200000000000000000e+01 2.300000000000000000e+01 2.400000000000000000e+01 2.500000000000000000e+01 2.600000000000000000e+01 2.700000000000000000e+01 2.800000000000000000e+01 2.900000000000000000e+01 3.000000000000000000e+01 3.100000000000000000e+01 3.200000000000000000e+01 3.300000000000000000e+01 3.400000000000000000e+01 3.500000000000000000e+01 3.600000000000000000e+01 3.700000000000000000e+01 3.800000000000000000e+01 3.900000000000000000e+01 4.000000000000000000e+01 4.100000000000000000e+01 4.200000000000000000e+01 4.300000000000000000e+01 4.400000000000000000e+01 4.500000000000000000e+01 4.600000000000000000e+01 4.700000000000000000e+01 4.800000000000000000e+01 4.900000000000000000e+01 5.000000000000000000e+01 5.100000000000000000e+01 5.200000000000000000e+01 5.300000000000000000e+01 5.400000000000000000e+01 5.500000000000000000e+01 5.600000000000000000e+01 5.700000000000000000e+01 5.800000000000000000e+01 5.900000000000000000e+01 6.000000000000000000e+01 6.100000000000000000e+01 6.200000000000000000e+01 6.300000000000000000e+01 6.400000000000000000e+01 6.500000000000000000e+01 6.600000000000000000e+01 6.700000000000000000e+01 6.800000000000000000e+01 6.900000000000000000e+01 7.000000000000000000e+01 7.100000000000000000e+01 7.200000000000000000e+01 7.300000000000000000e+01 7.400000000000000000e+01 7.500000000000000000e+01 7.600000000000000000e+01 7.700000000000000000e+01 7.800000000000000000e+01 7.900000000000000000e+01 8.000000000000000000e+01 8.100000000000000000e+01 8.200000000000000000e+01 8.300000000000000000e+01 8.400000000000000000e+01 8.500000000000000000e+01 8.600000000000000000e+01 8.700000000000000000e+01 8.800000000000000000e+01 8.900000000000000000e+01 9.000000000000000000e+01 9.100000000000000000e+01 9.200000000000000000e+01 9.300000000000000000e+01 9.400000000000000000e+01 9.500000000000000000e+01 9.600000000000000000e+01 9.700000000000000000e+01 9.800000000000000000e+01 9.900000000000000000e+01 1.000000000000000000e+02 1.010000000000000000e+02 1.020000000000000000e+02 1.030000000000000000e+02 1.040000000000000000e+02 1.050000000000000000e+02 1.060000000000000000e+02 1.070000000000000000e+02 1.080000000000000000e+02 1.090000000000000000e+02 1.100000000000000000e+02 1.110000000000000000e+02 1.120000000000000000e+02 1.130000000000000000e+02 1.140000000000000000e+02 1.150000000000000000e+02 1.160000000000000000e+02 1.170000000000000000e+02 1.180000000000000000e+02 1.190000000000000000e+02 1.200000000000000000e+02 1.210000000000000000e+02 1.220000000000000000e+02 1.230000000000000000e+02 1.240000000000000000e+02 1.250000000000000000e+02 1.260000000000000000e+02 1.270000000000000000e+02 1.280000000000000000e+02 1.290000000000000000e+02 1.300000000000000000e+02 1.310000000000000000e+02 1.320000000000000000e+02 1.330000000000000000e+02 1.340000000000000000e+02 1.350000000000000000e+02 1.360000000000000000e+02 1.370000000000000000e+02 1.380000000000000000e+02 1.390000000000000000e+02 1.400000000000000000e+02 1.410000000000000000e+02 1.420000000000000000e+02 1.430000000000000000e+02 1.440000000000000000e+02 1.450000000000000000e+02 1.460000000000000000e+02 1.470000000000000000e+02 1.480000000000000000e+02 1.490000000000000000e+02 1.500000000000000000e+02 1.510000000000000000e+02 1.520000000000000000e+02 1.530000000000000000e+02 1.540000000000000000e+02 1.550000000000000000e+02 1.560000000000000000e+02 1.570000000000000000e+02 1.580000000000000000e+02 1.590000000000000000e+02 1.600000000000000000e+02 1.610000000000000000e+02 1.620000000000000000e+02 1.630000000000000000e+02 1.640000000000000000e+02 1.650000000000000000e+02 1.660000000000000000e+02 1.670000000000000000e+02 1.680000000000000000e+02 1.690000000000000000e+02 1.700000000000000000e+02 1.710000000000000000e+02 1.720000000000000000e+02 1.730000000000000000e+02 1.740000000000000000e+02 1.750000000000000000e+02 1.760000000000000000e+02 1.770000000000000000e+02 1.780000000000000000e+02 1.790000000000000000e+02 1.800000000000000000e+02 1.810000000000000000e+02 1.820000000000000000e+02 1.830000000000000000e+02 1.840000000000000000e+02 1.850000000000000000e+02 1.860000000000000000e+02 1.870000000000000000e+02 1.880000000000000000e+02 1.890000000000000000e+02 1.900000000000000000e+02 1.910000000000000000e+02 1.920000000000000000e+02 1.930000000000000000e+02 1.940000000000000000e+02 1.950000000000000000e+02 1.960000000000000000e+02 1.970000000000000000e+02 1.980000000000000000e+02 1.990000000000000000e+02 2.000000000000000000e+02 2.010000000000000000e+02 2.020000000000000000e+02 2.030000000000000000e+02 2.040000000000000000e+02 2.050000000000000000e+02 2.060000000000000000e+02 2.070000000000000000e+02 2.080000000000000000e+02 2.090000000000000000e+02 2.100000000000000000e+02 2.110000000000000000e+02 2.120000000000000000e+02 2.130000000000000000e+02 2.140000000000000000e+02 2.150000000000000000e+02 2.160000000000000000e+02 2.170000000000000000e+02 2.180000000000000000e+02 2.190000000000000000e+02 2.200000000000000000e+02 2.210000000000000000e+02 2.220000000000000000e+02 2.230000000000000000e+02 2.240000000000000000e+02 2.250000000000000000e+02 2.260000000000000000e+02 2.270000000000000000e+02 2.280000000000000000e+02 2.290000000000000000e+02 2.300000000000000000e+02 2.310000000000000000e+02 2.320000000000000000e+02 2.330000000000000000e+02 2.340000000000000000e+02 2.350000000000000000e+02 2.360000000000000000e+02 2.370000000000000000e+02 2.380000000000000000e+02 2.390000000000000000e+02 2.400000000000000000e+02 2.410000000000000000e+02 2.420000000000000000e+02 2.430000000000000000e+02 2.440000000000000000e+02 2.450000000000000000e+02 2.460000000000000000e+02 2.470000000000000000e+02 2.480000000000000000e+02 2.490000000000000000e+02 2.500000000000000000e+02 2.510000000000000000e+02 2.520000000000000000e+02 2.530000000000000000e+02 2.540000000000000000e+02 2.550000000000000000e+02 2.560000000000000000e+02 2.570000000000000000e+02 2.580000000000000000e+02 2.590000000000000000e+02 2.600000000000000000e+02 2.610000000000000000e+02 2.620000000000000000e+02 2.630000000000000000e+02 2.640000000000000000e+02 2.650000000000000000e+02 2.660000000000000000e+02 2.670000000000000000e+02 2.680000000000000000e+02 2.690000000000000000e+02 2.700000000000000000e+02 2.710000000000000000e+02 2.720000000000000000e+02 2.730000000000000000e+02 2.740000000000000000e+02 2.750000000000000000e+02 2.760000000000000000e+02 2.770000000000000000e+02 2.780000000000000000e+02 2.790000000000000000e+02 2.800000000000000000e+02 2.810000000000000000e+02 2.820000000000000000e+02 2.830000000000000000e+02 2.840000000000000000e+02 2.850000000000000000e+02 2.860000000000000000e+02 2.870000000000000000e+02 2.880000000000000000e+02 2.890000000000000000e+02 2.900000000000000000e+02 2.910000000000000000e+02 2.920000000000000000e+02 2.930000000000000000e+02 2.940000000000000000e+02 2.950000000000000000e+02 2.960000000000000000e+02 2.970000000000000000e+02 2.980000000000000000e+02 2.990000000000000000e+02 3.000000000000000000e+02 3.010000000000000000e+02 3.020000000000000000e+02 3.030000000000000000e+02 3.040000000000000000e+02 3.050000000000000000e+02 3.060000000000000000e+02 3.070000000000000000e+02 3.080000000000000000e+02 3.090000000000000000e+02 3.100000000000000000e+02 3.110000000000000000e+02 3.120000000000000000e+02 3.130000000000000000e+02 3.140000000000000000e+02 3.150000000000000000e+02 3.160000000000000000e+02 3.170000000000000000e+02 3.180000000000000000e+02 3.190000000000000000e+02 3.200000000000000000e+02 3.210000000000000000e+02 3.220000000000000000e+02 3.230000000000000000e+02 3.240000000000000000e+02 3.250000000000000000e+02 3.260000000000000000e+02 3.270000000000000000e+02 3.280000000000000000e+02 3.290000000000000000e+02 3.300000000000000000e+02 3.310000000000000000e+02 3.320000000000000000e+02 3.330000000000000000e+02 3.340000000000000000e+02 3.350000000000000000e+02 3.360000000000000000e+02 3.370000000000000000e+02 3.380000000000000000e+02 3.390000000000000000e+02 3.400000000000000000e+02 3.410000000000000000e+02 3.420000000000000000e+02 3.430000000000000000e+02 3.440000000000000000e+02 3.450000000000000000e+02 3.460000000000000000e+02 3.470000000000000000e+02 3.480000000000000000e+02 3.490000000000000000e+02 3.500000000000000000e+02 3.510000000000000000e+02 3.520000000000000000e+02 3.530000000000000000e+02 3.540000000000000000e+02 3.550000000000000000e+02 3.560000000000000000e+02 3.570000000000000000e+02 3.580000000000000000e+02 3.590000000000000000e+02 3.600000000000000000e+02 3.610000000000000000e+02 3.620000000000000000e+02 3.630000000000000000e+02 3.640000000000000000e+02 3.650000000000000000e+02 3.660000000000000000e+02 3.670000000000000000e+02 3.680000000000000000e+02 3.690000000000000000e+02 3.700000000000000000e+02 3.710000000000000000e+02 3.720000000000000000e+02 3.730000000000000000e+02 3.740000000000000000e+02 3.750000000000000000e+02 3.760000000000000000e+02 3.770000000000000000e+02 3.780000000000000000e+02 3.790000000000000000e+02 3.800000000000000000e+02 3.810000000000000000e+02 3.820000000000000000e+02 3.830000000000000000e+02 3.840000000000000000e+02 3.850000000000000000e+02 3.860000000000000000e+02 3.870000000000000000e+02 3.880000000000000000e+02 3.890000000000000000e+02 3.900000000000000000e+02 3.910000000000000000e+02 3.920000000000000000e+02 3.930000000000000000e+02 3.940000000000000000e+02 3.950000000000000000e+02 3.960000000000000000e+02 3.970000000000000000e+02 3.980000000000000000e+02 3.990000000000000000e+02 4.000000000000000000e+02 4.010000000000000000e+02 4.020000000000000000e+02 4.030000000000000000e+02 4.040000000000000000e+02 4.050000000000000000e+02 4.060000000000000000e+02 4.070000000000000000e+02 4.080000000000000000e+02 4.090000000000000000e+02 4.100000000000000000e+02 4.110000000000000000e+02 4.120000000000000000e+02 4.130000000000000000e+02 4.140000000000000000e+02 4.150000000000000000e+02 4.160000000000000000e+02 4.170000000000000000e+02 4.180000000000000000e+02 4.190000000000000000e+02 4.200000000000000000e+02 4.210000000000000000e+02 4.220000000000000000e+02 4.230000000000000000e+02 4.240000000000000000e+02 4.250000000000000000e+02 4.260000000000000000e+02 4.270000000000000000e+02 4.280000000000000000e+02 4.290000000000000000e+02 4.300000000000000000e+02 4.310000000000000000e+02 4.320000000000000000e+02 4.330000000000000000e+02 4.340000000000000000e+02 4.350000000000000000e+02 4.360000000000000000e+02 4.370000000000000000e+02 4.380000000000000000e+02 4.390000000000000000e+02 4.400000000000000000e+02 4.410000000000000000e+02 4.420000000000000000e+02 4.430000000000000000e+02 4.440000000000000000e+02 4.450000000000000000e+02 4.460000000000000000e+02 4.470000000000000000e+02 4.480000000000000000e+02 4.490000000000000000e+02 4.500000000000000000e+02 4.510000000000000000e+02 4.520000000000000000e+02 4.530000000000000000e+02 4.540000000000000000e+02 4.550000000000000000e+02 4.560000000000000000e+02 4.570000000000000000e+02 4.580000000000000000e+02 4.590000000000000000e+02 4.600000000000000000e+02 4.610000000000000000e+02 4.620000000000000000e+02 4.630000000000000000e+02 4.640000000000000000e+02 4.650000000000000000e+02 4.660000000000000000e+02 4.670000000000000000e+02 4.680000000000000000e+02 4.690000000000000000e+02 4.700000000000000000e+02 4.710000000000000000e+02 4.720000000000000000e+02 4.730000000000000000e+02 4.740000000000000000e+02 4.750000000000000000e+02 4.760000000000000000e+02 4.770000000000000000e+02 4.780000000000000000e+02 4.790000000000000000e+02 4.800000000000000000e+02 4.810000000000000000e+02 4.820000000000000000e+02 4.830000000000000000e+02 4.840000000000000000e+02 4.850000000000000000e+02 4.860000000000000000e+02 4.870000000000000000e+02 4.880000000000000000e+02 4.890000000000000000e+02 4.900000000000000000e+02 4.910000000000000000e+02 4.920000000000000000e+02 4.930000000000000000e+02 4.940000000000000000e+02 4.950000000000000000e+02 4.960000000000000000e+02 4.970000000000000000e+02 4.980000000000000000e+02 4.990000000000000000e+02 5.000000000000000000e+02 5.010000000000000000e+02 5.020000000000000000e+02 5.030000000000000000e+02 5.040000000000000000e+02 5.050000000000000000e+02 5.060000000000000000e+02 5.070000000000000000e+02 5.080000000000000000e+02 5.090000000000000000e+02 5.100000000000000000e+02 5.110000000000000000e+02 5.120000000000000000e+02 5.130000000000000000e+02 5.140000000000000000e+02 5.150000000000000000e+02 5.160000000000000000e+02 5.170000000000000000e+02 5.180000000000000000e+02 5.190000000000000000e+02 5.200000000000000000e+02 5.210000000000000000e+02 5.220000000000000000e+02 5.230000000000000000e+02 5.240000000000000000e+02 5.250000000000000000e+02 5.260000000000000000e+02 5.270000000000000000e+02 5.280000000000000000e+02 5.290000000000000000e+02 5.300000000000000000e+02 5.310000000000000000e+02 5.320000000000000000e+02 5.330000000000000000e+02 5.340000000000000000e+02 5.350000000000000000e+02 5.360000000000000000e+02 5.370000000000000000e+02 5.380000000000000000e+02 5.390000000000000000e+02 5.400000000000000000e+02 5.410000000000000000e+02 5.420000000000000000e+02 5.430000000000000000e+02 5.440000000000000000e+02 5.450000000000000000e+02 5.460000000000000000e+02 5.470000000000000000e+02 5.480000000000000000e+02 5.490000000000000000e+02 5.500000000000000000e+02 5.510000000000000000e+02 5.520000000000000000e+02 5.530000000000000000e+02 5.540000000000000000e+02 5.550000000000000000e+02 5.560000000000000000e+02 5.570000000000000000e+02 5.580000000000000000e+02 5.590000000000000000e+02 5.600000000000000000e+02 5.610000000000000000e+02 5.620000000000000000e+02 5.630000000000000000e+02 5.640000000000000000e+02 5.650000000000000000e+02 5.660000000000000000e+02 5.670000000000000000e+02 5.680000000000000000e+02 5.690000000000000000e+02 5.700000000000000000e+02 5.710000000000000000e+02 5.720000000000000000e+02 5.730000000000000000e+02 5.740000000000000000e+02 5.750000000000000000e+02 5.760000000000000000e+02 5.770000000000000000e+02 5.780000000000000000e+02 5.790000000000000000e+02 5.800000000000000000e+02 5.810000000000000000e+02 5.820000000000000000e+02 5.830000000000000000e+02 5.840000000000000000e+02 5.850000000000000000e+02 5.860000000000000000e+02 5.870000000000000000e+02 5.880000000000000000e+02 5.890000000000000000e+02 5.900000000000000000e+02 5.910000000000000000e+02 5.920000000000000000e+02 5.930000000000000000e+02 5.940000000000000000e+02 5.950000000000000000e+02 5.960000000000000000e+02 5.970000000000000000e+02 5.980000000000000000e+02 5.990000000000000000e+02 6.000000000000000000e+02 6.010000000000000000e+02 6.020000000000000000e+02 6.030000000000000000e+02 6.040000000000000000e+02 6.050000000000000000e+02 6.060000000000000000e+02 6.070000000000000000e+02 6.080000000000000000e+02 6.090000000000000000e+02 6.100000000000000000e+02 6.110000000000000000e+02 6.120000000000000000e+02 6.130000000000000000e+02 6.140000000000000000e+02 6.150000000000000000e+02 6.160000000000000000e+02 6.170000000000000000e+02 6.180000000000000000e+02 6.190000000000000000e+02 6.200000000000000000e+02 6.210000000000000000e+02 6.220000000000000000e+02 6.230000000000000000e+02 6.240000000000000000e+02 6.250000000000000000e+02 6.260000000000000000e+02 6.270000000000000000e+02 6.280000000000000000e+02 6.290000000000000000e+02 6.300000000000000000e+02 6.310000000000000000e+02 6.320000000000000000e+02 6.330000000000000000e+02 6.340000000000000000e+02 6.350000000000000000e+02 6.360000000000000000e+02 6.370000000000000000e+02 6.380000000000000000e+02 6.390000000000000000e+02 6.400000000000000000e+02 6.410000000000000000e+02 6.420000000000000000e+02 6.430000000000000000e+02 6.440000000000000000e+02 6.450000000000000000e+02 6.460000000000000000e+02 6.470000000000000000e+02 6.480000000000000000e+02 6.490000000000000000e+02 6.500000000000000000e+02 6.510000000000000000e+02 6.520000000000000000e+02 6.530000000000000000e+02 6.540000000000000000e+02 6.550000000000000000e+02 6.560000000000000000e+02 6.570000000000000000e+02 6.580000000000000000e+02 6.590000000000000000e+02 6.600000000000000000e+02 6.610000000000000000e+02 6.620000000000000000e+02 6.630000000000000000e+02 6.640000000000000000e+02 6.650000000000000000e+02 6.660000000000000000e+02 6.670000000000000000e+02 6.680000000000000000e+02 6.690000000000000000e+02 6.700000000000000000e+02 6.710000000000000000e+02 6.720000000000000000e+02 6.730000000000000000e+02 6.740000000000000000e+02 6.750000000000000000e+02 6.760000000000000000e+02 6.770000000000000000e+02 6.780000000000000000e+02 6.790000000000000000e+02 6.800000000000000000e+02 6.810000000000000000e+02 6.820000000000000000e+02 6.830000000000000000e+02 6.840000000000000000e+02 6.850000000000000000e+02 6.860000000000000000e+02 6.870000000000000000e+02 6.880000000000000000e+02 6.890000000000000000e+02 6.900000000000000000e+02 6.910000000000000000e+02 6.920000000000000000e+02 6.930000000000000000e+02 6.940000000000000000e+02 6.950000000000000000e+02 6.960000000000000000e+02 6.970000000000000000e+02 6.980000000000000000e+02 6.990000000000000000e+02 7.000000000000000000e+02 7.010000000000000000e+02 7.020000000000000000e+02 7.030000000000000000e+02 7.040000000000000000e+02 7.050000000000000000e+02 7.060000000000000000e+02 7.070000000000000000e+02 7.080000000000000000e+02 7.090000000000000000e+02 7.100000000000000000e+02 7.110000000000000000e+02 7.120000000000000000e+02 7.130000000000000000e+02 7.140000000000000000e+02 7.150000000000000000e+02 7.160000000000000000e+02 7.170000000000000000e+02 7.180000000000000000e+02 7.190000000000000000e+02 7.200000000000000000e+02 7.210000000000000000e+02 7.220000000000000000e+02 7.230000000000000000e+02 7.240000000000000000e+02 7.250000000000000000e+02 7.260000000000000000e+02 7.270000000000000000e+02 7.280000000000000000e+02 7.290000000000000000e+02 7.300000000000000000e+02 7.310000000000000000e+02 7.320000000000000000e+02 7.330000000000000000e+02 7.340000000000000000e+02 7.350000000000000000e+02 7.360000000000000000e+02 7.370000000000000000e+02 7.380000000000000000e+02 7.390000000000000000e+02 7.400000000000000000e+02 7.410000000000000000e+02 7.420000000000000000e+02 7.430000000000000000e+02 7.440000000000000000e+02 7.450000000000000000e+02 7.460000000000000000e+02 7.470000000000000000e+02 7.480000000000000000e+02 7.490000000000000000e+02 7.500000000000000000e+02 7.510000000000000000e+02 7.520000000000000000e+02 7.530000000000000000e+02 7.540000000000000000e+02 7.550000000000000000e+02 7.560000000000000000e+02 7.570000000000000000e+02 7.580000000000000000e+02 7.590000000000000000e+02 7.600000000000000000e+02 7.610000000000000000e+02 7.620000000000000000e+02 7.630000000000000000e+02 7.640000000000000000e+02 7.650000000000000000e+02 7.660000000000000000e+02 7.670000000000000000e+02 7.680000000000000000e+02 7.690000000000000000e+02 7.700000000000000000e+02 7.710000000000000000e+02 7.720000000000000000e+02 7.730000000000000000e+02 7.740000000000000000e+02 7.750000000000000000e+02 7.760000000000000000e+02 7.770000000000000000e+02 7.780000000000000000e+02 7.790000000000000000e+02 7.800000000000000000e+02 7.810000000000000000e+02 7.820000000000000000e+02 7.830000000000000000e+02 7.840000000000000000e+02 7.850000000000000000e+02 7.860000000000000000e+02 7.870000000000000000e+02 7.880000000000000000e+02 7.890000000000000000e+02 7.900000000000000000e+02 7.910000000000000000e+02 7.920000000000000000e+02 7.930000000000000000e+02 7.940000000000000000e+02 7.950000000000000000e+02 7.960000000000000000e+02 7.970000000000000000e+02 7.980000000000000000e+02 7.990000000000000000e+02 8.000000000000000000e+02 8.010000000000000000e+02 8.020000000000000000e+02 8.030000000000000000e+02 8.040000000000000000e+02 8.050000000000000000e+02 8.060000000000000000e+02 8.070000000000000000e+02 8.080000000000000000e+02 8.090000000000000000e+02 8.100000000000000000e+02 8.110000000000000000e+02 8.120000000000000000e+02 8.130000000000000000e+02 8.140000000000000000e+02 8.150000000000000000e+02 8.160000000000000000e+02 8.170000000000000000e+02 8.180000000000000000e+02 8.190000000000000000e+02 8.200000000000000000e+02 8.210000000000000000e+02 8.220000000000000000e+02 8.230000000000000000e+02 8.240000000000000000e+02 8.250000000000000000e+02 8.260000000000000000e+02 8.270000000000000000e+02 8.280000000000000000e+02 8.290000000000000000e+02 8.300000000000000000e+02 8.310000000000000000e+02 8.320000000000000000e+02 8.330000000000000000e+02 8.340000000000000000e+02 8.350000000000000000e+02 8.360000000000000000e+02 8.370000000000000000e+02 8.380000000000000000e+02 8.390000000000000000e+02 8.400000000000000000e+02 8.410000000000000000e+02 8.420000000000000000e+02 8.430000000000000000e+02 8.440000000000000000e+02 8.450000000000000000e+02 8.460000000000000000e+02 8.470000000000000000e+02 8.480000000000000000e+02 8.490000000000000000e+02 8.500000000000000000e+02 8.510000000000000000e+02 8.520000000000000000e+02 8.530000000000000000e+02 8.540000000000000000e+02 8.550000000000000000e+02 8.560000000000000000e+02 8.570000000000000000e+02 8.580000000000000000e+02 8.590000000000000000e+02 8.600000000000000000e+02 8.610000000000000000e+02 8.620000000000000000e+02 8.630000000000000000e+02 8.640000000000000000e+02 8.650000000000000000e+02 8.660000000000000000e+02 8.670000000000000000e+02 8.680000000000000000e+02 8.690000000000000000e+02 8.700000000000000000e+02 8.710000000000000000e+02 8.720000000000000000e+02 8.730000000000000000e+02 8.740000000000000000e+02 8.750000000000000000e+02 8.760000000000000000e+02 8.770000000000000000e+02 8.780000000000000000e+02 8.790000000000000000e+02 8.800000000000000000e+02 8.810000000000000000e+02 8.820000000000000000e+02 8.830000000000000000e+02 8.840000000000000000e+02 8.850000000000000000e+02 8.860000000000000000e+02 8.870000000000000000e+02 8.880000000000000000e+02 8.890000000000000000e+02 8.900000000000000000e+02 8.910000000000000000e+02 8.920000000000000000e+02 8.930000000000000000e+02 8.940000000000000000e+02 8.950000000000000000e+02 8.960000000000000000e+02 8.970000000000000000e+02 8.980000000000000000e+02 8.990000000000000000e+02 9.000000000000000000e+02 9.010000000000000000e+02 9.020000000000000000e+02 9.030000000000000000e+02 9.040000000000000000e+02 9.050000000000000000e+02 9.060000000000000000e+02 9.070000000000000000e+02 9.080000000000000000e+02 9.090000000000000000e+02 9.100000000000000000e+02 9.110000000000000000e+02 9.120000000000000000e+02 9.130000000000000000e+02 9.140000000000000000e+02 9.150000000000000000e+02 9.160000000000000000e+02 9.170000000000000000e+02 9.180000000000000000e+02 9.190000000000000000e+02 9.200000000000000000e+02 9.210000000000000000e+02 9.220000000000000000e+02 9.230000000000000000e+02 9.240000000000000000e+02 9.250000000000000000e+02 9.260000000000000000e+02 9.270000000000000000e+02 9.280000000000000000e+02 9.290000000000000000e+02 9.300000000000000000e+02 9.310000000000000000e+02 9.320000000000000000e+02 9.330000000000000000e+02 9.340000000000000000e+02 9.350000000000000000e+02 9.360000000000000000e+02 9.370000000000000000e+02 9.380000000000000000e+02 9.390000000000000000e+02 9.400000000000000000e+02 9.410000000000000000e+02 9.420000000000000000e+02 9.430000000000000000e+02 9.440000000000000000e+02 9.450000000000000000e+02 9.460000000000000000e+02 9.470000000000000000e+02 9.480000000000000000e+02 9.490000000000000000e+02 9.500000000000000000e+02 9.510000000000000000e+02 9.520000000000000000e+02 9.530000000000000000e+02 9.540000000000000000e+02 9.550000000000000000e+02 9.560000000000000000e+02 9.570000000000000000e+02 9.580000000000000000e+02 9.590000000000000000e+02 9.600000000000000000e+02 9.610000000000000000e+02 9.620000000000000000e+02 9.630000000000000000e+02 9.640000000000000000e+02 9.650000000000000000e+02 9.660000000000000000e+02 9.670000000000000000e+02 9.680000000000000000e+02 9.690000000000000000e+02 9.700000000000000000e+02 9.710000000000000000e+02 9.720000000000000000e+02 9.730000000000000000e+02 9.740000000000000000e+02 9.750000000000000000e+02 9.760000000000000000e+02 9.770000000000000000e+02 9.780000000000000000e+02 9.790000000000000000e+02 9.800000000000000000e+02 9.810000000000000000e+02 9.820000000000000000e+02 9.830000000000000000e+02 9.840000000000000000e+02 9.850000000000000000e+02 9.860000000000000000e+02 9.870000000000000000e+02 9.880000000000000000e+02 9.890000000000000000e+02 9.900000000000000000e+02 9.910000000000000000e+02 9.920000000000000000e+02 9.930000000000000000e+02 9.940000000000000000e+02 9.950000000000000000e+02 9.960000000000000000e+02 9.970000000000000000e+02 9.980000000000000000e+02 9.990000000000000000e+02
1.000000000000000000e+00 1.000000000000000000e+00 1.000000000000000000e+00 1.000000000000000000e+00 1.000000000000000000e+00 1.000000000000000000e+00 1.000000000000000000e+00 1.000000000000000000e+00 1.000000000000000000e+00 1.000000000000000000e+00 1.000000000000000000e+00 1.000000000000000000e+00 1.000000000000000000e+00 1.000000000000000000e+00 1.000000000000000000e+00 1.000000000000000000e+00 1.000000000000000000e+00 1.000000000000000000e+00 1.000000000000000000e+00 1.000000000000000000e+00 1.000000000000000000e+00 1.000000000000000000e+00 1.000000000000000000e+00 1.000000000000000000e+00 1.000000000000000000e+00 1.000000000000000000e+00 1.000000000000000000e+00 1.000000000000000000e+00 1.000000000000000000e+00 1.000000000000000000e+00 1.000000000000000000e+00 1.000000000000000000e+00 1.000000000000000000e+00 1.000000000000000000e+00 1.000000000000000000e+00 1.000000000000000000e+00 1.000000000000000000e+00 1.000000000000000000e+00 1.000000000000000000e+00 1.000000000000000000e+00 1.000000000000000000e+00 1.000000000000000000e+00 1.000000000000000000e+00 1.000000000000000000e+00 1.000000000000000000e+00 1.000000000000000000e+00 1.000000000000000000e+00 1.000000000000000000e+00 1.000000000000000000e+00 1.000000000000000000e+00 1.000000000000000000e+00 1.000000000000000000e+00 1.000000000000000000e+00 1.000000000000000000e+00 1.000000000000000000e+00 1.000000000000000000e+00 1.000000000000000000e+00 1.000000000000000000e+00 1.000000000000000000e+00 1.000000000000000000e+00 1.000000000000000000e+00 1.000000000000000000e+00 1.000000000000000000e+00 1.000000000000000000e+00 1.000000000000000000e+00 1.000000000000000000e+00 1.000000000000000000e+00 1.000000000000000000e+00 1.000000000000000000e+00 1.000000000000000000e+00 1.000000000000000000e+00 1.000000000000000000e+00 1.000000000000000000e+00 1.000000000000000000e+00 1.000000000000000000e+00 1.000000000000000000e+00 1.000000000000000000e+00 1.000000000000000000e+00 1.000000000000000000e+00 1.000000000000000000e+00 1.000000000000000000e+00 1.000000000000000000e+00 1.000000000000000000e+00 1.000000000000000000e+00 1.000000000000000000e+00 1.000000000000000000e+00 1.000000000000000000e+00 1.000000000000000000e+00 1.000000000000000000e+00 1.000000000000000000e+00 1.000000000000000000e+00 1.000000000000000000e+00 1.000000000000000000e+00 1.000000000000000000e+00 1.000000000000000000e+00 1.000000000000000000e+00 1.000000000000000000e+00 1.000000000000000000e+00 1.000000000000000000e+00 1.000000000000000000e+00 1.000000000000000000e+00 1.000000000000000000e+00 1.000000000000000000e+00 1.000000000000000000e+00 1.000000000000000000e+00 1.000000000000000000e+00 1.000000000000000000e+00 1.000000000000000000e+00 1.000000000000000000e+00 1.000000000000000000e+00 1.000000000000000000e+00 1.000000000000000000e+00 1.000000000000000000e+00 1.000000000000000000e+00 1.000000000000000000e+00 1.000000000000000000e+00 1.000000000000000000e+00 1.000000000000000000e+00 1.000000000000000000e+00 1.000000000000000000e+00 1.000000000000000000e+00 1.000000000000000000e+00 1.000000000000000000e+00 1.000000000000000000e+00 1.000000000000000000e+00 1.000000000000000000e+00 1.000000000000000000e+00 1.000000000000000000e+00 1.000000000000000000e+00 1.000000000000000000e+00 1.000000000000000000e+00 1.000000000000000000e+00 1.000000000000000000e+00 1.000000000000000000e+00 1.000000000000000000e+00 1.000000000000000000e+00 1.000000000000000000e+00 1.000000000000000000e+00 1.000000000000000000e+00 1.000000000000000000e+00 1.000000000000000000e+00 1.000000000000000000e+00 1.000000000000000000e+00 1.000000000000000000e+00 1.000000000000000000e+00 1.000000000000000000e+00 1.000000000000000000e+00 1.000000000000000000e+00 1.000000000000000000e+00 1.000000000000000000e+00 1.000000000000000000e+00 1.000000000000000000e+00 1.000000000000000000e+00 1.000000000000000000e+00 1.000000000000000000e+00 1.000000000000000000e+00 1.000000000000000000e+00 1.000000000000000000e+00 1.000000000000000000e+00 1.000000000000000000e+00 1.000000000000000000e+00 1.000000000000000000e+00 1.000000000000000000e+00 1.000000000000000000e+00 1.000000000000000000e+00 1.000000000000000000e+00 1.000000000000000000e+00 1.000000000000000000e+00 1.000000000000000000e+00 1.000000000000000000e+00 1.000000000000000000e+00 1.000000000000000000e+00 1.000000000000000000e+00 1.000000000000000000e+00 1.000000000000000000e+00 1.000000000000000000e+00 1.000000000000000000e+00 1.000000000000000000e+00 1.000000000000000000e+00 1.000000000000000000e+00 1.000000000000000000e+00 1.000000000000000000e+00 1.000000000000000000e+00 1.000000000000000000e+00 1.000000000000000000e+00 1.000000000000000000e+00 1.000000000000000000e+00 1.000000000000000000e+00 1.000000000000000000e+00 1.000000000000000000e+00 1.000000000000000000e+00 1.000000000000000000e+00 1.000000000000000000e+00 1.000000000000000000e+00 1.000000000000000000e+00 1.000000000000000000e+00 1.000000000000000000e+00 1.000000000000000000e+00 1.000000000000000000e+00 1.000000000000000000e+00 1.000000000000000000e+00 1.000000000000000000e+00 1.000000000000000000e+00 1.000000000000000000e+00 1.000000000000000000e+00 1.000000000000000000e+00 1.000000000000000000e+00 1.000000000000000000e+00 1.000000000000000000e+00 1.000000000000000000e+00 1.000000000000000000e+00 1.000000000000000000e+00 1.000000000000000000e+00 1.000000000000000000e+00 1.000000000000000000e+00 1.000000000000000000e+00 1.000000000000000000e+00 1.000000000000000000e+00 1.000000000000000000e+00 1.000000000000000000e+00 1.000000000000000000e+00 1.000000000000000000e+00 1.000000000000000000e+00 1.000000000000000000e+00 1.000000000000000000e+00 1.000000000000000000e+00 1.000000000000000000e+00 1.000000000000000000e+00 1.000000000000000000e+00 1.000000000000000000e+00 1.000000000000000000e+00 1.000000000000000000e+00 1.000000000000000000e+00 1.000000000000000000e+00 1.000000000000000000e+00 1.000000000000000000e+00 1.000000000000000000e+00 1.000000000000000000e+00 1.000000000000000000e+00 1.000000000000000000e+00 1.000000000000000000e+00 1.000000000000000000e+00 1.000000000000000000e+00 1.000000000000000000e+00 1.000000000000000000e+00 1.000000000000000000e+00 1.000000000000000000e+00 1.000000000000000000e+00 1.000000000000000000e+00 1.000000000000000000e+00 1.000000000000000000e+00 1.000000000000000000e+00 1.000000000000000000e+00 1.000000000000000000e+00 1.000000000000000000e+00 1.000000000000000000e+00 1.000000000000000000e+00 1.000000000000000000e+00 1.000000000000000000e+00 1.000000000000000000e+00 1.000000000000000000e+00 1.000000000000000000e+00 1.000000000000000000e+00 1.000000000000000000e+00 1.000000000000000000e+00 1.000000000000000000e+00 1.000000000000000000e+00 1.000000000000000000e+00 1.000000000000000000e+00 1.000000000000000000e+00 1.000000000000000000e+00 1.000000000000000000e+00 1.000000000000000000e+00 1.000000000000000000e+00 1.000000000000000000e+00 1.000000000000000000e+00 1.000000000000000000e+00 1.000000000000000000e+00 1.000000000000000000e+00 1.000000000000000000e+00 1.000000000000000000e+00 1.000000000000000000e+00 1.000000000000000000e+00 1.000000000000000000e+00 1.000000000000000000e+00 1.000000000000000000e+00 1.000000000000000000e+00 1.000000000000000000e+00 1.000000000000000000e+00 1.000000000000000000e+00 1.000000000000000000e+00 1.000000000000000000e+00 1.000000000000000000e+00 1.000000000000000000e+00 1.000000000000000000e+00 1.000000000000000000e+00 1.000000000000000000e+00 1.000000000000000000e+00 1.000000000000000000e+00 1.000000000000000000e+00 1.000000000000000000e+00 1.000000000000000000e+00 1.000000000000000000e+00 1.000000000000000000e+00 1.000000000000000000e+00 1.000000000000000000e+00 1.000000000000000000e+00 1.000000000000000000e+00 1.000000000000000000e+00 1.000000000000000000e+00 1.000000000000000000e+00 1.000000000000000000e+00 1.000000000000000000e+00 1.000000000000000000e+00 1.000000000000000000e+00 1.000000000000000000e+00 1.000000000000000000e+00 1.000000000000000000e+00 1.000000000000000000e+00 1.000000000000000000e+00 1.000000000000000000e+00 1.000000000000000000e+00 1.000000000000000000e+00 1.000000000000000000e+00 1.000000000000000000e+00 1.000000000000000000e+00 1.000000000000000000e+00 1.000000000000000000e+00 1.000000000000000000e+00 1.000000000000000000e+00 1.000000000000000000e+00 1.000000000000000000e+00 1.000000000000000000e+00 1.000000000000000000e+00 1.000000000000000000e+00 1.000000000000000000e+00 1.000000000000000000e+00 1.000000000000000000e+00 1.000000000000000000e+00 1.000000000000000000e+00 1.000000000000000000e+00 1.000000000000000000e+00 1.000000000000000000e+00 1.000000000000000000e+00 1.000000000000000000e+00 1.000000000000000000e+00 1.000000000000000000e+00 1.000000000000000000e+00 1.000000000000000000e+00 1.000000000000000000e+00 1.000000000000000000e+00 1.000000000000000000e+00 1.000000000000000000e+00 1.000000000000000000e+00 1.000000000000000000e+00 1.000000000000000000e+00 1.000000000000000000e+00 1.000000000000000000e+00 1.000000000000000000e+00 1.000000000000000000e+00 1.000000000000000000e+00 1.000000000000000000e+00 1.000000000000000000e+00 1.000000000000000000e+00 1.000000000000000000e+00 1.000000000000000000e+00 1.000000000000000000e+00 1.000000000000000000e+00 1.000000000000000000e+00 1.000000000000000000e+00 1.000000000000000000e+00 1.000000000000000000e+00 1.000000000000000000e+00 1.000000000000000000e+00 1.000000000000000000e+00 1.000000000000000000e+00 1.000000000000000000e+00 1.000000000000000000e+00 1.000000000000000000e+00 1.000000000000000000e+00 1.000000000000000000e+00 1.000000000000000000e+00 1.000000000000000000e+00 1.000000000000000000e+00 1.000000000000000000e+00 1.000000000000000000e+00 1.000000000000000000e+00 1.000000000000000000e+00 1.000000000000000000e+00 1.000000000000000000e+00 1.000000000000000000e+00 1.000000000000000000e+00 1.000000000000000000e+00 1.000000000000000000e+00 1.000000000000000000e+00 1.000000000000000000e+00 1.000000000000000000e+00 1.000000000000000000e+00 1.000000000000000000e+00 1.000000000000000000e+00 1.000000000000000000e+00 1.000000000000000000e+00 1.000000000000000000e+00 1.000000000000000000e+00 1.000000000000000000e+00 1.000000000000000000e+00 1.000000000000000000e+00 1.000000000000000000e+00 1.000000000000000000e+00 1.000000000000000000e+00 1.000000000000000000e+00 1.000000000000000000e+00 1.000000000000000000e+00 1.000000000000000000e+00 1.000000000000000000e+00 1.000000000000000000e+00 1.000000000000000000e+00 1.000000000000000000e+00 1.000000000000000000e+00 1.000000000000000000e+00 1.000000000000000000e+00 1.000000000000000000e+00 1.000000000000000000e+00 1.000000000000000000e+00 1.000000000000000000e+00 1.000000000000000000e+00 1.000000000000000000e+00 1.000000000000000000e+00 1.000000000000000000e+00 1.000000000000000000e+00 1.000000000000000000e+00 1.000000000000000000e+00 1.000000000000000000e+00 1.000000000000000000e+00 1.000000000000000000e+00 1.000000000000000000e+00 1.000000000000000000e+00 1.000000000000000000e+00 1.000000000000000000e+00 1.000000000000000000e+00 1.000000000000000000e+00 1.000000000000000000e+00 1.000000000000000000e+00 1.000000000000000000e+00 1.000000000000000000e+00 1.000000000000000000e+00 1.000000000000000000e+00 1.000000000000000000e+00 1.000000000000000000e+00 1.000000000000000000e+00 1.000000000000000000e+00 1.000000000000000000e+00 1.000000000000000000e+00 1.000000000000000000e+00 1.000000000000000000e+00 1.000000000000000000e+00 1.000000000000000000e+00 1.000000000000000000e+00 1.000000000000000000e+00 1.000000000000000000e+00 1.000000000000000000e+00 1.000000000000000000e+00 1.000000000000000000e+00 1.000000000000000000e+00 1.000000000000000000e+00 1.000000000000000000e+00 1.000000000000000000e+00 1.000000000000000000e+00 1.000000000000000000e+00 1.000000000000000000e+00 1.000000000000000000e+00 1.000000000000000000e+00 1.000000000000000000e+00 1.000000000000000000e+00 1.000000000000000000e+00 1.000000000000000000e+00 1.000000000000000000e+00 1.000000000000000000e+00 1.000000000000000000e+00 1.000000000000000000e+00 1.000000000000000000e+00 1.000000000000000000e+00 1.000000000000000000e+00 1.000000000000000000e+00 1.000000000000000000e+00 1.000000000000000000e+00 1.000000000000000000e+00 1.000000000000000000e+00 1.000000000000000000e+00 1.000000000000000000e+00 1.000000000000000000e+00 1.000000000000000000e+00 1.000000000000000000e+00 1.000000000000000000e+00 1.000000000000000000e+00 1.000000000000000000e+00 1.000000000000000000e+00 1.000000000000000000e+00 1.000000000000000000e+00 1.000000000000000000e+00 1.000000000000000000e+00 1.000000000000000000e+00 1.000000000000000000e+00 1.000000000000000000e+00 1.000000000000000000e+00 1.000000000000000000e+00 1.000000000000000000e+00 1.000000000000000000e+00 1.000000000000000000e+00 1.000000000000000000e+00 1.000000000000000000e+00 1.000000000000000000e+00 1.000000000000000000e+00 1.000000000000000000e+00 1.000000000000000000e+00 1.000000000000000000e+00 1.000000000000000000e+00 1.000000000000000000e+00 1.000000000000000000e+00 1.000000000000000000e+00 1.000000000000000000e+00 1.000000000000000000e+00 1.000000000000000000e+00 1.000000000000000000e+00 1.000000000000000000e+00 1.000000000000000000e+00 1.000000000000000000e+00 1.000000000000000000e+00 1.000000000000000000e+00 1.000000000000000000e+00 1.000000000000000000e+00 1.000000000000000000e+00 1.000000000000000000e+00 1.000000000000000000e+00 1.000000000000000000e+00 1.000000000000000000e+00 1.000000000000000000e+00 1.000000000000000000e+00 1.000000000000000000e+00 1.000000000000000000e+00 1.000000000000000000e+00 1.000000000000000000e+00 1.000000000000000000e+00 1.000000000000000000e+00 1.000000000000000000e+00 1.000000000000000000e+00 1.000000000000000000e+00 1.000000000000000000e+00 1.000000000000000000e+00 1.000000000000000000e+00 1.000000000000000000e+00 1.000000000000000000e+00 1.000000000000000000e+00 1.000000000000000000e+00 1.000000000000000000e+00 1.000000000000000000e+00 1.000000000000000000e+00 1.000000000000000000e+00 1.000000000000000000e+00 1.000000000000000000e+00 1.000000000000000000e+00 1.000000000000000000e+00 1.000000000000000000e+00 1.000000000000000000e+00 1.000000000000000000e+00 1.000000000000000000e+00 1.000000000000000000e+00 1.000000000000000000e+00 1.000000000000000000e+00 1.000000000000000000e+00 1.000000000000000000e+00 1.000000000000000000e+00 1.000000000000000000e+00 1.000000000000000000e+00 1.000000000000000000e+00 1.000000000000000000e+00 1.000000000000000000e+00 1.000000000000000000e+00 1.000000000000000000e+00 1.000000000000000000e+00 1.000000000000000000e+00 1.000000000000000000e+00 1.000000000000000000e+00 1.000000000000000000e+00 1.000000000000000000e+00 1.000000000000000000e+00 1.000000000000000000e+00 1.000000000000000000e+00 1.000000000000000000e+00 1.000000000000000000e+00 1.000000000000000000e+00 1.000000000000000000e+00 1.000000000000000000e+00 1.000000000000000000e+00 1.000000000000000000e+00 1.000000000000000000e+00 1.000000000000000000e+00 1.000000000000000000e+00 1.000000000000000000e+00 1.000000000000000000e+00 1.000000000000000000e+00 1.000000000000000000e+00 1.000000000000000000e+00 1.000000000000000000e+00 1.000000000000000000e+00 1.000000000000000000e+00 1.000000000000000000e+00 1.000000000000000000e+00 1.000000000000000000e+00 1.000000000000000000e+00 1.000000000000000000e+00 1.000000000000000000e+00 1.000000000000000000e+00 1.000000000000000000e+00 1.000000000000000000e+00 1.000000000000000000e+00 1.000000000000000000e+00 1.000000000000000000e+00 1.000000000000000000e+00 1.000000000000000000e+00 1.000000000000000000e+00 1.000000000000000000e+00 1.000000000000000000e+00 1.000000000000000000e+00 1.000000000000000000e+00 1.000000000000000000e+00 1.000000000000000000e+00 1.000000000000000000e+00 1.000000000000000000e+00 1.000000000000000000e+00 1.000000000000000000e+00 1.000000000000000000e+00 1.000000000000000000e+00 1.000000000000000000e+00 1.000000000000000000e+00 1.000000000000000000e+00 1.000000000000000000e+00 1.000000000000000000e+00 1.000000000000000000e+00 1.000000000000000000e+00 1.000000000000000000e+00 1.000000000000000000e+00 1.000000000000000000e+00 1.000000000000000000e+00 1.000000000000000000e+00 1.000000000000000000e+00 1.000000000000000000e+00 1.000000000000000000e+00 1.000000000000000000e+00 1.000000000000000000e+00 1.000000000000000000e+00 1.000000000000000000e+00 1.000000000000000000e+00 1.000000000000000000e+00 1.000000000000000000e+00 1.000000000000000000e+00 1.000000000000000000e+00 1.000000000000000000e+00 1.000000000000000000e+00 1.000000000000000000e+00 1.000000000000000000e+00 1.000000000000000000e+00 1.000000000000000000e+00 1.000000000000000000e+00 1.000000000000000000e+00 1.000000000000000000e+00 1.000000000000000000e+00 1.000000000000000000e+00 1.000000000000000000e+00 1.000000000000000000e+00 1.000000000000000000e+00 1.000000000000000000e+00 1.000000000000000000e+00 1.000000000000000000e+00 1.000000000000000000e+00 1.000000000000000000e+00 1.000000000000000000e+00 1.000000000000000000e+00 1.000000000000000000e+00 1.000000000000000000e+00 1.000000000000000000e+00 1.000000000000000000e+00 1.000000000000000000e+00 1.000000000000000000e+00 1.000000000000000000e+00 1.000000000000000000e+00 1.000000000000000000e+00 1.000000000000000000e+00 1.000000000000000000e+00 1.000000000000000000e+00 1.000000000000000000e+00 1.000000000000000000e+00 1.000000000000000000e+00 1.000000000000000000e+00 1.000000000000000000e+00 1.000000000000000000e+00 1.000000000000000000e+00 1.000000000000000000e+00 1.000000000000000000e+00 1.000000000000000000e+00 1.000000000000000000e+00 1.000000000000000000e+00 1.000000000000000000e+00 1.000000000000000000e+00 1.000000000000000000e+00 1.000000000000000000e+00 1.000000000000000000e+00 1.000000000000000000e+00 1.000000000000000000e+00 1.000000000000000000e+00 1.000000000000000000e+00 1.000000000000000000e+00 1.000000000000000000e+00 1.000000000000000000e+00 1.000000000000000000e+00 1.000000000000000000e+00 1.000000000000000000e+00 1.000000000000000000e+00 1.000000000000000000e+00 1.000000000000000000e+00 1.000000000000000000e+00 1.000000000000000000e+00 1.000000000000000000e+00 1.000000000000000000e+00 1.000000000000000000e+00 1.000000000000000000e+00 1.000000000000000000e+00 1.000000000000000000e+00 1.000000000000000000e+00 1.000000000000000000e+00 1.000000000000000000e+00 1.000000000000000000e+00 1.000000000000000000e+00 1.000000000000000000e+00 1.000000000000000000e+00 1.000000000000000000e+00 1.000000000000000000e+00 1.000000000000000000e+00 1.000000000000000000e+00 1.000000000000000000e+00 1.000000000000000000e+00 1.000000000000000000e+00 1.000000000000000000e+00 1.000000000000000000e+00 1.000000000000000000e+00 1.000000000000000000e+00 1.000000000000000000e+00 1.000000000000000000e+00 1.000000000000000000e+00 1.000000000000000000e+00 1.000000000000000000e+00 1.000000000000000000e+00 1.000000000000000000e+00 1.000000000000000000e+00 1.000000000000000000e+00 1.000000000000000000e+00 1.000000000000000000e+00 1.000000000000000000e+00 1.000000000000000000e+00 1.000000000000000000e+00 1.000000000000000000e+00 1.000000000000000000e+00 1.000000000000000000e+00 1.000000000000000000e+00 1.000000000000000000e+00 1.000000000000000000e+00 1.000000000000000000e+00 1.000000000000000000e+00 1.000000000000000000e+00 1.000000000000000000e+00 1.000000000000000000e+00 1.000000000000000000e+00 1.000000000000000000e+00 1.000000000000000000e+00 1.000000000000000000e+00 1.000000000000000000e+00 1.000000000000000000e+00 1.000000000000000000e+00 1.000000000000000000e+00 1.000000000000000000e+00 1.000000000000000000e+00 1.000000000000000000e+00 1.000000000000000000e+00 1.000000000000000000e+00 1.000000000000000000e+00 1.000000000000000000e+00 1.000000000000000000e+00 1.000000000000000000e+00 1.000000000000000000e+00 1.000000000000000000e+00 1.000000000000000000e+00 1.000000000000000000e+00 1.000000000000000000e+00 1.000000000000000000e+00 1.000000000000000000e+00 1.000000000000000000e+00 1.000000000000000000e+00 1.000000000000000000e+00 1.000000000000000000e+00 1.000000000000000000e+00 1.000000000000000000e+00 1.000000000000000000e+00 1.000000000000000000e+00 1.000000000000000000e+00 1.000000000000000000e+00 1.000000000000000000e+00 1.000000000000000000e+00 1.000000000000000000e+00 1.000000000000000000e+00 1.000000000000000000e+00 1.000000000000000000e+00 1.000000000000000000e+00 1.000000000000000000e+00 1.000000000000000000e+00 1.000000000000000000e+00 1.000000000000000000e+00 1.000000000000000000e+00 1.000000000000000000e+00 1.000000000000000000e+00 1.000000000000000000e+00 1.000000000000000000e+00 1.000000000000000000e+00 1.000000000000000000e+00 1.000000000000000000e+00 1.000000000000000000e+00 1.000000000000000000e+00 1.000000000000000000e+00 1.000000000000000000e+00 1.000000000000000000e+00 1.000000000000000000e+00 1.000000000000000000e+00 1.000000000000000000e+00 1.000000000000000000e+00 1.000000000000000000e+00 1.000000000000000000e+00 1.000000000000000000e+00 1.000000000000000000e+00 1.000000000000000000e+00 1.000000000000000000e+00 1.000000000000000000e+00 1.000000000000000000e+00 1.000000000000000000e+00 1.000000000000000000e+00 1.000000000000000000e+00 1.000000000000000000e+00 1.000000000000000000e+00 1.000000000000000000e+00 1.000000000000000000e+00 1.000000000000000000e+00 1.000000000000000000e+00 1.000000000000000000e+00 1.000000000000000000e+00 1.000000000000000000e+00 1.000000000000000000e+00 1.000000000000000000e+00 1.000000000000000000e+00 1.000000000000000000e+00 1.000000000000000000e+00 1.000000000000000000e+00 1.000000000000000000e+00 1.000000000000000000e+00 1.000000000000000000e+00 1.000000000000000000e+00 1.000000000000000000e+00 1.000000000000000000e+00 1.000000000000000000e+00 1.000000000000000000e+00 1.000000000000000000e+00 1.000000000000000000e+00 1.000000000000000000e+00 1.000000000000000000e+00 1.000000000000000000e+00 1.000000000000000000e+00 1.000000000000000000e+00 1.000000000000000000e+00 1.000000000000000000e+00 1.000000000000000000e+00 1.000000000000000000e+00 1.000000000000000000e+00 1.000000000000000000e+00 1.000000000000000000e+00 1.000000000000000000e+00 1.000000000000000000e+00 1.000000000000000000e+00 1.000000000000000000e+00 1.000000000000000000e+00 1.000000000000000000e+00 1.000000000000000000e+00 1.000000000000000000e+00 1.000000000000000000e+00 1.000000000000000000e+00 1.000000000000000000e+00 1.000000000000000000e+00 1.000000000000000000e+00 1.000000000000000000e+00 1.000000000000000000e+00 1.000000000000000000e+00 1.000000000000000000e+00 1.000000000000000000e+00 1.000000000000000000e+00 1.000000000000000000e+00 1.000000000000000000e+00 1.000000000000000000e+00 1.000000000000000000e+00 1.000000000000000000e+00 1.000000000000000000e+00 1.000000000000000000e+00 1.000000000000000000e+00 1.000000000000000000e+00 1.000000000000000000e+00 1.000000000000000000e+00 1.000000000000000000e+00 1.000000000000000000e+00 1.000000000000000000e+00 1.000000000000000000e+00 1.000000000000000000e+00 1.000000000000000000e+00 1.000000000000000000e+00 1.000000000000000000e+00 1.000000000000000000e+00 1.000000000000000000e+00 1.000000000000000000e+00 1.000000000000000000e+00 1.000000000000000000e+00 1.000000000000000000e+00 1.000000000000000000e+00 1.000000000000000000e+00 1.000000000000000000e+00 1.000000000000000000e+00 1.000000000000000000e+00 1.000000000000000000e+00 1.000000000000000000e+00 1.000000000000000000e+00 1.000000000000000000e+00 1.000000000000000000e+00 1.000000000000000000e+00 1.000000000000000000e+00 1.000000000000000000e+00 1.000000000000000000e+00 1.000000000000000000e+00 1.000000000000000000e+00 1.000000000000000000e+00 1.000000000000000000e+00 1.000000000000000000e+00 1.000000000000000000e+00 1.000000000000000000e+00 1.000000000000000000e+00 1.000000000000000000e+00 1.000000000000000000e+00 1.000000000000000000e+00 1.000000000000000000e+00 1.000000000000000000e+00 1.000000000000000000e+00 1.000000000000000000e+00 1.000000000000000000e+00 1.000000000000000000e+00 1.000000000000000000e+00 1.000000000000000000e+00 1.000000000000000000e+00 1.000000000000000000e+00 1.000000000000000000e+00 1.000000000000000000e+00 1.000000000000000000e+00 1.000000000000000000e+00 1.000000000000000000e+00 1.000000000000000000e+00 1.000000000000000000e+00 1.000000000000000000e+00 1.000000000000000000e+00 1.000000000000000000e+00 1.000000000000000000e+00 1.000000000000000000e+00 1.000000000000000000e+00 1.000000000000000000e+00 1.000000000000000000e+00 1.000000000000000000e+00 1.000000000000000000e+00 1.000000000000000000e+00 1.000000000000000000e+00 1.000000000000000000e+00 1.000000000000000000e+00 1.000000000000000000e+00 1.000000000000000000e+00 1.000000000000000000e+00 1.000000000000000000e+00 1.000000000000000000e+00 1.000000000000000000e+00 1.000000000000000000e+00 1.000000000000000000e+00 1.000000000000000000e+00 1.000000000000000000e+00 1.000000000000000000e+00 1.000000000000000000e+00 1.000000000000000000e+00 1.000000000000000000e+00 1.000000000000000000e+00 1.000000000000000000e+00 1.000000000000000000e+00 1.000000000000000000e+00 1.000000000000000000e+00
6.215835041797586336e-02 5.421078296270511743e-01 -3.029743937925667985e-01 7.841029930832700279e-01 5.194137604034686495e-01 5.682670089625390109e-01 5.576753777018553793e-01 4.383384169667803865e-01 5.665418974131576357e-01 5.156040114649759198e-01 1.088722224309501385e+00 -7.450146596177957825e-01 1.430356528365743785e+00 4.720093687680811945e-01 5.204935042961171821e-01 4.318888160867602188e-01 8.197671933927579424e-01 9.794482557045632865e-01 7.524786384394080985e-01 5.007972799204712944e-01 3.746832554023326045e-01 9.984563120069747111e-01 3.500564270552720680e-01 5.749117301097027566e-01 6.058127083349012371e-02 6.581347429463979548e-01 4.370939211280363001e-01 7.214696771540279885e-01 5.226601555773018326e-01 1.653386844269631117e+00 4.872483135695865331e-01 5.995807147994842712e-01 7.184710911071571227e-01 5.088323808729297015e-01 6.849100019763506575e-01 4.664200030344340386e-01 5.880996729367474751e-01 1.886172236463358853e+00 -1.018544845359982964e-01 5.118371662438652159e-01 -2.413220878209108855e-01 -5.621237625902982815e-01 7.448834835651421127e-01 2.328085005728194601e-01 3.416083541775848387e-01 4.979993003473158764e-01 7.841319525833898574e-01 5.549459896044298679e-01 6.919488342258494074e-01 1.009788136842918772e-02 4.339863262159607965e-02 7.353329175533253048e-01 6.849587973981103861e-01 4.141770177853177359e-01 4.697413135961107100e-01 2.582463395848648077e-02 5.773127429791264920e-01 5.117484261067154483e-01 2.037980536166374979e-01 5.270525290258779583e-01 9.331277912985422862e-01 4.402947043724497189e-01 5.039430079083861980e-01 3.500564780201532722e-01 6.731862680162770118e-01 6.761652756007726639e-01 5.160077520542828422e-01 4.834988520802456780e-01 5.338584040387394092e-01 5.530409049249809805e-02 4.878645309790141660e-01 5.863845473512282469e-01 5.350036620729274883e-01 2.080009624207190128e-02 1.534962057332205809e+00 5.186547586523195807e-01 6.401355006428889327e-01 7.100423573279495137e-01 5.218539112524036572e-01 1.390872808264406402e+00 5.337368991530360152e-01 3.757114595160034320e-01 1.466965325104689022e+00 7.766565376367512430e-01 5.282137062749281409e-01 7.490230208954018476e-01 7.953188628163956331e-01 5.060853218829447497e-01 4.302664194303020828e-01 5.769587391180749369e-01 3.442512538577145453e-01 2.259026670768076617e+00 7.952326258769883971e-01 7.703264188554721781e-02 4.910465840551572758e-01 5.368534064902823477e-01 5.501944263420028847e-01 4.871955978560318368e-01 1.906753751336210945e-01 6.595082602454268583e-01 1.659692874814273411e+00 6.861424098574047115e-01 5.048377536433094059e-01 5.235022407675156142e-01 8.505044976620241837e-01 -2.178143446576309650e+00 -1.264374190163880529e+00 4.985728466762884281e-01 6.329895028274188373e-01 9.662069211358825793e-01 5.827175536464493932e-01 4.163504048867086582e-01 1.935331859436520419e-01 5.205602693002714387e-01 5.307211687600966732e-01 5.192179020410244705e-01 4.481336223139084085e-01 4.784605435391240391e-01 1.029562084644391584e+00 5.144529183299125785e-01 1.324825769338490833e+00 5.318131659683055235e-01 6.581894687937773769e-01 -5.907431696962537337e-01 5.291631747611690306e-01 1.991629547575776593e+00 4.659729003631234989e-01 5.022181248365372719e-01 6.650850403508595798e-01 5.171201742747186803e-01 5.903174921690688137e-01 5.253478908287850802e-01 4.458956267023740372e-01 5.570565727421507018e-01 -4.190400297012975006e-01 -1.721425303047142141e-01 6.863870636973078421e-01 4.275285538778418604e-02 1.015629578883177953e+00 5.064955336759388027e-01 5.438601406687417761e-01 8.792392956252098601e-01 4.456996782486707387e-01 4.674855265375607583e-01 5.207207214842848320e-01 2.284612674858861256e-02 9.974831601112335022e-01 -2.234173239991995852e-01 4.151910320340539418e-01 -9.419606435068044181e-01 7.436612528502752895e-01 -2.787946603658171263e-01 4.979815455697173543e-01 4.957516436920511582e-01 5.893251087057181925e-01 5.160182215510205062e-01 2.079702947278662339e+00 -1.925068096495632097e-01 8.327001583295576825e-01 6.468409161558356102e-01 5.699239773781682450e-01 4.883787217312011708e-01 5.078557072016139928e-01 5.194308757812234889e-01 1.060008945394517399e+00 2.797887615529689453e-01 8.517522163278080649e-01 2.857261978845206385e-01 3.686476705195337877e-01 6.041766713769609609e-01 6.470544824406366802e-01 7.856307515456205648e-01 4.980511297289669792e-01 5.202662251245221414e-01 4.019756227859037079e-01 4.233723785953849572e-02 2.356839644858576277e-01 1.195659298826065309e-01 7.617280033355594560e-01 1.144702232503735484e+00 6.494333445353726031e-01 5.210913370870636774e-01 -1.614416162512588016e-01 4.567073990952747464e-01 4.016032924673105797e-01 4.948804739277465892e-01 5.355890100077048688e-01 5.291858340823438756e-01 2.903808027460301311e+00 4.756051520864521542e-01 5.784407314410375811e-01 -9.396946536112084081e-01 5.176735997886267038e-01 4.908321795980714608e-01 2.074299450499857977e-01 5.253081708663512872e-01 9.509446288615840404e-01 5.480072658223476001e-01 3.783010771183712984e-01 5.695497634947690457e-01 6.334416619222841272e-01 5.446886456340176430e-01 8.132490827242616627e-01 6.027045173101279740e-01 5.432028934931349973e-01 3.783010535609385161e-01 1.753427766248467912e-01 1.307268130831022557e+00 5.305675347298003386e-01 5.315732002370718856e-01 4.187876189372179425e-01 -1.006104742681033920e-01 5.055651210292362308e-01 1.537338100424664733e-01 5.102110245582522907e-01 5.165300391110517753e-01 5.173813919068148692e-01 5.260817122859724471e-01 5.302040247050768818e-01 5.208926489738766596e-01 4.470470265407369692e-01 5.426930966764890174e-01 -7.281120430701365498e-01 6.324881895568433832e-01 5.137073200950846852e-01 3.423838026409192214e-01 -2.557674079417939297e-02 1.355979545852641133e+00 9.785646044507538832e-01 4.875458711889326113e-01 -1.013127480939194219e-01 1.072970643137962865e+00 5.195289655593886557e-01 4.970923899581485284e-01 6.764650358839922051e-01 4.041842569442580801e-01 2.230886000213337939e-01 1.558173855750391024e-01 -1.707218013977028770e-01 -4.854958083644488054e-02 5.736674698097319336e-01 5.344976087664266018e-01 -1.255350583600219061e-01 4.557800094244386369e-01 5.163881796015641346e-01 5.414854191304770969e-01 -8.974137289203232282e-02 7.669898490176282335e-01 -2.419841783355650033e+00 6.136031054251352979e-01 -7.001240709945993901e-01 5.019951685458786672e-01 5.183920652655555905e-01 3.500546199841317874e-01 5.057613083111917041e-01 5.205246070850968465e-01 4.958875850158523391e-01 7.979332009310848850e-01 5.783560673079101155e-01 1.706725759276179089e+00 6.849876743054603701e-01 6.696518979125332116e-01 4.491762193994222607e-01 4.343374355213064919e-01 9.331277962081089283e-01 5.176034607761322848e-01 2.774726011932097336e+00 4.382642827488724691e-01 2.145970333514871375e-01 7.833813478993875146e-01 5.251470843310135361e-01 9.333434089265636446e-01 5.218597312507089470e-01 5.734955632042011420e-01 5.212298160348628473e-01 1.175365512509833898e+00 7.616520433978188898e-01 8.534860844933430668e-01 7.932395475801380380e-01 5.906153436858357919e-01 6.879827397530577926e-01 5.082135617709530040e-01 3.678415906715666872e-01 -7.610060396702318375e-01 3.935168532134695196e-01 3.941688638929267685e-01 5.057051993913389554e-01 5.033293377451510953e-01 5.192178460859323552e-01 6.142924117165422526e-01 5.069450651349474146e-01 -9.647026978350086157e-01 7.794073068369813395e-01 4.839608677091867261e-01 -1.758134326483215201e-02 4.514738003853620563e-01 1.864512809792816750e+00 5.084610056415098667e-01 5.231705247570148654e-01 4.151804444428558449e-01 -3.550679134745716947e+00 5.145183220817906022e-01 3.009184510017768321e+00 7.847828575941343532e-01 5.527698753688273792e-01 -5.664866124840904904e-01 5.206852906029345585e-01 5.193284536906125348e-01 4.617396245468486371e-01 4.499026960808897302e-01 3.281243831316131288e-01 6.553477560965897952e-01 3.136166678993057011e-01 5.269997027266488665e-01 5.237288390501166901e-01 3.650031988158232710e-01 5.191892239866429115e-01 7.842958595918612108e-01 5.211031392937129914e-01 1.220829233793201629e+00 5.503018334795504313e-02 2.251081320022482846e+00 2.707459644844821156e+00 4.763836652280006301e-01 -2.468258735782397351e-01 3.844312066548343232e-01 3.997087656895936814e-01 7.468317777384306799e-01 1.408019201634334916e+00 5.292654840168298236e-01 1.140832885419107434e+00 5.204227068260303124e-01 1.175727873686066710e-01 1.264951238527824984e+00 6.001818891074318651e-01 5.736826937350290034e-01 5.399909197110585035e-01 9.103219915303510934e-01 -3.909005773958343699e+00 1.673525245937382833e+00 5.365711985650155613e-01 6.340199361421477997e-01 5.325146866594683281e-01 1.886172231021492118e+00 2.920141549381324864e-01 5.691760252716763224e-01 4.595799373210912586e-01 6.514040534232587998e-01 1.366401224134609071e+00 5.034502366095675585e-01 3.783007279763198616e-01 4.557832822459945143e-01 6.027045188067525761e-01 3.765787658040880004e-01 5.697147299935895193e-01 9.062850863889755360e-01 5.204024202302878210e-01 3.813295198324643254e-01 1.294001890278866918e-01 6.475803975353771058e-01 5.166905563813456448e-01 2.553331891712476431e-01 5.691760688659713852e-01 6.033964321538678455e-01 5.243834184702504952e-01 1.057153417622844538e+00 9.133009745568868576e-01 1.170941869830322890e+00 5.281674719882663016e-01 2.101144763713182484e-01 9.331275741164648529e-01 -1.101582077350286848e-01 9.341987925204783272e-01 6.308170885476039880e-01 5.262122581099193397e-02 4.044801113606686926e-01 8.602343286476543671e-01 3.827541727070247757e-01 4.692100614163471350e-01 3.373564104476737824e-01 -3.439571114246292582e-01 -2.557304130698687672e+00 5.637427368181087139e-01 6.027045129355388386e-01 6.027044718633015608e-01 5.270044161382213543e-01 3.428587995277422307e-01 -2.474214963496285113e-01 2.719924707768950345e-01 5.155956790227320674e-01 7.077274246595445240e-01 5.208536683600867301e-01 1.011237443012203308e+00 3.783013963466059781e-01 5.223338550993005258e-01 5.045972864560708260e-01 3.053266163317390203e-01 6.639583956023367151e-01 5.217111923196826595e-01 5.257105691436403383e-01 4.849712465416812779e-01 3.323279829022258158e-01 2.591374874589716035e-02 6.027045172340798063e-01 6.635757753990950691e-01 5.207886786325972572e-01 3.879179176118894290e-01 8.603127240451877711e-01 7.742245145872691525e-01 5.650639399179965272e-01 1.950889858554908374e+00 4.804206627614496239e-01 -3.258658626253660540e+00 7.844397430343964528e-01 1.558543942298934226e+00 5.811004780576639606e-01 -1.135141169166898445e+00 8.739388461174169009e-01 4.330699029767558494e-01 5.367435940278656448e-01 5.344668962426227798e-01 -4.833129605119810268e-01 5.069310956940462631e-01 1.082139969987619743e+00 4.452781003168383989e-01 -4.299585373665721355e-01 5.116583792963963484e-01 5.302203746089406700e-01 7.968887004196196777e-01 5.356901486370939658e-01 6.216630008751988790e-01 -5.586277718997165742e-01 5.604801351149635291e-01 5.222485247314225809e-01 4.805340315951637797e-01 5.061621202236341599e-01 7.722258093943467072e-01 5.207103673282882372e-01 6.324408865324745443e-01 3.689114340856866625e-01 5.339311948724493329e-01 2.157424192184096978e-01 3.519350740066369831e-01 3.830076503124338339e-01 9.788823151644804321e-01 5.620029606115802823e-01 3.289196947370932378e+00 6.537065552763683396e-01 6.723304724346180761e-01 5.404751470800710500e-01 5.132277988760829412e-01 9.705800415274313739e-03 4.984975769345423857e-01 5.537274562090398478e-01 5.373003626607684158e-01 1.152810067804037164e+00 7.724790313319600532e-01 5.252593700634010654e-01 4.348585531089661504e-01 1.120476329701115104e+00 5.308590660631091751e-01 5.440938555661090081e-01 5.222647791695569364e-01 8.786759269604061950e-01 5.254066293400972976e-01 9.537256375981036927e-01 4.770570446966719280e-01 5.211564279420665136e-01 5.319534239033774786e-02 5.179126793982269383e-01 2.437075413901780216e-02 2.714950443735386632e-01 3.960498653999703911e-01 5.626747148674916543e-01 7.938881649708602328e-01 5.222942271353115951e-01 3.819315447961091903e-01 1.474231841417485700e-01 5.046264272746782131e-01 4.975448976189416617e-01 4.416618584149797355e-01 -5.727112681444938153e-03 5.238516404274905502e-01 2.816338354064147897e-01 5.218754550095441314e-01 4.077833189645961864e-01 1.265643613151368418e+00 7.380545650613231645e-01 5.243511701267608016e-01 2.421930317540846034e-01 8.463658355529429800e-01 4.622949605529712569e-01 1.007945925853217073e+00 5.540169004428749933e-01 6.162784642807337399e-01 7.147641659347181431e-01 2.048215049082157790e+00 5.329293159755875697e-01 5.960097965324326896e-01 5.426298377374517701e-01 7.795475380957531675e-01 6.091304319306299897e-01 8.826949545961323418e-01 -5.917070630088541172e-01 4.459695957649341680e-01 5.234630703681308894e-01 4.472314977782089751e-01 5.025297413833405002e-01 -6.500869022458827251e-01 3.835708198434069072e-01 5.195474971575759771e-01 7.151656758997236851e-01 6.711766372208275433e-01 1.591519114956081005e+00 5.247570447966282137e-01 5.115865936700154659e-01 -7.474393514909034586e-01 5.324979122558604061e-01 1.259288692945733423e+00 7.330612840903691918e-01 3.024479882712859946e-01 2.212489078515145480e-01 -1.923176526383067131e+00 5.584242456808047317e-01 2.027636362325113961e-01 1.115067854006474235e+00 8.341294230283505806e-01 5.566185771721529063e-01 5.747933629095876018e-01 5.073587298538730916e-01 7.846137843664844347e-01 4.114361879921872855e-01 5.498181235191160754e-01 1.006408830902772583e-02 6.255145933598036390e-01 4.700201128099549264e-01 3.551272109051722969e-01 5.185799520325869993e-01 4.233187171731609966e-01 1.248523661933153228e+00 -9.286515345938295418e-02 -2.518185793549930218e-01 4.103544364072078676e-01 4.939973624228871651e-01 5.240274583502145811e-01 5.509555234592583561e-01 -9.043430764985250780e-01 3.252460157531742890e+00 4.388894216982933694e-01 4.353827082752387834e-01 4.696484715546700439e-01 5.175867947028909288e-01 5.015128291737983579e-01 4.495978174939223582e-01 3.311454676205999315e-01 6.235193315138422010e-01 5.202741392989171931e-01 4.460252546430882314e-01 3.015342614931197374e-01 4.113810195565526517e-01 5.495217098730305061e-01 4.048211875593571984e-01 5.727467928238431094e-01 5.067460125751638289e-01 6.921533128442132199e-01 1.033073549278517911e+00 2.364666322521648212e+00 4.757654770477138806e-01 5.030805476704096613e-01 3.052200181162785797e-01 4.775000106817876566e-01 4.023092195751242217e-01 5.195234231830340166e-01 5.181674313852545621e-01 4.813044089655978408e-01 5.915922149152661458e-01 5.837693278761540983e-01 7.843214691925460835e-01 3.648464369935445206e-01 3.807665464389306531e-01 3.833172150595997585e-01 4.644812829116344854e-01 9.962615081631184810e-02 9.331277985053968438e-01 4.565701758676279920e-01 7.250631582314363832e-02 1.915686457891811578e+00 3.445643801872252387e-01 4.001229827719100518e-01 6.007637673911153664e-01 6.773193831846123503e-02 5.530487056566710802e-01 1.546465671554178467e+00 8.147834284965153051e-01 6.606658180012139336e-01 5.214456105027472921e-01 5.073784155660066020e-01 4.102785350797385489e-01 6.041637448376890873e-01 5.315212766291808055e-01 5.222489686248900087e-01 -3.020056507616249442e-01 4.471238964155425100e-01 -1.675497571231462590e+00 5.453194291735777854e-01 5.327797306157009416e-01 5.345689509657652883e-01 4.151646977141782990e-01 9.331277985594281787e-01 2.319962831395340208e-01 4.970255528236224851e-01 1.391147450124304186e+00 -5.983567175774747726e-01 5.190276888846028225e-01 1.169573242775938438e+00 1.588102292430467521e+00 6.026414210418125084e-01 5.166322891591597077e-01 -7.254866688763837723e-02 -1.748349295239378209e+00 2.635692306183218259e-01 8.663746746648255392e-01 5.427073524378521752e-01 5.195992595687515259e-01 6.141786820515009460e-01 4.778775768377718225e-01 -4.391336968404251362e-01 8.462024092928520647e-01 5.192185153403114928e-01 3.231879451032471096e-01 5.102494787605638127e-01 9.098521639321309473e-03 -1.605285084484963654e-01 1.858342667198835230e+00 4.089434292769300039e-01 4.724191414362559627e-01 5.242396213579957331e-01 3.165851708995869873e-01 4.578861343743989010e-01 -1.763637317372745428e-01 -1.432054812062949267e+00 5.181266505265048616e-01 4.816063519800410919e-01 5.360470343986757369e-01 4.912306666553179491e-01 5.363799788079897102e-01 5.473868791601599337e-01 5.284191126376280856e-01 5.500230261610478122e-01 1.044974381459613522e+00 7.035332283300983480e-01 5.362018584382303166e-01 6.497994417889793040e-01 5.574467883749781860e-01 5.896436744642099548e-01 6.581066652243218462e-02 5.691760334003870270e-01 4.289203675561238938e-01 5.832934398878780735e-01 7.392248982523811351e-01 7.931129264631614495e-01 8.827141950574274309e-01 -5.698182883122882014e-01 5.360212517482679795e-01 5.104487552718333099e-01 5.250213697105972077e-01 5.989584393578062382e-01 9.181989747398863200e-01 4.500050709870458410e-01 5.223702024650920261e-01 -3.343224087651858190e-01 -9.209559072349455811e-01 2.375029767591308349e+00 5.275817958566162424e-01 9.110553579406805991e-01 4.282814506853515613e-01 5.835055729887745901e-01 4.127531643592794453e-01 1.538826743397427865e-01 5.234535211155605383e-01 5.048876321014670321e-01 7.822769769335130574e-03 5.173936280022713996e-01 4.724634822689182667e-01 5.237355882286037767e-01 4.209394734048038100e-01 5.288781668640659683e-01 6.518436825733743278e-01 4.403044494739760673e-01 5.150481617126830836e-01 5.565734329368914324e-01 5.185997218639468720e-01 4.202618149286552196e-01 5.213876396758797549e-01 -2.351610173479432297e-01 5.206893641658330019e-01 6.408145172709571735e-01 5.240679270660126843e-01 7.839782171658943311e-01 9.331279969760211124e-01 7.221652585905080635e-01 -6.283509627137733311e-01 9.737249037768235249e-01 1.886172236479186193e+00 5.182564307033541429e-01 4.637156036188527786e-01 1.094962009808813530e+00 5.456707895481067716e-01 7.837377649250685252e-01 5.250988646113210478e-01 1.915198779471258161e+00 5.181536396422652402e-01 4.557801760968380189e-01 1.238525837947256791e+00 -7.049450220133016143e-02 5.139373061185922298e-01 -1.489092477376274259e-01 -1.005703776887135081e+00 -1.606937257167359856e-01 7.796089698095549636e-01 5.453851591747307381e-01 5.361857108908316683e-01 -3.126379285942261776e-01 5.272252126363973224e-01 4.066506759899547047e-02 -4.324230223408208063e-01 5.550665343867006163e-01 5.117823249746208392e-01 5.210345875296915619e-01 5.003759247730144022e-01 4.690726871476181281e-01 9.244436407900112895e-01 -4.640881565234228900e-01 5.203400888002588376e-01 5.048930153058903691e-01 5.439578709776886623e-01 1.182333912731279302e+00 4.738172672123943108e-01 7.120509269893292581e-01 5.219238514559991771e-01 4.743730265011104896e-02 -4.825667855184468391e-01 5.021794103586023628e-01 4.807920991298166857e-01 6.866472670000985934e-01 5.269062879314199144e-01 3.955648983693584864e-01 5.169071988766834602e-01 5.222796802774100078e-01 4.386972294558656449e-01 5.451929947917873998e-01 8.422661320159680054e-01 2.623022979608811145e+00 -2.555655620066595857e-01 6.522914659697496287e-01 3.673396152162486383e-01 1.956816450830801690e-01 6.421576918840129489e-01 -5.270352085230221861e-02 -1.627891396768829768e+00 5.151281534592169198e-01 2.686403400503507566e+00 5.859658216390141172e-01 1.780834860964439492e-01 1.473060901729121019e-01 5.192179132539627151e-01 5.960307565481728354e-01 1.601697284681062650e+00 5.319639912698795881e-01 1.256818987327402715e-01 4.058951352753240038e-01 1.766831903361954170e+00 5.760519047487030475e-01 8.107741119368231386e-01 5.130811006184329282e-01 7.375287454728627345e-01 4.696016740188841965e-01 5.870312089677234280e-01 3.155548138841240274e-02 5.219768750997212381e-01 6.076675267021791615e-01 -5.920460665983354742e-01 -1.240902395527497953e-01 1.187395540828169116e+00 2.421994184585808951e-01 4.766725116284459274e-01 7.310578596682084651e-01 5.054671034149563758e-01 2.035519835604592931e+00 6.428774953656565261e-01 1.133763156604142806e-02 4.140935167944632678e-01 4.038234244601030531e-01 1.158026785674796555e+00 5.048383822337763061e-01 -1.853598688756289553e-02 5.320605814241546883e-01 -1.741163147806499461e-03 4.965866818579952602e-01 5.203478788279271017e-01 2.424673928878009338e-02 -8.042039075760008468e-03 6.566087103847305650e-01 4.601845571778506172e-01 5.848814209478128134e-01 1.586920480966043101e-01 3.972446784142409371e-01 5.318828399751415192e-01 4.298747205828339357e-01 4.943667299835718953e-01 4.806611939670117906e-01 5.643696351582507820e-01 1.023720160945326363e+00 3.213220653259579063e+00 9.785815496229305355e-01 5.174731097093568932e-01 5.118381571160700583e-01 2.210170228057602715e-01 5.229357991026094554e-01 8.659936656562023938e-01 5.164910554043650182e-01 1.317327944738172274e+00 5.435237675464497098e-01 -6.026812794102972548e-01 -2.150412121752187655e-02 4.453276322232448958e-01 6.173240202625500661e-01 5.835615747389930608e-01 5.187163590933896451e-01 5.546077397256727465e-02 5.092560762814314357e-01 5.975633099486843403e-01 -3.925108367002593468e+00 4.780598517716098117e-01 5.410915286777184807e-01 1.146784317268767062e+00 5.135930485912864052e-01 3.833729710504118482e-01 6.595692540569082496e-01 -9.294905383788794051e-01 -4.958525204525845442e-01 1.609275660589464321e-02 5.194907061052060904e-01 6.455443932217909131e-01 2.076202862142591532e-01 5.084819489893342981e-01 -3.511720846299258847e-01 5.229009592834509279e-01 5.760278177368903796e-01 6.975901122418165512e-01 5.602232415286316769e-01 4.646970330262782389e-01 1.389271169609348211e-01 -8.016533769887396188e-01 6.532483117501819425e-01 5.547024287510441409e-01 1.515944936789661024e-01 5.244124919227943771e-01 4.941306239751109830e-01 5.233148364264696983e-01 6.602783779592671376e-01 5.850819088623472330e-01 5.538766961199852457e-01 5.060626627024684687e-01 1.886172242081731953e+00 3.443164443443387790e-01 5.218007106587587707e-01 -1.460113225580446650e-01 5.017759496454680113e-01 6.497224818839409943e-01 5.153505853999121866e-01 4.779318661366869780e-01 3.863315466366353257e-01 9.681953885164971130e-01 1.238206019552378523e+00 5.523543871494231983e-01 5.715854361218124513e-01 5.972889514630578267e-01 5.098548873656795211e-01 5.115213190767047280e-01 5.204913255311323095e-01 9.736998947312679453e-01 6.608600800672114195e-01 -4.700788290641324529e-01 4.716108749440947601e-01 8.955820541885548547e-01 5.119146707369196525e-01 -4.768855316424643748e-02 5.229007422877327560e-01 1.586048837517125776e+00 -1.373547104372103145e-01 6.804161437006245317e-01 2.300459272005218048e-01 4.929760826377682648e-01 8.868789871818497650e-01 5.191404082687691712e-01 3.764134792187965317e-01 1.418150245314919067e+00 4.716399996909759751e-01 5.109917493325331073e-01 -7.364927541411169232e-01 4.370715277179858527e-01 1.037962354222599970e+00 6.342746690007666777e-01 6.091769483195470097e-02 1.004117007717294063e+00 -4.862214340438013836e-03 7.686426335985029334e-01 1.677944979296686512e+00 -8.726169315847289720e-01 5.553538864356687421e-01 5.212851391912874943e-01 -4.936382493481131783e-01 3.011415325498375539e-01 5.343888302082379083e-01 5.318151294056588929e-01 4.612921422896293366e-01 4.652101722322631305e-01 2.624756856295610841e-01 3.535080794915270164e-01 5.590481174398903574e-01 5.185274383454875347e-01 1.007286487717918080e-02 -1.814674589155697570e-01 5.119134651255163870e-01 1.071807498057842034e+00 5.799191134695810268e-01 -5.919216567228324788e-01 4.207897032899957090e-01 5.202776094876289115e-01 5.709705602673035285e-01 4.888895961872715551e-02 3.225797062376899449e-01 5.186781311590616950e-01 5.150639060622931309e-01 4.555598545182463210e-01 -1.575508089065846482e-02 5.425658644663583496e-01 5.397390556681944673e-01 5.444642768524770027e-01 2.122235520343433546e+00 -2.202766312271860552e-02 3.915228613971744043e-01 5.557446119811715324e-01 1.870591350506930706e+00 4.901504314725538825e-01 5.757306980261428508e-01 3.409893987253303366e-02 5.691759958395425922e-01 5.162166719838331419e-01 4.781697997533222444e-01 4.165152483982459408e-01 5.373210030445800811e-01 4.588172010915751442e-01 5.333259339561989831e-01 -5.774200298773940476e-01 5.185959056757306618e-01 5.156300594282635652e-01 5.374521731967780713e-01 1.334750411582100504e+00 5.286347601593848200e-01 -2.515561425825358910e-01 1.151344112414433019e+00 -1.347638041920758090e+00 -5.565003263909683584e-01 5.062864649694235331e-01 5.211060574602948137e-01 6.718727776582736899e-01 5.346158113470266260e-01 5.539881021861217114e-01 5.015124516071752803e-01 5.691760142913316889e-01 5.233697276060503834e-01 5.553287919388399940e-01 6.102391085270449933e-01 5.195211566601669606e-01 3.318960416706755456e-01 5.284747562999430048e-01 5.360631479979981462e-01 4.207730107255002183e-01 5.258174082309984287e-01 5.233069471788748261e-01 5.052592707696982322e-01 6.511398785053936766e-01 5.194374009745128529e-01 7.339147898247126989e-01 5.266113043835431995e-01 5.281196412946342900e-01 5.348637016751879303e-01 4.442609015666477701e-01 3.376473392436454279e-01 2.510626503667539478e+00 5.489368523548588952e-01 6.420003340277687931e-01 2.974718136309187355e-01 5.749445822426721975e-01 1.126227753803772380e+00 4.222155975447557386e-01 6.832958786509831794e-01 5.194593085866870963e-01
7.167578140002743847e-01 2.895483746461970931e-01 4.609154397188754415e-01 -4.842440233626194024e-02 3.030692808025262086e-01 4.181947500659436434e-01 5.410591701828937339e-01 3.674981714383103171e-01 4.013494724365463950e-01 3.010046358802088706e-01 2.099213898348007312e+00 1.748714901239143638e+00 -1.492862100614104293e+00 5.648548654237843802e-01 2.969148057534332641e-01 4.698515806335138989e-01 1.396785171057050579e-01 4.552310798621440058e-01 3.891873026584907191e-01 3.247582308139135843e-01 3.851275745835881503e-01 2.176041952765588317e+00 3.358250878461541689e-01 3.303519248685499177e-01 7.634963514889931968e-01 -1.459884558983270963e-01 3.836243073230216627e-01 1.751338458475011350e-01 3.592942715707818646e-01 -9.561973194285063871e-01 4.667612096733315674e-01 -1.716393810855227353e-01 2.897628565017333901e-01 2.865375552401214221e-01 -4.029150461999424504e-01 5.092464386890331873e-01 3.316767533074395091e-01 -4.129052840837608152e-01 -3.350391229405183413e+00 2.964084032307961469e-01 1.225157813299107668e+00 1.486681801044358597e-01 -1.706577083720703103e-01 7.911654049073737482e-01 5.206393488655693957e-01 3.073663089904973278e-01 -4.832882462601152673e-02 3.278795487582759627e-01 1.027733358655448237e-01 6.579483890244012256e-01 6.985060839715468983e-01 5.157886610665906035e-01 -1.096209694282555130e-01 2.603123550344029202e-01 5.793930956269268684e-01 6.730055543636074278e-01 2.730104716039489787e-01 3.026461991331264034e-01 3.442994642073079481e-01 2.808676203930450255e-01 4.375828069527474828e-01 4.301750481882101185e-01 3.317643737174001961e-01 3.358250890083882001e-01 -3.377004151817336597e-01 1.084795354099379189e-01 3.011089408077206042e-01 3.019957012327765811e-01 2.935986822535153196e-01 6.884133218268364551e-01 1.981951138397023970e-01 2.601397092647361187e-01 3.088395856861651523e-01 7.103020514545936859e-01 1.963938444455028742e+00 3.660513415742364662e-01 4.816379964879186071e-01 4.834606992201639364e-01 3.025082142592738776e-01 -1.371137267017487726e+00 3.262113664383478606e-01 5.009155957104615142e-01 2.445105978954252635e+00 5.900425967590168519e-02 2.388304896112428966e-01 -3.284461312005438338e-01 1.516808497143369849e-01 3.746216462854710105e-01 -5.886830238759480638e-01 -9.262316387522617767e-01 5.207126159718146186e-01 1.634102071327981465e+00 4.515957250401360368e-02 6.834893980381834266e-01 3.729746661283245834e-01 3.595626419781436933e-01 2.916203607132070719e-01 8.006598546872383260e-01 7.357728718222279474e-01 -1.362405067840078421e-01 -1.866449286242008454e-01 5.788571720677666149e-02 3.510676227564384910e-01 2.298600007855710614e-01 -7.776374029852800573e-02 3.211500480015254677e+00 -3.006142939740233944e-01 4.100787943636894917e-01 6.180689359861823995e-02 8.131646488206419887e-01 2.987731108958913695e-01 5.475133682174645466e-01 1.622470874843690292e-01 3.082906875198791474e-01 -4.666999504941703458e-01 3.369163653260410229e-01 5.383495372270953594e-02 3.693652601019005721e-01 1.241079415284557452e+00 3.293666489526131391e-01 -1.490954032545206864e+00 8.987235580842797833e-02 4.766058708945280359e-02 1.532634056071418227e+00 3.131544793781673719e-01 2.228857610392651178e+00 4.138569900498187959e-01 2.027846222493879802e-01 3.194469728001306241e-01 3.078922239790319315e-01 3.444254966675607266e-01 3.058659279288215016e-01 6.655833322646248496e-01 3.912650799347821562e-01 1.540970037073979837e-01 8.494640047000103777e-01 7.354317365787478300e-01 6.963830806095687720e-01 -3.442015520952548813e-01 2.474114295919917217e-01 3.335897119899175478e-01 3.223412290144571091e-01 3.706486339202516023e-01 3.035503516639634358e-01 3.061177389324843401e-01 7.007901831078189314e-01 -1.979535691124977570e-01 3.196062641218933575e-01 4.046707344986901211e-01 4.062131775974976988e-01 -1.700957236803204153e-01 3.159527738771791133e-02 3.073816944865930822e-01 3.276701372722289896e-01 2.619455423069321776e-01 3.033897962210911903e-01 -2.577365284317771899e+00 4.764817522767958446e-01 -6.163968247492975783e-01 -1.359080524198961748e-01 1.202444762081665980e-01 4.274467621284421814e-01 3.139108947827833340e-01 3.019614509355222354e-01 1.365201888311787237e-01 1.389258862054506827e-01 3.224191308690267377e-01 5.062440509474358530e-01 4.940145962378935107e-01 2.540275660028353810e-01 2.614980172055812457e-01 -4.662848555153031177e-02 3.072912072245586046e-01 3.019115294571462771e-01 -2.562639179037886628e+00 6.635933769525679260e-01 5.534986869822028366e-01 9.186600272723883798e-01 -4.629488569900842010e-01 1.176288054737607780e+00 7.385032700214612389e-02 2.993965087464159902e-01 1.252373051211728594e+00 3.920952211624207928e-01 3.187161683971578285e-01 3.695210602221261631e-01 2.624204987553921953e-01 2.924672299583365165e-01 -5.140172436104976095e-01 3.677344227656654252e-01 3.727034626180497634e-01 8.316668861691589587e-01 3.540345467176628236e-01 3.689402356200187638e-01 2.577823810995987786e-01 3.015263553805254126e-01 -1.721704755385092378e+00 2.892314711524945903e-01 3.873106870440910510e-01 2.321009032491146429e-01 2.070571750067290093e-02 3.826212020662516644e-01 3.919977398802637070e-01 1.592518113598879737e-01 -7.432748283244404730e-01 3.873107251131314155e-01 5.042569043655978911e-01 -5.308929567113156445e-01 3.116291580202649181e-01 2.714355213987688087e-01 2.208813254160909290e-01 -3.347508381282049417e+00 3.961316667394282343e-01 9.035553890154607304e-01 2.932077684619321944e-01 3.021786135788895877e-01 3.042596518815003925e-01 3.333151845254745949e-01 3.027801872356082336e-01 3.059802371453440029e-01 3.882936579412039069e-01 7.904573580759564899e-02 6.766549729143667147e-01 1.139430595342522806e-01 4.039043841226157561e-01 5.462966199319784222e-01 4.187359317683641002e-01 -7.261871701720683525e-01 2.365253502423354082e+00 4.169021429176935634e-01 1.260176207839062590e+00 -1.409861216540811535e+00 2.993058281262900300e-01 3.021027643005991248e-01 3.380025499115862364e-01 1.207323263751238107e+00 5.355432812426954570e-01 8.470935860588340027e-01 2.916218510599663527e-01 6.642751192221559853e-01 2.074146290330119435e-01 3.162975325366383372e-01 -1.207349296278497519e+00 4.163698586184171879e-01 3.015297775528956725e-01 5.082492178463489108e-01 8.639395311218720508e-01 -3.939485829418047924e-01 3.270870398744765151e+00 4.961746313614681103e-01 1.333220999732373402e+00 -3.446663705984382431e-01 3.104598022523861744e-01 3.358213590197015597e-01 3.610678024140262510e-01 3.088892282619716823e-01 2.374943224965953559e-01 -1.714517318623208497e-01 7.655273553444225110e-02 5.632206658385847664e-01 2.240912055400207659e-01 1.103940547707747549e-01 2.435912899136583876e-01 5.137447511687964763e-01 4.375828178159436588e-01 2.629358030676816060e-01 3.343592836212075259e+00 3.270323131567754449e-01 6.494804047167549443e-01 5.113966960076901103e-01 3.260708029194621660e-01 4.373427355647206971e-01 2.991701633381168568e-01 2.985952161446958630e-01 3.030702212378857952e-01 -6.542194504945965106e-01 3.976429577329125831e-01 2.850075488120247247e-01 1.507817895750576676e-01 3.567658440186611268e-01 1.567520234423689374e+00 3.523974118708692038e-01 3.317212794922275720e-01 2.021815519792434124e+00 5.165798523877446202e-01 3.266550306253790947e-01 3.167334959902804448e-01 3.140820399714663869e-01 3.369158331710787047e-01 -2.085080851797273205e+00 3.485205508461358126e-01 1.631685200069805441e+00 -1.078946958212728263e-01 3.527320788297414467e-01 6.520729120151884661e-01 3.420247531558934240e-01 -7.373376801424298410e-01 3.400259446449875322e-01 2.959232633975604765e-01 4.046465170460943339e-01 -4.113514024717357387e-01 3.257665684000058959e-01 -2.423302681005350845e+00 -4.758084775837001512e-02 2.827969073027472580e-01 5.947753735316421153e-01 3.031877729332986271e-01 3.002965710657033438e-01 4.978367311910672499e-01 1.585338228356983348e-01 -6.506613387131154891e-02 -7.829263946918267880e-01 -6.287615997185085244e-03 6.876433972716907705e-01 2.932232882097450810e-01 4.922400635714775929e-01 3.113102674828212568e-01 -4.817444402959732142e-02 2.917668877099869884e-01 2.502738778746391723e+00 6.844038419327078682e-01 2.473698712622850737e-01 -1.197785118856111053e+00 2.500063569138598618e-01 4.845712612895505700e+00 4.246789988470233146e-01 -2.081552497312179895e-01 5.727055435197279110e-01 -5.756447848346787133e+00 5.403760301320787995e-01 1.598420219857942914e+00 3.045689595985452969e-01 5.195249370674845935e-01 -4.602666754791511217e-01 4.180941393529446493e-01 2.318425647428079828e-01 3.524938649719838724e-01 2.061639503049895461e-01 3.028989177359631135e+00 -3.885578520006019443e-01 3.106407313996490949e-01 -1.950663361994509293e+00 2.728977917567120826e-01 -4.129052797446302048e-01 7.636986548144301112e-01 4.802534794988022049e-01 2.602838707660263262e-01 2.874798181713548728e-01 1.257778428983930441e+00 1.645077606937464243e-01 3.873109708607258006e-01 4.163650589571797345e-01 1.592518081374633410e-01 4.002144990561042892e-01 3.824283883324356981e-01 -6.306134490791932556e-01 3.003703955037692608e-01 5.643422076172807111e-01 4.112578075900907848e-01 1.867693367901189783e-01 3.050823298727753929e-01 5.161164129891631092e-01 4.802534587758169327e-01 5.226476501953934983e-01 3.011282192210072428e-01 1.573897022032537674e-01 3.632266568497045656e-01 3.570869282364651731e+00 2.787808131665560629e-01 9.440862116003286009e-02 4.375833428849194018e-01 8.329989453627157925e-01 4.707192269405843787e-01 -1.921330420910987435e-01 6.928900802640827195e-01 3.439065400379609505e-01 1.314818281168282643e-01 4.300650713606903874e-01 6.838304302233997323e-01 5.067569650670394887e-01 8.029687702833127050e-01 8.267718228307990858e-01 2.066468702018132986e-01 1.592518036841505391e-01 1.592518850506529082e-01 3.100064986558656033e-01 2.449937364487333180e-01 1.119455909824126350e+00 3.815721984049991744e-01 3.160135421966927538e-01 2.503676212694123104e-01 3.052719462829296959e-01 7.375041707423439785e-01 3.873111095370515011e-01 3.013723768351274646e-01 4.041197806589853503e-01 1.835395805797928603e-01 -6.452086586425784809e-01 3.148562545000394008e-01 3.070727264346678198e-01 3.520327296695528463e-01 6.578695057257776257e-01 6.487374289519043380e-01 1.592518111059481045e-01 1.571062941298124738e-01 3.022814187251877116e-01 5.186051065192615050e-01 -5.976280362775582278e-01 1.690240661495147900e-01 -3.617395520451085478e+00 2.058439829978084834e+00 6.237043153151472508e-01 -4.947626275230534443e-01 -4.846894159869494928e-02 2.104172732512022304e+00 3.272716853341598453e-01 6.566055108185071543e-01 -7.795818341201740664e-02 4.152074542524998302e-01 3.841370799698102800e-01 3.319081233228657335e-01 -5.827798264812060758e-01 3.366126593603072092e-01 2.110905584197619422e+00 1.992784705215721042e-01 -4.773723694403481654e-01 2.880972545983997435e-01 3.084329970604091642e-01 -1.474596824311829701e+00 3.262711542472646609e-01 3.733422041891073517e-01 4.037194671181654759e-01 1.050708451493895523e-01 2.964516016046035984e-01 2.280833635337105869e-01 2.809551194511115679e-01 -1.616828764172322241e-01 3.126697346722170923e-01 1.139211454072559249e-01 3.006431389850032776e-01 3.065183658694103919e-01 1.250474553888054549e-02 3.610124953737263165e-01 4.726116586155305055e-01 -1.440809449147492316e+00 -7.060528305771992530e-01 -1.227570034127452719e-01 1.638715657534367820e-01 1.304997468333541077e-01 4.378588917987760176e-01 3.546547913301739685e-01 7.052157141874916269e-01 -1.454691180163580344e-01 3.320544282278738435e-01 3.042662275888055601e-01 9.701883320173508574e-02 -1.617220840187918174e-01 3.135226512628213058e-01 4.589322798581766949e-01 4.801646194302698345e-01 3.480000856991100622e-01 3.021914075467989069e-01 2.958352865832397649e-01 2.414818161608199565e-01 3.012505079633429617e-01 4.766613154458402279e-01 2.239818391924016383e-01 3.024214828054207493e-01 6.921340540653276863e-01 3.066708714272937675e-01 7.021506343336670897e-01 -4.229991972076325296e-02 5.913364462702418445e-01 3.128553585020512062e-01 -1.483720987790334345e+00 3.034732920735472295e-01 6.248663890727275128e-01 3.406114130964618680e-01 3.384692840138673886e-01 3.700559633060176434e-01 1.592927677595731284e-01 6.871434136048343300e-01 3.019443824045984770e-01 4.376045844407756014e-01 3.037418541101563063e-01 2.718262141987790592e-01 1.703070558534864887e-01 4.635210699301131054e-01 3.056002391421207554e-01 1.470514791468000571e-01 5.656065148208924351e-03 1.268976321778277627e-01 1.682788432462930528e+00 1.530095477741968968e-01 3.229930537349142150e-01 3.944717610082516535e-01 -8.777772057499094727e-01 2.821559021728881067e-01 2.189814206947091890e-01 2.368797805668226841e-01 -1.074141011465660489e-01 2.609660576536517729e-01 1.735830877635647473e+00 8.973793699649473821e-01 4.765922805269867668e-01 2.568287644254027557e-01 3.054322914253435606e-01 3.454763241558280740e-01 9.395874407419043672e-01 3.119140944468347776e+00 3.005315361852368139e-01 7.833052976698774011e-03 5.820366986395468789e-01 -2.555081995511698234e-01 3.059855672327995157e-01 3.113693405141059189e-01 1.095312280531295812e+00 2.916217239791578097e-01 -3.541341280132480618e-01 3.951836365027751041e-01 1.441533668409332170e-01 6.072764404468211641e-01 1.898706528553103734e+00 2.662578179015994140e-01 2.923397613967716469e-01 1.680583903256041678e+00 3.856233856605807420e-01 2.579009275707853655e-01 1.455739469735089775e-01 1.643382951832007832e-01 -4.873813413211505047e-02 5.269991293423470502e-01 2.475598414915007317e-01 7.056828650602225972e-01 2.860623035014340232e-01 1.948177340363821675e-01 3.376572634572320708e-01 3.089869475478950744e-01 4.536739838791087331e-01 2.662188932301023936e-01 8.697955899709363115e-01 5.212395262365028259e-01 5.217423119253198349e-01 3.560493695714585516e-01 2.471222895417556076e-01 3.110081426860940024e-01 5.953486991787748650e-01 7.833442091909629257e-01 3.746559215201192283e-01 3.390741094507088160e-01 6.252436896441947445e-01 3.041024407883655689e-01 6.827254683657538736e-01 3.627189671546424132e-01 4.886120791057458890e-01 -3.002265999891758352e-01 3.024543464204679233e-01 3.267983804122300828e-01 4.617193705835824225e-01 1.929408151243750813e-01 3.687877917079235290e-01 1.844097217740685579e+00 -1.655994919922392644e-02 3.752652263117037257e-01 -2.341105810002973020e-01 1.705276013433355997e+00 1.169143086246213326e+00 3.962597028205942784e-02 -4.341407991532577615e-01 4.539568830556539036e-01 2.556263309074895407e-01 4.705677822599714788e-01 3.007368595705840475e-01 3.069995342925358472e-01 2.451856007744225296e-01 3.292654751875158103e-01 2.513958379008185973e-01 -4.871695867507159355e-02 -2.439637603790758835e-01 2.936072938286891643e-01 2.121125243429043961e-01 2.639877960338485319e-01 8.881938873667902801e-01 4.375828109584688486e-01 3.232420617132690799e-01 8.649957087026851621e-01 4.749447784907009917e-01 5.202483140821677621e-01 4.433369301407465435e-01 7.025215183585781231e-01 1.489799208988545454e+00 4.051660523586538276e-01 2.143285651783244372e+00 -1.945630953499083091e-02 1.631322471037294497e-01 3.036998484793050901e-01 3.522739554457335331e-01 3.933354560540075484e-01 2.540153743688682297e-01 2.856596122214223876e-01 3.051626441232866971e-01 3.736690115472795504e-01 2.380415746559231827e-01 -3.714540600859744246e-01 3.276732500059513775e-01 -4.747251793858722063e-02 3.100626548927613024e-01 4.046051403841977034e-01 4.375828108770753455e-01 2.406515204854154100e-01 2.475678238374304507e-01 -1.320746371310175915e+00 2.001393026233545314e+00 3.047298775248746261e-01 -7.719175126893522698e-01 2.966731405358418727e-01 3.397343021980909761e-01 3.000732211746863221e-01 -4.904436933190948089e+00 3.614007209154293410e+00 6.382451297248261657e-01 8.450305970883918369e-03 3.267377694730008719e-01 2.996940529369997996e-01 2.470392852816432616e-01 2.680900409271284701e+00 6.348416269854898486e-01 3.192988169990575997e-01 3.369161444674431127e-01 3.209243298762695096e-01 3.376733635565041247e-01 8.515811603734129154e-01 -3.711011183586478968e-01 -1.249914022964455862e+00 -1.250674677643328403e+00 3.000263774050676013e-01 3.018600780702627717e-01 7.476087951263078457e-01 3.560365124460996289e-01 1.541863765063705261e+00 4.972871289506856640e-01 3.057350993805739714e-01 3.418590544033541234e-01 3.015631078930757214e-01 3.389596635172363315e-01 3.103582437970081598e-01 6.344220904510462500e-01 3.516178276069371611e-01 6.596470264776637116e-01 2.381414134314794040e-01 7.288160356721738731e-02 3.104135307579775072e-01 1.756315818129730866e-01 2.389399431517935379e-01 3.135428673453188320e-01 6.261455291920655641e-01 4.802534574944754553e-01 2.312105756262133049e-01 2.362823310918832631e-01 3.013286553677719803e-01 2.803569286439420716e-01 1.735837927825333304e+00 1.964880595002647112e+00 3.095481317131094090e-01 2.989123950471550550e-01 3.005157730684299699e-01 1.737096977333073555e-01 2.190664697990534482e-01 4.470023323769525825e-01 2.866722787733699263e-01 3.302076320193841341e-01 8.148618284174248272e-01 9.029766108266510383e-01 3.486587827727187228e-01 1.906720313724808102e+00 3.865300847233780757e-01 -2.950817214088448659e-01 -2.690809964551788558e-01 -2.992703944131412941e-01 3.057509762267988651e-01 3.563508669940216866e-01 7.085277617774141667e-01 2.898001063829605539e-01 4.302183764505278507e-01 2.933579246363930970e-01 2.946915419209516496e-01 2.628370407456757096e-01 -8.564509454106469799e-02 1.003974774585517871e+00 2.926651954964691327e-01 2.763817007341102250e-01 3.085172295208625792e-01 3.472041896388992077e-01 2.897263443157098717e-01 3.992697690146296829e-01 -7.142165891099597208e-02 2.219929255249773470e-01 2.885372858080566538e-01 -4.812361923740659381e-02 4.375825391162501687e-01 1.090074739729184561e+00 9.783193332316754143e-01 -7.153447097851979297e-01 -4.129052841658213402e-01 6.620151917773903216e-01 -3.407956745005630950e+00 1.590373378752257816e+00 3.029464889842417574e-01 -4.838230293146229821e-02 3.008678962751256680e-01 9.137879670151209943e-01 2.988911792290261937e-01 4.163695920791963823e-01 -4.394049696359287882e-01 8.111142741595780414e-01 3.063490091869033316e-01 8.513341492236501384e-01 2.126877687863077515e+00 -3.712879461371436651e-01 -1.496393180159621750e+00 2.759057628339872115e-01 3.011450032943697730e-01 7.427485287973488726e-01 2.984974253610693795e-01 6.942540425869764276e-01 4.690712592930038061e-01 3.664460392000368216e-01 3.021871937410989251e-01 3.093359406049125404e-01 3.406929057847598585e-01 3.155245197659130585e-01 1.449148568906397649e+00 1.686048800311765739e+00 2.935053766716953505e-01 3.425762106069534241e-01 3.031211270669463276e-01 -2.529986478635268821e-01 2.357575255520865942e-01 -6.854190813666227733e-02 3.029702326903231380e-01 7.046229274637580975e-01 -5.839614788279451352e-01 3.218026385300264414e-01 3.259734695944589422e-01 1.571936878827544515e-01 2.969582237707235617e-01 1.717581509195769129e-01 3.039414262185399229e-01 3.041266093486741928e-01 7.692502024519694281e-02 3.093875472805414639e-01 4.310637975833688795e-01 1.142758363248098430e+00 1.114054455624951201e+00 9.045538663631362830e-01 2.251028147628436615e-01 7.975066693831119879e-01 1.655807809212075377e-01 5.128502729378153768e-01 -2.212120698189171009e+00 2.986513694736857571e-01 6.657313117511257650e-01 3.023278444830938549e-01 9.412988687345456018e-01 1.387284566708158584e+00 3.369163660566525387e-01 2.347850719186442836e-01 3.767138079045400101e-01 4.346902556718367228e-01 5.467384522577886097e-01 9.874621484129698645e-01 -8.343878251902507870e-01 3.005397050167663009e-01 6.699337183413636362e-03 3.196900984473327600e-01 3.398779087924094222e-01 7.561586870093267576e-01 -2.945017636816838480e-01 4.159145131962915243e-01 2.991913098285364780e-01 3.582352911366740167e-01 8.971615173989532233e-01 4.363079780450088152e-01 -2.265313302986015354e-01 8.573544638206781476e-01 -2.963897049247780566e-02 5.544627064503303560e-01 3.484924941743785531e-01 1.303467001402676129e+00 6.059496113048589150e-01 7.045409012202803467e-01 4.289374464213496774e-01 4.782725576146632518e-01 -6.056425082900096513e-01 2.185790248449045459e-01 7.427368218486158913e-01 2.945260039116611717e-01 6.002983635347003410e-01 3.024520766343343769e-01 3.046125879114425783e-01 7.046806725848956399e-01 1.743280502055766512e-01 -2.082966722946860028e+00 2.218475389910197770e-01 2.502659225210264182e-01 9.688014690910898841e-01 3.192643160612762543e-01 3.068914113361403406e-01 3.767133723557247182e-01 3.075988555845634576e-01 4.102508434094602197e-01 1.275984036748459283e-01 -1.640612124324248189e+00 7.702748589565224790e-01 2.367650149272064464e-01 2.985845831035191522e-01 3.035857451420240216e-01 8.172013930624956179e-01 3.044521517534910515e-01 -1.622313388075007357e-01 3.575632046203279790e-01 1.128866064389427271e+00 3.339292234761406242e-01 4.169835102073594646e-01 1.033257502102542524e+00 4.359274641695199959e-01 2.882226705101273989e+00 3.141446815551998117e-01 3.189739942829006303e-01 7.168406995170962803e-01 2.999647885020423899e-01 3.257191903355991514e-01 -2.213054896552013595e+00 4.675927882385312317e-01 3.089900851750982391e-01 5.212137830095228130e-01 2.946480450232222825e-01 1.908149413484390988e-01 -1.500335094078562581e-01 2.099427597333302753e+00 -5.170273933556328583e-01 8.222928907407225374e-01 3.024703824982522549e-01 3.242116771336325254e-01 8.687166617341005592e-01 2.751937375481856574e-01 1.354456850578699134e+00 2.482466818616974602e-01 4.195047626527315110e-01 -8.889464367967163660e-01 -1.265147827709952877e-01 -6.658172235696525609e-01 -4.128194853211659243e+00 3.031311869678979587e+00 1.445503902279879002e-02 2.827709538384585164e-01 -1.686817643053776461e+00 3.056063441705469952e-01 4.794408234165946081e-01 3.129821908451110302e-01 1.960796021447209769e-01 6.441495032513426811e-01 6.066463746893251407e-01 1.123286460291611277e+00 -4.129052868568289236e-01 -2.428039932729595951e-01 2.831506320217189732e-01 -1.204299819673548155e+00 3.840270532536634862e-01 -6.651166624799768057e-01 3.185075059139793607e-01 4.336300405522182100e-01 1.383195020273308984e-01 4.647011529240652750e-01 2.597083940444849248e-01 1.154470497973046454e-02 2.868643711163400556e-01 2.781313458082236290e-01 3.678934291033534310e-01 2.810257887270354860e-01 3.061107833178727811e-01 -7.151036823968239808e-01 4.361053779218936888e-01 1.553304836007854961e+00 8.253613138880300237e-02 2.337247326991574448e-01 2.440713964949997872e-01 1.200619261171996133e+00 3.233684606991914512e-01 7.476748852047312988e-02 8.796659539364470870e-01 2.102755450765055045e-01 1.904247832310412614e+00 3.103977860855371418e-01 1.405794240417227892e+00 2.795797144604588169e-01 7.326682914603184216e-01 1.362488913818029168e+00 4.211636414782966020e-01 2.324401400136707763e-01 9.608342889442824664e-01 -1.796901188383500381e-01 -7.197692258563467838e-02 2.697598089830521850e-01 3.087913029677250010e-01 3.684959211791569156e-01 1.470919299490677234e-01 8.776946283296288565e-02 -3.962435649709815100e-01 1.291893083462389180e+00 2.990362488964806720e-01 3.068462861792768948e-01 -3.301780151536616525e+00 5.741582503743728472e-01 2.032262343106286950e-01 3.124770968978092256e-01 3.477524506695108264e-01 3.936640700335555798e-01 -1.144585489716953841e+00 6.392498754756991142e-01 3.008301136923896557e-01 2.992592084676462538e-01 1.013705134668581698e+00 4.738007148080708997e-01 3.138966158774887383e-01 -1.429247588511087352e+00 3.276117572501534569e-01 8.971916407567257501e-01 3.870865183653485198e-01 3.021583242857493468e-01 2.610567886747839350e-01 7.083319665972618306e-01 -3.434126401306979853e-02 3.040910919405463431e-01 3.115348687575451025e-01 1.098171673589824066e-01 6.657010003200333204e-01 2.421745096631670868e-01 6.731053898080916476e-01 2.023929035136708965e-01 6.960916858602688162e-01 -2.575863961965598192e-01 -1.514998227307756240e+00 2.826859680973300426e-01 -2.273730526056209900e-02 2.546719449096228605e-01 3.320293372698720491e-01 5.733724166290515845e-02 4.802536925384731648e-01 2.971355614182354388e-01 8.586478166434746706e-02 4.078026398184876888e-01 3.199603536083578947e-01 2.772932614252862082e-01 3.583005045330870386e-01 -8.791217036976196608e-01 3.068058561013591867e-01 3.428556025350587011e-01 2.851228297983653959e-01 -3.899713221528223750e-01 2.951572243350170655e-01 8.494774167592661351e-01 -6.480720299753294222e-01 1.150245202120937726e+00 6.252215149682973649e-01 3.312375364820787649e-01 3.041628133907024467e-01 -2.084464870899658706e+00 3.079611440567301406e-01 3.198182325746843357e-01 3.338965237105310790e-01 4.802534769091043598e-01 3.009697164833192717e-01 3.455872598158581388e-01 4.746482749336279616e-02 3.052681589912107918e-01 4.313168438413734207e-01 2.939798513818088210e-01 2.454360851610384586e-01 2.778718712880036135e-01 3.067556859756114251e-01 3.043673043842768933e-01 3.715852903629147108e-01 1.712321643820060579e-01 2.981634381063411054e-01 6.330800006686078119e-01 1.432181774368895821e-01 3.104847204946458161e-01 -1.563549915849432592e-01 2.152062869303919546e-01 6.746115110063386489e-01 4.635467653680783506e+00 3.114798964248531310e-01 5.513867383517134790e-02 5.762152640864594000e-01 1.723172246262230367e-01 1.582667281745996135e+00 3.123875701937091076e-01 6.247050798230415758e-01 3.043865405865850415e-01
