# 
#                 ----------------------------------------------------
#                 Data from a 3D direct N-body simulation. 
# 
#                 rows are i-particle; 
#                 coumns are :mass, tag, x ,y, z, vx, vy, vz, ax, ay, az
# 
#                 NTHU, Computational Physics 
# 
#                 ----------------------------------------------------
#                 Time = 0.0
0.000000000000000000e+00 1.000000000000000000e+00 2.000000000000000000e+00 3.000000000000000000e+00 4.000000000000000000e+00 5.000000000000000000e+00 6.000000000000000000e+00 7.000000000000000000e+00 8.000000000000000000e+00 9.000000000000000000e+00 1.000000000000000000e+01 1.100000000000000000e+01 1.200000000000000000e+01 1.300000000000000000e+01 1.400000000000000000e+01 1.500000000000000000e+01 1.600000000000000000e+01 1.700000000000000000e+01 1.800000000000000000e+01 1.900000000000000000e+01 2.000000000000000000e+01 2.100000000000000000e+01 2.200000000000000000e+01 2.300000000000000000e+01 2.400000000000000000e+01 2.500000000000000000e+01 2.600000000000000000e+01 2.700000000000000000e+01 2.800000000000000000e+01 2.900000000000000000e+01 3.000000000000000000e+01 3.100000000000000000e+01 3.200000000000000000e+01 3.300000000000000000e+01 3.400000000000000000e+01 3.500000000000000000e+01 3.600000000000000000e+01 3.700000000000000000e+01 3.800000000000000000e+01 3.900000000000000000e+01 4.000000000000000000e+01 4.100000000000000000e+01 4.200000000000000000e+01 4.300000000000000000e+01 4.400000000000000000e+01 4.500000000000000000e+01 4.600000000000000000e+01 4.700000000000000000e+01 4.800000000000000000e+01 4.900000000000000000e+01 5.000000000000000000e+01 5.100000000000000000e+01 5.200000000000000000e+01 5.300000000000000000e+01 5.400000000000000000e+01 5.500000000000000000e+01 5.600000000000000000e+01 5.700000000000000000e+01 5.800000000000000000e+01 5.900000000000000000e+01 6.000000000000000000e+01 6.100000000000000000e+01 6.200000000000000000e+01 6.300000000000000000e+01 6.400000000000000000e+01 6.500000000000000000e+01 6.600000000000000000e+01 6.700000000000000000e+01 6.800000000000000000e+01 6.900000000000000000e+01 7.000000000000000000e+01 7.100000000000000000e+01 7.200000000000000000e+01 7.300000000000000000e+01 7.400000000000000000e+01 7.500000000000000000e+01 7.600000000000000000e+01 7.700000000000000000e+01 7.800000000000000000e+01 7.900000000000000000e+01 8.000000000000000000e+01 8.100000000000000000e+01 8.200000000000000000e+01 8.300000000000000000e+01 8.400000000000000000e+01 8.500000000000000000e+01 8.600000000000000000e+01 8.700000000000000000e+01 8.800000000000000000e+01 8.900000000000000000e+01 9.000000000000000000e+01 9.100000000000000000e+01 9.200000000000000000e+01 9.300000000000000000e+01 9.400000000000000000e+01 9.500000000000000000e+01 9.600000000000000000e+01 9.700000000000000000e+01 9.800000000000000000e+01 9.900000000000000000e+01 1.000000000000000000e+02 1.010000000000000000e+02 1.020000000000000000e+02 1.030000000000000000e+02 1.040000000000000000e+02 1.050000000000000000e+02 1.060000000000000000e+02 1.070000000000000000e+02 1.080000000000000000e+02 1.090000000000000000e+02 1.100000000000000000e+02 1.110000000000000000e+02 1.120000000000000000e+02 1.130000000000000000e+02 1.140000000000000000e+02 1.150000000000000000e+02 1.160000000000000000e+02 1.170000000000000000e+02 1.180000000000000000e+02 1.190000000000000000e+02 1.200000000000000000e+02 1.210000000000000000e+02 1.220000000000000000e+02 1.230000000000000000e+02 1.240000000000000000e+02 1.250000000000000000e+02 1.260000000000000000e+02 1.270000000000000000e+02 1.280000000000000000e+02 1.290000000000000000e+02 1.300000000000000000e+02 1.310000000000000000e+02 1.320000000000000000e+02 1.330000000000000000e+02 1.340000000000000000e+02 1.350000000000000000e+02 1.360000000000000000e+02 1.370000000000000000e+02 1.380000000000000000e+02 1.390000000000000000e+02 1.400000000000000000e+02 1.410000000000000000e+02 1.420000000000000000e+02 1.430000000000000000e+02 1.440000000000000000e+02 1.450000000000000000e+02 1.460000000000000000e+02 1.470000000000000000e+02 1.480000000000000000e+02 1.490000000000000000e+02 1.500000000000000000e+02 1.510000000000000000e+02 1.520000000000000000e+02 1.530000000000000000e+02 1.540000000000000000e+02 1.550000000000000000e+02 1.560000000000000000e+02 1.570000000000000000e+02 1.580000000000000000e+02 1.590000000000000000e+02 1.600000000000000000e+02 1.610000000000000000e+02 1.620000000000000000e+02 1.630000000000000000e+02 1.640000000000000000e+02 1.650000000000000000e+02 1.660000000000000000e+02 1.670000000000000000e+02 1.680000000000000000e+02 1.690000000000000000e+02 1.700000000000000000e+02 1.710000000000000000e+02 1.720000000000000000e+02 1.730000000000000000e+02 1.740000000000000000e+02 1.750000000000000000e+02 1.760000000000000000e+02 1.770000000000000000e+02 1.780000000000000000e+02 1.790000000000000000e+02 1.800000000000000000e+02 1.810000000000000000e+02 1.820000000000000000e+02 1.830000000000000000e+02 1.840000000000000000e+02 1.850000000000000000e+02 1.860000000000000000e+02 1.870000000000000000e+02 1.880000000000000000e+02 1.890000000000000000e+02 1.900000000000000000e+02 1.910000000000000000e+02 1.920000000000000000e+02 1.930000000000000000e+02 1.940000000000000000e+02 1.950000000000000000e+02 1.960000000000000000e+02 1.970000000000000000e+02 1.980000000000000000e+02 1.990000000000000000e+02 2.000000000000000000e+02 2.010000000000000000e+02 2.020000000000000000e+02 2.030000000000000000e+02 2.040000000000000000e+02 2.050000000000000000e+02 2.060000000000000000e+02 2.070000000000000000e+02 2.080000000000000000e+02 2.090000000000000000e+02 2.100000000000000000e+02 2.110000000000000000e+02 2.120000000000000000e+02 2.130000000000000000e+02 2.140000000000000000e+02 2.150000000000000000e+02 2.160000000000000000e+02 2.170000000000000000e+02 2.180000000000000000e+02 2.190000000000000000e+02 2.200000000000000000e+02 2.210000000000000000e+02 2.220000000000000000e+02 2.230000000000000000e+02 2.240000000000000000e+02 2.250000000000000000e+02 2.260000000000000000e+02 2.270000000000000000e+02 2.280000000000000000e+02 2.290000000000000000e+02 2.300000000000000000e+02 2.310000000000000000e+02 2.320000000000000000e+02 2.330000000000000000e+02 2.340000000000000000e+02 2.350000000000000000e+02 2.360000000000000000e+02 2.370000000000000000e+02 2.380000000000000000e+02 2.390000000000000000e+02 2.400000000000000000e+02 2.410000000000000000e+02 2.420000000000000000e+02 2.430000000000000000e+02 2.440000000000000000e+02 2.450000000000000000e+02 2.460000000000000000e+02 2.470000000000000000e+02 2.480000000000000000e+02 2.490000000000000000e+02 2.500000000000000000e+02 2.510000000000000000e+02 2.520000000000000000e+02 2.530000000000000000e+02 2.540000000000000000e+02 2.550000000000000000e+02 2.560000000000000000e+02 2.570000000000000000e+02 2.580000000000000000e+02 2.590000000000000000e+02 2.600000000000000000e+02 2.610000000000000000e+02 2.620000000000000000e+02 2.630000000000000000e+02 2.640000000000000000e+02 2.650000000000000000e+02 2.660000000000000000e+02 2.670000000000000000e+02 2.680000000000000000e+02 2.690000000000000000e+02 2.700000000000000000e+02 2.710000000000000000e+02 2.720000000000000000e+02 2.730000000000000000e+02 2.740000000000000000e+02 2.750000000000000000e+02 2.760000000000000000e+02 2.770000000000000000e+02 2.780000000000000000e+02 2.790000000000000000e+02 2.800000000000000000e+02 2.810000000000000000e+02 2.820000000000000000e+02 2.830000000000000000e+02 2.840000000000000000e+02 2.850000000000000000e+02 2.860000000000000000e+02 2.870000000000000000e+02 2.880000000000000000e+02 2.890000000000000000e+02 2.900000000000000000e+02 2.910000000000000000e+02 2.920000000000000000e+02 2.930000000000000000e+02 2.940000000000000000e+02 2.950000000000000000e+02 2.960000000000000000e+02 2.970000000000000000e+02 2.980000000000000000e+02 2.990000000000000000e+02 3.000000000000000000e+02 3.010000000000000000e+02 3.020000000000000000e+02 3.030000000000000000e+02 3.040000000000000000e+02 3.050000000000000000e+02 3.060000000000000000e+02 3.070000000000000000e+02 3.080000000000000000e+02 3.090000000000000000e+02 3.100000000000000000e+02 3.110000000000000000e+02 3.120000000000000000e+02 3.130000000000000000e+02 3.140000000000000000e+02 3.150000000000000000e+02 3.160000000000000000e+02 3.170000000000000000e+02 3.180000000000000000e+02 3.190000000000000000e+02 3.200000000000000000e+02 3.210000000000000000e+02 3.220000000000000000e+02 3.230000000000000000e+02 3.240000000000000000e+02 3.250000000000000000e+02 3.260000000000000000e+02 3.270000000000000000e+02 3.280000000000000000e+02 3.290000000000000000e+02 3.300000000000000000e+02 3.310000000000000000e+02 3.320000000000000000e+02 3.330000000000000000e+02 3.340000000000000000e+02 3.350000000000000000e+02 3.360000000000000000e+02 3.370000000000000000e+02 3.380000000000000000e+02 3.390000000000000000e+02 3.400000000000000000e+02 3.410000000000000000e+02 3.420000000000000000e+02 3.430000000000000000e+02 3.440000000000000000e+02 3.450000000000000000e+02 3.460000000000000000e+02 3.470000000000000000e+02 3.480000000000000000e+02 3.490000000000000000e+02 3.500000000000000000e+02 3.510000000000000000e+02 3.520000000000000000e+02 3.530000000000000000e+02 3.540000000000000000e+02 3.550000000000000000e+02 3.560000000000000000e+02 3.570000000000000000e+02 3.580000000000000000e+02 3.590000000000000000e+02 3.600000000000000000e+02 3.610000000000000000e+02 3.620000000000000000e+02 3.630000000000000000e+02 3.640000000000000000e+02 3.650000000000000000e+02 3.660000000000000000e+02 3.670000000000000000e+02 3.680000000000000000e+02 3.690000000000000000e+02 3.700000000000000000e+02 3.710000000000000000e+02 3.720000000000000000e+02 3.730000000000000000e+02 3.740000000000000000e+02 3.750000000000000000e+02 3.760000000000000000e+02 3.770000000000000000e+02 3.780000000000000000e+02 3.790000000000000000e+02 3.800000000000000000e+02 3.810000000000000000e+02 3.820000000000000000e+02 3.830000000000000000e+02 3.840000000000000000e+02 3.850000000000000000e+02 3.860000000000000000e+02 3.870000000000000000e+02 3.880000000000000000e+02 3.890000000000000000e+02 3.900000000000000000e+02 3.910000000000000000e+02 3.920000000000000000e+02 3.930000000000000000e+02 3.940000000000000000e+02 3.950000000000000000e+02 3.960000000000000000e+02 3.970000000000000000e+02 3.980000000000000000e+02 3.990000000000000000e+02 4.000000000000000000e+02 4.010000000000000000e+02 4.020000000000000000e+02 4.030000000000000000e+02 4.040000000000000000e+02 4.050000000000000000e+02 4.060000000000000000e+02 4.070000000000000000e+02 4.080000000000000000e+02 4.090000000000000000e+02 4.100000000000000000e+02 4.110000000000000000e+02 4.120000000000000000e+02 4.130000000000000000e+02 4.140000000000000000e+02 4.150000000000000000e+02 4.160000000000000000e+02 4.170000000000000000e+02 4.180000000000000000e+02 4.190000000000000000e+02 4.200000000000000000e+02 4.210000000000000000e+02 4.220000000000000000e+02 4.230000000000000000e+02 4.240000000000000000e+02 4.250000000000000000e+02 4.260000000000000000e+02 4.270000000000000000e+02 4.280000000000000000e+02 4.290000000000000000e+02 4.300000000000000000e+02 4.310000000000000000e+02 4.320000000000000000e+02 4.330000000000000000e+02 4.340000000000000000e+02 4.350000000000000000e+02 4.360000000000000000e+02 4.370000000000000000e+02 4.380000000000000000e+02 4.390000000000000000e+02 4.400000000000000000e+02 4.410000000000000000e+02 4.420000000000000000e+02 4.430000000000000000e+02 4.440000000000000000e+02 4.450000000000000000e+02 4.460000000000000000e+02 4.470000000000000000e+02 4.480000000000000000e+02 4.490000000000000000e+02 4.500000000000000000e+02 4.510000000000000000e+02 4.520000000000000000e+02 4.530000000000000000e+02 4.540000000000000000e+02 4.550000000000000000e+02 4.560000000000000000e+02 4.570000000000000000e+02 4.580000000000000000e+02 4.590000000000000000e+02 4.600000000000000000e+02 4.610000000000000000e+02 4.620000000000000000e+02 4.630000000000000000e+02 4.640000000000000000e+02 4.650000000000000000e+02 4.660000000000000000e+02 4.670000000000000000e+02 4.680000000000000000e+02 4.690000000000000000e+02 4.700000000000000000e+02 4.710000000000000000e+02 4.720000000000000000e+02 4.730000000000000000e+02 4.740000000000000000e+02 4.750000000000000000e+02 4.760000000000000000e+02 4.770000000000000000e+02 4.780000000000000000e+02 4.790000000000000000e+02 4.800000000000000000e+02 4.810000000000000000e+02 4.820000000000000000e+02 4.830000000000000000e+02 4.840000000000000000e+02 4.850000000000000000e+02 4.860000000000000000e+02 4.870000000000000000e+02 4.880000000000000000e+02 4.890000000000000000e+02 4.900000000000000000e+02 4.910000000000000000e+02 4.920000000000000000e+02 4.930000000000000000e+02 4.940000000000000000e+02 4.950000000000000000e+02 4.960000000000000000e+02 4.970000000000000000e+02 4.980000000000000000e+02 4.990000000000000000e+02 5.000000000000000000e+02 5.010000000000000000e+02 5.020000000000000000e+02 5.030000000000000000e+02 5.040000000000000000e+02 5.050000000000000000e+02 5.060000000000000000e+02 5.070000000000000000e+02 5.080000000000000000e+02 5.090000000000000000e+02 5.100000000000000000e+02 5.110000000000000000e+02 5.120000000000000000e+02 5.130000000000000000e+02 5.140000000000000000e+02 5.150000000000000000e+02 5.160000000000000000e+02 5.170000000000000000e+02 5.180000000000000000e+02 5.190000000000000000e+02 5.200000000000000000e+02 5.210000000000000000e+02 5.220000000000000000e+02 5.230000000000000000e+02 5.240000000000000000e+02 5.250000000000000000e+02 5.260000000000000000e+02 5.270000000000000000e+02 5.280000000000000000e+02 5.290000000000000000e+02 5.300000000000000000e+02 5.310000000000000000e+02 5.320000000000000000e+02 5.330000000000000000e+02 5.340000000000000000e+02 5.350000000000000000e+02 5.360000000000000000e+02 5.370000000000000000e+02 5.380000000000000000e+02 5.390000000000000000e+02 5.400000000000000000e+02 5.410000000000000000e+02 5.420000000000000000e+02 5.430000000000000000e+02 5.440000000000000000e+02 5.450000000000000000e+02 5.460000000000000000e+02 5.470000000000000000e+02 5.480000000000000000e+02 5.490000000000000000e+02 5.500000000000000000e+02 5.510000000000000000e+02 5.520000000000000000e+02 5.530000000000000000e+02 5.540000000000000000e+02 5.550000000000000000e+02 5.560000000000000000e+02 5.570000000000000000e+02 5.580000000000000000e+02 5.590000000000000000e+02 5.600000000000000000e+02 5.610000000000000000e+02 5.620000000000000000e+02 5.630000000000000000e+02 5.640000000000000000e+02 5.650000000000000000e+02 5.660000000000000000e+02 5.670000000000000000e+02 5.680000000000000000e+02 5.690000000000000000e+02 5.700000000000000000e+02 5.710000000000000000e+02 5.720000000000000000e+02 5.730000000000000000e+02 5.740000000000000000e+02 5.750000000000000000e+02 5.760000000000000000e+02 5.770000000000000000e+02 5.780000000000000000e+02 5.790000000000000000e+02 5.800000000000000000e+02 5.810000000000000000e+02 5.820000000000000000e+02 5.830000000000000000e+02 5.840000000000000000e+02 5.850000000000000000e+02 5.860000000000000000e+02 5.870000000000000000e+02 5.880000000000000000e+02 5.890000000000000000e+02 5.900000000000000000e+02 5.910000000000000000e+02 5.920000000000000000e+02 5.930000000000000000e+02 5.940000000000000000e+02 5.950000000000000000e+02 5.960000000000000000e+02 5.970000000000000000e+02 5.980000000000000000e+02 5.990000000000000000e+02 6.000000000000000000e+02 6.010000000000000000e+02 6.020000000000000000e+02 6.030000000000000000e+02 6.040000000000000000e+02 6.050000000000000000e+02 6.060000000000000000e+02 6.070000000000000000e+02 6.080000000000000000e+02 6.090000000000000000e+02 6.100000000000000000e+02 6.110000000000000000e+02 6.120000000000000000e+02 6.130000000000000000e+02 6.140000000000000000e+02 6.150000000000000000e+02 6.160000000000000000e+02 6.170000000000000000e+02 6.180000000000000000e+02 6.190000000000000000e+02 6.200000000000000000e+02 6.210000000000000000e+02 6.220000000000000000e+02 6.230000000000000000e+02 6.240000000000000000e+02 6.250000000000000000e+02 6.260000000000000000e+02 6.270000000000000000e+02 6.280000000000000000e+02 6.290000000000000000e+02 6.300000000000000000e+02 6.310000000000000000e+02 6.320000000000000000e+02 6.330000000000000000e+02 6.340000000000000000e+02 6.350000000000000000e+02 6.360000000000000000e+02 6.370000000000000000e+02 6.380000000000000000e+02 6.390000000000000000e+02 6.400000000000000000e+02 6.410000000000000000e+02 6.420000000000000000e+02 6.430000000000000000e+02 6.440000000000000000e+02 6.450000000000000000e+02 6.460000000000000000e+02 6.470000000000000000e+02 6.480000000000000000e+02 6.490000000000000000e+02 6.500000000000000000e+02 6.510000000000000000e+02 6.520000000000000000e+02 6.530000000000000000e+02 6.540000000000000000e+02 6.550000000000000000e+02 6.560000000000000000e+02 6.570000000000000000e+02 6.580000000000000000e+02 6.590000000000000000e+02 6.600000000000000000e+02 6.610000000000000000e+02 6.620000000000000000e+02 6.630000000000000000e+02 6.640000000000000000e+02 6.650000000000000000e+02 6.660000000000000000e+02 6.670000000000000000e+02 6.680000000000000000e+02 6.690000000000000000e+02 6.700000000000000000e+02 6.710000000000000000e+02 6.720000000000000000e+02 6.730000000000000000e+02 6.740000000000000000e+02 6.750000000000000000e+02 6.760000000000000000e+02 6.770000000000000000e+02 6.780000000000000000e+02 6.790000000000000000e+02 6.800000000000000000e+02 6.810000000000000000e+02 6.820000000000000000e+02 6.830000000000000000e+02 6.840000000000000000e+02 6.850000000000000000e+02 6.860000000000000000e+02 6.870000000000000000e+02 6.880000000000000000e+02 6.890000000000000000e+02 6.900000000000000000e+02 6.910000000000000000e+02 6.920000000000000000e+02 6.930000000000000000e+02 6.940000000000000000e+02 6.950000000000000000e+02 6.960000000000000000e+02 6.970000000000000000e+02 6.980000000000000000e+02 6.990000000000000000e+02 7.000000000000000000e+02 7.010000000000000000e+02 7.020000000000000000e+02 7.030000000000000000e+02 7.040000000000000000e+02 7.050000000000000000e+02 7.060000000000000000e+02 7.070000000000000000e+02 7.080000000000000000e+02 7.090000000000000000e+02 7.100000000000000000e+02 7.110000000000000000e+02 7.120000000000000000e+02 7.130000000000000000e+02 7.140000000000000000e+02 7.150000000000000000e+02 7.160000000000000000e+02 7.170000000000000000e+02 7.180000000000000000e+02 7.190000000000000000e+02 7.200000000000000000e+02 7.210000000000000000e+02 7.220000000000000000e+02 7.230000000000000000e+02 7.240000000000000000e+02 7.250000000000000000e+02 7.260000000000000000e+02 7.270000000000000000e+02 7.280000000000000000e+02 7.290000000000000000e+02 7.300000000000000000e+02 7.310000000000000000e+02 7.320000000000000000e+02 7.330000000000000000e+02 7.340000000000000000e+02 7.350000000000000000e+02 7.360000000000000000e+02 7.370000000000000000e+02 7.380000000000000000e+02 7.390000000000000000e+02 7.400000000000000000e+02 7.410000000000000000e+02 7.420000000000000000e+02 7.430000000000000000e+02 7.440000000000000000e+02 7.450000000000000000e+02 7.460000000000000000e+02 7.470000000000000000e+02 7.480000000000000000e+02 7.490000000000000000e+02 7.500000000000000000e+02 7.510000000000000000e+02 7.520000000000000000e+02 7.530000000000000000e+02 7.540000000000000000e+02 7.550000000000000000e+02 7.560000000000000000e+02 7.570000000000000000e+02 7.580000000000000000e+02 7.590000000000000000e+02 7.600000000000000000e+02 7.610000000000000000e+02 7.620000000000000000e+02 7.630000000000000000e+02 7.640000000000000000e+02 7.650000000000000000e+02 7.660000000000000000e+02 7.670000000000000000e+02 7.680000000000000000e+02 7.690000000000000000e+02 7.700000000000000000e+02 7.710000000000000000e+02 7.720000000000000000e+02 7.730000000000000000e+02 7.740000000000000000e+02 7.750000000000000000e+02 7.760000000000000000e+02 7.770000000000000000e+02 7.780000000000000000e+02 7.790000000000000000e+02 7.800000000000000000e+02 7.810000000000000000e+02 7.820000000000000000e+02 7.830000000000000000e+02 7.840000000000000000e+02 7.850000000000000000e+02 7.860000000000000000e+02 7.870000000000000000e+02 7.880000000000000000e+02 7.890000000000000000e+02 7.900000000000000000e+02 7.910000000000000000e+02 7.920000000000000000e+02 7.930000000000000000e+02 7.940000000000000000e+02 7.950000000000000000e+02 7.960000000000000000e+02 7.970000000000000000e+02 7.980000000000000000e+02 7.990000000000000000e+02 8.000000000000000000e+02 8.010000000000000000e+02 8.020000000000000000e+02 8.030000000000000000e+02 8.040000000000000000e+02 8.050000000000000000e+02 8.060000000000000000e+02 8.070000000000000000e+02 8.080000000000000000e+02 8.090000000000000000e+02 8.100000000000000000e+02 8.110000000000000000e+02 8.120000000000000000e+02 8.130000000000000000e+02 8.140000000000000000e+02 8.150000000000000000e+02 8.160000000000000000e+02 8.170000000000000000e+02 8.180000000000000000e+02 8.190000000000000000e+02 8.200000000000000000e+02 8.210000000000000000e+02 8.220000000000000000e+02 8.230000000000000000e+02 8.240000000000000000e+02 8.250000000000000000e+02 8.260000000000000000e+02 8.270000000000000000e+02 8.280000000000000000e+02 8.290000000000000000e+02 8.300000000000000000e+02 8.310000000000000000e+02 8.320000000000000000e+02 8.330000000000000000e+02 8.340000000000000000e+02 8.350000000000000000e+02 8.360000000000000000e+02 8.370000000000000000e+02 8.380000000000000000e+02 8.390000000000000000e+02 8.400000000000000000e+02 8.410000000000000000e+02 8.420000000000000000e+02 8.430000000000000000e+02 8.440000000000000000e+02 8.450000000000000000e+02 8.460000000000000000e+02 8.470000000000000000e+02 8.480000000000000000e+02 8.490000000000000000e+02 8.500000000000000000e+02 8.510000000000000000e+02 8.520000000000000000e+02 8.530000000000000000e+02 8.540000000000000000e+02 8.550000000000000000e+02 8.560000000000000000e+02 8.570000000000000000e+02 8.580000000000000000e+02 8.590000000000000000e+02 8.600000000000000000e+02 8.610000000000000000e+02 8.620000000000000000e+02 8.630000000000000000e+02 8.640000000000000000e+02 8.650000000000000000e+02 8.660000000000000000e+02 8.670000000000000000e+02 8.680000000000000000e+02 8.690000000000000000e+02 8.700000000000000000e+02 8.710000000000000000e+02 8.720000000000000000e+02 8.730000000000000000e+02 8.740000000000000000e+02 8.750000000000000000e+02 8.760000000000000000e+02 8.770000000000000000e+02 8.780000000000000000e+02 8.790000000000000000e+02 8.800000000000000000e+02 8.810000000000000000e+02 8.820000000000000000e+02 8.830000000000000000e+02 8.840000000000000000e+02 8.850000000000000000e+02 8.860000000000000000e+02 8.870000000000000000e+02 8.880000000000000000e+02 8.890000000000000000e+02 8.900000000000000000e+02 8.910000000000000000e+02 8.920000000000000000e+02 8.930000000000000000e+02 8.940000000000000000e+02 8.950000000000000000e+02 8.960000000000000000e+02 8.970000000000000000e+02 8.980000000000000000e+02 8.990000000000000000e+02 9.000000000000000000e+02 9.010000000000000000e+02 9.020000000000000000e+02 9.030000000000000000e+02 9.040000000000000000e+02 9.050000000000000000e+02 9.060000000000000000e+02 9.070000000000000000e+02 9.080000000000000000e+02 9.090000000000000000e+02 9.100000000000000000e+02 9.110000000000000000e+02 9.120000000000000000e+02 9.130000000000000000e+02 9.140000000000000000e+02 9.150000000000000000e+02 9.160000000000000000e+02 9.170000000000000000e+02 9.180000000000000000e+02 9.190000000000000000e+02 9.200000000000000000e+02 9.210000000000000000e+02 9.220000000000000000e+02 9.230000000000000000e+02 9.240000000000000000e+02 9.250000000000000000e+02 9.260000000000000000e+02 9.270000000000000000e+02 9.280000000000000000e+02 9.290000000000000000e+02 9.300000000000000000e+02 9.310000000000000000e+02 9.320000000000000000e+02 9.330000000000000000e+02 9.340000000000000000e+02 9.350000000000000000e+02 9.360000000000000000e+02 9.370000000000000000e+02 9.380000000000000000e+02 9.390000000000000000e+02 9.400000000000000000e+02 9.410000000000000000e+02 9.420000000000000000e+02 9.430000000000000000e+02 9.440000000000000000e+02 9.450000000000000000e+02 9.460000000000000000e+02 9.470000000000000000e+02 9.480000000000000000e+02 9.490000000000000000e+02 9.500000000000000000e+02 9.510000000000000000e+02 9.520000000000000000e+02 9.530000000000000000e+02 9.540000000000000000e+02 9.550000000000000000e+02 9.560000000000000000e+02 9.570000000000000000e+02 9.580000000000000000e+02 9.590000000000000000e+02 9.600000000000000000e+02 9.610000000000000000e+02 9.620000000000000000e+02 9.630000000000000000e+02 9.640000000000000000e+02 9.650000000000000000e+02 9.660000000000000000e+02 9.670000000000000000e+02 9.680000000000000000e+02 9.690000000000000000e+02 9.700000000000000000e+02 9.710000000000000000e+02 9.720000000000000000e+02 9.730000000000000000e+02 9.740000000000000000e+02 9.750000000000000000e+02 9.760000000000000000e+02 9.770000000000000000e+02 9.780000000000000000e+02 9.790000000000000000e+02 9.800000000000000000e+02 9.810000000000000000e+02 9.820000000000000000e+02 9.830000000000000000e+02 9.840000000000000000e+02 9.850000000000000000e+02 9.860000000000000000e+02 9.870000000000000000e+02 9.880000000000000000e+02 9.890000000000000000e+02 9.900000000000000000e+02 9.910000000000000000e+02 9.920000000000000000e+02 9.930000000000000000e+02 9.940000000000000000e+02 9.950000000000000000e+02 9.960000000000000000e+02 9.970000000000000000e+02 9.980000000000000000e+02 9.990000000000000000e+02
1.000000000000000000e+00 1.000000000000000000e+00 1.000000000000000000e+00 1.000000000000000000e+00 1.000000000000000000e+00 1.000000000000000000e+00 1.000000000000000000e+00 1.000000000000000000e+00 1.000000000000000000e+00 1.000000000000000000e+00 1.000000000000000000e+00 1.000000000000000000e+00 1.000000000000000000e+00 1.000000000000000000e+00 1.000000000000000000e+00 1.000000000000000000e+00 1.000000000000000000e+00 1.000000000000000000e+00 1.000000000000000000e+00 1.000000000000000000e+00 1.000000000000000000e+00 1.000000000000000000e+00 1.000000000000000000e+00 1.000000000000000000e+00 1.000000000000000000e+00 1.000000000000000000e+00 1.000000000000000000e+00 1.000000000000000000e+00 1.000000000000000000e+00 1.000000000000000000e+00 1.000000000000000000e+00 1.000000000000000000e+00 1.000000000000000000e+00 1.000000000000000000e+00 1.000000000000000000e+00 1.000000000000000000e+00 1.000000000000000000e+00 1.000000000000000000e+00 1.000000000000000000e+00 1.000000000000000000e+00 1.000000000000000000e+00 1.000000000000000000e+00 1.000000000000000000e+00 1.000000000000000000e+00 1.000000000000000000e+00 1.000000000000000000e+00 1.000000000000000000e+00 1.000000000000000000e+00 1.000000000000000000e+00 1.000000000000000000e+00 1.000000000000000000e+00 1.000000000000000000e+00 1.000000000000000000e+00 1.000000000000000000e+00 1.000000000000000000e+00 1.000000000000000000e+00 1.000000000000000000e+00 1.000000000000000000e+00 1.000000000000000000e+00 1.000000000000000000e+00 1.000000000000000000e+00 1.000000000000000000e+00 1.000000000000000000e+00 1.000000000000000000e+00 1.000000000000000000e+00 1.000000000000000000e+00 1.000000000000000000e+00 1.000000000000000000e+00 1.000000000000000000e+00 1.000000000000000000e+00 1.000000000000000000e+00 1.000000000000000000e+00 1.000000000000000000e+00 1.000000000000000000e+00 1.000000000000000000e+00 1.000000000000000000e+00 1.000000000000000000e+00 1.000000000000000000e+00 1.000000000000000000e+00 1.000000000000000000e+00 1.000000000000000000e+00 1.000000000000000000e+00 1.000000000000000000e+00 1.000000000000000000e+00 1.000000000000000000e+00 1.000000000000000000e+00 1.000000000000000000e+00 1.000000000000000000e+00 1.000000000000000000e+00 1.000000000000000000e+00 1.000000000000000000e+00 1.000000000000000000e+00 1.000000000000000000e+00 1.000000000000000000e+00 1.000000000000000000e+00 1.000000000000000000e+00 1.000000000000000000e+00 1.000000000000000000e+00 1.000000000000000000e+00 1.000000000000000000e+00 1.000000000000000000e+00 1.000000000000000000e+00 1.000000000000000000e+00 1.000000000000000000e+00 1.000000000000000000e+00 1.000000000000000000e+00 1.000000000000000000e+00 1.000000000000000000e+00 1.000000000000000000e+00 1.000000000000000000e+00 1.000000000000000000e+00 1.000000000000000000e+00 1.000000000000000000e+00 1.000000000000000000e+00 1.000000000000000000e+00 1.000000000000000000e+00 1.000000000000000000e+00 1.000000000000000000e+00 1.000000000000000000e+00 1.000000000000000000e+00 1.000000000000000000e+00 1.000000000000000000e+00 1.000000000000000000e+00 1.000000000000000000e+00 1.000000000000000000e+00 1.000000000000000000e+00 1.000000000000000000e+00 1.000000000000000000e+00 1.000000000000000000e+00 1.000000000000000000e+00 1.000000000000000000e+00 1.000000000000000000e+00 1.000000000000000000e+00 1.000000000000000000e+00 1.000000000000000000e+00 1.000000000000000000e+00 1.000000000000000000e+00 1.000000000000000000e+00 1.000000000000000000e+00 1.000000000000000000e+00 1.000000000000000000e+00 1.000000000000000000e+00 1.000000000000000000e+00 1.000000000000000000e+00 1.000000000000000000e+00 1.000000000000000000e+00 1.000000000000000000e+00 1.000000000000000000e+00 1.000000000000000000e+00 1.000000000000000000e+00 1.000000000000000000e+00 1.000000000000000000e+00 1.000000000000000000e+00 1.000000000000000000e+00 1.000000000000000000e+00 1.000000000000000000e+00 1.000000000000000000e+00 1.000000000000000000e+00 1.000000000000000000e+00 1.000000000000000000e+00 1.000000000000000000e+00 1.000000000000000000e+00 1.000000000000000000e+00 1.000000000000000000e+00 1.000000000000000000e+00 1.000000000000000000e+00 1.000000000000000000e+00 1.000000000000000000e+00 1.000000000000000000e+00 1.000000000000000000e+00 1.000000000000000000e+00 1.000000000000000000e+00 1.000000000000000000e+00 1.000000000000000000e+00 1.000000000000000000e+00 1.000000000000000000e+00 1.000000000000000000e+00 1.000000000000000000e+00 1.000000000000000000e+00 1.000000000000000000e+00 1.000000000000000000e+00 1.000000000000000000e+00 1.000000000000000000e+00 1.000000000000000000e+00 1.000000000000000000e+00 1.000000000000000000e+00 1.000000000000000000e+00 1.000000000000000000e+00 1.000000000000000000e+00 1.000000000000000000e+00 1.000000000000000000e+00 1.000000000000000000e+00 1.000000000000000000e+00 1.000000000000000000e+00 1.000000000000000000e+00 1.000000000000000000e+00 1.000000000000000000e+00 1.000000000000000000e+00 1.000000000000000000e+00 1.000000000000000000e+00 1.000000000000000000e+00 1.000000000000000000e+00 1.000000000000000000e+00 1.000000000000000000e+00 1.000000000000000000e+00 1.000000000000000000e+00 1.000000000000000000e+00 1.000000000000000000e+00 1.000000000000000000e+00 1.000000000000000000e+00 1.000000000000000000e+00 1.000000000000000000e+00 1.000000000000000000e+00 1.000000000000000000e+00 1.000000000000000000e+00 1.000000000000000000e+00 1.000000000000000000e+00 1.000000000000000000e+00 1.000000000000000000e+00 1.000000000000000000e+00 1.000000000000000000e+00 1.000000000000000000e+00 1.000000000000000000e+00 1.000000000000000000e+00 1.000000000000000000e+00 1.000000000000000000e+00 1.000000000000000000e+00 1.000000000000000000e+00 1.000000000000000000e+00 1.000000000000000000e+00 1.000000000000000000e+00 1.000000000000000000e+00 1.000000000000000000e+00 1.000000000000000000e+00 1.000000000000000000e+00 1.000000000000000000e+00 1.000000000000000000e+00 1.000000000000000000e+00 1.000000000000000000e+00 1.000000000000000000e+00 1.000000000000000000e+00 1.000000000000000000e+00 1.000000000000000000e+00 1.000000000000000000e+00 1.000000000000000000e+00 1.000000000000000000e+00 1.000000000000000000e+00 1.000000000000000000e+00 1.000000000000000000e+00 1.000000000000000000e+00 1.000000000000000000e+00 1.000000000000000000e+00 1.000000000000000000e+00 1.000000000000000000e+00 1.000000000000000000e+00 1.000000000000000000e+00 1.000000000000000000e+00 1.000000000000000000e+00 1.000000000000000000e+00 1.000000000000000000e+00 1.000000000000000000e+00 1.000000000000000000e+00 1.000000000000000000e+00 1.000000000000000000e+00 1.000000000000000000e+00 1.000000000000000000e+00 1.000000000000000000e+00 1.000000000000000000e+00 1.000000000000000000e+00 1.000000000000000000e+00 1.000000000000000000e+00 1.000000000000000000e+00 1.000000000000000000e+00 1.000000000000000000e+00 1.000000000000000000e+00 1.000000000000000000e+00 1.000000000000000000e+00 1.000000000000000000e+00 1.000000000000000000e+00 1.000000000000000000e+00 1.000000000000000000e+00 1.000000000000000000e+00 1.000000000000000000e+00 1.000000000000000000e+00 1.000000000000000000e+00 1.000000000000000000e+00 1.000000000000000000e+00 1.000000000000000000e+00 1.000000000000000000e+00 1.000000000000000000e+00 1.000000000000000000e+00 1.000000000000000000e+00 1.000000000000000000e+00 1.000000000000000000e+00 1.000000000000000000e+00 1.000000000000000000e+00 1.000000000000000000e+00 1.000000000000000000e+00 1.000000000000000000e+00 1.000000000000000000e+00 1.000000000000000000e+00 1.000000000000000000e+00 1.000000000000000000e+00 1.000000000000000000e+00 1.000000000000000000e+00 1.000000000000000000e+00 1.000000000000000000e+00 1.000000000000000000e+00 1.000000000000000000e+00 1.000000000000000000e+00 1.000000000000000000e+00 1.000000000000000000e+00 1.000000000000000000e+00 1.000000000000000000e+00 1.000000000000000000e+00 1.000000000000000000e+00 1.000000000000000000e+00 1.000000000000000000e+00 1.000000000000000000e+00 1.000000000000000000e+00 1.000000000000000000e+00 1.000000000000000000e+00 1.000000000000000000e+00 1.000000000000000000e+00 1.000000000000000000e+00 1.000000000000000000e+00 1.000000000000000000e+00 1.000000000000000000e+00 1.000000000000000000e+00 1.000000000000000000e+00 1.000000000000000000e+00 1.000000000000000000e+00 1.000000000000000000e+00 1.000000000000000000e+00 1.000000000000000000e+00 1.000000000000000000e+00 1.000000000000000000e+00 1.000000000000000000e+00 1.000000000000000000e+00 1.000000000000000000e+00 1.000000000000000000e+00 1.000000000000000000e+00 1.000000000000000000e+00 1.000000000000000000e+00 1.000000000000000000e+00 1.000000000000000000e+00 1.000000000000000000e+00 1.000000000000000000e+00 1.000000000000000000e+00 1.000000000000000000e+00 1.000000000000000000e+00 1.000000000000000000e+00 1.000000000000000000e+00 1.000000000000000000e+00 1.000000000000000000e+00 1.000000000000000000e+00 1.000000000000000000e+00 1.000000000000000000e+00 1.000000000000000000e+00 1.000000000000000000e+00 1.000000000000000000e+00 1.000000000000000000e+00 1.000000000000000000e+00 1.000000000000000000e+00 1.000000000000000000e+00 1.000000000000000000e+00 1.000000000000000000e+00 1.000000000000000000e+00 1.000000000000000000e+00 1.000000000000000000e+00 1.000000000000000000e+00 1.000000000000000000e+00 1.000000000000000000e+00 1.000000000000000000e+00 1.000000000000000000e+00 1.000000000000000000e+00 1.000000000000000000e+00 1.000000000000000000e+00 1.000000000000000000e+00 1.000000000000000000e+00 1.000000000000000000e+00 1.000000000000000000e+00 1.000000000000000000e+00 1.000000000000000000e+00 1.000000000000000000e+00 1.000000000000000000e+00 1.000000000000000000e+00 1.000000000000000000e+00 1.000000000000000000e+00 1.000000000000000000e+00 1.000000000000000000e+00 1.000000000000000000e+00 1.000000000000000000e+00 1.000000000000000000e+00 1.000000000000000000e+00 1.000000000000000000e+00 1.000000000000000000e+00 1.000000000000000000e+00 1.000000000000000000e+00 1.000000000000000000e+00 1.000000000000000000e+00 1.000000000000000000e+00 1.000000000000000000e+00 1.000000000000000000e+00 1.000000000000000000e+00 1.000000000000000000e+00 1.000000000000000000e+00 1.000000000000000000e+00 1.000000000000000000e+00 1.000000000000000000e+00 1.000000000000000000e+00 1.000000000000000000e+00 1.000000000000000000e+00 1.000000000000000000e+00 1.000000000000000000e+00 1.000000000000000000e+00 1.000000000000000000e+00 1.000000000000000000e+00 1.000000000000000000e+00 1.000000000000000000e+00 1.000000000000000000e+00 1.000000000000000000e+00 1.000000000000000000e+00 1.000000000000000000e+00 1.000000000000000000e+00 1.000000000000000000e+00 1.000000000000000000e+00 1.000000000000000000e+00 1.000000000000000000e+00 1.000000000000000000e+00 1.000000000000000000e+00 1.000000000000000000e+00 1.000000000000000000e+00 1.000000000000000000e+00 1.000000000000000000e+00 1.000000000000000000e+00 1.000000000000000000e+00 1.000000000000000000e+00 1.000000000000000000e+00 1.000000000000000000e+00 1.000000000000000000e+00 1.000000000000000000e+00 1.000000000000000000e+00 1.000000000000000000e+00 1.000000000000000000e+00 1.000000000000000000e+00 1.000000000000000000e+00 1.000000000000000000e+00 1.000000000000000000e+00 1.000000000000000000e+00 1.000000000000000000e+00 1.000000000000000000e+00 1.000000000000000000e+00 1.000000000000000000e+00 1.000000000000000000e+00 1.000000000000000000e+00 1.000000000000000000e+00 1.000000000000000000e+00 1.000000000000000000e+00 1.000000000000000000e+00 1.000000000000000000e+00 1.000000000000000000e+00 1.000000000000000000e+00 1.000000000000000000e+00 1.000000000000000000e+00 1.000000000000000000e+00 1.000000000000000000e+00 1.000000000000000000e+00 1.000000000000000000e+00 1.000000000000000000e+00 1.000000000000000000e+00 1.000000000000000000e+00 1.000000000000000000e+00 1.000000000000000000e+00 1.000000000000000000e+00 1.000000000000000000e+00 1.000000000000000000e+00 1.000000000000000000e+00 1.000000000000000000e+00 1.000000000000000000e+00 1.000000000000000000e+00 1.000000000000000000e+00 1.000000000000000000e+00 1.000000000000000000e+00 1.000000000000000000e+00 1.000000000000000000e+00 1.000000000000000000e+00 1.000000000000000000e+00 1.000000000000000000e+00 1.000000000000000000e+00 1.000000000000000000e+00 1.000000000000000000e+00 1.000000000000000000e+00 1.000000000000000000e+00 1.000000000000000000e+00 1.000000000000000000e+00 1.000000000000000000e+00 1.000000000000000000e+00 1.000000000000000000e+00 1.000000000000000000e+00 1.000000000000000000e+00 1.000000000000000000e+00 1.000000000000000000e+00 1.000000000000000000e+00 1.000000000000000000e+00 1.000000000000000000e+00 1.000000000000000000e+00 1.000000000000000000e+00 1.000000000000000000e+00 1.000000000000000000e+00 1.000000000000000000e+00 1.000000000000000000e+00 1.000000000000000000e+00 1.000000000000000000e+00 1.000000000000000000e+00 1.000000000000000000e+00 1.000000000000000000e+00 1.000000000000000000e+00 1.000000000000000000e+00 1.000000000000000000e+00 1.000000000000000000e+00 1.000000000000000000e+00 1.000000000000000000e+00 1.000000000000000000e+00 1.000000000000000000e+00 1.000000000000000000e+00 1.000000000000000000e+00 1.000000000000000000e+00 1.000000000000000000e+00 1.000000000000000000e+00 1.000000000000000000e+00 1.000000000000000000e+00 1.000000000000000000e+00 1.000000000000000000e+00 1.000000000000000000e+00 1.000000000000000000e+00 1.000000000000000000e+00 1.000000000000000000e+00 1.000000000000000000e+00 1.000000000000000000e+00 1.000000000000000000e+00 1.000000000000000000e+00 1.000000000000000000e+00 1.000000000000000000e+00 1.000000000000000000e+00 1.000000000000000000e+00 1.000000000000000000e+00 1.000000000000000000e+00 1.000000000000000000e+00 1.000000000000000000e+00 1.000000000000000000e+00 1.000000000000000000e+00 1.000000000000000000e+00 1.000000000000000000e+00 1.000000000000000000e+00 1.000000000000000000e+00 1.000000000000000000e+00 1.000000000000000000e+00 1.000000000000000000e+00 1.000000000000000000e+00 1.000000000000000000e+00 1.000000000000000000e+00 1.000000000000000000e+00 1.000000000000000000e+00 1.000000000000000000e+00 1.000000000000000000e+00 1.000000000000000000e+00 1.000000000000000000e+00 1.000000000000000000e+00 1.000000000000000000e+00 1.000000000000000000e+00 1.000000000000000000e+00 1.000000000000000000e+00 1.000000000000000000e+00 1.000000000000000000e+00 1.000000000000000000e+00 1.000000000000000000e+00 1.000000000000000000e+00 1.000000000000000000e+00 1.000000000000000000e+00 1.000000000000000000e+00 1.000000000000000000e+00 1.000000000000000000e+00 1.000000000000000000e+00 1.000000000000000000e+00 1.000000000000000000e+00 1.000000000000000000e+00 1.000000000000000000e+00 1.000000000000000000e+00 1.000000000000000000e+00 1.000000000000000000e+00 1.000000000000000000e+00 1.000000000000000000e+00 1.000000000000000000e+00 1.000000000000000000e+00 1.000000000000000000e+00 1.000000000000000000e+00 1.000000000000000000e+00 1.000000000000000000e+00 1.000000000000000000e+00 1.000000000000000000e+00 1.000000000000000000e+00 1.000000000000000000e+00 1.000000000000000000e+00 1.000000000000000000e+00 1.000000000000000000e+00 1.000000000000000000e+00 1.000000000000000000e+00 1.000000000000000000e+00 1.000000000000000000e+00 1.000000000000000000e+00 1.000000000000000000e+00 1.000000000000000000e+00 1.000000000000000000e+00 1.000000000000000000e+00 1.000000000000000000e+00 1.000000000000000000e+00 1.000000000000000000e+00 1.000000000000000000e+00 1.000000000000000000e+00 1.000000000000000000e+00 1.000000000000000000e+00 1.000000000000000000e+00 1.000000000000000000e+00 1.000000000000000000e+00 1.000000000000000000e+00 1.000000000000000000e+00 1.000000000000000000e+00 1.000000000000000000e+00 1.000000000000000000e+00 1.000000000000000000e+00 1.000000000000000000e+00 1.000000000000000000e+00 1.000000000000000000e+00 1.000000000000000000e+00 1.000000000000000000e+00 1.000000000000000000e+00 1.000000000000000000e+00 1.000000000000000000e+00 1.000000000000000000e+00 1.000000000000000000e+00 1.000000000000000000e+00 1.000000000000000000e+00 1.000000000000000000e+00 1.000000000000000000e+00 1.000000000000000000e+00 1.000000000000000000e+00 1.000000000000000000e+00 1.000000000000000000e+00 1.000000000000000000e+00 1.000000000000000000e+00 1.000000000000000000e+00 1.000000000000000000e+00 1.000000000000000000e+00 1.000000000000000000e+00 1.000000000000000000e+00 1.000000000000000000e+00 1.000000000000000000e+00 1.000000000000000000e+00 1.000000000000000000e+00 1.000000000000000000e+00 1.000000000000000000e+00 1.000000000000000000e+00 1.000000000000000000e+00 1.000000000000000000e+00 1.000000000000000000e+00 1.000000000000000000e+00 1.000000000000000000e+00 1.000000000000000000e+00 1.000000000000000000e+00 1.000000000000000000e+00 1.000000000000000000e+00 1.000000000000000000e+00 1.000000000000000000e+00 1.000000000000000000e+00 1.000000000000000000e+00 1.000000000000000000e+00 1.000000000000000000e+00 1.000000000000000000e+00 1.000000000000000000e+00 1.000000000000000000e+00 1.000000000000000000e+00 1.000000000000000000e+00 1.000000000000000000e+00 1.000000000000000000e+00 1.000000000000000000e+00 1.000000000000000000e+00 1.000000000000000000e+00 1.000000000000000000e+00 1.000000000000000000e+00 1.000000000000000000e+00 1.000000000000000000e+00 1.000000000000000000e+00 1.000000000000000000e+00 1.000000000000000000e+00 1.000000000000000000e+00 1.000000000000000000e+00 1.000000000000000000e+00 1.000000000000000000e+00 1.000000000000000000e+00 1.000000000000000000e+00 1.000000000000000000e+00 1.000000000000000000e+00 1.000000000000000000e+00 1.000000000000000000e+00 1.000000000000000000e+00 1.000000000000000000e+00 1.000000000000000000e+00 1.000000000000000000e+00 1.000000000000000000e+00 1.000000000000000000e+00 1.000000000000000000e+00 1.000000000000000000e+00 1.000000000000000000e+00 1.000000000000000000e+00 1.000000000000000000e+00 1.000000000000000000e+00 1.000000000000000000e+00 1.000000000000000000e+00 1.000000000000000000e+00 1.000000000000000000e+00 1.000000000000000000e+00 1.000000000000000000e+00 1.000000000000000000e+00 1.000000000000000000e+00 1.000000000000000000e+00 1.000000000000000000e+00 1.000000000000000000e+00 1.000000000000000000e+00 1.000000000000000000e+00 1.000000000000000000e+00 1.000000000000000000e+00 1.000000000000000000e+00 1.000000000000000000e+00 1.000000000000000000e+00 1.000000000000000000e+00 1.000000000000000000e+00 1.000000000000000000e+00 1.000000000000000000e+00 1.000000000000000000e+00 1.000000000000000000e+00 1.000000000000000000e+00 1.000000000000000000e+00 1.000000000000000000e+00 1.000000000000000000e+00 1.000000000000000000e+00 1.000000000000000000e+00 1.000000000000000000e+00 1.000000000000000000e+00 1.000000000000000000e+00 1.000000000000000000e+00 1.000000000000000000e+00 1.000000000000000000e+00 1.000000000000000000e+00 1.000000000000000000e+00 1.000000000000000000e+00 1.000000000000000000e+00 1.000000000000000000e+00 1.000000000000000000e+00 1.000000000000000000e+00 1.000000000000000000e+00 1.000000000000000000e+00 1.000000000000000000e+00 1.000000000000000000e+00 1.000000000000000000e+00 1.000000000000000000e+00 1.000000000000000000e+00 1.000000000000000000e+00 1.000000000000000000e+00 1.000000000000000000e+00 1.000000000000000000e+00 1.000000000000000000e+00 1.000000000000000000e+00 1.000000000000000000e+00 1.000000000000000000e+00 1.000000000000000000e+00 1.000000000000000000e+00 1.000000000000000000e+00 1.000000000000000000e+00 1.000000000000000000e+00 1.000000000000000000e+00 1.000000000000000000e+00 1.000000000000000000e+00 1.000000000000000000e+00 1.000000000000000000e+00 1.000000000000000000e+00 1.000000000000000000e+00 1.000000000000000000e+00 1.000000000000000000e+00 1.000000000000000000e+00 1.000000000000000000e+00 1.000000000000000000e+00 1.000000000000000000e+00 1.000000000000000000e+00 1.000000000000000000e+00 1.000000000000000000e+00 1.000000000000000000e+00 1.000000000000000000e+00 1.000000000000000000e+00 1.000000000000000000e+00 1.000000000000000000e+00 1.000000000000000000e+00 1.000000000000000000e+00 1.000000000000000000e+00 1.000000000000000000e+00 1.000000000000000000e+00 1.000000000000000000e+00 1.000000000000000000e+00 1.000000000000000000e+00 1.000000000000000000e+00 1.000000000000000000e+00 1.000000000000000000e+00 1.000000000000000000e+00 1.000000000000000000e+00 1.000000000000000000e+00 1.000000000000000000e+00 1.000000000000000000e+00 1.000000000000000000e+00 1.000000000000000000e+00 1.000000000000000000e+00 1.000000000000000000e+00 1.000000000000000000e+00 1.000000000000000000e+00 1.000000000000000000e+00 1.000000000000000000e+00 1.000000000000000000e+00 1.000000000000000000e+00 1.000000000000000000e+00 1.000000000000000000e+00 1.000000000000000000e+00 1.000000000000000000e+00 1.000000000000000000e+00 1.000000000000000000e+00 1.000000000000000000e+00 1.000000000000000000e+00 1.000000000000000000e+00 1.000000000000000000e+00 1.000000000000000000e+00 1.000000000000000000e+00 1.000000000000000000e+00 1.000000000000000000e+00 1.000000000000000000e+00 1.000000000000000000e+00 1.000000000000000000e+00 1.000000000000000000e+00 1.000000000000000000e+00 1.000000000000000000e+00 1.000000000000000000e+00 1.000000000000000000e+00 1.000000000000000000e+00 1.000000000000000000e+00 1.000000000000000000e+00 1.000000000000000000e+00 1.000000000000000000e+00 1.000000000000000000e+00 1.000000000000000000e+00 1.000000000000000000e+00 1.000000000000000000e+00 1.000000000000000000e+00 1.000000000000000000e+00 1.000000000000000000e+00 1.000000000000000000e+00 1.000000000000000000e+00 1.000000000000000000e+00 1.000000000000000000e+00 1.000000000000000000e+00 1.000000000000000000e+00 1.000000000000000000e+00 1.000000000000000000e+00 1.000000000000000000e+00 1.000000000000000000e+00 1.000000000000000000e+00 1.000000000000000000e+00 1.000000000000000000e+00 1.000000000000000000e+00 1.000000000000000000e+00 1.000000000000000000e+00 1.000000000000000000e+00 1.000000000000000000e+00 1.000000000000000000e+00 1.000000000000000000e+00 1.000000000000000000e+00 1.000000000000000000e+00 1.000000000000000000e+00 1.000000000000000000e+00 1.000000000000000000e+00 1.000000000000000000e+00 1.000000000000000000e+00 1.000000000000000000e+00 1.000000000000000000e+00 1.000000000000000000e+00 1.000000000000000000e+00 1.000000000000000000e+00 1.000000000000000000e+00 1.000000000000000000e+00 1.000000000000000000e+00 1.000000000000000000e+00 1.000000000000000000e+00 1.000000000000000000e+00 1.000000000000000000e+00 1.000000000000000000e+00 1.000000000000000000e+00 1.000000000000000000e+00 1.000000000000000000e+00 1.000000000000000000e+00 1.000000000000000000e+00 1.000000000000000000e+00 1.000000000000000000e+00 1.000000000000000000e+00 1.000000000000000000e+00 1.000000000000000000e+00 1.000000000000000000e+00 1.000000000000000000e+00 1.000000000000000000e+00 1.000000000000000000e+00 1.000000000000000000e+00 1.000000000000000000e+00 1.000000000000000000e+00 1.000000000000000000e+00 1.000000000000000000e+00 1.000000000000000000e+00 1.000000000000000000e+00 1.000000000000000000e+00 1.000000000000000000e+00 1.000000000000000000e+00 1.000000000000000000e+00 1.000000000000000000e+00 1.000000000000000000e+00 1.000000000000000000e+00 1.000000000000000000e+00 1.000000000000000000e+00 1.000000000000000000e+00 1.000000000000000000e+00 1.000000000000000000e+00 1.000000000000000000e+00 1.000000000000000000e+00 1.000000000000000000e+00 1.000000000000000000e+00 1.000000000000000000e+00 1.000000000000000000e+00 1.000000000000000000e+00 1.000000000000000000e+00 1.000000000000000000e+00 1.000000000000000000e+00 1.000000000000000000e+00 1.000000000000000000e+00 1.000000000000000000e+00 1.000000000000000000e+00 1.000000000000000000e+00 1.000000000000000000e+00 1.000000000000000000e+00 1.000000000000000000e+00 1.000000000000000000e+00 1.000000000000000000e+00 1.000000000000000000e+00 1.000000000000000000e+00 1.000000000000000000e+00 1.000000000000000000e+00 1.000000000000000000e+00 1.000000000000000000e+00 1.000000000000000000e+00 1.000000000000000000e+00 1.000000000000000000e+00 1.000000000000000000e+00 1.000000000000000000e+00 1.000000000000000000e+00 1.000000000000000000e+00 1.000000000000000000e+00 1.000000000000000000e+00 1.000000000000000000e+00 1.000000000000000000e+00 1.000000000000000000e+00 1.000000000000000000e+00 1.000000000000000000e+00 1.000000000000000000e+00 1.000000000000000000e+00 1.000000000000000000e+00 1.000000000000000000e+00 1.000000000000000000e+00 1.000000000000000000e+00 1.000000000000000000e+00 1.000000000000000000e+00 1.000000000000000000e+00 1.000000000000000000e+00 1.000000000000000000e+00 1.000000000000000000e+00 1.000000000000000000e+00 1.000000000000000000e+00 1.000000000000000000e+00 1.000000000000000000e+00 1.000000000000000000e+00 1.000000000000000000e+00 1.000000000000000000e+00 1.000000000000000000e+00 1.000000000000000000e+00 1.000000000000000000e+00 1.000000000000000000e+00 1.000000000000000000e+00 1.000000000000000000e+00 1.000000000000000000e+00
-5.801461187817325005e-03 5.517178496464109072e-01 -1.857778233345826480e-01 7.139207622954665267e-01 5.159501165482824891e-01 5.894913812486185511e-01 6.489885800251028458e-01 2.483435478294909460e-01 5.190798325308693117e-01 5.051571892809849640e-01 1.074989272354418546e+00 -6.620634601232326943e-01 1.386099214019892001e+00 4.437826465563890488e-01 5.097184205588777273e-01 4.082157495255821500e-01 9.188615668431491246e-01 9.678254094811439279e-01 6.426967678997723699e-01 5.198054323033680646e-01 4.480849618972381765e-01 9.735875019646785811e-01 5.109754088959539420e-01 4.657154092139043078e-01 1.217267560144008193e-01 6.871688367576513912e-01 3.577583268063941335e-01 5.505797456440508775e-01 5.274763449185451147e-01 1.525447764414523011e+00 5.372778722718976052e-01 6.137316251122182376e-01 7.215171745294006733e-01 4.900598880015173409e-01 7.167000891157987441e-01 4.552719978908442711e-01 5.681783200744661144e-01 1.722869552420592809e+00 -6.060623743551123155e-02 4.919211349186678461e-01 -1.245873286219552761e-01 -5.578776126892620590e-01 7.515629597859933009e-01 2.222569958939546453e-01 2.586983081112404492e-01 5.184282485707993882e-01 7.142691721004609251e-01 5.251291115450458236e-01 5.412975942535857010e-01 2.754256213775968867e-02 1.248977527929077437e-02 8.505613531155536977e-01 6.668459782392761603e-01 4.892132794247725514e-01 4.498746244967951613e-01 1.362874380941858816e-02 4.948219659487437805e-01 5.484050459213907214e-01 1.836869166748910653e-01 4.896005542846891267e-01 9.065842408786968232e-01 5.568925362380109378e-01 4.633574945755358221e-01 5.109754186769622786e-01 6.835107576408880892e-01 5.062355137432998919e-01 5.104713363845158058e-01 2.802537683671253999e-01 5.276026343349504710e-01 -1.180599028342780438e-02 4.067600203697950834e-01 4.598251400198015149e-01 5.239347657321808960e-01 4.322936552582740816e-02 1.487736570674539349e+00 5.601808545811477469e-01 6.311569557540640529e-01 7.456435937443469664e-01 5.129737211556236742e-01 1.377507798736391509e+00 5.429711279907960542e-01 2.784468320441249034e-01 1.358826699433277829e+00 6.568317122500615390e-01 4.878256822047803420e-01 7.582246116413947634e-01 8.177598480876910880e-01 5.371728355486229400e-01 4.013210809597391182e-01 5.752421770842611748e-01 2.601742223237474838e-01 2.122044105077580234e+00 6.993849282889977870e-01 -6.142126239946298777e-02 5.505809646284256509e-01 5.994192197155235879e-01 5.142999419893726776e-01 4.702859826439915181e-01 1.895839160972597748e-01 6.945383049942549514e-01 1.566565413301538534e+00 6.860370598839006240e-01 5.365956710029322618e-01 7.915602966560173481e-01 8.572291293997809092e-01 -1.990278995894218195e+00 -1.184995262139164840e+00 5.499501251721922168e-01 5.427819005083814874e-01 9.733423102189474596e-01 5.157631774121516077e-01 4.854861870848953265e-01 1.676215669051472623e-01 4.669774629582841285e-01 5.159944988353152295e-01 5.189440831304228396e-01 5.250602838493546587e-01 5.486456073754957252e-01 8.516546747810959106e-01 5.162810839826723619e-01 1.287785903477066674e+00 5.656601903307497681e-01 5.232048871878323126e-01 -3.318920611981432400e-01 5.111003981127468787e-01 1.915030683400896772e+00 5.498030918492299302e-01 4.674152192451155319e-01 6.862632656895409911e-01 5.017340020710752135e-01 5.599718861914820822e-01 5.172318896614160888e-01 4.080430706638499827e-01 2.464811288384674837e-01 -1.940438515204070402e-01 -1.508700020387242491e-01 6.110190195808389291e-01 3.497176534478760312e-02 9.890061384320925075e-01 6.864739453847604755e-01 4.895757055036927818e-01 8.540435338881037231e-01 6.551869812212421929e-01 5.905518720103286601e-01 5.048839585910457339e-01 1.801934960769971394e-02 8.540891619164212578e-01 1.399444067161832450e-01 4.854320821471541092e-01 -8.521611361202929835e-01 7.811938167488605700e-01 -2.998620630043766777e-01 5.184284220388561959e-01 5.229524992332891253e-01 5.108062572843191651e-01 5.201247524229382080e-01 1.853385947211932283e+00 -4.467306095733813986e-02 8.062933049497540416e-01 6.998060108718071604e-01 5.089836819504673926e-01 4.321409215287826955e-01 5.041326589507474365e-01 5.081969526410006210e-01 1.093196648448420349e+00 1.374266535371357900e-01 8.426718936688261108e-01 4.584174522949334696e-01 6.089563218502993536e-01 5.912363173096972790e-01 4.192733857505629991e-01 7.123553866149345826e-01 5.184198442260518069e-01 5.059568703253223276e-01 4.067607926645858685e-01 1.538782154293469664e-02 1.731609513343134454e-01 7.348357928149801266e-02 7.361775189469808023e-01 1.139204262241255039e+00 7.204838558598228859e-01 5.024637831780452979e-01 -1.882384821456868917e-01 4.730369639499648615e-01 6.798695457509082996e-01 5.214047984955738624e-01 5.263467354062065784e-01 5.034090548192315939e-01 2.711516502804967477e+00 5.235168452642942061e-01 5.044893543216856235e-01 -8.539439198319123125e-01 5.188974108655184381e-01 5.714443002924012305e-01 1.757730490034311033e-01 5.062561381324557352e-01 9.232752285078984489e-01 5.224885468326704308e-01 6.954083872840755021e-01 4.261963545390135555e-01 6.104281015827076606e-01 5.486180237552672478e-01 9.741115583412316425e-01 5.991238113377475027e-01 5.432579945295248347e-01 6.954083932955688052e-01 2.993479784966678325e-01 1.274579367789445472e+00 5.167132944195921285e-01 3.500914945736799400e-01 4.497490195385412393e-01 -5.958756570041114781e-02 4.689155132334994480e-01 1.653807237906633198e-01 5.276261017744056092e-01 5.083619578739305700e-01 5.161554845721488816e-01 5.252587229845779859e-01 5.087470884832175910e-01 5.043030490863298354e-01 4.566793899752804586e-01 6.141874967746248082e-01 -6.900383810697944265e-01 5.560158495764484510e-01 3.047231809458799123e-01 4.072434039018300589e-01 1.754148062905970806e-01 1.266479838527879265e+00 9.453138026916285686e-01 5.032923548799499436e-01 -1.049177971497866485e-01 1.042971895799802207e+00 5.138449447197941389e-01 4.574665250965990748e-01 4.470882015031590884e-01 4.190068491600665856e-01 4.419225850447344173e-01 2.048394999054687360e-01 -1.423811648634447091e-01 -1.273003810448580519e-01 2.972798203509561255e-01 5.102102364746129437e-01 -9.526632809861529383e-02 4.903579005031583615e-01 5.180448408036993913e-01 4.467893711928219713e-01 -1.059401053704316642e-01 7.402088076517349124e-01 -2.177941426623209775e+00 5.807731215152278637e-01 -5.283018676520055967e-01 4.960465727984103568e-01 5.128677356677364685e-01 5.109754721439011549e-01 4.761705880802726831e-01 5.229467123849722565e-01 5.117751915626200798e-01 7.242092003285705015e-01 5.329558598879737819e-01 1.678268475098308565e+00 6.694854724099340570e-01 6.981091035603205208e-01 5.185781508545459495e-01 3.527263556340125006e-01 9.065842589016622766e-01 3.689928180171239691e-01 2.606705105914318477e+00 5.694168447473355599e-01 2.458379547612097316e-01 6.649101307029915420e-01 5.012568529382082083e-01 9.060528496892977790e-01 5.043371091324873046e-01 5.254944134483905405e-01 5.112137378593403225e-01 1.044341910001652440e+00 7.574345912151766447e-01 8.684319792818853134e-01 8.124066404144117959e-01 3.222486429907048255e-01 6.726715224233297263e-01 5.657951369889785420e-01 4.000266243353526319e-01 -6.913252139233394544e-01 3.804475380299323084e-01 7.110485877367480612e-01 5.426294873315505862e-01 5.182246395381646664e-01 5.189440827312342686e-01 6.060031426851352210e-01 5.335070601253089073e-01 -7.438944822450662686e-01 6.759675667999123228e-01 5.129658034638844288e-01 5.963449828470963887e-02 5.308922395885056211e-01 1.837442490838359976e+00 4.911334742302119194e-01 5.052323523493014168e-01 4.854356269053196615e-01 -3.311674148511361881e+00 5.146838583310529014e-01 2.666512722787727885e+00 7.127540537122896147e-01 4.973974525998374197e-01 -5.831098467169852917e-01 5.120857853678710825e-01 5.107997529487722232e-01 4.317034947800414968e-01 4.677894663276243037e-01 3.915260539042678123e-01 6.332127820745062641e-01 3.150980673529212850e-01 5.159304198420237020e-01 5.231742019342716654e-01 3.769848686410635641e-01 4.984839723225326091e-01 7.130466576666454337e-01 5.092841646512451526e-01 1.183257944418653729e+00 1.598558751571704101e-02 2.194161272473956537e+00 2.585424073915467691e+00 5.626425611038403662e-01 -1.889357198325693488e-01 4.941228810198527999e-01 4.067788891804315354e-01 7.178937640176265012e-01 1.353339026523187272e+00 5.398367624040196766e-01 1.114106876247909605e+00 5.072028343066307121e-01 1.314829098942968955e-01 1.239823772091728893e+00 3.787884063034046567e-01 4.966268624018506661e-01 5.462106011973624220e-01 8.604706615819120996e-01 -3.572135809699820808e+00 1.602132907889165736e+00 5.486503953103346598e-01 6.404613225007089738e-01 5.050105165518007366e-01 1.722869544716725487e+00 3.131855971295484098e-01 5.304031633761182585e-01 4.762965189756513951e-01 4.278811786128839945e-01 1.384391920201074377e+00 6.355939180776655206e-01 6.954083873208263267e-01 4.903556206939497786e-01 5.991238117053010459e-01 6.701090632245917389e-01 5.574157984714321890e-01 8.858459826202275122e-01 5.096365482184047613e-01 4.011862273635469767e-01 2.524702286034605225e-01 6.328055546120257002e-01 5.166065265724031352e-01 4.955570257932848666e-01 5.304031649871849829e-01 6.573510517541701903e-01 5.051803292998545691e-01 9.794802305923211438e-01 1.011688595634316679e+00 1.111292621928814173e+00 5.261308249888292377e-01 2.526897573905338978e-01 9.065847849917011425e-01 -1.085197067568386131e-01 9.326970081714104355e-01 6.259386572768586010e-01 1.539741260943973226e-02 5.400438937566967024e-01 1.012923190655125927e+00 3.942994177787479959e-01 5.386370881205646555e-01 2.615767015875479218e-01 -3.269791395401339673e-01 -2.394268488138097783e+00 4.636263556991899737e-01 5.991238112809933458e-01 5.991237707688119585e-01 5.213788844630908859e-01 4.809951520623766963e-01 -1.988708642031785934e-01 3.515086779451467858e-01 4.982324395838125808e-01 6.183665027345961462e-01 5.088230558421693583e-01 1.068178543351771426e+00 6.954082402863511758e-01 5.134418223223664590e-01 4.674065657212227443e-01 2.659710332804629540e-01 6.434269014438459555e-01 5.316257264685397832e-01 5.169020444854438567e-01 5.634191402917574365e-01 2.636289389431012431e-01 2.866938116967063244e-02 5.991238117435579991e-01 6.538632555330424756e-01 5.080789093461677286e-01 4.640825537536021339e-01 8.562759167507418834e-01 6.261678528501809504e-01 5.626546486193677588e-01 1.785986963798281923e+00 5.295436960872860199e-01 -2.927810176667440700e+00 7.143181785779555426e-01 1.491028283035148450e+00 5.279146625533854831e-01 -1.021172241453042639e+00 6.755232316733312814e-01 4.836040014392929409e-01 5.110738310488591729e-01 5.427058486328153464e-01 -2.364565873154499676e-01 5.151736972272946691e-01 1.060810809300876567e+00 6.399275081768671658e-01 -3.027317624096907411e-01 5.241404903269681892e-01 5.027178483469886272e-01 7.601924413590153140e-01 5.213606681414864052e-01 5.003144584650609517e-01 -4.931535218072997662e-01 5.617425019025659161e-01 5.148062368168767611e-01 7.240608568205053608e-01 5.093683812819216339e-01 7.628210071922668645e-01 5.058985523296068987e-01 5.560979409567877729e-01 7.520644991665682566e-01 5.513254141676738884e-01 3.622003693747125608e-01 2.543443738937242182e-01 3.014989672806561161e-01 9.493116734452322625e-01 5.425090252660140777e-01 3.129354199996569719e+00 6.606467405550234817e-01 5.838754917775089703e-01 5.627647655002494531e-01 6.456444352796928410e-01 2.709286491485214318e-02 4.815957228295694725e-01 6.039187418707334665e-01 5.172305348602980191e-01 1.166474636998321435e+00 7.629770974902173597e-01 5.246910868840928277e-01 4.567111959046777914e-01 1.112385267136663192e+00 5.227436303438421916e-01 5.217171671971879698e-01 5.193708634604939922e-01 6.825803664448997221e-01 5.135347005812015420e-01 9.119415619906786619e-01 4.713167299990401182e-01 5.093492081137982463e-01 1.480580365574048901e-02 5.387701518893136532e-01 4.397551155071760531e-02 3.798977256478344722e-01 4.247126148445647953e-01 5.392588714884554157e-01 7.674759154077781531e-01 4.988860141469540488e-01 4.065868154512369270e-01 3.592724781480113178e-02 5.774839798262184631e-01 5.330524914180398977e-01 5.313002751034364701e-01 4.051966888438952863e-02 5.144514247152492947e-01 2.500269570575215927e-01 5.124537851699731972e-01 4.418662981449084648e-01 1.245450487829375730e+00 7.945049624974717117e-01 5.051385265356502785e-01 2.862266546958495694e-01 5.859826047867582322e-01 4.153643824226347925e-01 9.823582469368323800e-01 5.676235342423683328e-01 5.050843033978930086e-01 6.792220626965697061e-01 1.951166276735263105e+00 4.535970858735406952e-01 3.989925063183095144e-01 5.137768614332195449e-01 6.756495022900728120e-01 4.358497628563794968e-01 8.123892220020071386e-01 -5.572461376722993576e-01 3.090781640072671754e-01 5.561522280956161524e-01 4.483987884039359884e-01 3.812536029118654413e-01 -5.885026928923430267e-01 3.915651085406468557e-01 5.149337359996732921e-01 7.386653122600763677e-01 6.624297431408581183e-01 1.389320785306745965e+00 5.094493795947772075e-01 5.214215211873575173e-01 -6.679168570218249057e-01 4.889744592448832528e-01 1.186935623769325820e+00 6.856139525208462260e-01 2.445334270058717174e-01 2.956150527865923916e-01 -1.506737081873602335e+00 4.905105780584175790e-01 1.989422782572608239e-01 1.087672795084761779e+00 8.099354946589016890e-01 5.169282368266974181e-01 5.058297369713332658e-01 6.041546239295773058e-01 7.141186851800315205e-01 4.852532508614134654e-01 5.676628937936463171e-01 2.620058796742961646e-02 5.370134257801810751e-01 6.168310942470898173e-01 6.724345072084736419e-01 4.928686801442823673e-01 5.976373470100113661e-01 1.171340907055452574e+00 -1.123524956523711538e-01 -2.223114699172875630e-01 4.727317537937499869e-01 5.415479475142368493e-01 5.650355421949995183e-01 5.243686388957931044e-01 -8.176661555340524190e-01 3.094128756064175256e+00 5.911000945356511549e-01 4.652667691049535703e-01 4.161887782753458387e-01 5.135635690563082889e-01 5.183165917161011160e-01 6.510216032329326774e-01 3.290306284210279819e-01 5.699533717286147105e-01 5.157846086324493484e-01 6.657814214432841160e-01 3.861999736865118216e-01 5.739295666570136678e-01 5.216993810563899103e-01 4.065231147670185785e-01 4.564331582788209718e-01 5.377643763940678223e-01 6.349199906390056158e-01 9.931737076612687787e-01 2.276933645313166998e+00 5.911562928958314922e-01 4.926477884314843236e-01 5.659230844700465779e-01 5.473871501096931880e-01 3.653143790910601818e-01 5.085071871058890469e-01 5.132513537761944633e-01 5.610650128514209634e-01 4.988629819582407476e-01 4.980570982706055139e-01 7.136371483817001149e-01 3.721002840161465319e-01 6.040495570807485892e-01 5.527380857466162034e-01 5.965136540086409811e-01 1.303582799444240048e-01 9.065842472197788160e-01 5.372777999069552335e-01 1.609624645428731626e-01 1.904885210763270331e+00 2.598995816462452702e-01 4.860847366373877709e-01 5.819583592716990328e-01 5.928358901437300044e-02 5.497518595551816878e-01 1.489373795512959786e+00 7.344509274744619454e-01 8.034028763143183927e-01 5.131868508469501489e-01 5.335137606901987350e-01 5.195147734975428255e-01 5.912362963563749796e-01 5.220503002469993881e-01 5.120815099523274849e-01 -1.326067679271427657e-01 6.052989518081022258e-01 -1.319675435795581331e+00 5.389547277784213497e-01 4.868428013484917272e-01 5.475181052010087424e-01 4.854456620153688728e-01 9.065842471456418972e-01 2.317978397816399527e-01 5.668528725438157778e-01 1.296597212491681805e+00 -5.215294331042545917e-01 5.028882914249745983e-01 1.106950607038011070e+00 1.456729095709818678e+00 3.709640811896059986e-01 5.036936808173479996e-01 -4.002677218567428363e-02 -1.620470043864622456e+00 2.868387999987845327e-01 7.003670549557646785e-01 5.271713164939141327e-01 5.113942467871169795e-01 4.582797269992415767e-01 4.900090294863638229e-01 -3.801911779987240947e-01 8.045053509522680502e-01 5.189440895341581594e-01 3.504543701104305131e-01 5.317560597127101163e-01 -2.825969764114042576e-02 -1.778916103465346121e-01 1.734480522114799417e+00 4.183412629016538542e-01 4.242916320875180780e-01 5.057229074041266204e-01 3.349230732416034195e-01 6.286682727769308254e-01 9.396895515613408467e-03 -9.252738534895235123e-01 5.111353432425461696e-01 5.123640147075135820e-01 4.646149131965358614e-01 5.658915199940662832e-01 5.483837082778476590e-01 5.396102654199460558e-01 5.163233286230365371e-01 5.840143811889435543e-01 1.020243772668625537e+00 7.289740199922982722e-01 5.485249085657843970e-01 5.282027956775879884e-01 4.951470336955585139e-01 4.364579282822010908e-01 -4.152603846271704993e-03 5.304031652320319035e-01 5.795614756635421028e-01 4.629193830959149047e-01 7.333329894250482095e-01 9.908303337738905148e-01 8.123753953468074718e-01 -4.494473692702930512e-01 5.481849057727840036e-01 5.512126698303411176e-01 5.047559414969662317e-01 5.633106638858386139e-01 8.906960702647481742e-01 5.408282851848270623e-01 4.973070842290674975e-01 -1.790878867647792416e-01 -8.246755965837210267e-01 2.227819666563410017e+00 5.281669434338693847e-01 8.832957643791651270e-01 5.063853520986002499e-01 5.627394249103530033e-01 3.536261274752984241e-01 1.482769869451391331e-01 5.113816913108226725e-01 5.348594890200139007e-01 8.093082873474866795e-03 5.112125312381983200e-01 4.264242072279000317e-01 5.183663873865225202e-01 7.789339038714467867e-01 4.963888481008934539e-01 5.766146286822873002e-01 3.792282117149787246e-01 5.691186573302224883e-01 3.275244830667591867e-01 5.138154038246972588e-01 4.746164588448607002e-01 5.111801196265384206e-01 -3.017939884890353808e-01 5.041489454546927984e-01 6.430734300260990688e-01 5.263169202229746046e-01 7.140821869759104157e-01 9.065839573879249658e-01 7.369764759479608962e-01 -5.715048025008213628e-01 9.960961755278091578e-01 1.722869552435026597e+00 4.694524020212982318e-01 4.639045652735826475e-01 1.063600310463102216e+00 5.226022583608684879e-01 7.141874282573636989e-01 5.088503821118279813e-01 1.759500628168610081e+00 5.047603348239710908e-01 4.903581085747704127e-01 1.234355166843272400e+00 -4.694292880413276914e-02 5.273695267395197561e-01 -1.691758417885696475e-01 -9.217547814914285320e-01 -1.780786829738207622e-01 7.806899692676264602e-01 5.240725992900621133e-01 5.864174277593244833e-01 -3.378627757364373041e-01 4.941921291006859396e-01 -3.141505550435331161e-03 -3.324155500432198762e-01 4.487832559582012326e-01 5.087384130150476302e-01 5.122347565990845730e-01 5.689362728765294808e-01 5.640576055075435802e-01 8.973012364269874475e-01 -3.654450352050055417e-01 5.157051634619205238e-01 5.557574201392092572e-01 6.329960785307534588e-01 1.153710925500820661e+00 5.259636213668531513e-01 5.924547029576634483e-01 5.162158446163134240e-01 1.407889546599738924e-02 -2.366169347135186618e-01 4.968549217631070825e-01 5.211403650049916125e-01 6.491625054025903507e-01 4.885447156876530639e-01 3.327770420312355926e-01 5.094120657726742829e-01 5.030645220812265395e-01 3.225352892577657005e-01 5.060533041910968421e-01 8.360182464701194638e-01 2.498274786124870417e+00 -2.319453900617473863e-01 6.696962148566590889e-01 3.509712524650487331e-01 2.293299745687011060e-01 6.914062903731295062e-01 -5.548048626629584895e-02 -1.456575846189213763e+00 5.216480440951960507e-01 2.558607921458716739e+00 5.165242381870006616e-01 1.420818856174247136e-01 1.868540164826200389e-01 5.189440831750417038e-01 5.418126183820055619e-01 1.523853346608739390e+00 4.878221959472815450e-01 1.253045833054914904e-01 4.520109258578612899e-01 1.643828995016944461e+00 5.579141962300652180e-01 6.848426613943775498e-01 4.867811898977970064e-01 7.438209669251578671e-01 4.507253009668628629e-01 5.595908894491633534e-01 7.401502361010788879e-03 5.157722352399124466e-01 5.816184514227334956e-01 -5.569130649463805982e-01 -1.277873532163577124e-02 1.164173010582108203e+00 2.339269664209868704e-01 4.967941475130532858e-01 6.582252080336359334e-01 5.347319416640241574e-01 1.976770460893121140e+00 7.126953798313107047e-01 2.575151295560075201e-02 2.455335899272089728e-01 4.132864255783791907e-01 1.082337539144789584e+00 5.569859862241008930e-01 -1.638856823353135317e-02 4.909186919078804001e-01 -2.727674886760310391e-02 5.228632900323489929e-01 5.161437632008198939e-01 1.414618057233594552e-02 -7.935064486843382281e-02 6.627269496563097384e-01 6.165222482949197502e-01 5.166272129607658581e-01 3.322477848387758725e-01 5.555053036250420240e-01 4.785341911834057882e-01 5.622560658390179933e-01 5.427574715777637726e-01 4.837197099809695811e-01 6.517840543782322804e-01 1.010989590679229888e+00 3.058708343546697517e+00 8.714677133497097383e-01 5.211825103597880204e-01 6.592608616534514354e-01 2.091359701642536706e-01 5.036176413472654989e-01 8.282488053316977572e-01 4.778346183741099540e-01 1.315319192543421556e+00 5.576736403684633414e-01 -5.560434765545453351e-01 -7.755735137860804949e-03 4.283897667514220964e-01 6.096884912992512895e-01 5.668223336271592805e-01 5.047708616326181952e-01 -1.301226345685179038e-02 4.695824103676733419e-01 3.956062785351985855e-01 -3.479722950820760552e+00 4.973313902886277726e-01 5.351911496662021817e-01 1.111998299581515637e+00 5.139880901908370214e-01 6.032357310485771951e-01 6.796327120876243244e-01 -8.476238191517014853e-01 -5.078924740880508271e-01 6.154738090800225547e-02 5.052929135414806483e-01 4.019372168411067814e-01 2.301283281461816432e-01 4.860366610486678840e-01 -3.257323122186255859e-01 6.728785562181850421e-01 5.721576175311451351e-01 6.924558161338397744e-01 5.311577665817117655e-01 4.797976891183847736e-01 1.704911907977247620e-01 -7.161252982598698136e-01 6.441064236778112351e-01 5.483815022040772202e-01 1.692939469058043211e-01 5.082283313455028262e-01 5.853247398744998442e-01 4.963948411489960133e-01 6.660805771676850950e-01 5.631173808533749270e-01 5.334944171974491667e-01 4.962325233155737148e-01 1.722869551860555237e+00 3.769623793334271333e-01 5.529060250231090379e-01 -9.685997466550709534e-02 5.258381426658729207e-01 6.156194065842925944e-01 5.211470077043087734e-01 5.066825418044943463e-01 3.467478393882946208e-01 8.798886992982507538e-01 1.163147902894426933e+00 5.577097481518925592e-01 5.416250607537019812e-01 5.944851358734933866e-01 4.793838639265300960e-01 5.132308197310700981e-01 5.084895321819157266e-01 9.961512253797472072e-01 7.360477402824160409e-01 -4.434754100339644567e-01 4.385287806138492561e-01 9.225397171001672447e-01 4.798135864505583825e-01 7.248559130162513485e-03 5.392847706765911964e-01 1.116510374287427831e+00 -1.379647686904053872e-01 5.107458144033699687e-01 2.568231237419902890e-01 5.373100744888210656e-01 7.940103988167571680e-01 5.097394262729092462e-01 3.651602420281290784e-01 1.384108648228289606e+00 5.449085131228077472e-01 5.154303020635964128e-01 -5.896934434591073471e-01 4.666984933935169888e-01 1.045064076558251065e+00 5.742234540006955212e-01 1.192727552206907793e-01 9.318494792861982123e-01 -7.302956051557336903e-02 5.001615639374515920e-01 1.567183763786062611e+00 -8.444002101428194074e-01 5.235593075721476364e-01 5.129384417342912617e-01 -4.239687449413298004e-01 3.540550889808694590e-01 5.367221022179239354e-01 4.586206693451357896e-01 5.364878357507647522e-01 3.404371049574045349e-01 2.646155343238026370e-01 3.503769312794380864e-01 5.214370290776445538e-01 5.093728216074646653e-01 2.116084493473720067e-03 -3.221490804112496498e-02 5.176965210979567189e-01 1.055769289999000105e+00 3.725600358302830761e-01 -5.572216947299395429e-01 5.415317092739759808e-01 5.054171214067678664e-01 4.599313812524589151e-01 1.778939168203117621e-02 3.483697391874633342e-01 5.130710290082723946e-01 4.981941382689960562e-01 4.579078927129067167e-01 5.161335075676286299e-02 4.458021499609576277e-01 4.978295314687082307e-01 6.683981700322988440e-01 2.053148096259511668e+00 3.536673311293906524e-02 3.796466959594371193e-01 4.825271515230518671e-01 1.797108961086114620e+00 4.792134412998211301e-01 5.347023921194197227e-01 1.441149390940141620e-02 5.304031621038587385e-01 5.005693228857530652e-01 4.673726465638445293e-01 3.846876832879591035e-01 5.141567812532364945e-01 5.812618343026823009e-01 5.204003595514479219e-01 -4.913555130024792605e-01 5.072870386703779433e-01 5.036843841760467733e-01 5.308382012879444556e-01 8.964287713258036749e-01 5.211638398322928634e-01 -2.361618927929314271e-01 1.023205620538983673e+00 -1.195115736903111125e+00 -4.928339402865523078e-01 4.972280893627926135e-01 5.058247992773843293e-01 6.469341117599723967e-01 5.242454041689177391e-01 3.429169939309713588e-01 6.381771936105302689e-01 5.304031671967799344e-01 5.071420967915116762e-01 6.198417039407900786e-01 5.650752085926994406e-01 5.066702863026197878e-01 2.777223010247494295e-01 4.868384689812347288e-01 4.372467218021072743e-01 3.520775443659127646e-01 5.234962579662525428e-01 5.141362487086444943e-01 5.374536671603387106e-01 6.264723580269011549e-01 5.043892214196253887e-01 6.348177568817436889e-01 4.669332123364999809e-01 4.906689710574044239e-01 5.485969630396085872e-01 3.147179126839658170e-01 4.754694634845434420e-01 2.333967894965387035e+00 5.975171300776543903e-01 5.473588547496093248e-01 3.388073239977195672e-01 5.700011635851922609e-01 1.100989546622364479e+00 5.974093115196948967e-01 7.195831020563777658e-01 5.128245638474565604e-01
6.831645971947233331e-01 2.410146079432901045e-01 3.981460114070977108e-01 6.842249940491154647e-02 3.070652253962831701e-01 2.787013163406443783e-01 5.229579287320256231e-01 4.636655356416787277e-01 2.123779870908585332e-01 2.960656406217193615e-01 2.010341551973960250e+00 1.685699120073310020e+00 -1.397844417940822037e+00 6.195209047642254996e-01 3.139198446738479253e-01 3.585652948642297777e-01 1.279724355127649094e-01 4.165038015993208220e-01 4.492410543598590045e-01 2.832389277132419947e-01 4.715888035468298600e-01 2.061324734050695717e+00 4.062228301651606421e-01 3.443588560287514921e-01 6.932259535885197943e-01 -2.814314178790583987e-01 4.766181963681370704e-01 2.831832040917331983e-01 2.895756146265237030e-01 -8.139607142572172771e-01 2.161415770759572974e-01 -8.090681205267322151e-02 2.898742738401675623e-01 2.641155840360805973e-01 -4.307895916672538905e-01 3.923217804816737098e-01 3.118112451443484923e-01 -3.097375810098552118e-01 -3.140732946757483379e+00 2.855810186013245100e-01 1.087565482101366277e+00 1.372653179265558854e-01 -1.615319797457019924e-01 7.910865641327026188e-01 6.727520112034036659e-01 2.757366479299809270e-01 6.804730474339773516e-02 2.998719878452143495e-01 3.019299684479893608e-01 7.350923643046207712e-01 7.064515219349811748e-01 4.367368935308671429e-01 -3.037129060917536094e-01 1.951242349384597896e-01 6.038500957873439434e-01 7.098039257013087910e-01 3.070760234471540118e-01 2.944725085329272241e-01 3.487238040566886799e-01 3.217457183870683912e-01 4.208353886010311462e-01 3.063784687971936038e-01 3.351681642987221488e-01 4.062228318308414576e-01 -3.444274107537986240e-01 2.529988154567056613e-01 2.934568531328069496e-01 3.474238462092925084e-01 2.989795034692599995e-01 7.291508860863232799e-01 1.218858714665487508e-01 3.483595049339921479e-01 2.879670172213271706e-01 7.026342209464967459e-01 1.876747070470974776e+00 5.280228993754194633e-01 4.638302419271978505e-01 4.772112768241807967e-01 3.165001665907743456e-01 -1.304996402568658898e+00 2.683653968336872642e-01 6.624979778466685287e-01 2.214817459392463661e+00 1.490393177216461640e-01 2.914385188531313231e-01 -4.448391276717805765e-01 1.134195491501353154e-01 2.960986655652853572e-01 -5.651183178744533242e-01 -8.511659556298073470e-01 6.721979924540526508e-01 1.527131519006872384e+00 1.251875226221704218e-01 7.143282689988392775e-01 3.178067730363118848e-01 2.847666893312588710e-01 2.929600785267184593e-01 7.085290621172382064e-01 7.394562753974960323e-01 -2.786570378989469132e-01 -1.608959213448938330e-01 5.801940268414065155e-02 2.868505203155033989e-01 2.185679007760139569e-01 3.458637480457772001e-02 3.007164287118148316e+00 -2.729610182184695755e-01 2.413892301765697274e-02 2.526406875037565114e-01 8.048836712605180743e-01 2.250515700781894057e-01 3.443953361579001338e-01 1.753365519232825409e-01 4.919200796047049629e-01 -4.983733205996079829e-01 2.157876364668705471e-01 3.926991427520764022e-01 3.391567323065623474e-01 9.103467630941151079e-01 3.146835289908290756e-01 -1.415211717202355945e+00 2.991538742906520998e-01 2.873110332215627061e-01 1.248354399534724157e+00 3.139742941895016237e-01 2.112437894842596808e+00 1.516205502158320673e-01 3.887400644835226626e-01 2.883603238728514873e-01 3.271855984784103888e-01 2.342233771106454754e-01 3.161815144466909033e-01 6.680172030870661359e-01 3.907972865279941144e-01 1.901357009016272082e-01 8.919387385943836621e-01 6.841043545356984001e-01 7.268986353750184204e-01 -3.247639057068579249e-01 1.945939966404676147e-01 2.781464746144845512e-01 3.211289264002050170e-01 2.005522442329060739e-01 3.458672415430293356e-01 3.160846524236466393e-01 7.019281417923748378e-01 -9.462892371029520133e-02 3.180965738750426985e-01 4.394631401315393648e-01 3.925774168082272753e-01 -3.048888977195571282e-01 1.893077152672005201e-02 2.757362843654870832e-01 3.030092210674060205e-01 3.872708501132527958e-01 2.996295583573429511e-01 -2.164345825014062363e+00 4.380867270305248140e-01 -5.768431786703928088e-01 -2.771293719035151093e-01 4.040445791768648154e-01 1.630484082207402929e-01 2.840486645329426407e-01 3.170091538553893584e-01 1.028032486009049368e-01 4.493642575476758383e-02 3.132269749980622353e-01 3.705007549027458658e-01 2.316644609807842203e-01 3.778961562666113827e-01 2.032384242631495863e-01 6.641640019323405419e-02 2.757570444485628047e-01 3.153395622919155650e-01 -2.439059355639634052e+00 7.213217134286129539e-01 6.492082806259255046e-01 9.917022891935703965e-01 -4.494647041994391801e-01 1.165801305886629891e+00 -3.132487152806277819e-02 3.527967707577653322e-01 1.219945991544744368e+00 2.393105360580696228e-01 3.018097472152883043e-01 2.584462481557355806e-01 2.618575808909150981e-01 3.132877974527808473e-01 -4.443256142204292658e-01 3.937093043113572555e-01 1.756676759418752121e-01 7.951668009186509956e-01 3.221639924633162289e-01 2.057583717281063485e-01 2.147480924800449498e-01 3.100696975164909386e-01 -1.585577274656361668e+00 2.926192421253594467e-01 1.575015622178730923e-01 3.426467371858377686e-01 1.541154048073865857e-01 3.169794223512641396e-01 3.707917516635667043e-01 1.217157756352585801e-01 -8.143259070856683213e-01 1.575015573587615902e-01 4.345311731055637727e-01 -4.964137599344786711e-01 2.855284096444844488e-01 1.503706765333779338e-01 2.750799170422119633e-01 -3.141551389585749643e+00 4.190210191947555396e-01 9.422977146314726049e-01 3.193732496833764367e-01 3.094847920784898898e-01 3.046211348716323375e-01 2.951267253858838036e-01 3.212025902939774080e-01 3.207084760817681679e-01 3.069391970286264870e-01 2.336824622773191473e-01 6.527418236995196077e-01 1.739374138296964634e-01 5.350501566711428625e-01 4.206462760128477640e-01 3.732072580209829793e-01 -6.122027765696608226e-01 2.205115216414900381e+00 3.686243719382198414e-01 1.219694551320246179e+00 -1.368987307360583383e+00 3.164580664399339605e-01 1.987155616213578113e-01 3.427098891203669839e-01 1.127030917359064244e+00 4.488349303137212920e-01 7.783867145671345966e-01 2.751343668916549912e-01 6.704503184635454138e-01 3.663759925461870792e-01 3.462858503436782587e-01 -1.130627995162621913e+00 3.062852729377973926e-01 3.034390456122973423e-01 4.442514597878839955e-01 9.279360143118914328e-01 -3.224141280142815424e-01 3.027349812101945759e+00 4.343707306482952335e-01 1.186368227923460861e+00 -3.584146485120653924e-02 2.943414436772924248e-01 4.062228721753156635e-01 2.956142975114604554e-01 3.117540577531109358e-01 3.294209367002437494e-01 -6.202185540579395473e-02 1.840012027300982345e-01 5.598955921127993784e-01 2.997664938638561760e-01 9.051138433373456804e-02 2.923282100955014173e-01 2.835453184290657735e-01 4.208353623774513941e-01 2.761246468673819177e-01 3.116644971980274015e+00 3.825386089544841606e-01 6.571892719901467617e-01 5.438486886145696975e-01 3.731697008105404056e-01 4.212802621878515286e-01 3.198332244328054852e-01 2.844005820097641468e-01 3.155578882718714784e-01 -4.694539659604387571e-01 4.875878674239845223e-01 2.855801131278182248e-01 1.085071151380515991e-01 2.210333273473092663e-01 1.498434718586786341e+00 2.159900010786924285e-01 2.671918230623404611e-01 1.966919842311530831e+00 4.849104436692669440e-01 3.783601840477082701e-01 2.853313050808155005e-01 3.281329664995401019e-01 2.157876379006964940e-01 -2.030524035904181623e+00 2.891283240132179744e-01 1.430681030014608668e+00 3.630931473731066617e-02 1.817779843257416317e-01 7.197337445501298392e-01 2.442321163522426231e-01 -7.046920081550755999e-01 4.538297866995433805e-01 3.125126089247187711e-01 4.394745110709706859e-01 -3.692103920161749486e-01 3.082176197314090982e-01 -2.045255879546209243e+00 6.684989998240119247e-02 3.362223044918973835e-01 6.094568533788403686e-01 3.203358586709622036e-01 3.104959055684634595e-01 4.226921148620814139e-01 2.393709848442516774e-01 -1.341133895218948602e-01 -7.437055032821393574e-01 8.746019767484044041e-03 6.750220947897991319e-01 2.964811727462547952e-01 4.653805520766126080e-01 3.142287684932641989e-01 6.735940446549523730e-02 3.174814418069984989e-01 2.373499881480861884e+00 6.925661327423504598e-01 2.463287376351064317e-01 -1.114616897680156260e+00 2.301611706403323132e-01 4.507826104000985268e+00 3.024827670859850381e-01 -8.207389268141107586e-02 5.669575591830362526e-01 -5.392605713662507405e+00 4.910433764480015562e-01 1.493798238673204715e+00 3.237689089549033450e-01 5.468787252994702364e-01 -4.251163994804481039e-01 3.186969453581238731e-01 2.711142530982804666e-01 3.683674596406569801e-01 2.649729346945102204e-01 2.821341946539399625e+00 -3.555021568542354737e-01 2.437028108073460153e-01 -1.876387645239453228e+00 2.816347596510895279e-01 -3.097375783108266001e-01 7.331344746608067231e-01 5.636673585936744502e-01 3.800059359772298140e-01 3.620711875485199682e-01 1.292413651039195921e+00 1.320029985757926183e-01 1.575015632748751337e-01 3.062885187789871066e-01 1.217157749397884681e-01 2.303570132110839275e-01 4.006850934796535868e-01 -5.890012501423796953e-01 3.157212181003350993e-01 5.189886026868151259e-01 3.571241078642161670e-01 1.810722572843001255e-01 3.022661749232473105e-01 4.134672264218214321e-01 5.636673484850649452e-01 3.120724936934782257e-01 3.171252423857239822e-01 2.166740975248452605e-01 4.729274368121494376e-01 3.248176872056434572e+00 2.768498961508750744e-01 1.871317966093730134e-01 4.208344405051742676e-01 8.593502845986887850e-01 4.605245326626752900e-01 -1.860364262868647034e-01 7.019409131137278601e-01 2.132555720643114494e-01 1.098546530097637280e-01 3.790726365750315408e-01 6.383513737986959979e-01 6.787544191495039625e-01 7.645342525301256353e-01 8.015662858723623385e-01 3.898962714803350660e-01 1.217157757310662058e-01 1.217158399359795223e-01 3.797439522099387843e-01 9.394898286052302816e-02 1.119998172650121582e+00 4.208807113939385669e-01 3.001141688635364235e-01 4.018292803129080992e-01 3.144649991271683542e-01 7.951334876473481472e-01 1.575019715830271727e-01 3.141924424933899007e-01 4.251981252284491863e-01 3.303501803205825538e-01 -6.260806804588916474e-01 2.943847794290350151e-01 2.953065588578377421e-01 3.421702214798335029e-01 7.079240526625107943e-01 7.518850026015979626e-01 1.217157749133662425e-01 1.874573346952427069e-02 3.149268308643113912e-01 3.749034683033583559e-01 -5.875249192271539966e-01 2.332963448295912456e-01 -3.396131456203832943e+00 1.863153948891912215e+00 6.094806768032995370e-01 -4.244833338248111820e-01 6.854988891548810526e-02 2.005049034847762091e+00 3.205920270994511156e-01 6.240319756027202791e-01 9.007135295238730133e-02 2.548226164001740068e-01 4.724002891907585489e-01 3.226226828241037792e-01 -3.717199353085242075e-01 3.067380702753067512e-01 2.000556070021441979e+00 3.389763814736478920e-01 -3.745685236228242787e-01 2.257843256314277236e-01 3.338548598689540237e-01 -1.426798970801343991e+00 2.622075614719001080e-01 2.409505477153556785e-01 4.024351930695391766e-01 2.590932513160192907e-01 3.172562626420289966e-01 2.538821254051028542e-01 3.273106938590426562e-01 -1.594391443807339770e-01 3.154323135179256665e-01 1.738797639492742908e-01 3.467833918178248043e-01 2.528803727546156677e-01 3.777997192880321042e-02 4.626476796887614706e-01 6.549379793677528871e-01 -1.327914381324294846e+00 -4.346692185881957937e-01 -9.993109101005900885e-02 2.226756802719106337e-02 3.490907761383338359e-01 4.208645489798540362e-01 3.620231245724648828e-01 7.057377650104850186e-01 -7.989589079261635862e-02 3.278329637757025905e-01 2.982453636550194687e-01 9.102435484305310132e-02 -1.597609255592692123e-01 3.380722696452375664e-01 4.157211670954953919e-01 4.779378935283636887e-01 3.204206835724982549e-01 3.050554078999843099e-01 3.042315937902663747e-01 2.647747679777782692e-01 3.034785542367081090e-01 5.194218293419783361e-01 4.204339675548465771e-01 3.161413515713433209e-01 7.029803636087018637e-01 2.745307792366198374e-01 6.983730496860089954e-01 1.426078289746703087e-01 4.537188822359274343e-01 2.129759135624185451e-01 -1.419521490976001221e+00 3.323358074157935493e-01 6.355292028194119425e-01 4.008235793386300538e-01 2.497960986286656693e-01 2.781624205292844154e-01 3.634841429221238873e-01 7.189203272842102921e-01 3.025500579746840946e-01 3.441927754696932906e-01 3.188712571700098031e-01 3.034044982139062485e-01 2.324422393487184935e-01 5.344784291711753843e-01 3.069836980482654742e-01 3.022033295490422766e-01 2.530981307152000981e-01 2.962247979206966350e-02 1.587737016867893480e+00 3.690241127038799696e-01 3.758601543381390742e-01 3.681529364253017245e-01 -8.065080556150396873e-01 4.508674746873292394e-01 3.730256806104681466e-01 5.575597844522859337e-01 3.652826750780524545e-02 3.414449382328516025e-01 1.440057912975411192e+00 8.829111655175777562e-01 3.617632304752165240e-01 2.618501313445577017e-01 4.060328603759425503e-01 3.126041273076873295e-01 8.996114539085947603e-01 2.946474697743633797e+00 3.022640601485970802e-01 7.725421120411914144e-02 5.979907380227579283e-01 -1.417652437151477873e-01 3.066764296131826439e-01 3.228013198128766859e-01 1.041447186154630611e+00 3.512745714881991277e-01 -2.945868997717189242e-01 3.627775418813776187e-01 1.078561376941869071e-01 6.708654547092358644e-01 1.628952013267398913e+00 3.852034060292713891e-01 2.261695622153815366e-01 1.633389475033388383e+00 4.213597931864161983e-01 2.773753376134385218e-01 3.205852586575786978e-01 4.013094621608721546e-01 6.787060922277617092e-02 3.814981441758640845e-01 2.317426490711124720e-01 7.052885740922714142e-01 3.704504028638760937e-01 3.691357284170406761e-01 2.962276374897516718e-01 4.545664641458735944e-01 2.579216604888753817e-01 2.490328208142002508e-01 9.336459830687799943e-01 4.963550823096610776e-01 3.385069039667768509e-01 2.908095523960385065e-01 3.266781142336286359e-01 3.391595936944872824e-01 5.800543289757349452e-01 7.597065131148721395e-01 2.811746423727773392e-01 2.657458070831054675e-01 3.466466313689346990e-01 3.218489524257783785e-01 7.517314106080610348e-01 2.021461643413570708e-01 4.246237391082233192e-01 -3.169159887940836140e-01 3.114567895285111909e-01 2.063349712230833632e-01 3.928727196657211818e-01 3.421583056461365846e-01 2.359926440595949970e-01 1.718816831745411111e+00 1.795647748832081836e-01 2.939574725424867196e-01 -1.236160778026998558e-01 1.569633802306223513e+00 1.128892039940034620e+00 1.004477425510726524e-01 -4.668409327273562170e-01 2.506725535594908072e-01 2.929593892647497366e-01 5.096389475317800732e-01 3.158781121988855078e-01 3.189560037329874365e-01 2.170406691072848115e-01 3.071082164616708021e-01 3.344729431420776500e-01 6.847470723971679774e-02 -1.483268280858932586e-01 3.841385814699526113e-01 4.003502505750316520e-01 1.792430814450440002e-01 8.479609431711153666e-01 4.208353764059571400e-01 2.136438277562922594e-01 8.091279337683141559e-01 4.764334009691076344e-01 6.726856673915230234e-01 4.008351249467302369e-01 6.809092731290992129e-01 1.449371261938399158e+00 3.030590389541469865e-01 2.004917191825341671e+00 -4.591676791675614218e-03 1.272963242129552253e-01 3.079466179258978364e-01 2.853514901573501739e-01 2.991152639674705682e-01 3.779231573376418685e-01 3.129086167393276829e-01 3.084709539272548207e-01 3.479619303067760794e-01 1.819773892354415168e-01 -2.570121404488389105e-01 3.367975014449011151e-01 -7.563353635709893497e-02 2.456313625399902389e-01 4.394890614410303376e-01 4.208353764046827705e-01 1.907238130213264604e-01 2.897718787276321040e-01 -1.151910203365443808e+00 1.903660734132383459e+00 3.152828761650558476e-01 -6.697650646192775392e-01 2.983819961449172276e-01 3.192153817733257570e-01 3.184870069109683732e-01 -4.606163586637178398e+00 3.425949241502051379e+00 6.134954604149992496e-01 1.393974939441870176e-01 3.547501550886697497e-01 3.162132255303226058e-01 3.516150116210315368e-01 2.535847196728239439e+00 6.089466654084736419e-01 3.213893050317166433e-01 2.157876316860573573e-01 2.262169186288020273e-01 2.967083246776536787e-01 8.801406289437970765e-01 -3.805195760309314501e-01 -1.108048049910231425e+00 -1.164896380985265933e+00 3.255475207277788163e-01 3.102111915476054582e-01 6.930783047422504062e-01 3.117989327339641403e-01 1.200493367678254764e+00 4.528548036532272225e-01 3.232266809619229742e-01 3.387097437707566883e-01 2.861239205387181017e-01 2.629794863888449408e-01 2.436332051953214728e-01 6.545792789811161194e-01 2.949169444279960417e-01 6.205638683707030978e-01 2.097069760692710783e-01 1.346623450216304779e-02 2.437650921910465285e-01 2.433237533023492605e-01 3.093694541033373824e-01 3.835406914881139828e-01 7.289877294470830105e-01 5.636673467942447946e-01 5.053018117953165245e-01 3.951774796299969417e-01 3.230513244137573903e-01 2.485117919177821655e-01 1.440079388912143488e+00 1.785698706749834219e+00 2.436412693223932446e-01 3.077205526514552592e-01 3.279514308409958723e-01 2.048963679161896201e-01 2.441913744070344228e-01 1.757651645465338197e-01 3.418393338456332531e-01 3.182177049529615886e-01 7.809462072689461465e-01 8.536429155971880789e-01 2.766642923576141944e-01 1.812651645259361954e+00 1.499498100610056894e-01 -1.097459111684460364e-01 -2.675922931863028986e-01 -3.294773548507538008e-01 3.081779895426097204e-01 2.883403731069522635e-01 7.020720882020241582e-01 3.053500228926573912e-01 4.384348611337959278e-01 3.195797700838525213e-01 3.804810170175301209e-01 4.015810427354351009e-01 8.291744436387123163e-02 1.023319380786495092e+00 3.073331333091910422e-01 5.146652416394178475e-01 3.084585755566626730e-01 3.573944236429685839e-01 3.220582759882874568e-01 3.836151256476937887e-01 -1.313174098600799755e-01 2.240309977516950768e-01 3.100762496085557873e-01 6.804966448796005707e-02 4.208357002451031392e-01 1.126387671818649183e+00 9.325648258434915405e-01 -7.430663754041684221e-01 -3.097375809820405168e-01 6.282317085666908607e-01 -3.207330197848953901e+00 1.542763072645812361e+00 3.044399000626104579e-01 6.893582455115097873e-02 3.064367460936331389e-01 8.565783216750925133e-01 3.173019991681946816e-01 3.062856963617962003e-01 -4.343458675743535613e-01 8.299799632574932362e-01 2.799379373143338623e-01 8.912204696272056914e-01 2.036860111028574227e+00 -3.804259216580234693e-01 -1.410562742860025365e+00 3.023353593549638618e-01 2.180783451711762466e-01 7.882393252017807495e-01 3.178549514738483461e-01 6.962497221940437964e-01 4.688426053693358631e-01 1.171881606409674037e-01 3.317060698762798743e-01 3.391718637242477352e-01 2.289098325383200627e-01 3.790483136886539373e-01 1.354840723193075025e+00 1.555749892257662026e+00 3.129656210748153478e-01 2.697641714472871488e-01 -1.244788717196213326e-02 -2.284270464713194504e-01 1.920943603088800244e-01 4.361230960691060005e-02 3.107306181696828373e-01 6.994180545336222687e-01 -3.720598764413616255e-01 3.299471156400372029e-01 3.156544976383823808e-01 1.670542480108891947e-01 3.283018002769003130e-01 3.030918142834618800e-01 3.163544143252531859e-01 3.162939075963878688e-01 -4.607754695429161496e-02 2.340806365749862616e-01 4.444444236832618134e-01 1.090304280784593960e+00 1.091556777959302948e+00 9.438614598789492049e-01 2.008969302594766915e-01 7.544181736002173455e-01 1.111265645287179138e-01 4.393670751075413050e-01 -2.010264278157196216e+00 3.124609339057147772e-01 6.459208015222197563e-01 3.172453319166219088e-01 9.593819613178814487e-01 1.343529741545522738e+00 2.157876365360434923e-01 3.166875340692046903e-01 3.707135341798427630e-01 1.720301859666159561e-01 5.601899541232784330e-01 7.488866394967459428e-01 -7.212883749348453222e-01 1.406392194187679190e-01 1.652998915844949013e-01 3.300200071079237296e-01 3.447821148977716632e-01 7.641509429212407500e-01 -1.130144653437045593e-01 3.798543257850058863e-01 3.059778086306360612e-01 2.455384003307550245e-01 8.829690068412747728e-01 4.176398095706052582e-01 -1.984440683741394984e-01 8.589917688156956110e-01 -3.878228771354699789e-02 5.696477655444545096e-01 2.886222113175844761e-01 1.263701737208784648e+00 5.160655189394200981e-01 7.060518121205378028e-01 4.304316917066686732e-01 4.684493399878890685e-01 -4.866061323617273948e-01 3.016414121752005184e-01 7.610297709069341332e-01 2.911387596239995434e-01 6.567472274969065049e-01 3.569842585260948886e-01 3.051067411691347209e-01 7.328490158090642526e-01 1.104769047074924682e-01 -1.994278721968118395e+00 3.460062913214440594e-01 2.963996994291821507e-01 6.740069659118076428e-01 3.535810860544784662e-01 3.708877892243135910e-01 2.299685848012401335e-01 2.380514419870253529e-01 3.511296787455685520e-01 7.030184651102656251e-03 -1.596554949377568811e+00 7.360175817991059244e-01 2.734465985440416302e-01 2.946045662404621623e-01 1.807174108485814779e-01 8.240263893241619453e-01 3.218149857421849780e-01 -1.179586694840410871e-01 3.057253225821613962e-01 1.109586494144831015e+00 3.254236962212126993e-01 4.138647615693043513e-01 1.070097305509304375e+00 2.810786936524677371e-01 2.658112029137758459e+00 2.647015605136112115e-01 3.272645025469210212e-01 6.943895689334649290e-01 3.154747288484762713e-01 2.739034350024912579e-01 -1.962818740929676009e+00 3.341303514856345802e-01 2.800617472216595516e-01 5.094009851783349863e-01 3.113519514931369359e-01 3.854098544285042283e-01 -2.775306963923253600e-01 1.994013761502350546e+00 -5.204908072350188375e-01 8.245441404673130581e-01 3.181294384934607589e-01 4.153830160504451419e-01 7.233413162927376794e-01 3.298381610075252768e-01 1.302672695835973338e+00 1.413111534719711238e-01 2.805206633832476038e-01 -8.727313529571467665e-01 -1.205608314686043986e-01 -1.633730800713405484e-01 -3.728652364755029147e+00 2.853550789707612445e+00 1.055430976769130558e-01 2.632352609585986158e-01 -1.552359034745976807e+00 3.227852980763233348e-01 1.447149783076575047e-01 3.334088456766081676e-01 1.236420884568771306e-01 6.355864927394455632e-01 5.870658590880258876e-01 9.451593944529969038e-01 -3.097375808157221688e-01 -2.040230814111624602e-01 2.104835686681891527e-01 -1.162454807114440714e+00 2.846810541955127061e-01 -6.188447550834239586e-01 3.403635248730991769e-01 4.904854682967038637e-01 2.858269699113838436e-02 4.013092442858137709e-01 2.769902193430869852e-01 -1.275624291892550888e-01 2.128779954964955812e-01 3.103103037195494296e-01 3.327795003442323707e-01 3.092882253707225915e-01 3.136197876860114531e-01 -7.431074568298676741e-01 5.985480081294117793e-01 1.517466379567727230e+00 4.876658492232228276e-02 2.442057899578882751e-01 4.072181497204599987e-01 1.217410069071428902e+00 2.729898101586710202e-01 1.826833575908315688e-01 8.986354864404298981e-01 3.474233168118582293e-01 1.806795201075719115e+00 4.119908205571593540e-01 1.123533078860640133e+00 3.203285211982904723e-01 7.365580441829072678e-01 1.335063213450700115e+00 3.243394770149576334e-01 3.862894041238816856e-01 8.904041040729744338e-01 -1.793325696714494211e-01 -4.263453696356947487e-02 1.254205372298974053e-01 2.927498117329567773e-01 3.381246955074808103e-01 1.405011377880558687e-01 2.946876607231261880e-01 -3.343769453347010256e-01 1.292258405459550508e+00 2.928017958025017076e-01 3.083322909784853572e-01 -3.032174061213043004e+00 4.484550738424841754e-01 4.031943746274337381e-01 4.794663095443068568e-01 4.337572160843992108e-01 5.120376593326191328e-01 -1.007071664675581513e+00 5.725488165267008656e-01 2.927902849698210686e-01 3.172484553144953034e-01 1.053048840551042309e+00 4.355430348547109087e-01 2.930753483333090048e-01 -1.367390312858262291e+00 4.782741387424783719e-01 8.828852934521762563e-01 2.862862334761258620e-01 3.184167853045906660e-01 2.626913862861290916e-01 6.941517045264254948e-01 -9.331087698262610641e-02 3.092925844531019819e-01 3.325689196171150441e-01 6.253882194836399289e-02 7.303908658759192818e-01 3.544488572728222708e-01 7.507530843197085524e-01 1.859543190478803454e-01 6.814242781313298858e-01 -1.918934009784247219e-01 -1.495543318156272505e+00 3.339446939029450667e-01 -1.244038716246488596e-02 3.002103918030716856e-01 2.635414185749752614e-01 5.856710576448206917e-02 5.636673496884145873e-01 3.234854934927637315e-01 9.103365229008945902e-02 4.567916167693570340e-01 3.655440260683882614e-01 2.712102388209799431e-01 2.794895958174644646e-01 -7.833271367328943358e-01 3.129553876981144289e-01 2.755571371427977811e-01 3.602110970981884930e-01 -1.496312076728477380e-02 3.047494426603211126e-01 7.778420979533460233e-01 -4.462298764123207584e-01 1.071581845682699541e+00 5.948529153115186263e-01 3.684996073126696192e-01 3.210304093289526595e-01 -1.999473807724840624e+00 2.902824672077302659e-01 1.761958119782882359e-01 2.151069385379373311e-01 5.636673452844673804e-01 3.214491398824957380e-01 2.632833110974538982e-01 1.551710616548645227e-01 3.119824601030470879e-01 4.335696482212376135e-01 4.280550975270396297e-01 4.061196039438656480e-01 3.102029689322316486e-01 3.197896170743079747e-01 3.005007428194616526e-01 2.944733089258178005e-01 -1.214538257448750935e-02 3.178915213931852168e-01 5.613217327434393278e-01 2.461961151272722970e-01 2.704731681172113933e-01 -1.094026320424721782e-01 1.069014560236832972e-01 4.269769371424647630e-01 4.252792959360056635e+00 2.403092934597693686e-01 1.675393615052805929e-01 4.886796307893338520e-01 2.408736392677379712e-01 1.514921279404430443e+00 2.742235526221916131e-01 6.695538164876050358e-01 3.201669293037164299e-01
