# 
#                 ----------------------------------------------------
#                 Data from a 3D direct N-body simulation. 
# 
#                 rows are i-particle; 
#                 coumns are :mass, tag, x ,y, z, vx, vy, vz, ax, ay, az
# 
#                 NTHU, Computational Physics 
# 
#                 ----------------------------------------------------
#                 Time = 0.0
0.000000000000000000e+00 1.000000000000000000e+00 2.000000000000000000e+00 3.000000000000000000e+00 4.000000000000000000e+00 5.000000000000000000e+00 6.000000000000000000e+00 7.000000000000000000e+00 8.000000000000000000e+00 9.000000000000000000e+00 1.000000000000000000e+01 1.100000000000000000e+01 1.200000000000000000e+01 1.300000000000000000e+01 1.400000000000000000e+01 1.500000000000000000e+01 1.600000000000000000e+01 1.700000000000000000e+01 1.800000000000000000e+01 1.900000000000000000e+01 2.000000000000000000e+01 2.100000000000000000e+01 2.200000000000000000e+01 2.300000000000000000e+01 2.400000000000000000e+01 2.500000000000000000e+01 2.600000000000000000e+01 2.700000000000000000e+01 2.800000000000000000e+01 2.900000000000000000e+01 3.000000000000000000e+01 3.100000000000000000e+01 3.200000000000000000e+01 3.300000000000000000e+01 3.400000000000000000e+01 3.500000000000000000e+01 3.600000000000000000e+01 3.700000000000000000e+01 3.800000000000000000e+01 3.900000000000000000e+01 4.000000000000000000e+01 4.100000000000000000e+01 4.200000000000000000e+01 4.300000000000000000e+01 4.400000000000000000e+01 4.500000000000000000e+01 4.600000000000000000e+01 4.700000000000000000e+01 4.800000000000000000e+01 4.900000000000000000e+01 5.000000000000000000e+01 5.100000000000000000e+01 5.200000000000000000e+01 5.300000000000000000e+01 5.400000000000000000e+01 5.500000000000000000e+01 5.600000000000000000e+01 5.700000000000000000e+01 5.800000000000000000e+01 5.900000000000000000e+01 6.000000000000000000e+01 6.100000000000000000e+01 6.200000000000000000e+01 6.300000000000000000e+01 6.400000000000000000e+01 6.500000000000000000e+01 6.600000000000000000e+01 6.700000000000000000e+01 6.800000000000000000e+01 6.900000000000000000e+01 7.000000000000000000e+01 7.100000000000000000e+01 7.200000000000000000e+01 7.300000000000000000e+01 7.400000000000000000e+01 7.500000000000000000e+01 7.600000000000000000e+01 7.700000000000000000e+01 7.800000000000000000e+01 7.900000000000000000e+01 8.000000000000000000e+01 8.100000000000000000e+01 8.200000000000000000e+01 8.300000000000000000e+01 8.400000000000000000e+01 8.500000000000000000e+01 8.600000000000000000e+01 8.700000000000000000e+01 8.800000000000000000e+01 8.900000000000000000e+01 9.000000000000000000e+01 9.100000000000000000e+01 9.200000000000000000e+01 9.300000000000000000e+01 9.400000000000000000e+01 9.500000000000000000e+01 9.600000000000000000e+01 9.700000000000000000e+01 9.800000000000000000e+01 9.900000000000000000e+01 1.000000000000000000e+02 1.010000000000000000e+02 1.020000000000000000e+02 1.030000000000000000e+02 1.040000000000000000e+02 1.050000000000000000e+02 1.060000000000000000e+02 1.070000000000000000e+02 1.080000000000000000e+02 1.090000000000000000e+02 1.100000000000000000e+02 1.110000000000000000e+02 1.120000000000000000e+02 1.130000000000000000e+02 1.140000000000000000e+02 1.150000000000000000e+02 1.160000000000000000e+02 1.170000000000000000e+02 1.180000000000000000e+02 1.190000000000000000e+02 1.200000000000000000e+02 1.210000000000000000e+02 1.220000000000000000e+02 1.230000000000000000e+02 1.240000000000000000e+02 1.250000000000000000e+02 1.260000000000000000e+02 1.270000000000000000e+02 1.280000000000000000e+02 1.290000000000000000e+02 1.300000000000000000e+02 1.310000000000000000e+02 1.320000000000000000e+02 1.330000000000000000e+02 1.340000000000000000e+02 1.350000000000000000e+02 1.360000000000000000e+02 1.370000000000000000e+02 1.380000000000000000e+02 1.390000000000000000e+02 1.400000000000000000e+02 1.410000000000000000e+02 1.420000000000000000e+02 1.430000000000000000e+02 1.440000000000000000e+02 1.450000000000000000e+02 1.460000000000000000e+02 1.470000000000000000e+02 1.480000000000000000e+02 1.490000000000000000e+02 1.500000000000000000e+02 1.510000000000000000e+02 1.520000000000000000e+02 1.530000000000000000e+02 1.540000000000000000e+02 1.550000000000000000e+02 1.560000000000000000e+02 1.570000000000000000e+02 1.580000000000000000e+02 1.590000000000000000e+02 1.600000000000000000e+02 1.610000000000000000e+02 1.620000000000000000e+02 1.630000000000000000e+02 1.640000000000000000e+02 1.650000000000000000e+02 1.660000000000000000e+02 1.670000000000000000e+02 1.680000000000000000e+02 1.690000000000000000e+02 1.700000000000000000e+02 1.710000000000000000e+02 1.720000000000000000e+02 1.730000000000000000e+02 1.740000000000000000e+02 1.750000000000000000e+02 1.760000000000000000e+02 1.770000000000000000e+02 1.780000000000000000e+02 1.790000000000000000e+02 1.800000000000000000e+02 1.810000000000000000e+02 1.820000000000000000e+02 1.830000000000000000e+02 1.840000000000000000e+02 1.850000000000000000e+02 1.860000000000000000e+02 1.870000000000000000e+02 1.880000000000000000e+02 1.890000000000000000e+02 1.900000000000000000e+02 1.910000000000000000e+02 1.920000000000000000e+02 1.930000000000000000e+02 1.940000000000000000e+02 1.950000000000000000e+02 1.960000000000000000e+02 1.970000000000000000e+02 1.980000000000000000e+02 1.990000000000000000e+02 2.000000000000000000e+02 2.010000000000000000e+02 2.020000000000000000e+02 2.030000000000000000e+02 2.040000000000000000e+02 2.050000000000000000e+02 2.060000000000000000e+02 2.070000000000000000e+02 2.080000000000000000e+02 2.090000000000000000e+02 2.100000000000000000e+02 2.110000000000000000e+02 2.120000000000000000e+02 2.130000000000000000e+02 2.140000000000000000e+02 2.150000000000000000e+02 2.160000000000000000e+02 2.170000000000000000e+02 2.180000000000000000e+02 2.190000000000000000e+02 2.200000000000000000e+02 2.210000000000000000e+02 2.220000000000000000e+02 2.230000000000000000e+02 2.240000000000000000e+02 2.250000000000000000e+02 2.260000000000000000e+02 2.270000000000000000e+02 2.280000000000000000e+02 2.290000000000000000e+02 2.300000000000000000e+02 2.310000000000000000e+02 2.320000000000000000e+02 2.330000000000000000e+02 2.340000000000000000e+02 2.350000000000000000e+02 2.360000000000000000e+02 2.370000000000000000e+02 2.380000000000000000e+02 2.390000000000000000e+02 2.400000000000000000e+02 2.410000000000000000e+02 2.420000000000000000e+02 2.430000000000000000e+02 2.440000000000000000e+02 2.450000000000000000e+02 2.460000000000000000e+02 2.470000000000000000e+02 2.480000000000000000e+02 2.490000000000000000e+02 2.500000000000000000e+02 2.510000000000000000e+02 2.520000000000000000e+02 2.530000000000000000e+02 2.540000000000000000e+02 2.550000000000000000e+02 2.560000000000000000e+02 2.570000000000000000e+02 2.580000000000000000e+02 2.590000000000000000e+02 2.600000000000000000e+02 2.610000000000000000e+02 2.620000000000000000e+02 2.630000000000000000e+02 2.640000000000000000e+02 2.650000000000000000e+02 2.660000000000000000e+02 2.670000000000000000e+02 2.680000000000000000e+02 2.690000000000000000e+02 2.700000000000000000e+02 2.710000000000000000e+02 2.720000000000000000e+02 2.730000000000000000e+02 2.740000000000000000e+02 2.750000000000000000e+02 2.760000000000000000e+02 2.770000000000000000e+02 2.780000000000000000e+02 2.790000000000000000e+02 2.800000000000000000e+02 2.810000000000000000e+02 2.820000000000000000e+02 2.830000000000000000e+02 2.840000000000000000e+02 2.850000000000000000e+02 2.860000000000000000e+02 2.870000000000000000e+02 2.880000000000000000e+02 2.890000000000000000e+02 2.900000000000000000e+02 2.910000000000000000e+02 2.920000000000000000e+02 2.930000000000000000e+02 2.940000000000000000e+02 2.950000000000000000e+02 2.960000000000000000e+02 2.970000000000000000e+02 2.980000000000000000e+02 2.990000000000000000e+02 3.000000000000000000e+02 3.010000000000000000e+02 3.020000000000000000e+02 3.030000000000000000e+02 3.040000000000000000e+02 3.050000000000000000e+02 3.060000000000000000e+02 3.070000000000000000e+02 3.080000000000000000e+02 3.090000000000000000e+02 3.100000000000000000e+02 3.110000000000000000e+02 3.120000000000000000e+02 3.130000000000000000e+02 3.140000000000000000e+02 3.150000000000000000e+02 3.160000000000000000e+02 3.170000000000000000e+02 3.180000000000000000e+02 3.190000000000000000e+02 3.200000000000000000e+02 3.210000000000000000e+02 3.220000000000000000e+02 3.230000000000000000e+02 3.240000000000000000e+02 3.250000000000000000e+02 3.260000000000000000e+02 3.270000000000000000e+02 3.280000000000000000e+02 3.290000000000000000e+02 3.300000000000000000e+02 3.310000000000000000e+02 3.320000000000000000e+02 3.330000000000000000e+02 3.340000000000000000e+02 3.350000000000000000e+02 3.360000000000000000e+02 3.370000000000000000e+02 3.380000000000000000e+02 3.390000000000000000e+02 3.400000000000000000e+02 3.410000000000000000e+02 3.420000000000000000e+02 3.430000000000000000e+02 3.440000000000000000e+02 3.450000000000000000e+02 3.460000000000000000e+02 3.470000000000000000e+02 3.480000000000000000e+02 3.490000000000000000e+02 3.500000000000000000e+02 3.510000000000000000e+02 3.520000000000000000e+02 3.530000000000000000e+02 3.540000000000000000e+02 3.550000000000000000e+02 3.560000000000000000e+02 3.570000000000000000e+02 3.580000000000000000e+02 3.590000000000000000e+02 3.600000000000000000e+02 3.610000000000000000e+02 3.620000000000000000e+02 3.630000000000000000e+02 3.640000000000000000e+02 3.650000000000000000e+02 3.660000000000000000e+02 3.670000000000000000e+02 3.680000000000000000e+02 3.690000000000000000e+02 3.700000000000000000e+02 3.710000000000000000e+02 3.720000000000000000e+02 3.730000000000000000e+02 3.740000000000000000e+02 3.750000000000000000e+02 3.760000000000000000e+02 3.770000000000000000e+02 3.780000000000000000e+02 3.790000000000000000e+02 3.800000000000000000e+02 3.810000000000000000e+02 3.820000000000000000e+02 3.830000000000000000e+02 3.840000000000000000e+02 3.850000000000000000e+02 3.860000000000000000e+02 3.870000000000000000e+02 3.880000000000000000e+02 3.890000000000000000e+02 3.900000000000000000e+02 3.910000000000000000e+02 3.920000000000000000e+02 3.930000000000000000e+02 3.940000000000000000e+02 3.950000000000000000e+02 3.960000000000000000e+02 3.970000000000000000e+02 3.980000000000000000e+02 3.990000000000000000e+02 4.000000000000000000e+02 4.010000000000000000e+02 4.020000000000000000e+02 4.030000000000000000e+02 4.040000000000000000e+02 4.050000000000000000e+02 4.060000000000000000e+02 4.070000000000000000e+02 4.080000000000000000e+02 4.090000000000000000e+02 4.100000000000000000e+02 4.110000000000000000e+02 4.120000000000000000e+02 4.130000000000000000e+02 4.140000000000000000e+02 4.150000000000000000e+02 4.160000000000000000e+02 4.170000000000000000e+02 4.180000000000000000e+02 4.190000000000000000e+02 4.200000000000000000e+02 4.210000000000000000e+02 4.220000000000000000e+02 4.230000000000000000e+02 4.240000000000000000e+02 4.250000000000000000e+02 4.260000000000000000e+02 4.270000000000000000e+02 4.280000000000000000e+02 4.290000000000000000e+02 4.300000000000000000e+02 4.310000000000000000e+02 4.320000000000000000e+02 4.330000000000000000e+02 4.340000000000000000e+02 4.350000000000000000e+02 4.360000000000000000e+02 4.370000000000000000e+02 4.380000000000000000e+02 4.390000000000000000e+02 4.400000000000000000e+02 4.410000000000000000e+02 4.420000000000000000e+02 4.430000000000000000e+02 4.440000000000000000e+02 4.450000000000000000e+02 4.460000000000000000e+02 4.470000000000000000e+02 4.480000000000000000e+02 4.490000000000000000e+02 4.500000000000000000e+02 4.510000000000000000e+02 4.520000000000000000e+02 4.530000000000000000e+02 4.540000000000000000e+02 4.550000000000000000e+02 4.560000000000000000e+02 4.570000000000000000e+02 4.580000000000000000e+02 4.590000000000000000e+02 4.600000000000000000e+02 4.610000000000000000e+02 4.620000000000000000e+02 4.630000000000000000e+02 4.640000000000000000e+02 4.650000000000000000e+02 4.660000000000000000e+02 4.670000000000000000e+02 4.680000000000000000e+02 4.690000000000000000e+02 4.700000000000000000e+02 4.710000000000000000e+02 4.720000000000000000e+02 4.730000000000000000e+02 4.740000000000000000e+02 4.750000000000000000e+02 4.760000000000000000e+02 4.770000000000000000e+02 4.780000000000000000e+02 4.790000000000000000e+02 4.800000000000000000e+02 4.810000000000000000e+02 4.820000000000000000e+02 4.830000000000000000e+02 4.840000000000000000e+02 4.850000000000000000e+02 4.860000000000000000e+02 4.870000000000000000e+02 4.880000000000000000e+02 4.890000000000000000e+02 4.900000000000000000e+02 4.910000000000000000e+02 4.920000000000000000e+02 4.930000000000000000e+02 4.940000000000000000e+02 4.950000000000000000e+02 4.960000000000000000e+02 4.970000000000000000e+02 4.980000000000000000e+02 4.990000000000000000e+02 5.000000000000000000e+02 5.010000000000000000e+02 5.020000000000000000e+02 5.030000000000000000e+02 5.040000000000000000e+02 5.050000000000000000e+02 5.060000000000000000e+02 5.070000000000000000e+02 5.080000000000000000e+02 5.090000000000000000e+02 5.100000000000000000e+02 5.110000000000000000e+02 5.120000000000000000e+02 5.130000000000000000e+02 5.140000000000000000e+02 5.150000000000000000e+02 5.160000000000000000e+02 5.170000000000000000e+02 5.180000000000000000e+02 5.190000000000000000e+02 5.200000000000000000e+02 5.210000000000000000e+02 5.220000000000000000e+02 5.230000000000000000e+02 5.240000000000000000e+02 5.250000000000000000e+02 5.260000000000000000e+02 5.270000000000000000e+02 5.280000000000000000e+02 5.290000000000000000e+02 5.300000000000000000e+02 5.310000000000000000e+02 5.320000000000000000e+02 5.330000000000000000e+02 5.340000000000000000e+02 5.350000000000000000e+02 5.360000000000000000e+02 5.370000000000000000e+02 5.380000000000000000e+02 5.390000000000000000e+02 5.400000000000000000e+02 5.410000000000000000e+02 5.420000000000000000e+02 5.430000000000000000e+02 5.440000000000000000e+02 5.450000000000000000e+02 5.460000000000000000e+02 5.470000000000000000e+02 5.480000000000000000e+02 5.490000000000000000e+02 5.500000000000000000e+02 5.510000000000000000e+02 5.520000000000000000e+02 5.530000000000000000e+02 5.540000000000000000e+02 5.550000000000000000e+02 5.560000000000000000e+02 5.570000000000000000e+02 5.580000000000000000e+02 5.590000000000000000e+02 5.600000000000000000e+02 5.610000000000000000e+02 5.620000000000000000e+02 5.630000000000000000e+02 5.640000000000000000e+02 5.650000000000000000e+02 5.660000000000000000e+02 5.670000000000000000e+02 5.680000000000000000e+02 5.690000000000000000e+02 5.700000000000000000e+02 5.710000000000000000e+02 5.720000000000000000e+02 5.730000000000000000e+02 5.740000000000000000e+02 5.750000000000000000e+02 5.760000000000000000e+02 5.770000000000000000e+02 5.780000000000000000e+02 5.790000000000000000e+02 5.800000000000000000e+02 5.810000000000000000e+02 5.820000000000000000e+02 5.830000000000000000e+02 5.840000000000000000e+02 5.850000000000000000e+02 5.860000000000000000e+02 5.870000000000000000e+02 5.880000000000000000e+02 5.890000000000000000e+02 5.900000000000000000e+02 5.910000000000000000e+02 5.920000000000000000e+02 5.930000000000000000e+02 5.940000000000000000e+02 5.950000000000000000e+02 5.960000000000000000e+02 5.970000000000000000e+02 5.980000000000000000e+02 5.990000000000000000e+02 6.000000000000000000e+02 6.010000000000000000e+02 6.020000000000000000e+02 6.030000000000000000e+02 6.040000000000000000e+02 6.050000000000000000e+02 6.060000000000000000e+02 6.070000000000000000e+02 6.080000000000000000e+02 6.090000000000000000e+02 6.100000000000000000e+02 6.110000000000000000e+02 6.120000000000000000e+02 6.130000000000000000e+02 6.140000000000000000e+02 6.150000000000000000e+02 6.160000000000000000e+02 6.170000000000000000e+02 6.180000000000000000e+02 6.190000000000000000e+02 6.200000000000000000e+02 6.210000000000000000e+02 6.220000000000000000e+02 6.230000000000000000e+02 6.240000000000000000e+02 6.250000000000000000e+02 6.260000000000000000e+02 6.270000000000000000e+02 6.280000000000000000e+02 6.290000000000000000e+02 6.300000000000000000e+02 6.310000000000000000e+02 6.320000000000000000e+02 6.330000000000000000e+02 6.340000000000000000e+02 6.350000000000000000e+02 6.360000000000000000e+02 6.370000000000000000e+02 6.380000000000000000e+02 6.390000000000000000e+02 6.400000000000000000e+02 6.410000000000000000e+02 6.420000000000000000e+02 6.430000000000000000e+02 6.440000000000000000e+02 6.450000000000000000e+02 6.460000000000000000e+02 6.470000000000000000e+02 6.480000000000000000e+02 6.490000000000000000e+02 6.500000000000000000e+02 6.510000000000000000e+02 6.520000000000000000e+02 6.530000000000000000e+02 6.540000000000000000e+02 6.550000000000000000e+02 6.560000000000000000e+02 6.570000000000000000e+02 6.580000000000000000e+02 6.590000000000000000e+02 6.600000000000000000e+02 6.610000000000000000e+02 6.620000000000000000e+02 6.630000000000000000e+02 6.640000000000000000e+02 6.650000000000000000e+02 6.660000000000000000e+02 6.670000000000000000e+02 6.680000000000000000e+02 6.690000000000000000e+02 6.700000000000000000e+02 6.710000000000000000e+02 6.720000000000000000e+02 6.730000000000000000e+02 6.740000000000000000e+02 6.750000000000000000e+02 6.760000000000000000e+02 6.770000000000000000e+02 6.780000000000000000e+02 6.790000000000000000e+02 6.800000000000000000e+02 6.810000000000000000e+02 6.820000000000000000e+02 6.830000000000000000e+02 6.840000000000000000e+02 6.850000000000000000e+02 6.860000000000000000e+02 6.870000000000000000e+02 6.880000000000000000e+02 6.890000000000000000e+02 6.900000000000000000e+02 6.910000000000000000e+02 6.920000000000000000e+02 6.930000000000000000e+02 6.940000000000000000e+02 6.950000000000000000e+02 6.960000000000000000e+02 6.970000000000000000e+02 6.980000000000000000e+02 6.990000000000000000e+02 7.000000000000000000e+02 7.010000000000000000e+02 7.020000000000000000e+02 7.030000000000000000e+02 7.040000000000000000e+02 7.050000000000000000e+02 7.060000000000000000e+02 7.070000000000000000e+02 7.080000000000000000e+02 7.090000000000000000e+02 7.100000000000000000e+02 7.110000000000000000e+02 7.120000000000000000e+02 7.130000000000000000e+02 7.140000000000000000e+02 7.150000000000000000e+02 7.160000000000000000e+02 7.170000000000000000e+02 7.180000000000000000e+02 7.190000000000000000e+02 7.200000000000000000e+02 7.210000000000000000e+02 7.220000000000000000e+02 7.230000000000000000e+02 7.240000000000000000e+02 7.250000000000000000e+02 7.260000000000000000e+02 7.270000000000000000e+02 7.280000000000000000e+02 7.290000000000000000e+02 7.300000000000000000e+02 7.310000000000000000e+02 7.320000000000000000e+02 7.330000000000000000e+02 7.340000000000000000e+02 7.350000000000000000e+02 7.360000000000000000e+02 7.370000000000000000e+02 7.380000000000000000e+02 7.390000000000000000e+02 7.400000000000000000e+02 7.410000000000000000e+02 7.420000000000000000e+02 7.430000000000000000e+02 7.440000000000000000e+02 7.450000000000000000e+02 7.460000000000000000e+02 7.470000000000000000e+02 7.480000000000000000e+02 7.490000000000000000e+02 7.500000000000000000e+02 7.510000000000000000e+02 7.520000000000000000e+02 7.530000000000000000e+02 7.540000000000000000e+02 7.550000000000000000e+02 7.560000000000000000e+02 7.570000000000000000e+02 7.580000000000000000e+02 7.590000000000000000e+02 7.600000000000000000e+02 7.610000000000000000e+02 7.620000000000000000e+02 7.630000000000000000e+02 7.640000000000000000e+02 7.650000000000000000e+02 7.660000000000000000e+02 7.670000000000000000e+02 7.680000000000000000e+02 7.690000000000000000e+02 7.700000000000000000e+02 7.710000000000000000e+02 7.720000000000000000e+02 7.730000000000000000e+02 7.740000000000000000e+02 7.750000000000000000e+02 7.760000000000000000e+02 7.770000000000000000e+02 7.780000000000000000e+02 7.790000000000000000e+02 7.800000000000000000e+02 7.810000000000000000e+02 7.820000000000000000e+02 7.830000000000000000e+02 7.840000000000000000e+02 7.850000000000000000e+02 7.860000000000000000e+02 7.870000000000000000e+02 7.880000000000000000e+02 7.890000000000000000e+02 7.900000000000000000e+02 7.910000000000000000e+02 7.920000000000000000e+02 7.930000000000000000e+02 7.940000000000000000e+02 7.950000000000000000e+02 7.960000000000000000e+02 7.970000000000000000e+02 7.980000000000000000e+02 7.990000000000000000e+02 8.000000000000000000e+02 8.010000000000000000e+02 8.020000000000000000e+02 8.030000000000000000e+02 8.040000000000000000e+02 8.050000000000000000e+02 8.060000000000000000e+02 8.070000000000000000e+02 8.080000000000000000e+02 8.090000000000000000e+02 8.100000000000000000e+02 8.110000000000000000e+02 8.120000000000000000e+02 8.130000000000000000e+02 8.140000000000000000e+02 8.150000000000000000e+02 8.160000000000000000e+02 8.170000000000000000e+02 8.180000000000000000e+02 8.190000000000000000e+02 8.200000000000000000e+02 8.210000000000000000e+02 8.220000000000000000e+02 8.230000000000000000e+02 8.240000000000000000e+02 8.250000000000000000e+02 8.260000000000000000e+02 8.270000000000000000e+02 8.280000000000000000e+02 8.290000000000000000e+02 8.300000000000000000e+02 8.310000000000000000e+02 8.320000000000000000e+02 8.330000000000000000e+02 8.340000000000000000e+02 8.350000000000000000e+02 8.360000000000000000e+02 8.370000000000000000e+02 8.380000000000000000e+02 8.390000000000000000e+02 8.400000000000000000e+02 8.410000000000000000e+02 8.420000000000000000e+02 8.430000000000000000e+02 8.440000000000000000e+02 8.450000000000000000e+02 8.460000000000000000e+02 8.470000000000000000e+02 8.480000000000000000e+02 8.490000000000000000e+02 8.500000000000000000e+02 8.510000000000000000e+02 8.520000000000000000e+02 8.530000000000000000e+02 8.540000000000000000e+02 8.550000000000000000e+02 8.560000000000000000e+02 8.570000000000000000e+02 8.580000000000000000e+02 8.590000000000000000e+02 8.600000000000000000e+02 8.610000000000000000e+02 8.620000000000000000e+02 8.630000000000000000e+02 8.640000000000000000e+02 8.650000000000000000e+02 8.660000000000000000e+02 8.670000000000000000e+02 8.680000000000000000e+02 8.690000000000000000e+02 8.700000000000000000e+02 8.710000000000000000e+02 8.720000000000000000e+02 8.730000000000000000e+02 8.740000000000000000e+02 8.750000000000000000e+02 8.760000000000000000e+02 8.770000000000000000e+02 8.780000000000000000e+02 8.790000000000000000e+02 8.800000000000000000e+02 8.810000000000000000e+02 8.820000000000000000e+02 8.830000000000000000e+02 8.840000000000000000e+02 8.850000000000000000e+02 8.860000000000000000e+02 8.870000000000000000e+02 8.880000000000000000e+02 8.890000000000000000e+02 8.900000000000000000e+02 8.910000000000000000e+02 8.920000000000000000e+02 8.930000000000000000e+02 8.940000000000000000e+02 8.950000000000000000e+02 8.960000000000000000e+02 8.970000000000000000e+02 8.980000000000000000e+02 8.990000000000000000e+02 9.000000000000000000e+02 9.010000000000000000e+02 9.020000000000000000e+02 9.030000000000000000e+02 9.040000000000000000e+02 9.050000000000000000e+02 9.060000000000000000e+02 9.070000000000000000e+02 9.080000000000000000e+02 9.090000000000000000e+02 9.100000000000000000e+02 9.110000000000000000e+02 9.120000000000000000e+02 9.130000000000000000e+02 9.140000000000000000e+02 9.150000000000000000e+02 9.160000000000000000e+02 9.170000000000000000e+02 9.180000000000000000e+02 9.190000000000000000e+02 9.200000000000000000e+02 9.210000000000000000e+02 9.220000000000000000e+02 9.230000000000000000e+02 9.240000000000000000e+02 9.250000000000000000e+02 9.260000000000000000e+02 9.270000000000000000e+02 9.280000000000000000e+02 9.290000000000000000e+02 9.300000000000000000e+02 9.310000000000000000e+02 9.320000000000000000e+02 9.330000000000000000e+02 9.340000000000000000e+02 9.350000000000000000e+02 9.360000000000000000e+02 9.370000000000000000e+02 9.380000000000000000e+02 9.390000000000000000e+02 9.400000000000000000e+02 9.410000000000000000e+02 9.420000000000000000e+02 9.430000000000000000e+02 9.440000000000000000e+02 9.450000000000000000e+02 9.460000000000000000e+02 9.470000000000000000e+02 9.480000000000000000e+02 9.490000000000000000e+02 9.500000000000000000e+02 9.510000000000000000e+02 9.520000000000000000e+02 9.530000000000000000e+02 9.540000000000000000e+02 9.550000000000000000e+02 9.560000000000000000e+02 9.570000000000000000e+02 9.580000000000000000e+02 9.590000000000000000e+02 9.600000000000000000e+02 9.610000000000000000e+02 9.620000000000000000e+02 9.630000000000000000e+02 9.640000000000000000e+02 9.650000000000000000e+02 9.660000000000000000e+02 9.670000000000000000e+02 9.680000000000000000e+02 9.690000000000000000e+02 9.700000000000000000e+02 9.710000000000000000e+02 9.720000000000000000e+02 9.730000000000000000e+02 9.740000000000000000e+02 9.750000000000000000e+02 9.760000000000000000e+02 9.770000000000000000e+02 9.780000000000000000e+02 9.790000000000000000e+02 9.800000000000000000e+02 9.810000000000000000e+02 9.820000000000000000e+02 9.830000000000000000e+02 9.840000000000000000e+02 9.850000000000000000e+02 9.860000000000000000e+02 9.870000000000000000e+02 9.880000000000000000e+02 9.890000000000000000e+02 9.900000000000000000e+02 9.910000000000000000e+02 9.920000000000000000e+02 9.930000000000000000e+02 9.940000000000000000e+02 9.950000000000000000e+02 9.960000000000000000e+02 9.970000000000000000e+02 9.980000000000000000e+02 9.990000000000000000e+02
1.000000000000000000e+00 1.000000000000000000e+00 1.000000000000000000e+00 1.000000000000000000e+00 1.000000000000000000e+00 1.000000000000000000e+00 1.000000000000000000e+00 1.000000000000000000e+00 1.000000000000000000e+00 1.000000000000000000e+00 1.000000000000000000e+00 1.000000000000000000e+00 1.000000000000000000e+00 1.000000000000000000e+00 1.000000000000000000e+00 1.000000000000000000e+00 1.000000000000000000e+00 1.000000000000000000e+00 1.000000000000000000e+00 1.000000000000000000e+00 1.000000000000000000e+00 1.000000000000000000e+00 1.000000000000000000e+00 1.000000000000000000e+00 1.000000000000000000e+00 1.000000000000000000e+00 1.000000000000000000e+00 1.000000000000000000e+00 1.000000000000000000e+00 1.000000000000000000e+00 1.000000000000000000e+00 1.000000000000000000e+00 1.000000000000000000e+00 1.000000000000000000e+00 1.000000000000000000e+00 1.000000000000000000e+00 1.000000000000000000e+00 1.000000000000000000e+00 1.000000000000000000e+00 1.000000000000000000e+00 1.000000000000000000e+00 1.000000000000000000e+00 1.000000000000000000e+00 1.000000000000000000e+00 1.000000000000000000e+00 1.000000000000000000e+00 1.000000000000000000e+00 1.000000000000000000e+00 1.000000000000000000e+00 1.000000000000000000e+00 1.000000000000000000e+00 1.000000000000000000e+00 1.000000000000000000e+00 1.000000000000000000e+00 1.000000000000000000e+00 1.000000000000000000e+00 1.000000000000000000e+00 1.000000000000000000e+00 1.000000000000000000e+00 1.000000000000000000e+00 1.000000000000000000e+00 1.000000000000000000e+00 1.000000000000000000e+00 1.000000000000000000e+00 1.000000000000000000e+00 1.000000000000000000e+00 1.000000000000000000e+00 1.000000000000000000e+00 1.000000000000000000e+00 1.000000000000000000e+00 1.000000000000000000e+00 1.000000000000000000e+00 1.000000000000000000e+00 1.000000000000000000e+00 1.000000000000000000e+00 1.000000000000000000e+00 1.000000000000000000e+00 1.000000000000000000e+00 1.000000000000000000e+00 1.000000000000000000e+00 1.000000000000000000e+00 1.000000000000000000e+00 1.000000000000000000e+00 1.000000000000000000e+00 1.000000000000000000e+00 1.000000000000000000e+00 1.000000000000000000e+00 1.000000000000000000e+00 1.000000000000000000e+00 1.000000000000000000e+00 1.000000000000000000e+00 1.000000000000000000e+00 1.000000000000000000e+00 1.000000000000000000e+00 1.000000000000000000e+00 1.000000000000000000e+00 1.000000000000000000e+00 1.000000000000000000e+00 1.000000000000000000e+00 1.000000000000000000e+00 1.000000000000000000e+00 1.000000000000000000e+00 1.000000000000000000e+00 1.000000000000000000e+00 1.000000000000000000e+00 1.000000000000000000e+00 1.000000000000000000e+00 1.000000000000000000e+00 1.000000000000000000e+00 1.000000000000000000e+00 1.000000000000000000e+00 1.000000000000000000e+00 1.000000000000000000e+00 1.000000000000000000e+00 1.000000000000000000e+00 1.000000000000000000e+00 1.000000000000000000e+00 1.000000000000000000e+00 1.000000000000000000e+00 1.000000000000000000e+00 1.000000000000000000e+00 1.000000000000000000e+00 1.000000000000000000e+00 1.000000000000000000e+00 1.000000000000000000e+00 1.000000000000000000e+00 1.000000000000000000e+00 1.000000000000000000e+00 1.000000000000000000e+00 1.000000000000000000e+00 1.000000000000000000e+00 1.000000000000000000e+00 1.000000000000000000e+00 1.000000000000000000e+00 1.000000000000000000e+00 1.000000000000000000e+00 1.000000000000000000e+00 1.000000000000000000e+00 1.000000000000000000e+00 1.000000000000000000e+00 1.000000000000000000e+00 1.000000000000000000e+00 1.000000000000000000e+00 1.000000000000000000e+00 1.000000000000000000e+00 1.000000000000000000e+00 1.000000000000000000e+00 1.000000000000000000e+00 1.000000000000000000e+00 1.000000000000000000e+00 1.000000000000000000e+00 1.000000000000000000e+00 1.000000000000000000e+00 1.000000000000000000e+00 1.000000000000000000e+00 1.000000000000000000e+00 1.000000000000000000e+00 1.000000000000000000e+00 1.000000000000000000e+00 1.000000000000000000e+00 1.000000000000000000e+00 1.000000000000000000e+00 1.000000000000000000e+00 1.000000000000000000e+00 1.000000000000000000e+00 1.000000000000000000e+00 1.000000000000000000e+00 1.000000000000000000e+00 1.000000000000000000e+00 1.000000000000000000e+00 1.000000000000000000e+00 1.000000000000000000e+00 1.000000000000000000e+00 1.000000000000000000e+00 1.000000000000000000e+00 1.000000000000000000e+00 1.000000000000000000e+00 1.000000000000000000e+00 1.000000000000000000e+00 1.000000000000000000e+00 1.000000000000000000e+00 1.000000000000000000e+00 1.000000000000000000e+00 1.000000000000000000e+00 1.000000000000000000e+00 1.000000000000000000e+00 1.000000000000000000e+00 1.000000000000000000e+00 1.000000000000000000e+00 1.000000000000000000e+00 1.000000000000000000e+00 1.000000000000000000e+00 1.000000000000000000e+00 1.000000000000000000e+00 1.000000000000000000e+00 1.000000000000000000e+00 1.000000000000000000e+00 1.000000000000000000e+00 1.000000000000000000e+00 1.000000000000000000e+00 1.000000000000000000e+00 1.000000000000000000e+00 1.000000000000000000e+00 1.000000000000000000e+00 1.000000000000000000e+00 1.000000000000000000e+00 1.000000000000000000e+00 1.000000000000000000e+00 1.000000000000000000e+00 1.000000000000000000e+00 1.000000000000000000e+00 1.000000000000000000e+00 1.000000000000000000e+00 1.000000000000000000e+00 1.000000000000000000e+00 1.000000000000000000e+00 1.000000000000000000e+00 1.000000000000000000e+00 1.000000000000000000e+00 1.000000000000000000e+00 1.000000000000000000e+00 1.000000000000000000e+00 1.000000000000000000e+00 1.000000000000000000e+00 1.000000000000000000e+00 1.000000000000000000e+00 1.000000000000000000e+00 1.000000000000000000e+00 1.000000000000000000e+00 1.000000000000000000e+00 1.000000000000000000e+00 1.000000000000000000e+00 1.000000000000000000e+00 1.000000000000000000e+00 1.000000000000000000e+00 1.000000000000000000e+00 1.000000000000000000e+00 1.000000000000000000e+00 1.000000000000000000e+00 1.000000000000000000e+00 1.000000000000000000e+00 1.000000000000000000e+00 1.000000000000000000e+00 1.000000000000000000e+00 1.000000000000000000e+00 1.000000000000000000e+00 1.000000000000000000e+00 1.000000000000000000e+00 1.000000000000000000e+00 1.000000000000000000e+00 1.000000000000000000e+00 1.000000000000000000e+00 1.000000000000000000e+00 1.000000000000000000e+00 1.000000000000000000e+00 1.000000000000000000e+00 1.000000000000000000e+00 1.000000000000000000e+00 1.000000000000000000e+00 1.000000000000000000e+00 1.000000000000000000e+00 1.000000000000000000e+00 1.000000000000000000e+00 1.000000000000000000e+00 1.000000000000000000e+00 1.000000000000000000e+00 1.000000000000000000e+00 1.000000000000000000e+00 1.000000000000000000e+00 1.000000000000000000e+00 1.000000000000000000e+00 1.000000000000000000e+00 1.000000000000000000e+00 1.000000000000000000e+00 1.000000000000000000e+00 1.000000000000000000e+00 1.000000000000000000e+00 1.000000000000000000e+00 1.000000000000000000e+00 1.000000000000000000e+00 1.000000000000000000e+00 1.000000000000000000e+00 1.000000000000000000e+00 1.000000000000000000e+00 1.000000000000000000e+00 1.000000000000000000e+00 1.000000000000000000e+00 1.000000000000000000e+00 1.000000000000000000e+00 1.000000000000000000e+00 1.000000000000000000e+00 1.000000000000000000e+00 1.000000000000000000e+00 1.000000000000000000e+00 1.000000000000000000e+00 1.000000000000000000e+00 1.000000000000000000e+00 1.000000000000000000e+00 1.000000000000000000e+00 1.000000000000000000e+00 1.000000000000000000e+00 1.000000000000000000e+00 1.000000000000000000e+00 1.000000000000000000e+00 1.000000000000000000e+00 1.000000000000000000e+00 1.000000000000000000e+00 1.000000000000000000e+00 1.000000000000000000e+00 1.000000000000000000e+00 1.000000000000000000e+00 1.000000000000000000e+00 1.000000000000000000e+00 1.000000000000000000e+00 1.000000000000000000e+00 1.000000000000000000e+00 1.000000000000000000e+00 1.000000000000000000e+00 1.000000000000000000e+00 1.000000000000000000e+00 1.000000000000000000e+00 1.000000000000000000e+00 1.000000000000000000e+00 1.000000000000000000e+00 1.000000000000000000e+00 1.000000000000000000e+00 1.000000000000000000e+00 1.000000000000000000e+00 1.000000000000000000e+00 1.000000000000000000e+00 1.000000000000000000e+00 1.000000000000000000e+00 1.000000000000000000e+00 1.000000000000000000e+00 1.000000000000000000e+00 1.000000000000000000e+00 1.000000000000000000e+00 1.000000000000000000e+00 1.000000000000000000e+00 1.000000000000000000e+00 1.000000000000000000e+00 1.000000000000000000e+00 1.000000000000000000e+00 1.000000000000000000e+00 1.000000000000000000e+00 1.000000000000000000e+00 1.000000000000000000e+00 1.000000000000000000e+00 1.000000000000000000e+00 1.000000000000000000e+00 1.000000000000000000e+00 1.000000000000000000e+00 1.000000000000000000e+00 1.000000000000000000e+00 1.000000000000000000e+00 1.000000000000000000e+00 1.000000000000000000e+00 1.000000000000000000e+00 1.000000000000000000e+00 1.000000000000000000e+00 1.000000000000000000e+00 1.000000000000000000e+00 1.000000000000000000e+00 1.000000000000000000e+00 1.000000000000000000e+00 1.000000000000000000e+00 1.000000000000000000e+00 1.000000000000000000e+00 1.000000000000000000e+00 1.000000000000000000e+00 1.000000000000000000e+00 1.000000000000000000e+00 1.000000000000000000e+00 1.000000000000000000e+00 1.000000000000000000e+00 1.000000000000000000e+00 1.000000000000000000e+00 1.000000000000000000e+00 1.000000000000000000e+00 1.000000000000000000e+00 1.000000000000000000e+00 1.000000000000000000e+00 1.000000000000000000e+00 1.000000000000000000e+00 1.000000000000000000e+00 1.000000000000000000e+00 1.000000000000000000e+00 1.000000000000000000e+00 1.000000000000000000e+00 1.000000000000000000e+00 1.000000000000000000e+00 1.000000000000000000e+00 1.000000000000000000e+00 1.000000000000000000e+00 1.000000000000000000e+00 1.000000000000000000e+00 1.000000000000000000e+00 1.000000000000000000e+00 1.000000000000000000e+00 1.000000000000000000e+00 1.000000000000000000e+00 1.000000000000000000e+00 1.000000000000000000e+00 1.000000000000000000e+00 1.000000000000000000e+00 1.000000000000000000e+00 1.000000000000000000e+00 1.000000000000000000e+00 1.000000000000000000e+00 1.000000000000000000e+00 1.000000000000000000e+00 1.000000000000000000e+00 1.000000000000000000e+00 1.000000000000000000e+00 1.000000000000000000e+00 1.000000000000000000e+00 1.000000000000000000e+00 1.000000000000000000e+00 1.000000000000000000e+00 1.000000000000000000e+00 1.000000000000000000e+00 1.000000000000000000e+00 1.000000000000000000e+00 1.000000000000000000e+00 1.000000000000000000e+00 1.000000000000000000e+00 1.000000000000000000e+00 1.000000000000000000e+00 1.000000000000000000e+00 1.000000000000000000e+00 1.000000000000000000e+00 1.000000000000000000e+00 1.000000000000000000e+00 1.000000000000000000e+00 1.000000000000000000e+00 1.000000000000000000e+00 1.000000000000000000e+00 1.000000000000000000e+00 1.000000000000000000e+00 1.000000000000000000e+00 1.000000000000000000e+00 1.000000000000000000e+00 1.000000000000000000e+00 1.000000000000000000e+00 1.000000000000000000e+00 1.000000000000000000e+00 1.000000000000000000e+00 1.000000000000000000e+00 1.000000000000000000e+00 1.000000000000000000e+00 1.000000000000000000e+00 1.000000000000000000e+00 1.000000000000000000e+00 1.000000000000000000e+00 1.000000000000000000e+00 1.000000000000000000e+00 1.000000000000000000e+00 1.000000000000000000e+00 1.000000000000000000e+00 1.000000000000000000e+00 1.000000000000000000e+00 1.000000000000000000e+00 1.000000000000000000e+00 1.000000000000000000e+00 1.000000000000000000e+00 1.000000000000000000e+00 1.000000000000000000e+00 1.000000000000000000e+00 1.000000000000000000e+00 1.000000000000000000e+00 1.000000000000000000e+00 1.000000000000000000e+00 1.000000000000000000e+00 1.000000000000000000e+00 1.000000000000000000e+00 1.000000000000000000e+00 1.000000000000000000e+00 1.000000000000000000e+00 1.000000000000000000e+00 1.000000000000000000e+00 1.000000000000000000e+00 1.000000000000000000e+00 1.000000000000000000e+00 1.000000000000000000e+00 1.000000000000000000e+00 1.000000000000000000e+00 1.000000000000000000e+00 1.000000000000000000e+00 1.000000000000000000e+00 1.000000000000000000e+00 1.000000000000000000e+00 1.000000000000000000e+00 1.000000000000000000e+00 1.000000000000000000e+00 1.000000000000000000e+00 1.000000000000000000e+00 1.000000000000000000e+00 1.000000000000000000e+00 1.000000000000000000e+00 1.000000000000000000e+00 1.000000000000000000e+00 1.000000000000000000e+00 1.000000000000000000e+00 1.000000000000000000e+00 1.000000000000000000e+00 1.000000000000000000e+00 1.000000000000000000e+00 1.000000000000000000e+00 1.000000000000000000e+00 1.000000000000000000e+00 1.000000000000000000e+00 1.000000000000000000e+00 1.000000000000000000e+00 1.000000000000000000e+00 1.000000000000000000e+00 1.000000000000000000e+00 1.000000000000000000e+00 1.000000000000000000e+00 1.000000000000000000e+00 1.000000000000000000e+00 1.000000000000000000e+00 1.000000000000000000e+00 1.000000000000000000e+00 1.000000000000000000e+00 1.000000000000000000e+00 1.000000000000000000e+00 1.000000000000000000e+00 1.000000000000000000e+00 1.000000000000000000e+00 1.000000000000000000e+00 1.000000000000000000e+00 1.000000000000000000e+00 1.000000000000000000e+00 1.000000000000000000e+00 1.000000000000000000e+00 1.000000000000000000e+00 1.000000000000000000e+00 1.000000000000000000e+00 1.000000000000000000e+00 1.000000000000000000e+00 1.000000000000000000e+00 1.000000000000000000e+00 1.000000000000000000e+00 1.000000000000000000e+00 1.000000000000000000e+00 1.000000000000000000e+00 1.000000000000000000e+00 1.000000000000000000e+00 1.000000000000000000e+00 1.000000000000000000e+00 1.000000000000000000e+00 1.000000000000000000e+00 1.000000000000000000e+00 1.000000000000000000e+00 1.000000000000000000e+00 1.000000000000000000e+00 1.000000000000000000e+00 1.000000000000000000e+00 1.000000000000000000e+00 1.000000000000000000e+00 1.000000000000000000e+00 1.000000000000000000e+00 1.000000000000000000e+00 1.000000000000000000e+00 1.000000000000000000e+00 1.000000000000000000e+00 1.000000000000000000e+00 1.000000000000000000e+00 1.000000000000000000e+00 1.000000000000000000e+00 1.000000000000000000e+00 1.000000000000000000e+00 1.000000000000000000e+00 1.000000000000000000e+00 1.000000000000000000e+00 1.000000000000000000e+00 1.000000000000000000e+00 1.000000000000000000e+00 1.000000000000000000e+00 1.000000000000000000e+00 1.000000000000000000e+00 1.000000000000000000e+00 1.000000000000000000e+00 1.000000000000000000e+00 1.000000000000000000e+00 1.000000000000000000e+00 1.000000000000000000e+00 1.000000000000000000e+00 1.000000000000000000e+00 1.000000000000000000e+00 1.000000000000000000e+00 1.000000000000000000e+00 1.000000000000000000e+00 1.000000000000000000e+00 1.000000000000000000e+00 1.000000000000000000e+00 1.000000000000000000e+00 1.000000000000000000e+00 1.000000000000000000e+00 1.000000000000000000e+00 1.000000000000000000e+00 1.000000000000000000e+00 1.000000000000000000e+00 1.000000000000000000e+00 1.000000000000000000e+00 1.000000000000000000e+00 1.000000000000000000e+00 1.000000000000000000e+00 1.000000000000000000e+00 1.000000000000000000e+00 1.000000000000000000e+00 1.000000000000000000e+00 1.000000000000000000e+00 1.000000000000000000e+00 1.000000000000000000e+00 1.000000000000000000e+00 1.000000000000000000e+00 1.000000000000000000e+00 1.000000000000000000e+00 1.000000000000000000e+00 1.000000000000000000e+00 1.000000000000000000e+00 1.000000000000000000e+00 1.000000000000000000e+00 1.000000000000000000e+00 1.000000000000000000e+00 1.000000000000000000e+00 1.000000000000000000e+00 1.000000000000000000e+00 1.000000000000000000e+00 1.000000000000000000e+00 1.000000000000000000e+00 1.000000000000000000e+00 1.000000000000000000e+00 1.000000000000000000e+00 1.000000000000000000e+00 1.000000000000000000e+00 1.000000000000000000e+00 1.000000000000000000e+00 1.000000000000000000e+00 1.000000000000000000e+00 1.000000000000000000e+00 1.000000000000000000e+00 1.000000000000000000e+00 1.000000000000000000e+00 1.000000000000000000e+00 1.000000000000000000e+00 1.000000000000000000e+00 1.000000000000000000e+00 1.000000000000000000e+00 1.000000000000000000e+00 1.000000000000000000e+00 1.000000000000000000e+00 1.000000000000000000e+00 1.000000000000000000e+00 1.000000000000000000e+00 1.000000000000000000e+00 1.000000000000000000e+00 1.000000000000000000e+00 1.000000000000000000e+00 1.000000000000000000e+00 1.000000000000000000e+00 1.000000000000000000e+00 1.000000000000000000e+00 1.000000000000000000e+00 1.000000000000000000e+00 1.000000000000000000e+00 1.000000000000000000e+00 1.000000000000000000e+00 1.000000000000000000e+00 1.000000000000000000e+00 1.000000000000000000e+00 1.000000000000000000e+00 1.000000000000000000e+00 1.000000000000000000e+00 1.000000000000000000e+00 1.000000000000000000e+00 1.000000000000000000e+00 1.000000000000000000e+00 1.000000000000000000e+00 1.000000000000000000e+00 1.000000000000000000e+00 1.000000000000000000e+00 1.000000000000000000e+00 1.000000000000000000e+00 1.000000000000000000e+00 1.000000000000000000e+00 1.000000000000000000e+00 1.000000000000000000e+00 1.000000000000000000e+00 1.000000000000000000e+00 1.000000000000000000e+00 1.000000000000000000e+00 1.000000000000000000e+00 1.000000000000000000e+00 1.000000000000000000e+00 1.000000000000000000e+00 1.000000000000000000e+00 1.000000000000000000e+00 1.000000000000000000e+00 1.000000000000000000e+00 1.000000000000000000e+00 1.000000000000000000e+00 1.000000000000000000e+00 1.000000000000000000e+00 1.000000000000000000e+00 1.000000000000000000e+00 1.000000000000000000e+00 1.000000000000000000e+00 1.000000000000000000e+00 1.000000000000000000e+00 1.000000000000000000e+00 1.000000000000000000e+00 1.000000000000000000e+00 1.000000000000000000e+00 1.000000000000000000e+00 1.000000000000000000e+00 1.000000000000000000e+00 1.000000000000000000e+00 1.000000000000000000e+00 1.000000000000000000e+00 1.000000000000000000e+00 1.000000000000000000e+00 1.000000000000000000e+00 1.000000000000000000e+00 1.000000000000000000e+00 1.000000000000000000e+00 1.000000000000000000e+00 1.000000000000000000e+00 1.000000000000000000e+00 1.000000000000000000e+00 1.000000000000000000e+00 1.000000000000000000e+00 1.000000000000000000e+00 1.000000000000000000e+00 1.000000000000000000e+00 1.000000000000000000e+00 1.000000000000000000e+00 1.000000000000000000e+00 1.000000000000000000e+00 1.000000000000000000e+00 1.000000000000000000e+00 1.000000000000000000e+00 1.000000000000000000e+00 1.000000000000000000e+00 1.000000000000000000e+00 1.000000000000000000e+00 1.000000000000000000e+00 1.000000000000000000e+00 1.000000000000000000e+00 1.000000000000000000e+00 1.000000000000000000e+00 1.000000000000000000e+00 1.000000000000000000e+00 1.000000000000000000e+00 1.000000000000000000e+00 1.000000000000000000e+00 1.000000000000000000e+00 1.000000000000000000e+00 1.000000000000000000e+00 1.000000000000000000e+00 1.000000000000000000e+00 1.000000000000000000e+00 1.000000000000000000e+00 1.000000000000000000e+00 1.000000000000000000e+00 1.000000000000000000e+00 1.000000000000000000e+00 1.000000000000000000e+00 1.000000000000000000e+00 1.000000000000000000e+00 1.000000000000000000e+00 1.000000000000000000e+00 1.000000000000000000e+00 1.000000000000000000e+00 1.000000000000000000e+00 1.000000000000000000e+00 1.000000000000000000e+00 1.000000000000000000e+00 1.000000000000000000e+00 1.000000000000000000e+00 1.000000000000000000e+00 1.000000000000000000e+00 1.000000000000000000e+00 1.000000000000000000e+00 1.000000000000000000e+00 1.000000000000000000e+00 1.000000000000000000e+00 1.000000000000000000e+00 1.000000000000000000e+00 1.000000000000000000e+00 1.000000000000000000e+00 1.000000000000000000e+00 1.000000000000000000e+00 1.000000000000000000e+00 1.000000000000000000e+00 1.000000000000000000e+00 1.000000000000000000e+00 1.000000000000000000e+00 1.000000000000000000e+00 1.000000000000000000e+00 1.000000000000000000e+00 1.000000000000000000e+00 1.000000000000000000e+00 1.000000000000000000e+00 1.000000000000000000e+00 1.000000000000000000e+00 1.000000000000000000e+00 1.000000000000000000e+00 1.000000000000000000e+00 1.000000000000000000e+00 1.000000000000000000e+00 1.000000000000000000e+00 1.000000000000000000e+00 1.000000000000000000e+00 1.000000000000000000e+00 1.000000000000000000e+00 1.000000000000000000e+00 1.000000000000000000e+00 1.000000000000000000e+00 1.000000000000000000e+00 1.000000000000000000e+00 1.000000000000000000e+00 1.000000000000000000e+00 1.000000000000000000e+00 1.000000000000000000e+00 1.000000000000000000e+00 1.000000000000000000e+00 1.000000000000000000e+00 1.000000000000000000e+00 1.000000000000000000e+00 1.000000000000000000e+00 1.000000000000000000e+00 1.000000000000000000e+00 1.000000000000000000e+00 1.000000000000000000e+00 1.000000000000000000e+00 1.000000000000000000e+00 1.000000000000000000e+00 1.000000000000000000e+00 1.000000000000000000e+00 1.000000000000000000e+00 1.000000000000000000e+00 1.000000000000000000e+00 1.000000000000000000e+00 1.000000000000000000e+00 1.000000000000000000e+00 1.000000000000000000e+00 1.000000000000000000e+00 1.000000000000000000e+00 1.000000000000000000e+00 1.000000000000000000e+00 1.000000000000000000e+00 1.000000000000000000e+00 1.000000000000000000e+00 1.000000000000000000e+00 1.000000000000000000e+00 1.000000000000000000e+00 1.000000000000000000e+00 1.000000000000000000e+00 1.000000000000000000e+00 1.000000000000000000e+00 1.000000000000000000e+00 1.000000000000000000e+00 1.000000000000000000e+00 1.000000000000000000e+00 1.000000000000000000e+00 1.000000000000000000e+00 1.000000000000000000e+00 1.000000000000000000e+00 1.000000000000000000e+00 1.000000000000000000e+00 1.000000000000000000e+00 1.000000000000000000e+00 1.000000000000000000e+00 1.000000000000000000e+00 1.000000000000000000e+00 1.000000000000000000e+00 1.000000000000000000e+00 1.000000000000000000e+00 1.000000000000000000e+00 1.000000000000000000e+00 1.000000000000000000e+00 1.000000000000000000e+00 1.000000000000000000e+00 1.000000000000000000e+00 1.000000000000000000e+00 1.000000000000000000e+00 1.000000000000000000e+00 1.000000000000000000e+00 1.000000000000000000e+00 1.000000000000000000e+00 1.000000000000000000e+00 1.000000000000000000e+00 1.000000000000000000e+00 1.000000000000000000e+00 1.000000000000000000e+00 1.000000000000000000e+00 1.000000000000000000e+00 1.000000000000000000e+00 1.000000000000000000e+00 1.000000000000000000e+00 1.000000000000000000e+00 1.000000000000000000e+00 1.000000000000000000e+00 1.000000000000000000e+00 1.000000000000000000e+00 1.000000000000000000e+00 1.000000000000000000e+00 1.000000000000000000e+00 1.000000000000000000e+00 1.000000000000000000e+00 1.000000000000000000e+00 1.000000000000000000e+00 1.000000000000000000e+00 1.000000000000000000e+00 1.000000000000000000e+00 1.000000000000000000e+00 1.000000000000000000e+00 1.000000000000000000e+00 1.000000000000000000e+00 1.000000000000000000e+00 1.000000000000000000e+00 1.000000000000000000e+00 1.000000000000000000e+00 1.000000000000000000e+00 1.000000000000000000e+00 1.000000000000000000e+00 1.000000000000000000e+00 1.000000000000000000e+00 1.000000000000000000e+00 1.000000000000000000e+00 1.000000000000000000e+00 1.000000000000000000e+00 1.000000000000000000e+00 1.000000000000000000e+00 1.000000000000000000e+00 1.000000000000000000e+00 1.000000000000000000e+00 1.000000000000000000e+00 1.000000000000000000e+00 1.000000000000000000e+00 1.000000000000000000e+00 1.000000000000000000e+00 1.000000000000000000e+00 1.000000000000000000e+00 1.000000000000000000e+00 1.000000000000000000e+00 1.000000000000000000e+00 1.000000000000000000e+00 1.000000000000000000e+00 1.000000000000000000e+00 1.000000000000000000e+00 1.000000000000000000e+00 1.000000000000000000e+00 1.000000000000000000e+00 1.000000000000000000e+00 1.000000000000000000e+00 1.000000000000000000e+00 1.000000000000000000e+00 1.000000000000000000e+00 1.000000000000000000e+00 1.000000000000000000e+00 1.000000000000000000e+00 1.000000000000000000e+00 1.000000000000000000e+00 1.000000000000000000e+00 1.000000000000000000e+00 1.000000000000000000e+00 1.000000000000000000e+00 1.000000000000000000e+00 1.000000000000000000e+00 1.000000000000000000e+00 1.000000000000000000e+00 1.000000000000000000e+00 1.000000000000000000e+00 1.000000000000000000e+00 1.000000000000000000e+00 1.000000000000000000e+00 1.000000000000000000e+00 1.000000000000000000e+00 1.000000000000000000e+00 1.000000000000000000e+00 1.000000000000000000e+00 1.000000000000000000e+00 1.000000000000000000e+00 1.000000000000000000e+00 1.000000000000000000e+00 1.000000000000000000e+00 1.000000000000000000e+00 1.000000000000000000e+00 1.000000000000000000e+00 1.000000000000000000e+00 1.000000000000000000e+00 1.000000000000000000e+00 1.000000000000000000e+00 1.000000000000000000e+00 1.000000000000000000e+00 1.000000000000000000e+00 1.000000000000000000e+00
2.752114751102884352e-02 5.299143448187555450e-01 -2.414453718056448761e-01 7.531934492482663668e-01 5.171133455602310303e-01 5.024392720521564382e-01 6.102334773083205599e-01 3.041347815188772397e-01 5.324534649389603969e-01 5.072572789022211648e-01 1.081037180230115302e+00 -6.985359209838811756e-01 1.405861557831199260e+00 4.549931008185321146e-01 5.158955032440717403e-01 3.968421245538761855e-01 8.809422335821868177e-01 9.774489379707617109e-01 7.136215292364730400e-01 5.185712461085328906e-01 3.890607978401284250e-01 9.844973268546213241e-01 4.077824072056495108e-01 4.960800791094525652e-01 9.028109843010752311e-02 6.717121814915446576e-01 3.790276785824649997e-01 6.685514024297889435e-01 5.558773946904755903e-01 1.581826730831753958e+00 5.106457996911440977e-01 6.102494761471198848e-01 7.192934054695723223e-01 5.126939786927571241e-01 7.038576709831115830e-01 4.519561788999694740e-01 5.078228348358450051e-01 1.794986850429096670e+00 -7.228367185169119746e-02 5.141624783827681844e-01 -1.762540696297764664e-01 -5.613095507103476045e-01 7.489251355181190117e-01 2.268617199669490936e-01 2.879207715218360941e-01 5.182898472524681832e-01 7.533864440886809399e-01 5.279118019942881102e-01 6.280591134101369821e-01 1.711434837574675807e-02 1.330750162027900113e-02 8.131426124669142164e-01 6.765777897708586952e-01 4.407698649074180963e-01 4.578965361935145584e-01 1.784821211524531895e-02 4.977040607371472913e-01 5.271979337995182924e-01 1.919492039853797072e-01 4.738303425275987579e-01 9.162559609073401834e-01 5.162181288780094413e-01 5.390415961245980103e-01 4.077825541010222654e-01 6.801573761230961246e-01 5.898918219652120598e-01 5.201689588210078874e-01 3.254891248086798083e-01 5.625550099313942898e-01 9.122938617521180599e-03 4.247569588333284796e-01 5.571926787149414917e-01 5.137770856234379346e-01 1.443437743153036870e-02 1.508535300023467141e+00 5.519187891973955651e-01 6.350884796385433129e-01 7.313215098482316323e-01 5.133721320293285206e-01 1.383793457593750276e+00 5.132788023268237687e-01 3.196380209488425272e-01 1.406430427802184413e+00 7.234777096097297910e-01 4.968285323109227769e-01 7.554336264777554710e-01 8.052846650309584131e-01 5.492440235228943646e-01 4.138574451615668615e-01 5.760165635430971598e-01 2.852093774789620784e-01 2.182318739421209575e+00 7.523904972249908507e-01 -1.227722742956716823e-02 5.170407187333888599e-01 4.742427242648099006e-01 5.612968192962581870e-01 4.776750232512540495e-01 1.895650141369895902e-01 6.646021325689857040e-01 1.609195748081284849e+00 6.891910886881862375e-01 5.496341817469715396e-01 6.969104062489193119e-01 8.598458978737439917e-01 -2.072758588241604194e+00 -1.219935529993115608e+00 5.399278289070931214e-01 5.945470686003163641e-01 9.711035752444822089e-01 5.623055474676944554e-01 4.375632267948827425e-01 1.685311552416730585e-01 4.910774422433816788e-01 5.224288724122855276e-01 4.987785826764293828e-01 4.832033827237564583e-01 5.360441330648847424e-01 9.312847378275048715e-01 5.207726583259285613e-01 1.304176363863718491e+00 5.510149395140260253e-01 5.935564503649665147e-01 -4.461247905284864146e-01 5.093335263883372876e-01 1.948663302520171836e+00 5.571612358797612963e-01 5.538232716354329899e-01 6.844963771927465856e-01 5.162291621743084757e-01 5.111633480348898306e-01 5.183082276060683169e-01 4.226754112345024739e-01 3.535016694440189511e-01 -2.959638770477400760e-01 -1.659941298992007319e-01 6.457918013631390730e-01 5.125386184945833479e-02 1.000647637220651198e+00 6.271077472807921049e-01 5.116238157051735680e-01 8.654409210294639054e-01 5.945120553594869239e-01 5.750815272160653135e-01 5.147890401571451058e-01 5.165805391551684528e-02 9.221517761097479671e-01 -2.518776891134021090e-02 4.464922766755612393e-01 -8.915775915756800618e-01 7.685517456802364311e-01 -2.938151382555914681e-01 5.182837635468636739e-01 5.605152191924527294e-01 4.511262816835410749e-01 5.137821052930178212e-01 1.952832001141432183e+00 -1.098490326193800326e-01 8.155037476500334170e-01 6.875465576522638012e-01 5.316315389527781488e-01 4.137763821723842717e-01 4.951667840739563120e-01 5.156054251680062261e-01 1.079536404689385165e+00 1.943357836830322538e-01 8.500442966931435196e-01 3.639015846811097243e-01 4.779869245388772558e-01 6.568310761889055716e-01 5.128617359798847142e-01 7.514749456620830603e-01 5.183061644812720914e-01 5.147855864046169128e-01 4.046336191407358673e-01 4.544988472785169847e-02 1.952129296501465272e-01 9.131383676722405751e-02 7.476436134834367753e-01 1.142303910335030537e+00 6.970361886521153627e-01 5.288515448692586718e-01 -1.769983378724324652e-01 4.409296081695300851e-01 6.227742407658846124e-01 5.359921893720195341e-01 5.116417546106573067e-01 5.040121567576620887e-01 2.796347561876761922e+00 5.527786573081577837e-01 5.406405804524788694e-01 -8.928614795406778493e-01 5.131561188104858395e-01 5.482064331601981255e-01 1.890335497444165513e-01 5.099124147720230926e-01 9.355658428418146544e-01 5.196484281382952597e-01 6.021720623471555900e-01 4.405807517915037996e-01 6.283957709752023835e-01 4.983430038474089274e-01 9.158099587392906082e-01 6.010614114160192090e-01 5.432269504704829721e-01 6.021719959500382302e-01 2.410104853698372684e-01 1.289120691310734923e+00 5.508202165538879091e-01 4.008678201089577731e-01 4.315187209512629241e-01 -8.403665031228384208e-02 4.832224705005622178e-01 1.582351155580531410e-01 5.073900283157315450e-01 5.139852251831887875e-01 5.191393393394219125e-01 5.142505133488133318e-01 5.178586035955350386e-01 5.140863337406275102e-01 4.373426134098772344e-01 5.917809325072015403e-01 -7.080054069906852598e-01 6.005480651949112181e-01 3.835327951295790516e-01 3.752455492928262193e-01 8.610846027695465144e-02 1.306923205399281418e+00 9.599465873616656042e-01 4.965375179923852689e-01 -1.034042671903527971e-01 1.056268780381263150e+00 5.149453549312432710e-01 4.458498763038603596e-01 5.847878017840822951e-01 4.123123511081134285e-01 3.267434801224030627e-01 1.832841090421319930e-01 -1.548885644494414626e-01 -9.659534847981007810e-02 3.896643664759391612e-01 5.252636331727117414e-01 -1.077417807639340919e-01 4.330995281322404522e-01 5.195396715056607162e-01 4.843499363261486446e-01 -9.952348609956419845e-02 7.532421268722492291e-01 -2.284200423068931673e+00 6.111355603905213041e-01 -6.045369514824751045e-01 4.973730088521222115e-01 5.203078766797992749e-01 4.077811190275479891e-01 4.744739896682713676e-01 5.643240773318065617e-01 5.417540272092047360e-01 7.612951334036425211e-01 5.548919807192067566e-01 1.691711403193673968e+00 6.788238083799961187e-01 6.911906013554027783e-01 4.772548973008761686e-01 3.563603023272818859e-01 9.162559929526850055e-01 4.138890991729103352e-01 2.680525460218544875e+00 5.040370419310989947e-01 2.320859018823037967e-01 7.287358354702742069e-01 5.062634102981985462e-01 9.156277477837363454e-01 5.140727371397193490e-01 5.599697503168097334e-01 5.147390349843058432e-01 1.102376439056334645e+00 7.695213664983552304e-01 8.623670449378768588e-01 8.078714779279608793e-01 4.609388295482367837e-01 6.793941933548746093e-01 5.228254810910445416e-01 3.848346233533637695e-01 -7.221295728079071274e-01 3.859597121282957732e-01 6.001257453054086310e-01 5.624382195972422727e-01 5.037502835294674908e-01 4.987785177446924512e-01 6.079662261610798701e-01 5.480487749174240975e-01 -8.414001086009126329e-01 7.244838790835679276e-01 5.479834912854727458e-01 1.732074468863191788e-02 5.537673391510583576e-01 1.850240015133122640e+00 5.031393624320910085e-01 5.145993100490120487e-01 4.464792543162852123e-01 -3.416721259614475592e+00 5.216429409222117508e-01 2.816986942726123822e+00 7.521337710865624304e-01 5.373092723897067158e-01 -5.768742104783257663e-01 5.119720317976960144e-01 5.159260717686389164e-01 4.393419274285920717e-01 4.523818054526179133e-01 3.607308854845119317e-01 6.428054794770354796e-01 3.143453036676583934e-01 5.205646181578950094e-01 5.186263634351990781e-01 3.528220068576480295e-01 5.334732376910351626e-01 7.526089313851098694e-01 5.186523669518382507e-01 1.199772547419638569e+00 9.063050893607021291e-03 2.219568588744628812e+00 2.639364257643740164e+00 5.131541129012850977e-01 -2.143531280695134544e-01 4.126609795820713189e-01 4.016881051559406668e-01 7.316227638206551642e-01 1.377328175717319469e+00 5.353251940173113788e-01 1.126262833354824133e+00 5.157479832060403169e-01 1.235880223137268696e-01 1.253265480636167828e+00 4.557021093119811850e-01 5.388775292249508020e-01 5.027815005717690688e-01 8.957094596197604508e-01 -3.720016591211586565e+00 1.633480597246630861e+00 5.243879979058074792e-01 6.376299086742246436e-01 5.161025319959477997e-01 1.794986845728504310e+00 3.036592089887830692e-01 5.509297527760986801e-01 5.337887790170485758e-01 4.676369275132007952e-01 1.377571271778659234e+00 5.784434243219036542e-01 6.021719518969022023e-01 4.331045950970536795e-01 6.010614147561470499e-01 5.545468524672575450e-01 5.671635632906035784e-01 8.967160167279843996e-01 5.171667318133024160e-01 3.860975667692318480e-01 1.851943133830588339e-01 6.602356206850452658e-01 5.181158216400145733e-01 3.697293227541336158e-01 5.509297706570144282e-01 6.566228361697717952e-01 5.203902917546374685e-01 1.020555427424764128e+00 9.743784829743464826e-01 1.137526710309788136e+00 5.148900708831601891e-01 2.272119800165209313e-01 9.162566563109688644e-01 -1.092277832632693874e-01 9.334798492383450386e-01 6.291438209620986433e-01 7.889484474895618049e-03 5.783644610261418073e-01 9.552322455381566657e-01 3.879833458573476723e-01 5.083743303817993553e-01 2.862740755102136103e-01 -3.347307079469196700e-01 -2.465955657758453157e+00 4.871984736900347168e-01 6.010614150758788465e-01 6.010614070703436118e-01 4.985692173086124779e-01 4.071828186332673849e-01 -2.203540170106334517e-01 3.091893078879044410e-01 5.228336827102963991e-01 6.911782457508716115e-01 5.155838946794091271e-01 1.045336272348877715e+00 6.021721407460549624e-01 5.150080504648371083e-01 4.853555382614532787e-01 2.725232112460788669e-01 6.553295818406703610e-01 5.279609068419289786e-01 5.171778998859853926e-01 5.365805688348138647e-01 2.886108902123447062e-01 1.790097486170863852e-02 6.010614144780959123e-01 6.602039947736013659e-01 5.154055314530748833e-01 4.098857140972298474e-01 8.587982472491262342e-01 7.192651376113394779e-01 5.637272470805804181e-01 1.858452350709047129e+00 5.086931316532457004e-01 -3.073115375275243366e+00 7.530175695364182964e-01 1.521897988299856230e+00 5.552299649729033337e-01 -1.071427790592321294e+00 7.733089981221301645e-01 4.496781293606287311e-01 5.237560950066760812e-01 5.357718674054455787e-01 -3.456755667204186588e-01 5.158967312119679960e-01 1.070178549893215481e+00 5.469168343207252425e-01 -3.591356160075111492e-01 5.191319807397166697e-01 5.169207330509584253e-01 7.815431816869126136e-01 5.306163049598872083e-01 5.576291824209556047e-01 -5.237439862661776857e-01 5.611831805968783282e-01 5.153180682773967902e-01 6.515410925551181620e-01 5.371750931057086564e-01 7.672118573523769580e-01 5.102973953001491703e-01 6.004873419908776100e-01 6.209819021552089868e-01 5.278245876437938078e-01 2.889922625921500510e-01 2.944949341860490510e-01 3.333560231137387975e-01 9.623036477658704069e-01 5.510922666399425962e-01 3.199543632431264495e+00 6.592534420706085418e-01 6.357103325008052197e-01 5.534450782327609009e-01 5.975700758226929477e-01 2.676167228671440593e-02 4.872419153325501795e-01 5.116772161692617615e-01 5.165274021506706115e-01 1.162316991208176997e+00 7.669589507569307685e-01 5.157262795141390743e-01 4.438524722885164864e-01 1.117345430865344769e+00 5.289164940686363892e-01 5.639822302870737269e-01 5.467884335090510417e-01 7.851565763711412238e-01 5.134243357670789099e-01 9.315050846793919703e-01 5.122069329684982852e-01 5.149373202964310225e-01 1.031856624975161126e-02 5.167738227634144366e-01 8.539386705347188147e-03 3.280499778032116565e-01 4.080378660094740040e-01 5.738994726260405743e-01 7.795829854023217376e-01 5.208010619889864579e-01 3.907586767643648762e-01 7.610554849784680054e-02 5.217417834296405044e-01 5.488452260657873394e-01 4.629434062275699091e-01 3.983979499426539700e-02 5.135139182018765291e-01 2.472230539576969199e-01 5.126351669825128798e-01 4.162107048199830683e-01 1.257553407361168496e+00 7.785254498624033515e-01 5.493885359604333551e-01 2.604577781396830161e-01 7.148612790750161761e-01 4.290979527408688710e-01 9.936776931871394991e-01 6.032480608680886869e-01 5.891325188345878372e-01 6.944079537154345116e-01 1.993750604385303493e+00 4.624920341582006156e-01 4.663557219061185144e-01 5.129136805089424822e-01 7.247454835632940462e-01 5.049911413413951111e-01 8.436583132961363862e-01 -5.725935141574076681e-01 3.480591947930752328e-01 5.123837979443521817e-01 4.273210492109684733e-01 3.761519681636683599e-01 -6.167984210680746981e-01 3.880539420175709853e-01 5.182636344729755207e-01 7.358381344220742415e-01 6.668574059996230652e-01 1.480059578039240709e+00 5.189439854822515130e-01 5.179105711045483007e-01 -7.039916330539301992e-01 5.142527987585244764e-01 1.218788286932069642e+00 7.086838050252998178e-01 2.691628885944584160e-01 2.593931313223289958e-01 -1.689779379425830452e+00 5.135628358462901444e-01 1.854469451075964614e-01 1.099869010602946950e+00 8.177121649695843209e-01 5.149173204385911751e-01 5.213557153300387714e-01 6.244549789112201488e-01 7.527569530914539619e-01 4.433317855923685769e-01 5.597577277267516971e-01 3.000254616277579084e-02 5.141853641516560547e-01 6.092426225136596818e-01 5.637901240882761122e-01 5.067242256057233885e-01 5.048716077879503716e-01 1.210268362597729297e+00 -1.038855144708327322e-01 -2.353379063602525079e-01 4.220473544125720733e-01 5.487505775280955289e-01 5.439304383284192523e-01 5.056207558686621750e-01 -8.556988089697113997e-01 3.164549243588536953e+00 5.466725338021573011e-01 4.474377316867262366e-01 4.236652767085704596e-01 5.143100058995789814e-01 5.117720950968375204e-01 5.776493934661015572e-01 3.257138992136621169e-01 5.936416307340357523e-01 5.135675296169526227e-01 5.923149189673634352e-01 3.482875251901733082e-01 4.226073570756379016e-01 5.499775837701386116e-01 4.057581822648120284e-01 5.040348578155366965e-01 5.497782392944935426e-01 6.605918065265174999e-01 1.011156372758150734e+00 2.315871970840953420e+00 5.386962463051973016e-01 4.968643777992927113e-01 4.358876550704571251e-01 4.976695613957472508e-01 3.673996033677657258e-01 5.170622737017623871e-01 5.219289171083888457e-01 5.182691785296615894e-01 5.260045024259996094e-01 4.767898942673956530e-01 7.527818349626955730e-01 3.659218188485950929e-01 4.689731502418747477e-01 4.583004516748832580e-01 5.380564423221928516e-01 1.168192059986179893e-01 9.162559760142920950e-01 5.639351865748454262e-01 1.186742791459883956e-01 1.910985502360254884e+00 2.848663889174243291e-01 4.263134307063003448e-01 5.902041089060685586e-01 6.290580795876649089e-02 5.238392133858579269e-01 1.513184332759823114e+00 7.782316427374433854e-01 7.485522785116520694e-01 5.170543579807087564e-01 5.476191209244894997e-01 4.666213807936230307e-01 6.568378761778959074e-01 5.283522254603947310e-01 5.169469278885570063e-01 -2.112097325620798383e-01 5.384982956309163349e-01 -1.475937018467546880e+00 4.890757047866939877e-01 5.044759047823516029e-01 5.232409245973604905e-01 4.464657788528716975e-01 9.162559760288508937e-01 2.206270658656559192e-01 5.427188926043517991e-01 1.338578182284181572e+00 -5.552812671747283657e-01 5.132828118036812937e-01 1.135238777927040754e+00 1.514857541135030017e+00 4.654923853070275230e-01 5.125914077029550819e-01 -5.430395060742204683e-02 -1.676680452625514128e+00 2.765987446406152905e-01 7.903237628076356103e-01 5.129721978370880286e-01 5.138799150405150007e-01 5.822471009479823767e-01 4.846881273310692517e-01 -4.061361965264525531e-01 8.193009138897046073e-01 4.987794681706602673e-01 3.321661123963077222e-01 5.480745810536016283e-01 -1.199200917203141654e-02 -1.713916688004037403e-01 1.789226424586066289e+00 4.141012890069618591e-01 5.016624177279003227e-01 5.174611300895152199e-01 3.268283335007782786e-01 5.857363976084443147e-01 -7.296885992584227487e-02 -1.148616533008402829e+00 5.142466131257928952e-01 5.315262910003278884e-01 5.281847654174094409e-01 6.161682258608524032e-01 5.237390196153544064e-01 5.449619813147329461e-01 5.623907961919668574e-01 5.730651356374453220e-01 1.031577564016015636e+00 7.236589463474661921e-01 5.240585320170686456e-01 5.901314104359054458e-01 4.575576835641192996e-01 4.367008248942376158e-01 3.182656723009592847e-02 5.509297602933550531e-01 4.860165124784844304e-01 4.832524582511757427e-01 7.570795478805298906e-01 9.166066158338606051e-01 8.436646617664339542e-01 -5.023439183087794468e-01 5.230824107663089029e-01 4.562271452639747316e-01 5.205150877017458155e-01 5.874670919848093975e-01 9.065993683976686368e-01 5.626175431477902222e-01 5.270652701712004173e-01 -2.514990247242870347e-01 -8.669263944121357035e-01 2.292994153500693688e+00 5.094542631462517512e-01 8.954817715411417245e-01 4.358042804555465333e-01 5.730828279038331363e-01 3.782017285392654804e-01 1.503168714013866369e-01 5.172630935227517934e-01 5.481269412279738962e-01 -4.219034844098269559e-03 5.217974315375485395e-01 4.299997447564202213e-01 5.164108338041119017e-01 6.513490762793531230e-01 5.185440873602437106e-01 6.097938736991631581e-01 4.055611255774376200e-01 4.999223559836832309e-01 4.168951950531598061e-01 5.233974162949831532e-01 4.182257637942473072e-01 5.302002107821705001e-01 -2.738272059113574519e-01 5.113816476199656291e-01 6.426254277628267175e-01 4.788878765803799564e-01 7.534343028484097315e-01 9.162556729705815250e-01 7.310189242329436787e-01 -5.965122471742032584e-01 9.871554325162281707e-01 1.794986850440675186e+00 4.909767428737657480e-01 4.638202622575908207e-01 1.077404914877362785e+00 5.636483219420772572e-01 7.536314296223315390e-01 5.182851188617507709e-01 1.828236722252436719e+00 5.132698336404494244e-01 4.331002600896278754e-01 1.234265497597025751e+00 -6.052473425370710758e-02 5.566855323639143815e-01 -1.623807368573731424e-01 -9.586883419221817748e-01 -1.711399933006917673e-01 7.744263567679472438e-01 5.671539958858239361e-01 5.169026710335384855e-01 -3.282462849679425587e-01 4.978501470336227364e-01 4.920982766272918862e-02 -3.779140134332407142e-01 4.956519639321421700e-01 5.113822897593217620e-01 5.213294105041127446e-01 5.540721476875016815e-01 5.435557835859194942e-01 9.092562924396445645e-01 -4.089491539651804453e-01 5.181498583471726427e-01 5.548425293807560665e-01 6.131217017081260767e-01 1.166244334179447950e+00 4.998256389944232825e-01 6.464807618180666848e-01 5.183641575675027591e-01 4.150370305930949771e-02 -3.457768439409470429e-01 5.322807763850296858e-01 5.219124051592800573e-01 6.785938405680611574e-01 5.027648783439522262e-01 3.462709078694241049e-01 5.140089317112729317e-01 5.187920955314588856e-01 3.665994432359349076e-01 5.203657545077634561e-01 8.390674297720637220e-01 2.553231451823787523e+00 -2.425193478219742349e-01 6.636593656109106565e-01 3.302447597102410870e-01 2.106673012391998001e-01 6.717352780903144138e-01 -5.735832155328304816e-02 -1.531898646597135816e+00 5.227434578544085664e-01 2.614724530558365512e+00 5.228933411908692763e-01 1.557224799143980543e-01 1.693094780981497238e-01 4.987785828395461807e-01 5.783440454897201821e-01 1.558486686043467850e+00 4.951378719678418694e-01 1.260482870823525503e-01 4.310667295974936475e-01 1.698648891610826439e+00 5.952291975730508167e-01 7.538865018668574614e-01 5.075018579146148845e-01 7.395955910567487690e-01 4.583757650518139881e-01 5.685348904963469785e-01 1.712261163539254352e-02 5.192553965166111229e-01 4.902707487534950226e-01 -5.728098735149924625e-01 -6.434576861686935878e-02 1.175008623334311553e+00 2.370382049751712517e-01 4.856063250255964192e-01 6.977614489644550222e-01 5.504404777794118520e-01 2.002785803183404933e+00 6.906031353052857202e-01 2.607196412115662595e-02 2.996461515232507478e-01 3.968347357923048824e-01 1.116947302694855981e+00 5.086139166296883563e-01 -2.690184398345654704e-02 5.047058370394950089e-01 -1.658707063238495927e-02 5.192364906169912864e-01 5.217510308955745080e-01 1.994013543351059667e-03 -5.213204520235510675e-02 6.674511408302966631e-01 5.930121015817885199e-01 5.674155716641217095e-01 2.538827569969805409e-01 4.554346854068099248e-01 4.986724432537640861e-01 5.404860291805498873e-01 5.528061766854792669e-01 4.795418243983381457e-01 6.149900800942983414e-01 1.016673526210269296e+00 3.125646883011063526e+00 9.290348923695697092e-01 5.197140794810367614e-01 6.320803270484972591e-01 2.141068516797416388e-01 5.194138519640654206e-01 8.467767304438215126e-01 4.961141851426989491e-01 1.316621693625217082e+00 4.490695238960107916e-01 -5.766314421266357515e-01 -1.691853532834466586e-02 4.078434505126186660e-01 6.130388166650531101e-01 5.093828409203576824e-01 5.148082250288681383e-01 3.761997200434642058e-02 5.272108321611513881e-01 4.098316998365749697e-01 -3.675201067128510246e+00 4.820512412758130583e-01 5.232127826341860244e-01 1.127351423851867596e+00 5.155988003997264979e-01 5.235775558275762576e-01 6.822811510939930102e-01 -8.835818024481411070e-01 -5.039224077962370929e-01 4.227772034878944651e-02 5.181414711647668314e-01 4.407304052985857590e-01 2.179086893373995137e-01 5.044909985356965665e-01 -3.375867904209833292e-01 6.117809171129052759e-01 5.002138602232426567e-01 6.948944638024651121e-01 5.432229780193542634e-01 4.723009898985728316e-01 1.566328576018329310e-01 -7.537504045092704441e-01 6.548104971391364160e-01 5.129257696483267015e-01 1.613166831118819089e-01 5.194499896684680040e-01 5.705912179483819680e-01 5.348464946767435002e-01 6.714341503347898144e-01 5.725920409616386264e-01 5.427051775198540318e-01 5.006639563869124121e-01 1.794986855011964977e+00 3.622662084997188003e-01 5.470702118929674507e-01 -1.193936363892049990e-01 5.522203918129496847e-01 6.275205258572208455e-01 5.293398857555029480e-01 4.941217119176429251e-01 3.529557693799115214e-01 9.336549383380742251e-01 1.201270599010272777e+00 5.567088783196050272e-01 5.774711647519253921e-01 5.962511052861213523e-01 4.693161145383266675e-01 4.885851439059659129e-01 5.156080664973984318e-01 9.871098599473318025e-01 7.169526256137234155e-01 -4.556248239315116022e-01 4.526743227120324509e-01 9.137141354873024035e-01 5.083951496881747856e-01 -1.704948295799433786e-02 5.198481012778193300e-01 1.324480849243151237e+00 -1.388141525660285536e-01 5.918082475936669029e-01 2.449558443293818055e-01 5.286611230175826126e-01 8.357033786455911883e-01 5.116111897627592109e-01 3.694453689310169819e-01 1.399235557007296737e+00 4.764990233607231951e-01 5.296551971373798517e-01 -6.551800813045434158e-01 4.516095666202860626e-01 1.042117507020951184e+00 6.023240183071302267e-01 8.427691728583334985e-02 9.671468369412059563e-01 -4.450568793170419507e-02 6.415936992954015539e-01 1.616437455527377720e+00 -8.574551974497365281e-01 5.670078384065373456e-01 5.164933456171809656e-01 -4.546086222218679862e-01 3.140873344056202554e-01 6.002175110467706798e-01 4.816082942270561440e-01 5.122813392869588478e-01 3.728177796076225792e-01 2.633926496423885655e-01 3.445649135439815547e-01 5.675664965370572634e-01 5.200480922022102659e-01 6.599511170168207395e-03 -1.030340911484397826e-01 5.274275244656482231e-01 1.062934202319137933e+00 4.549658735848438051e-01 -5.730538921297128052e-01 5.551091499028981691e-01 5.120713617486530866e-01 5.297747692036027800e-01 4.077746423300393497e-02 3.324160654756216915e-01 5.165586668709198914e-01 5.234398681005768550e-01 4.521457093455128473e-01 1.798563388878913691e-02 4.994458166214255090e-01 5.167946329211627887e-01 6.322914224375734138e-01 2.083716000506704802e+00 8.049263283195898233e-03 3.847745399924886733e-01 5.183472292539430537e-01 1.829654505979644963e+00 5.816677440593011061e-01 4.923713556957014514e-01 1.673115560976725855e-02 5.509297539236929220e-01 5.248805626066040952e-01 4.751480821061800919e-01 3.821095111552432755e-01 5.027450746052052333e-01 4.790291831096492592e-01 5.595605363897742102e-01 -5.297998941771434600e-01 5.144553480541560475e-01 5.441733308485962040e-01 5.419393308216470251e-01 1.090370601712947085e+00 5.165727243854285611e-01 -2.438843442070798839e-01 1.080162961346790462e+00 -1.262158589009221732e+00 -5.207982159619422013e-01 5.221909828010244947e-01 5.151366492215574411e-01 6.522470577355540255e-01 5.153562088706220568e-01 4.094342868492009679e-01 5.918951424587806098e-01 5.509297522620628662e-01 5.170850103292056188e-01 5.200779238445170094e-01 5.866611000899193407e-01 5.180245535713791094e-01 2.958452495275394334e-01 5.012463030406081321e-01 5.093525834827977716e-01 3.813860873293851150e-01 5.136189843406216982e-01 5.230713226373092661e-01 5.495536813329013892e-01 6.470312917369653860e-01 5.134745959079316524e-01 6.859724162785310053e-01 4.909718845484773997e-01 5.103598615276497830e-01 5.426972591746369590e-01 3.682987427791483692e-01 4.083287961240468222e-01 2.411492284348666804e+00 4.872353439768191130e-01 5.925847122613411289e-01 3.056183513606239854e-01 5.830873105098521858e-01 1.111659683062911963e+00 4.619011824227660101e-01 7.043815960274661947e-01 5.150281215985365035e-01
6.994606224498477465e-01 3.066778243770111878e-01 4.266395821368321184e-01 7.678207936789470042e-03 3.122038806101171127e-01 3.019232794532220043e-01 5.327450364413943706e-01 4.316558009535318430e-01 2.741372139449501089e-01 2.970273617804556898e-01 2.049451124912972322e+00 1.713444809414731651e+00 -1.440179995788799072e+00 6.185863832187067368e-01 3.133230057320453010e-01 4.280643099176494326e-01 1.303841228038313815e-01 4.333420529543988708e-01 4.373103209066339092e-01 3.086127543914053417e-01 4.592929390477664686e-01 2.111698387144357980e+00 3.868382182661083690e-01 3.694744173784105246e-01 7.277265760211117929e-01 -2.196103272184413702e-01 4.459295620885010969e-01 2.208796134941136413e-01 2.788110842296622760e-01 -8.766081030796668561e-01 3.444100526443641397e-01 -1.304005088217613240e-01 2.889883513294677631e-01 2.947493347649577933e-01 -4.230336041507992140e-01 4.723909661801220516e-01 3.100193215203993491e-01 -3.552046814603538882e-01 -3.228777040551888078e+00 3.144101211736615165e-01 1.148511304116857978e+00 1.419325444422513960e-01 -1.660300799112489900e-01 7.917881758864178110e-01 6.160772149436654077e-01 3.164359128556105127e-01 7.359065733824884242e-03 3.393816273601923394e-01 2.112316059528257794e-01 6.677647564426925086e-01 6.779390589795402100e-01 4.784251787390372823e-01 -2.262711604102848606e-01 2.124052654796839967e-01 6.028719019597389428e-01 6.546700747673765974e-01 3.575347708842894767e-01 2.512440836628130891e-01 3.466593555840167817e-01 3.585085471831488957e-01 4.261682202181817369e-01 4.094702125129253134e-01 3.037507379328605595e-01 3.868382026766497561e-01 -3.462910442859146176e-01 1.630942585012701007e-01 2.936595016456937102e-01 3.262005542167074057e-01 2.076962009739491966e-01 7.251858638335852980e-01 1.228414093028429022e-01 2.662505495583786241e-01 3.275171532025591969e-01 7.258747852706176618e-01 1.915092920410274679e+00 4.811655129274944320e-01 4.716478102361762459e-01 4.807892424370182050e-01 3.113341716296714745e-01 -1.334760015197704153e+00 3.173883581267004650e-01 6.011788078806098445e-01 2.316197816432234102e+00 9.662153656783108169e-02 2.694148767012115586e-01 -3.978679568356578988e-01 1.276600560769005632e-01 2.686651000029481318e-01 -5.760905258017225972e-01 -8.847499118633265214e-01 6.167703085970005494e-01 1.574211746017427860e+00 7.634121356494151522e-02 6.912587943192971540e-01 2.916564215688442485e-01 3.172762044271307258e-01 2.708341499537063601e-01 7.517210547884062288e-01 7.379311993826238592e-01 -2.249861973580736252e-01 -1.728701725908879661e-01 5.488392304633456231e-02 2.599893003749049192e-01 2.148267738694287221e-01 -1.833783271462363293e-02 3.096872533831254160e+00 -2.851372092746380371e-01 1.671271301475434901e-01 1.333049264640163156e-01 8.094120974397300827e-01 2.430664411245126721e-01 4.699601468189230635e-01 1.648391862580795009e-01 4.431726280347642599e-01 -4.851779732487249142e-01 2.113703012504945522e-01 1.977615868205969130e-01 4.307664315234971952e-01 1.057980534800208927e+00 3.044856255602956252e-01 -1.448675692323247777e+00 2.065932561710693560e-01 1.457706892019315359e-01 1.373819739552000430e+00 3.243180855833134313e-01 2.163533308647052955e+00 2.458442814961475653e-01 2.939392834253019005e-01 3.008250748356406379e-01 3.019018319345531109e-01 3.282997872388361271e-01 3.115754270805642934e-01 6.756317149662437460e-01 4.165908967623587755e-01 1.737314355525167997e-01 8.682321341204732867e-01 7.109314031052909044e-01 7.207112944345283045e-01 -3.334920421054194395e-01 2.029071265640714772e-01 3.566881454665186135e-01 3.216692936321141616e-01 2.958064226443130607e-01 2.709573803611007858e-01 3.092222156661338373e-01 6.944028504662285162e-01 -1.451205989190023360e-01 3.188817271462939251e-01 4.465168745678855244e-01 3.985514830851054624e-01 -2.501648952858518404e-01 2.319677490896976738e-02 3.164418459099415659e-01 2.652463516156117196e-01 3.285432689106284054e-01 3.087261780686993973e-01 -2.345821945820744769e+00 4.549046961590803573e-01 -5.944727430844417571e-01 -2.285772553277516106e-01 2.349488023279948379e-01 2.663296278325474331e-01 3.281863449087693008e-01 3.130250836877156995e-01 1.172515155111415880e-01 8.210740023624304995e-02 3.158613624098831063e-01 4.444348097316974666e-01 3.525678549356566216e-01 3.354489371767971351e-01 1.806730420403708792e-01 5.574161737994540698e-03 3.163983975700967455e-01 3.147845405942851782e-01 -2.493718003935874616e+00 6.949572530384100499e-01 6.110816802697530692e-01 9.634774983618648037e-01 -4.559991168157297436e-01 1.171263224076636078e+00 1.072247136871239516e-03 3.067534758427799546e-01 1.235081293484239895e+00 2.966188931794100370e-01 3.075869913253250210e-01 2.594217932729675491e-01 3.651157869769420250e-01 3.070745055134788681e-01 -4.750459947393593230e-01 3.028863630958971154e-01 2.541889459488291814e-01 8.115866883159478240e-01 3.197195370391053282e-01 2.897150035005077173e-01 2.330777357120228099e-01 3.158629410602343812e-01 -1.646044943047137998e+00 2.996851512282291963e-01 2.484303985448887142e-01 3.518938788676974072e-01 7.742324540571303426e-02 2.896945207106407238e-01 3.832065540654254199e-01 1.370950634315571126e-01 -7.853323255730118024e-01 2.484304310490743906e-01 4.675678911447541664e-01 -5.116497776831068212e-01 3.624301433853170940e-01 1.690889555336236028e-01 2.510507198041008192e-01 -3.235931236186212701e+00 4.499604549824300359e-01 9.289687771309805830e-01 3.091356658363287879e-01 3.190838462820250743e-01 3.126371859810783138e-01 3.391836907667630241e-01 3.173452329469188538e-01 3.133281890378882273e-01 3.433545190059336671e-01 1.320719722262317930e-01 6.635140552034568540e-01 1.142314713521491581e-01 5.049396115275284203e-01 4.792463592816775253e-01 3.924416510527335977e-01 -6.634915861231740486e-01 2.275542130650943129e+00 3.917249161811494629e-01 1.237562374753454764e+00 -1.387306888835160956e+00 3.074170625606220120e-01 2.206747066342943653e-01 3.527835331502820471e-01 1.165197094375744369e+00 5.034522836837549420e-01 8.085850112836878711e-01 2.823038290135703732e-01 6.696678955273301925e-01 2.893767369476856199e-01 2.964869088852711831e-01 -1.163535937299266410e+00 3.955204898713102768e-01 3.153944253606540404e-01 4.874798318679767206e-01 9.005124644347940466e-01 -3.566166302543613553e-01 3.134319296228375684e+00 4.893435110437885371e-01 1.251540797204419908e+00 -1.784851439764102710e-01 3.229173794069932213e-01 3.868347732863217092e-01 3.225580693674799937e-01 2.408049108823743512e-01 3.732524979945404664e-01 -1.192983951508301971e-01 1.281207496819695146e-01 5.615759032390609251e-01 2.680162399358319569e-01 9.372942411238449623e-02 2.517284598949691699e-01 3.974668868983782799e-01 4.261681855765530602e-01 2.621803787944899655e-01 3.216347456092246038e+00 3.722740476418905375e-01 6.540091827868240726e-01 5.390038431441799283e-01 2.324347686939212954e-01 4.266759137611065289e-01 3.145963058972278681e-01 2.853412635509647854e-01 3.121308128779808344e-01 -5.513351749317714212e-01 4.543338121011125663e-01 2.853902007086687731e-01 1.290239822533169323e-01 2.769121867656723635e-01 1.528848025455435300e+00 2.994129996890740886e-01 2.955040212275857336e-01 1.991334288374589256e+00 4.988188203390983011e-01 2.922330166453954714e-01 2.648610698672768105e-01 3.278531299853252312e-01 2.113696435263034135e-01 -2.055816727333897198e+00 2.620317402102879112e-01 1.519432503202529317e+00 -3.074439536295981920e-02 3.340257037606875756e-01 6.978964930233824138e-01 2.860771234404138053e-01 -7.196507513213697971e-01 4.161521191903439498e-01 3.118685793290642549e-01 4.464793334412618386e-01 -3.877336467588181068e-01 2.952498497784561970e-01 -2.211254262741908949e+00 6.282028249699425464e-03 2.933964684670525846e-01 6.031794387071148789e-01 3.168185457762034973e-01 3.110400547660228110e-01 4.744078663480742475e-01 1.979118683827794656e-01 -1.102286643135900884e-01 -7.611677830768337483e-01 2.033914454237387669e-03 6.858121754919793700e-01 3.273070207255723285e-01 4.978977199943994680e-01 2.961770888029433557e-01 6.946177643554644898e-03 3.055997440810259702e-01 2.430277198277065676e+00 6.932416876867031341e-01 2.467952940869242995e-01 -1.151359554090372717e+00 2.223232930662048801e-01 4.656195104677031793e+00 3.547733401367182404e-01 -1.421570032160865971e-01 5.698707449652533619e-01 -5.552230234300643552e+00 5.129003000761055420e-01 1.539669852815443329e+00 3.121000127850132588e-01 5.356548604142815639e-01 -4.411695257705327000e-01 4.131835129331101752e-01 3.238595965055675596e-01 2.803363217743066182e-01 2.381527810575546911e-01 2.912493334454052452e+00 -3.700269519854247902e-01 3.124199541470989439e-01 -1.909040100745380109e+00 3.223486998959070871e-01 -3.552046772760587556e-01 7.471610853280237219e-01 5.353320081738940361e-01 2.828789950433067135e-01 3.011941783422368291e-01 1.278330715466742040e+00 1.417586791397622836e-01 2.484304663815774528e-01 3.955142298025165482e-01 1.370950642351094484e-01 2.924357555698693378e-01 3.940662018425437618e-01 -6.080210014353297776e-01 3.091765440195501924e-01 5.484709071570955663e-01 3.831658906662466224e-01 1.667080310171775992e-01 3.104085077915114677e-01 4.777126641425043507e-01 5.353320160467913702e-01 4.225451832278597220e-01 3.090933668028306158e-01 1.899366233197817000e-01 4.268342528517518053e-01 3.390035049276510115e+00 3.039211160540520873e-01 1.431147432240300055e-01 4.261671034888373510e-01 8.480732129353349968e-01 4.662693377795274485e-01 -1.934727590555035404e-01 6.840435595772088595e-01 2.992855326368904501e-01 1.166747969353844061e-01 4.018912427099453621e-01 6.655401309737284388e-01 6.164613664748727073e-01 7.815169754844898398e-01 8.126474205333666934e-01 3.711319740564417158e-01 1.370950635385742300e-01 1.370950745019962058e-01 2.432566337108547916e-01 1.456721864530681754e-01 1.120016011528419231e+00 4.051368509936634776e-01 3.237361060015083170e-01 3.392691383764726565e-01 3.155605695532341382e-01 7.717146735676061464e-01 2.484303350384159392e-01 3.098734436138686488e-01 4.427093602812928186e-01 2.645404075370980101e-01 -6.337533934157866256e-01 3.047105079765205504e-01 3.097740303897710823e-01 3.772458868657189712e-01 6.942217420142422490e-01 7.214127491810536918e-01 1.370950642951803689e-01 7.474723406627913069e-02 3.078687353160787232e-01 4.731057224529824912e-01 -5.912079946079445980e-01 1.942204550863051715e-01 -3.493255325508513920e+00 1.948957973157566137e+00 6.335897500078820910e-01 -4.553519454794874854e-01 7.759657384961361065e-03 2.045366929913142506e+00 3.104677382740863578e-01 6.383493549908801912e-01 5.360708389140536254e-03 3.311195877250733277e-01 4.376809409057854094e-01 3.029869743073713706e-01 -4.660192324268500608e-01 2.739844853605648556e-01 2.048988212671241538e+00 3.456413620160139755e-01 -4.201781584854200058e-01 3.322449234737148149e-01 3.193220116859378233e-01 -1.451847428235751414e+00 3.263568026145890477e-01 3.587484326812759861e-01 4.030309616065781420e-01 1.695412318869189416e-01 3.105498402448594875e-01 2.158593371168127384e-01 3.258889301938844851e-01 -1.608810929278981783e-01 3.221872809118686565e-01 1.142931762909409343e-01 3.243198138646024575e-01 3.074013998131053804e-01 1.692734536360896228e-02 4.195074964588268451e-01 5.842758932726354049e-01 -1.377514244038761104e+00 -5.558383657524255117e-01 -1.099632235723290857e-01 8.366603561482811868e-02 2.536877088722552798e-01 4.287550324135371294e-01 3.623767994180947527e-01 7.307014117901012851e-01 -1.197985112263040275e-01 3.066648575757108808e-01 3.259180876158304652e-01 9.305646760320437916e-02 -1.605450114744009504e-01 3.184832205941852123e-01 4.525474785121573196e-01 4.793271743495363668e-01 3.150369658146017215e-01 2.627763212029185502e-01 3.177663945696453385e-01 2.549289360025975282e-01 3.152528081863522624e-01 5.062256463339466217e-01 4.138128365443904388e-01 3.130302636402469973e-01 6.830458101431685636e-01 3.303487467669393718e-01 7.347868271782896921e-01 5.585201754171514182e-02 5.204339302772592601e-01 2.388403795100581262e-01 -1.445068692437167179e+00 3.071068984341426833e-01 6.449065387813033290e-01 3.749857164453283542e-01 2.936014771173187654e-01 2.601597971644797336e-01 2.193456005419209542e-01 6.877553452270531720e-01 3.168552929300672005e-01 3.888206406005529359e-01 3.117211448574592203e-01 2.837861544951308379e-01 2.049851310915651870e-01 5.113198667358038740e-01 2.895801862976525309e-01 2.329582743450265836e-01 1.325417856298088115e-01 5.865774264944811911e-02 1.629663146868630452e+00 2.509615274243066074e-01 3.675991706736463915e-01 3.796095154423165252e-01 -8.377823085996489727e-01 3.974561160935948800e-01 2.953095347558487571e-01 4.635596480085216742e-01 -3.114364524335197851e-02 3.160813087952075717e-01 1.571341531075751252e+00 8.896786884464712442e-01 4.247776262558569105e-01 3.056649920278735055e-01 3.626731559155903506e-01 3.350920439661507211e-01 9.177579692608075490e-01 3.022235164344762914e+00 3.096940702073318064e-01 3.966286271570998445e-02 5.920879451813062522e-01 -1.925903933022317105e-01 3.148114603277284429e-01 3.074317371236205965e-01 1.065816828031157515e+00 3.112898435562183597e-01 -3.208208772876794956e-01 3.772989857580097972e-01 1.229238884284906408e-01 6.479603698841184256e-01 1.747516810203788795e+00 3.037913502493003737e-01 2.522133468422687597e-01 1.654622251406077771e+00 4.053103681143878645e-01 3.324253157298711625e-01 2.100439512602648717e-01 2.842331435708813081e-01 7.711491784815614411e-03 4.840439705665339210e-01 2.385758550200289818e-01 7.300882662161370940e-01 2.670825462095419711e-01 2.781757300392310728e-01 3.044091887081071812e-01 4.472291307627084267e-01 3.166405304006044696e-01 2.565369193564525641e-01 9.080421518182265617e-01 5.073190838909665823e-01 4.461289094490562546e-01 2.687666503034507604e-01 2.825327876029892771e-01 3.017491205040392366e-01 5.867050785046541428e-01 7.705473440142244224e-01 3.517596972361118901e-01 2.933717253434440231e-01 4.883641603661605379e-01 3.133146484579050206e-01 7.300200155995449913e-01 2.328530118476103972e-01 4.542579535105030208e-01 -3.152654800557211923e-01 3.122509777690458121e-01 2.917775650622949635e-01 4.238696506330827396e-01 2.943943932197065072e-01 2.623280366159680965e-01 1.773908135415240395e+00 8.177902755126369161e-02 2.668582095666471865e-01 -1.746573361126704527e-01 1.630252599501795796e+00 1.146757038566056375e+00 5.095343205871682990e-02 -4.571045390476293213e-01 4.038586768293981333e-01 3.581932443071687566e-01 5.135359928604708024e-01 3.103656463191138970e-01 3.090898129284781470e-01 1.974739044878721095e-01 3.430301482333990015e-01 3.728519713085964304e-01 8.026539368795323343e-03 -1.975718463921914969e-01 3.709810470461275544e-01 3.075431101072318985e-01 2.131836791302710865e-01 8.656925686799280539e-01 4.261682030091706874e-01 2.400258509984850019e-01 8.379972695384780845e-01 4.759854117397758766e-01 6.165208892371492055e-01 4.574981906203713367e-01 6.903869883871083246e-01 1.467417066750301480e+00 3.305805970566748631e-01 2.068805039618894170e+00 -2.211919561537164722e-02 1.411500642734761779e-01 3.115605259308285580e-01 2.593986668664289841e-01 3.416768684381539245e-01 3.354216501998115163e-01 3.085474866858450849e-01 3.119467272994262408e-01 3.593331432297195982e-01 1.892858934926651693e-01 -3.072711803523293095e-01 2.476094786480488030e-01 -7.538837218049028455e-02 3.151201334626281270e-01 4.464103591405537697e-01 4.261682030030691237e-01 2.090217133863659649e-01 2.004779861041544597e-01 -1.226873399047391011e+00 1.946618639255449201e+00 3.128021846451206067e-01 -7.160626794326691025e-01 2.975597710560137221e-01 3.085239620101203895e-01 3.135286189039943605e-01 -4.737090619147815929e+00 3.508619845195062315e+00 6.243952743896481472e-01 7.354609800846123591e-02 3.114154481724151213e-01 3.114338568056382317e-01 2.934702248060826468e-01 2.599488435249317053e+00 6.203253808833190108e-01 3.197571257381088827e-01 2.113700730594685606e-01 2.652568471359598723e-01 2.594174146146830950e-01 8.680379189793495653e-01 -3.773096875798028216e-01 -1.170727289389778658e+00 -1.203699079611197043e+00 3.103255289202039302e-01 3.146301782260754187e-01 7.171720703421160525e-01 3.602780834304570301e-01 1.351923732617829277e+00 4.724077088085916198e-01 3.161609179410350134e-01 3.032496163690275859e-01 3.334881280043407448e-01 2.974285520840844188e-01 3.131481797012747870e-01 6.488955902460721292e-01 2.741975989820090720e-01 6.529590193681812371e-01 2.220448259463924934e-01 3.264265790839534359e-02 3.129542329611302853e-01 1.912202097935222223e-01 3.554861594381933387e-01 2.933648713618267068e-01 6.662618603398443584e-01 5.353319869710985168e-01 4.224286164015956802e-01 3.557515520657086316e-01 3.138000333104709050e-01 2.615608250634359200e-01 1.571317244843126293e+00 1.864430579059302096e+00 3.141486009854002615e-01 3.680571377646106312e-01 3.162052353162461693e-01 1.633528639251800307e-01 2.322768383808284653e-01 2.637030316918331230e-01 2.878179809584965887e-01 3.230136974341360490e-01 7.958909703173618899e-01 8.754867449964307546e-01 2.335812629683127473e-01 1.853955295928700009e+00 2.414998245163984536e-01 -1.962351637229161616e-01 -2.728506522941864243e-01 -3.168966520679286081e-01 3.137701754062932613e-01 2.614321846230159285e-01 7.080905249646540778e-01 3.053885030035591308e-01 4.588668654857411267e-01 2.932550610138205394e-01 3.711207047545079796e-01 3.900241933495275370e-01 4.797233503447457040e-03 1.019983094321760042e+00 3.274791977502256035e-01 4.486353707508122790e-01 3.070128546603581587e-01 3.609209933844359508e-01 3.116659900024612018e-01 3.901214930048099716e-01 -1.058219454512351054e-01 2.229964743402187144e-01 3.286457131116242159e-01 7.127422101171914173e-03 4.261685161461402083e-01 1.111907200350199076e+00 9.526795710565243436e-01 -7.325308423326427620e-01 -3.552046815399431123e-01 6.510148528493477915e-01 -3.295438919404450218e+00 1.563617150104003484e+00 2.640679478670597269e-01 7.783563356850967466e-03 3.128285284048525350e-01 8.818776212320422747e-01 3.133391857035504602e-01 3.955201521684523214e-01 -4.363541531615957036e-01 8.261225082836042288e-01 2.778487237094379170e-01 8.816287750218337882e-01 2.076483508247235044e+00 -3.773309048433788337e-01 -1.447601618286098235e+00 2.456942853458932707e-01 3.153326047471406990e-01 7.686293455630549554e-01 3.443326172413926911e-01 7.039024071298052299e-01 4.690989385868624129e-01 1.917011719471993780e-01 3.146847216889470666e-01 3.069044665562958296e-01 2.266200866064350949e-01 3.253936560235690667e-01 1.396302302928586370e+00 1.613265761028227274e+00 3.204472023524309043e-01 2.654356496318061032e-01 9.123454578750411770e-02 -2.403737145852330725e-01 2.078990046559129889e-01 -1.268466883640013108e-02 3.150204716660455206e-01 7.070135400595247699e-01 -4.652761657282358243e-01 2.814129125697950040e-01 3.023689196684745673e-01 1.537372481553746506e-01 3.277924514319551230e-01 2.410972583271601410e-01 3.149804585127378154e-01 3.134731943918482311e-01 -3.686804567661121357e-03 2.651409593752242499e-01 4.387644904700478965e-01 1.113402928199134889e+00 1.101660648632476258e+00 9.319243839905687610e-01 1.953307621924078585e-01 7.779868341859573766e-01 1.356442823302791145e-01 4.721954376974653034e-01 -2.099012066476495963e+00 3.009454373852083475e-01 6.546141301893219078e-01 2.756836947664317861e-01 9.555115652106912494e-01 1.363577074209108009e+00 2.113703022765917316e-01 2.737617681804204728e-01 3.734462080150974805e-01 2.951557045480540653e-01 5.530477543061993462e-01 8.608985732658600565e-01 -7.716339926808289951e-01 1.693706103439461264e-01 8.935421211703262201e-02 3.160817119781134110e-01 3.425625442149961009e-01 7.708683141013005224e-01 -1.972638647858451777e-01 3.956834797275134430e-01 3.061778902158923676e-01 3.306365286954559002e-01 8.892807199048354816e-01 4.261325137623749315e-01 -2.098190307311115499e-01 8.593401862669080016e-01 -4.599835517544467733e-02 5.723030349579558695e-01 2.613645402569395593e-01 1.281282554270472440e+00 5.675310295527941085e-01 7.306447542827889663e-01 4.386987555810905604e-01 4.854732444922174595e-01 -5.407381702512652488e-01 2.592344478917623651e-01 7.630981262568433676e-01 3.193051855544535300e-01 6.320253707066187943e-01 2.598531406187478132e-01 3.084501260456197214e-01 7.291599740759207027e-01 1.371480311834476218e-01 -2.036271508474999159e+00 2.359478991927164704e-01 2.728878163237840049e-01 8.089144755341336479e-01 3.939638629612030596e-01 4.046684150113870615e-01 3.258225374691848253e-01 2.831108308424077347e-01 3.787998084087856321e-01 5.197833585292219866e-02 -1.616376042316515882e+00 7.506023589487500480e-01 2.563241682456935955e-01 3.321017173652905385e-01 1.986635444827999641e-01 8.231040023962961083e-01 3.129145929783198610e-01 -1.393126360539101438e-01 3.260235652611097601e-01 1.118459329806511970e+00 2.714878609144260602e-01 4.152216130144895101e-01 1.057521479754056193e+00 3.617425669721874293e-01 2.756555383213966426e+00 3.369075562210370745e-01 3.170864115947256145e-01 6.924791352356424179e-01 2.935770935068106602e-01 3.098086875331493850e-01 -2.072648458987858433e+00 4.127906445505061250e-01 3.294560584125944547e-01 5.146313147399476096e-01 3.212863430851505275e-01 2.407897536116734016e-01 -2.197015602776651866e-01 2.040311442224316263e+00 -5.200343676435005280e-01 8.287346012546973339e-01 3.121342482488639325e-01 3.370102323904832220e-01 7.924636127399075081e-01 3.635664605917827141e-01 1.326321321094731776e+00 1.828566525026661116e-01 3.200269752687013858e-01 -8.816652377710875177e-01 -1.327307784383217892e-01 -3.884781114151914516e-01 -3.904043068188248977e+00 2.931759805267374563e+00 4.820856537091386396e-02 3.273477512326085637e-01 -1.612154171519741164e+00 3.163375252493509926e-01 2.933786688603978177e-01 2.809709811120014167e-01 1.523721819071626737e-01 6.396017730181187133e-01 5.965515146297986071e-01 1.024791276611914936e+00 -3.552046836889344861e-01 -2.221425955572773892e-01 2.152155538723749817e-01 -1.181964755061789329e+00 2.719221503200514589e-01 -6.401046667069076879e-01 2.854918643248366417e-01 4.678437140221494706e-01 6.387184258367817336e-02 4.394623542778792191e-01 2.693733822371911502e-01 -7.797152467106165108e-02 2.094851799393517289e-01 2.963333873566820764e-01 3.586652524976694512e-01 3.022722546183032599e-01 3.162209915281740114e-01 -7.325837397330922096e-01 5.419122376970040289e-01 1.533935597967333697e+00 6.243864883261579513e-02 2.397000229448643105e-01 3.813333527850860105e-01 1.210807696002972333e+00 3.210208445733244154e-01 1.349879829579441748e-01 8.938210274714926129e-01 2.938223342898341750e-01 1.850594508701545626e+00 3.090617824785025780e-01 1.249809341960125053e+00 3.287994889853564362e-01 7.366025603947377043e-01 1.347296445065363724e+00 3.286223076188807823e-01 3.963024625539170454e-01 9.218385059732965292e-01 -1.880486755038695557e-01 -5.542599954414789004e-02 1.887574914372106283e-01 2.992176274757340493e-01 3.519336937507060448e-01 1.426076489242664169e-01 1.871636810776378390e-01 -3.619039263079775193e-01 1.292569616447314162e+00 2.766571962357359804e-01 3.140409630099853522e-01 -3.150692572690953597e+00 5.172583202550506964e-01 3.270859727077886636e-01 4.309904717178734690e-01 4.200265312466867074e-01 4.858778991512039958e-01 -1.068604147556557082e+00 6.115002734966850095e-01 2.780791633959123210e-01 3.048703987504733370e-01 1.035312751908964435e+00 4.535558702132911901e-01 3.055498635836063070e-01 -1.394842383647696860e+00 4.221055741205522738e-01 8.891972185963160635e-01 2.931305837588181196e-01 3.229164365028512340e-01 3.611319038795037240e-01 7.084114917182997573e-01 -7.278784048634140413e-02 3.119243676521605280e-01 3.008461329423828823e-01 7.778635222487439993e-02 6.813347734449485271e-01 3.384269208149052188e-01 7.231858088801917939e-01 1.710775211493541503e-01 6.879282824551398168e-01 -2.229197697046101934e-01 -1.505017834860315595e+00 3.243603996674874757e-01 -1.704389314415325971e-02 3.342047399257562779e-01 3.743410294140984140e-01 5.470154127218606471e-02 5.353320148130983336e-01 3.040205950747639774e-01 8.462864748702061957e-02 4.534179498584045009e-01 2.480531258150994733e-01 3.295305851948598930e-01 2.720798681525598561e-01 -8.261130327259224027e-01 3.213877871541734321e-01 3.466960836138402446e-01 3.036979082132336138e-01 -1.808569913059157597e-01 3.140192424751728217e-01 8.098434709998693082e-01 -5.359076552182269193e-01 1.106136796592843696e+00 6.081792056750797704e-01 2.472138854665544561e-01 3.118864873340614352e-01 -2.034586685660950245e+00 3.304821396263228905e-01 1.910074098854127322e-01 2.509402186470173768e-01 5.353319973253626296e-01 3.097260631653175333e-01 2.757473399687901394e-01 9.067151072553740476e-02 3.153242292950586001e-01 4.361067969711599490e-01 3.956466890810721448e-01 3.328625065788316517e-01 2.954632093280673555e-01 3.125886088771325788e-01 3.069072380765513475e-01 2.673527014385680967e-01 5.062242879931046213e-02 3.085595217415899039e-01 6.065431055299643770e-01 2.004956046991575036e-01 3.254129562937072562e-01 -1.311928425891469574e-01 1.509486861207121611e-01 5.548972310191941926e-01 4.420721681977621387e+00 3.244363474435629779e-01 1.063508223218170151e-01 5.429465010423019100e-01 1.991550940210852771e-01 1.544688948754497249e+00 3.565728495584240543e-01 6.513961843212026093e-01 3.106557866052980232e-01
