# 
#                 ----------------------------------------------------
#                 Data from a 3D direct N-body simulation. 
# 
#                 rows are i-particle; 
#                 coumns are :mass, tag, x ,y, z, vx, vy, vz, ax, ay, az
# 
#                 NTHU, Computational Physics 
# 
#                 ----------------------------------------------------
#                 Time = 0.0
0.000000000000000000e+00 1.000000000000000000e+00 2.000000000000000000e+00 3.000000000000000000e+00 4.000000000000000000e+00 5.000000000000000000e+00 6.000000000000000000e+00 7.000000000000000000e+00 8.000000000000000000e+00 9.000000000000000000e+00 1.000000000000000000e+01 1.100000000000000000e+01 1.200000000000000000e+01 1.300000000000000000e+01 1.400000000000000000e+01 1.500000000000000000e+01 1.600000000000000000e+01 1.700000000000000000e+01 1.800000000000000000e+01 1.900000000000000000e+01 2.000000000000000000e+01 2.100000000000000000e+01 2.200000000000000000e+01 2.300000000000000000e+01 2.400000000000000000e+01 2.500000000000000000e+01 2.600000000000000000e+01 2.700000000000000000e+01 2.800000000000000000e+01 2.900000000000000000e+01 3.000000000000000000e+01 3.100000000000000000e+01 3.200000000000000000e+01 3.300000000000000000e+01 3.400000000000000000e+01 3.500000000000000000e+01 3.600000000000000000e+01 3.700000000000000000e+01 3.800000000000000000e+01 3.900000000000000000e+01 4.000000000000000000e+01 4.100000000000000000e+01 4.200000000000000000e+01 4.300000000000000000e+01 4.400000000000000000e+01 4.500000000000000000e+01 4.600000000000000000e+01 4.700000000000000000e+01 4.800000000000000000e+01 4.900000000000000000e+01 5.000000000000000000e+01 5.100000000000000000e+01 5.200000000000000000e+01 5.300000000000000000e+01 5.400000000000000000e+01 5.500000000000000000e+01 5.600000000000000000e+01 5.700000000000000000e+01 5.800000000000000000e+01 5.900000000000000000e+01 6.000000000000000000e+01 6.100000000000000000e+01 6.200000000000000000e+01 6.300000000000000000e+01 6.400000000000000000e+01 6.500000000000000000e+01 6.600000000000000000e+01 6.700000000000000000e+01 6.800000000000000000e+01 6.900000000000000000e+01 7.000000000000000000e+01 7.100000000000000000e+01 7.200000000000000000e+01 7.300000000000000000e+01 7.400000000000000000e+01 7.500000000000000000e+01 7.600000000000000000e+01 7.700000000000000000e+01 7.800000000000000000e+01 7.900000000000000000e+01 8.000000000000000000e+01 8.100000000000000000e+01 8.200000000000000000e+01 8.300000000000000000e+01 8.400000000000000000e+01 8.500000000000000000e+01 8.600000000000000000e+01 8.700000000000000000e+01 8.800000000000000000e+01 8.900000000000000000e+01 9.000000000000000000e+01 9.100000000000000000e+01 9.200000000000000000e+01 9.300000000000000000e+01 9.400000000000000000e+01 9.500000000000000000e+01 9.600000000000000000e+01 9.700000000000000000e+01 9.800000000000000000e+01 9.900000000000000000e+01 1.000000000000000000e+02 1.010000000000000000e+02 1.020000000000000000e+02 1.030000000000000000e+02 1.040000000000000000e+02 1.050000000000000000e+02 1.060000000000000000e+02 1.070000000000000000e+02 1.080000000000000000e+02 1.090000000000000000e+02 1.100000000000000000e+02 1.110000000000000000e+02 1.120000000000000000e+02 1.130000000000000000e+02 1.140000000000000000e+02 1.150000000000000000e+02 1.160000000000000000e+02 1.170000000000000000e+02 1.180000000000000000e+02 1.190000000000000000e+02 1.200000000000000000e+02 1.210000000000000000e+02 1.220000000000000000e+02 1.230000000000000000e+02 1.240000000000000000e+02 1.250000000000000000e+02 1.260000000000000000e+02 1.270000000000000000e+02 1.280000000000000000e+02 1.290000000000000000e+02 1.300000000000000000e+02 1.310000000000000000e+02 1.320000000000000000e+02 1.330000000000000000e+02 1.340000000000000000e+02 1.350000000000000000e+02 1.360000000000000000e+02 1.370000000000000000e+02 1.380000000000000000e+02 1.390000000000000000e+02 1.400000000000000000e+02 1.410000000000000000e+02 1.420000000000000000e+02 1.430000000000000000e+02 1.440000000000000000e+02 1.450000000000000000e+02 1.460000000000000000e+02 1.470000000000000000e+02 1.480000000000000000e+02 1.490000000000000000e+02 1.500000000000000000e+02 1.510000000000000000e+02 1.520000000000000000e+02 1.530000000000000000e+02 1.540000000000000000e+02 1.550000000000000000e+02 1.560000000000000000e+02 1.570000000000000000e+02 1.580000000000000000e+02 1.590000000000000000e+02 1.600000000000000000e+02 1.610000000000000000e+02 1.620000000000000000e+02 1.630000000000000000e+02 1.640000000000000000e+02 1.650000000000000000e+02 1.660000000000000000e+02 1.670000000000000000e+02 1.680000000000000000e+02 1.690000000000000000e+02 1.700000000000000000e+02 1.710000000000000000e+02 1.720000000000000000e+02 1.730000000000000000e+02 1.740000000000000000e+02 1.750000000000000000e+02 1.760000000000000000e+02 1.770000000000000000e+02 1.780000000000000000e+02 1.790000000000000000e+02 1.800000000000000000e+02 1.810000000000000000e+02 1.820000000000000000e+02 1.830000000000000000e+02 1.840000000000000000e+02 1.850000000000000000e+02 1.860000000000000000e+02 1.870000000000000000e+02 1.880000000000000000e+02 1.890000000000000000e+02 1.900000000000000000e+02 1.910000000000000000e+02 1.920000000000000000e+02 1.930000000000000000e+02 1.940000000000000000e+02 1.950000000000000000e+02 1.960000000000000000e+02 1.970000000000000000e+02 1.980000000000000000e+02 1.990000000000000000e+02 2.000000000000000000e+02 2.010000000000000000e+02 2.020000000000000000e+02 2.030000000000000000e+02 2.040000000000000000e+02 2.050000000000000000e+02 2.060000000000000000e+02 2.070000000000000000e+02 2.080000000000000000e+02 2.090000000000000000e+02 2.100000000000000000e+02 2.110000000000000000e+02 2.120000000000000000e+02 2.130000000000000000e+02 2.140000000000000000e+02 2.150000000000000000e+02 2.160000000000000000e+02 2.170000000000000000e+02 2.180000000000000000e+02 2.190000000000000000e+02 2.200000000000000000e+02 2.210000000000000000e+02 2.220000000000000000e+02 2.230000000000000000e+02 2.240000000000000000e+02 2.250000000000000000e+02 2.260000000000000000e+02 2.270000000000000000e+02 2.280000000000000000e+02 2.290000000000000000e+02 2.300000000000000000e+02 2.310000000000000000e+02 2.320000000000000000e+02 2.330000000000000000e+02 2.340000000000000000e+02 2.350000000000000000e+02 2.360000000000000000e+02 2.370000000000000000e+02 2.380000000000000000e+02 2.390000000000000000e+02 2.400000000000000000e+02 2.410000000000000000e+02 2.420000000000000000e+02 2.430000000000000000e+02 2.440000000000000000e+02 2.450000000000000000e+02 2.460000000000000000e+02 2.470000000000000000e+02 2.480000000000000000e+02 2.490000000000000000e+02 2.500000000000000000e+02 2.510000000000000000e+02 2.520000000000000000e+02 2.530000000000000000e+02 2.540000000000000000e+02 2.550000000000000000e+02 2.560000000000000000e+02 2.570000000000000000e+02 2.580000000000000000e+02 2.590000000000000000e+02 2.600000000000000000e+02 2.610000000000000000e+02 2.620000000000000000e+02 2.630000000000000000e+02 2.640000000000000000e+02 2.650000000000000000e+02 2.660000000000000000e+02 2.670000000000000000e+02 2.680000000000000000e+02 2.690000000000000000e+02 2.700000000000000000e+02 2.710000000000000000e+02 2.720000000000000000e+02 2.730000000000000000e+02 2.740000000000000000e+02 2.750000000000000000e+02 2.760000000000000000e+02 2.770000000000000000e+02 2.780000000000000000e+02 2.790000000000000000e+02 2.800000000000000000e+02 2.810000000000000000e+02 2.820000000000000000e+02 2.830000000000000000e+02 2.840000000000000000e+02 2.850000000000000000e+02 2.860000000000000000e+02 2.870000000000000000e+02 2.880000000000000000e+02 2.890000000000000000e+02 2.900000000000000000e+02 2.910000000000000000e+02 2.920000000000000000e+02 2.930000000000000000e+02 2.940000000000000000e+02 2.950000000000000000e+02 2.960000000000000000e+02 2.970000000000000000e+02 2.980000000000000000e+02 2.990000000000000000e+02 3.000000000000000000e+02 3.010000000000000000e+02 3.020000000000000000e+02 3.030000000000000000e+02 3.040000000000000000e+02 3.050000000000000000e+02 3.060000000000000000e+02 3.070000000000000000e+02 3.080000000000000000e+02 3.090000000000000000e+02 3.100000000000000000e+02 3.110000000000000000e+02 3.120000000000000000e+02 3.130000000000000000e+02 3.140000000000000000e+02 3.150000000000000000e+02 3.160000000000000000e+02 3.170000000000000000e+02 3.180000000000000000e+02 3.190000000000000000e+02 3.200000000000000000e+02 3.210000000000000000e+02 3.220000000000000000e+02 3.230000000000000000e+02 3.240000000000000000e+02 3.250000000000000000e+02 3.260000000000000000e+02 3.270000000000000000e+02 3.280000000000000000e+02 3.290000000000000000e+02 3.300000000000000000e+02 3.310000000000000000e+02 3.320000000000000000e+02 3.330000000000000000e+02 3.340000000000000000e+02 3.350000000000000000e+02 3.360000000000000000e+02 3.370000000000000000e+02 3.380000000000000000e+02 3.390000000000000000e+02 3.400000000000000000e+02 3.410000000000000000e+02 3.420000000000000000e+02 3.430000000000000000e+02 3.440000000000000000e+02 3.450000000000000000e+02 3.460000000000000000e+02 3.470000000000000000e+02 3.480000000000000000e+02 3.490000000000000000e+02 3.500000000000000000e+02 3.510000000000000000e+02 3.520000000000000000e+02 3.530000000000000000e+02 3.540000000000000000e+02 3.550000000000000000e+02 3.560000000000000000e+02 3.570000000000000000e+02 3.580000000000000000e+02 3.590000000000000000e+02 3.600000000000000000e+02 3.610000000000000000e+02 3.620000000000000000e+02 3.630000000000000000e+02 3.640000000000000000e+02 3.650000000000000000e+02 3.660000000000000000e+02 3.670000000000000000e+02 3.680000000000000000e+02 3.690000000000000000e+02 3.700000000000000000e+02 3.710000000000000000e+02 3.720000000000000000e+02 3.730000000000000000e+02 3.740000000000000000e+02 3.750000000000000000e+02 3.760000000000000000e+02 3.770000000000000000e+02 3.780000000000000000e+02 3.790000000000000000e+02 3.800000000000000000e+02 3.810000000000000000e+02 3.820000000000000000e+02 3.830000000000000000e+02 3.840000000000000000e+02 3.850000000000000000e+02 3.860000000000000000e+02 3.870000000000000000e+02 3.880000000000000000e+02 3.890000000000000000e+02 3.900000000000000000e+02 3.910000000000000000e+02 3.920000000000000000e+02 3.930000000000000000e+02 3.940000000000000000e+02 3.950000000000000000e+02 3.960000000000000000e+02 3.970000000000000000e+02 3.980000000000000000e+02 3.990000000000000000e+02 4.000000000000000000e+02 4.010000000000000000e+02 4.020000000000000000e+02 4.030000000000000000e+02 4.040000000000000000e+02 4.050000000000000000e+02 4.060000000000000000e+02 4.070000000000000000e+02 4.080000000000000000e+02 4.090000000000000000e+02 4.100000000000000000e+02 4.110000000000000000e+02 4.120000000000000000e+02 4.130000000000000000e+02 4.140000000000000000e+02 4.150000000000000000e+02 4.160000000000000000e+02 4.170000000000000000e+02 4.180000000000000000e+02 4.190000000000000000e+02 4.200000000000000000e+02 4.210000000000000000e+02 4.220000000000000000e+02 4.230000000000000000e+02 4.240000000000000000e+02 4.250000000000000000e+02 4.260000000000000000e+02 4.270000000000000000e+02 4.280000000000000000e+02 4.290000000000000000e+02 4.300000000000000000e+02 4.310000000000000000e+02 4.320000000000000000e+02 4.330000000000000000e+02 4.340000000000000000e+02 4.350000000000000000e+02 4.360000000000000000e+02 4.370000000000000000e+02 4.380000000000000000e+02 4.390000000000000000e+02 4.400000000000000000e+02 4.410000000000000000e+02 4.420000000000000000e+02 4.430000000000000000e+02 4.440000000000000000e+02 4.450000000000000000e+02 4.460000000000000000e+02 4.470000000000000000e+02 4.480000000000000000e+02 4.490000000000000000e+02 4.500000000000000000e+02 4.510000000000000000e+02 4.520000000000000000e+02 4.530000000000000000e+02 4.540000000000000000e+02 4.550000000000000000e+02 4.560000000000000000e+02 4.570000000000000000e+02 4.580000000000000000e+02 4.590000000000000000e+02 4.600000000000000000e+02 4.610000000000000000e+02 4.620000000000000000e+02 4.630000000000000000e+02 4.640000000000000000e+02 4.650000000000000000e+02 4.660000000000000000e+02 4.670000000000000000e+02 4.680000000000000000e+02 4.690000000000000000e+02 4.700000000000000000e+02 4.710000000000000000e+02 4.720000000000000000e+02 4.730000000000000000e+02 4.740000000000000000e+02 4.750000000000000000e+02 4.760000000000000000e+02 4.770000000000000000e+02 4.780000000000000000e+02 4.790000000000000000e+02 4.800000000000000000e+02 4.810000000000000000e+02 4.820000000000000000e+02 4.830000000000000000e+02 4.840000000000000000e+02 4.850000000000000000e+02 4.860000000000000000e+02 4.870000000000000000e+02 4.880000000000000000e+02 4.890000000000000000e+02 4.900000000000000000e+02 4.910000000000000000e+02 4.920000000000000000e+02 4.930000000000000000e+02 4.940000000000000000e+02 4.950000000000000000e+02 4.960000000000000000e+02 4.970000000000000000e+02 4.980000000000000000e+02 4.990000000000000000e+02 5.000000000000000000e+02 5.010000000000000000e+02 5.020000000000000000e+02 5.030000000000000000e+02 5.040000000000000000e+02 5.050000000000000000e+02 5.060000000000000000e+02 5.070000000000000000e+02 5.080000000000000000e+02 5.090000000000000000e+02 5.100000000000000000e+02 5.110000000000000000e+02 5.120000000000000000e+02 5.130000000000000000e+02 5.140000000000000000e+02 5.150000000000000000e+02 5.160000000000000000e+02 5.170000000000000000e+02 5.180000000000000000e+02 5.190000000000000000e+02 5.200000000000000000e+02 5.210000000000000000e+02 5.220000000000000000e+02 5.230000000000000000e+02 5.240000000000000000e+02 5.250000000000000000e+02 5.260000000000000000e+02 5.270000000000000000e+02 5.280000000000000000e+02 5.290000000000000000e+02 5.300000000000000000e+02 5.310000000000000000e+02 5.320000000000000000e+02 5.330000000000000000e+02 5.340000000000000000e+02 5.350000000000000000e+02 5.360000000000000000e+02 5.370000000000000000e+02 5.380000000000000000e+02 5.390000000000000000e+02 5.400000000000000000e+02 5.410000000000000000e+02 5.420000000000000000e+02 5.430000000000000000e+02 5.440000000000000000e+02 5.450000000000000000e+02 5.460000000000000000e+02 5.470000000000000000e+02 5.480000000000000000e+02 5.490000000000000000e+02 5.500000000000000000e+02 5.510000000000000000e+02 5.520000000000000000e+02 5.530000000000000000e+02 5.540000000000000000e+02 5.550000000000000000e+02 5.560000000000000000e+02 5.570000000000000000e+02 5.580000000000000000e+02 5.590000000000000000e+02 5.600000000000000000e+02 5.610000000000000000e+02 5.620000000000000000e+02 5.630000000000000000e+02 5.640000000000000000e+02 5.650000000000000000e+02 5.660000000000000000e+02 5.670000000000000000e+02 5.680000000000000000e+02 5.690000000000000000e+02 5.700000000000000000e+02 5.710000000000000000e+02 5.720000000000000000e+02 5.730000000000000000e+02 5.740000000000000000e+02 5.750000000000000000e+02 5.760000000000000000e+02 5.770000000000000000e+02 5.780000000000000000e+02 5.790000000000000000e+02 5.800000000000000000e+02 5.810000000000000000e+02 5.820000000000000000e+02 5.830000000000000000e+02 5.840000000000000000e+02 5.850000000000000000e+02 5.860000000000000000e+02 5.870000000000000000e+02 5.880000000000000000e+02 5.890000000000000000e+02 5.900000000000000000e+02 5.910000000000000000e+02 5.920000000000000000e+02 5.930000000000000000e+02 5.940000000000000000e+02 5.950000000000000000e+02 5.960000000000000000e+02 5.970000000000000000e+02 5.980000000000000000e+02 5.990000000000000000e+02 6.000000000000000000e+02 6.010000000000000000e+02 6.020000000000000000e+02 6.030000000000000000e+02 6.040000000000000000e+02 6.050000000000000000e+02 6.060000000000000000e+02 6.070000000000000000e+02 6.080000000000000000e+02 6.090000000000000000e+02 6.100000000000000000e+02 6.110000000000000000e+02 6.120000000000000000e+02 6.130000000000000000e+02 6.140000000000000000e+02 6.150000000000000000e+02 6.160000000000000000e+02 6.170000000000000000e+02 6.180000000000000000e+02 6.190000000000000000e+02 6.200000000000000000e+02 6.210000000000000000e+02 6.220000000000000000e+02 6.230000000000000000e+02 6.240000000000000000e+02 6.250000000000000000e+02 6.260000000000000000e+02 6.270000000000000000e+02 6.280000000000000000e+02 6.290000000000000000e+02 6.300000000000000000e+02 6.310000000000000000e+02 6.320000000000000000e+02 6.330000000000000000e+02 6.340000000000000000e+02 6.350000000000000000e+02 6.360000000000000000e+02 6.370000000000000000e+02 6.380000000000000000e+02 6.390000000000000000e+02 6.400000000000000000e+02 6.410000000000000000e+02 6.420000000000000000e+02 6.430000000000000000e+02 6.440000000000000000e+02 6.450000000000000000e+02 6.460000000000000000e+02 6.470000000000000000e+02 6.480000000000000000e+02 6.490000000000000000e+02 6.500000000000000000e+02 6.510000000000000000e+02 6.520000000000000000e+02 6.530000000000000000e+02 6.540000000000000000e+02 6.550000000000000000e+02 6.560000000000000000e+02 6.570000000000000000e+02 6.580000000000000000e+02 6.590000000000000000e+02 6.600000000000000000e+02 6.610000000000000000e+02 6.620000000000000000e+02 6.630000000000000000e+02 6.640000000000000000e+02 6.650000000000000000e+02 6.660000000000000000e+02 6.670000000000000000e+02 6.680000000000000000e+02 6.690000000000000000e+02 6.700000000000000000e+02 6.710000000000000000e+02 6.720000000000000000e+02 6.730000000000000000e+02 6.740000000000000000e+02 6.750000000000000000e+02 6.760000000000000000e+02 6.770000000000000000e+02 6.780000000000000000e+02 6.790000000000000000e+02 6.800000000000000000e+02 6.810000000000000000e+02 6.820000000000000000e+02 6.830000000000000000e+02 6.840000000000000000e+02 6.850000000000000000e+02 6.860000000000000000e+02 6.870000000000000000e+02 6.880000000000000000e+02 6.890000000000000000e+02 6.900000000000000000e+02 6.910000000000000000e+02 6.920000000000000000e+02 6.930000000000000000e+02 6.940000000000000000e+02 6.950000000000000000e+02 6.960000000000000000e+02 6.970000000000000000e+02 6.980000000000000000e+02 6.990000000000000000e+02 7.000000000000000000e+02 7.010000000000000000e+02 7.020000000000000000e+02 7.030000000000000000e+02 7.040000000000000000e+02 7.050000000000000000e+02 7.060000000000000000e+02 7.070000000000000000e+02 7.080000000000000000e+02 7.090000000000000000e+02 7.100000000000000000e+02 7.110000000000000000e+02 7.120000000000000000e+02 7.130000000000000000e+02 7.140000000000000000e+02 7.150000000000000000e+02 7.160000000000000000e+02 7.170000000000000000e+02 7.180000000000000000e+02 7.190000000000000000e+02 7.200000000000000000e+02 7.210000000000000000e+02 7.220000000000000000e+02 7.230000000000000000e+02 7.240000000000000000e+02 7.250000000000000000e+02 7.260000000000000000e+02 7.270000000000000000e+02 7.280000000000000000e+02 7.290000000000000000e+02 7.300000000000000000e+02 7.310000000000000000e+02 7.320000000000000000e+02 7.330000000000000000e+02 7.340000000000000000e+02 7.350000000000000000e+02 7.360000000000000000e+02 7.370000000000000000e+02 7.380000000000000000e+02 7.390000000000000000e+02 7.400000000000000000e+02 7.410000000000000000e+02 7.420000000000000000e+02 7.430000000000000000e+02 7.440000000000000000e+02 7.450000000000000000e+02 7.460000000000000000e+02 7.470000000000000000e+02 7.480000000000000000e+02 7.490000000000000000e+02 7.500000000000000000e+02 7.510000000000000000e+02 7.520000000000000000e+02 7.530000000000000000e+02 7.540000000000000000e+02 7.550000000000000000e+02 7.560000000000000000e+02 7.570000000000000000e+02 7.580000000000000000e+02 7.590000000000000000e+02 7.600000000000000000e+02 7.610000000000000000e+02 7.620000000000000000e+02 7.630000000000000000e+02 7.640000000000000000e+02 7.650000000000000000e+02 7.660000000000000000e+02 7.670000000000000000e+02 7.680000000000000000e+02 7.690000000000000000e+02 7.700000000000000000e+02 7.710000000000000000e+02 7.720000000000000000e+02 7.730000000000000000e+02 7.740000000000000000e+02 7.750000000000000000e+02 7.760000000000000000e+02 7.770000000000000000e+02 7.780000000000000000e+02 7.790000000000000000e+02 7.800000000000000000e+02 7.810000000000000000e+02 7.820000000000000000e+02 7.830000000000000000e+02 7.840000000000000000e+02 7.850000000000000000e+02 7.860000000000000000e+02 7.870000000000000000e+02 7.880000000000000000e+02 7.890000000000000000e+02 7.900000000000000000e+02 7.910000000000000000e+02 7.920000000000000000e+02 7.930000000000000000e+02 7.940000000000000000e+02 7.950000000000000000e+02 7.960000000000000000e+02 7.970000000000000000e+02 7.980000000000000000e+02 7.990000000000000000e+02 8.000000000000000000e+02 8.010000000000000000e+02 8.020000000000000000e+02 8.030000000000000000e+02 8.040000000000000000e+02 8.050000000000000000e+02 8.060000000000000000e+02 8.070000000000000000e+02 8.080000000000000000e+02 8.090000000000000000e+02 8.100000000000000000e+02 8.110000000000000000e+02 8.120000000000000000e+02 8.130000000000000000e+02 8.140000000000000000e+02 8.150000000000000000e+02 8.160000000000000000e+02 8.170000000000000000e+02 8.180000000000000000e+02 8.190000000000000000e+02 8.200000000000000000e+02 8.210000000000000000e+02 8.220000000000000000e+02 8.230000000000000000e+02 8.240000000000000000e+02 8.250000000000000000e+02 8.260000000000000000e+02 8.270000000000000000e+02 8.280000000000000000e+02 8.290000000000000000e+02 8.300000000000000000e+02 8.310000000000000000e+02 8.320000000000000000e+02 8.330000000000000000e+02 8.340000000000000000e+02 8.350000000000000000e+02 8.360000000000000000e+02 8.370000000000000000e+02 8.380000000000000000e+02 8.390000000000000000e+02 8.400000000000000000e+02 8.410000000000000000e+02 8.420000000000000000e+02 8.430000000000000000e+02 8.440000000000000000e+02 8.450000000000000000e+02 8.460000000000000000e+02 8.470000000000000000e+02 8.480000000000000000e+02 8.490000000000000000e+02 8.500000000000000000e+02 8.510000000000000000e+02 8.520000000000000000e+02 8.530000000000000000e+02 8.540000000000000000e+02 8.550000000000000000e+02 8.560000000000000000e+02 8.570000000000000000e+02 8.580000000000000000e+02 8.590000000000000000e+02 8.600000000000000000e+02 8.610000000000000000e+02 8.620000000000000000e+02 8.630000000000000000e+02 8.640000000000000000e+02 8.650000000000000000e+02 8.660000000000000000e+02 8.670000000000000000e+02 8.680000000000000000e+02 8.690000000000000000e+02 8.700000000000000000e+02 8.710000000000000000e+02 8.720000000000000000e+02 8.730000000000000000e+02 8.740000000000000000e+02 8.750000000000000000e+02 8.760000000000000000e+02 8.770000000000000000e+02 8.780000000000000000e+02 8.790000000000000000e+02 8.800000000000000000e+02 8.810000000000000000e+02 8.820000000000000000e+02 8.830000000000000000e+02 8.840000000000000000e+02 8.850000000000000000e+02 8.860000000000000000e+02 8.870000000000000000e+02 8.880000000000000000e+02 8.890000000000000000e+02 8.900000000000000000e+02 8.910000000000000000e+02 8.920000000000000000e+02 8.930000000000000000e+02 8.940000000000000000e+02 8.950000000000000000e+02 8.960000000000000000e+02 8.970000000000000000e+02 8.980000000000000000e+02 8.990000000000000000e+02 9.000000000000000000e+02 9.010000000000000000e+02 9.020000000000000000e+02 9.030000000000000000e+02 9.040000000000000000e+02 9.050000000000000000e+02 9.060000000000000000e+02 9.070000000000000000e+02 9.080000000000000000e+02 9.090000000000000000e+02 9.100000000000000000e+02 9.110000000000000000e+02 9.120000000000000000e+02 9.130000000000000000e+02 9.140000000000000000e+02 9.150000000000000000e+02 9.160000000000000000e+02 9.170000000000000000e+02 9.180000000000000000e+02 9.190000000000000000e+02 9.200000000000000000e+02 9.210000000000000000e+02 9.220000000000000000e+02 9.230000000000000000e+02 9.240000000000000000e+02 9.250000000000000000e+02 9.260000000000000000e+02 9.270000000000000000e+02 9.280000000000000000e+02 9.290000000000000000e+02 9.300000000000000000e+02 9.310000000000000000e+02 9.320000000000000000e+02 9.330000000000000000e+02 9.340000000000000000e+02 9.350000000000000000e+02 9.360000000000000000e+02 9.370000000000000000e+02 9.380000000000000000e+02 9.390000000000000000e+02 9.400000000000000000e+02 9.410000000000000000e+02 9.420000000000000000e+02 9.430000000000000000e+02 9.440000000000000000e+02 9.450000000000000000e+02 9.460000000000000000e+02 9.470000000000000000e+02 9.480000000000000000e+02 9.490000000000000000e+02 9.500000000000000000e+02 9.510000000000000000e+02 9.520000000000000000e+02 9.530000000000000000e+02 9.540000000000000000e+02 9.550000000000000000e+02 9.560000000000000000e+02 9.570000000000000000e+02 9.580000000000000000e+02 9.590000000000000000e+02 9.600000000000000000e+02 9.610000000000000000e+02 9.620000000000000000e+02 9.630000000000000000e+02 9.640000000000000000e+02 9.650000000000000000e+02 9.660000000000000000e+02 9.670000000000000000e+02 9.680000000000000000e+02 9.690000000000000000e+02 9.700000000000000000e+02 9.710000000000000000e+02 9.720000000000000000e+02 9.730000000000000000e+02 9.740000000000000000e+02 9.750000000000000000e+02 9.760000000000000000e+02 9.770000000000000000e+02 9.780000000000000000e+02 9.790000000000000000e+02 9.800000000000000000e+02 9.810000000000000000e+02 9.820000000000000000e+02 9.830000000000000000e+02 9.840000000000000000e+02 9.850000000000000000e+02 9.860000000000000000e+02 9.870000000000000000e+02 9.880000000000000000e+02 9.890000000000000000e+02 9.900000000000000000e+02 9.910000000000000000e+02 9.920000000000000000e+02 9.930000000000000000e+02 9.940000000000000000e+02 9.950000000000000000e+02 9.960000000000000000e+02 9.970000000000000000e+02 9.980000000000000000e+02 9.990000000000000000e+02
1.000000000000000000e+00 1.000000000000000000e+00 1.000000000000000000e+00 1.000000000000000000e+00 1.000000000000000000e+00 1.000000000000000000e+00 1.000000000000000000e+00 1.000000000000000000e+00 1.000000000000000000e+00 1.000000000000000000e+00 1.000000000000000000e+00 1.000000000000000000e+00 1.000000000000000000e+00 1.000000000000000000e+00 1.000000000000000000e+00 1.000000000000000000e+00 1.000000000000000000e+00 1.000000000000000000e+00 1.000000000000000000e+00 1.000000000000000000e+00 1.000000000000000000e+00 1.000000000000000000e+00 1.000000000000000000e+00 1.000000000000000000e+00 1.000000000000000000e+00 1.000000000000000000e+00 1.000000000000000000e+00 1.000000000000000000e+00 1.000000000000000000e+00 1.000000000000000000e+00 1.000000000000000000e+00 1.000000000000000000e+00 1.000000000000000000e+00 1.000000000000000000e+00 1.000000000000000000e+00 1.000000000000000000e+00 1.000000000000000000e+00 1.000000000000000000e+00 1.000000000000000000e+00 1.000000000000000000e+00 1.000000000000000000e+00 1.000000000000000000e+00 1.000000000000000000e+00 1.000000000000000000e+00 1.000000000000000000e+00 1.000000000000000000e+00 1.000000000000000000e+00 1.000000000000000000e+00 1.000000000000000000e+00 1.000000000000000000e+00 1.000000000000000000e+00 1.000000000000000000e+00 1.000000000000000000e+00 1.000000000000000000e+00 1.000000000000000000e+00 1.000000000000000000e+00 1.000000000000000000e+00 1.000000000000000000e+00 1.000000000000000000e+00 1.000000000000000000e+00 1.000000000000000000e+00 1.000000000000000000e+00 1.000000000000000000e+00 1.000000000000000000e+00 1.000000000000000000e+00 1.000000000000000000e+00 1.000000000000000000e+00 1.000000000000000000e+00 1.000000000000000000e+00 1.000000000000000000e+00 1.000000000000000000e+00 1.000000000000000000e+00 1.000000000000000000e+00 1.000000000000000000e+00 1.000000000000000000e+00 1.000000000000000000e+00 1.000000000000000000e+00 1.000000000000000000e+00 1.000000000000000000e+00 1.000000000000000000e+00 1.000000000000000000e+00 1.000000000000000000e+00 1.000000000000000000e+00 1.000000000000000000e+00 1.000000000000000000e+00 1.000000000000000000e+00 1.000000000000000000e+00 1.000000000000000000e+00 1.000000000000000000e+00 1.000000000000000000e+00 1.000000000000000000e+00 1.000000000000000000e+00 1.000000000000000000e+00 1.000000000000000000e+00 1.000000000000000000e+00 1.000000000000000000e+00 1.000000000000000000e+00 1.000000000000000000e+00 1.000000000000000000e+00 1.000000000000000000e+00 1.000000000000000000e+00 1.000000000000000000e+00 1.000000000000000000e+00 1.000000000000000000e+00 1.000000000000000000e+00 1.000000000000000000e+00 1.000000000000000000e+00 1.000000000000000000e+00 1.000000000000000000e+00 1.000000000000000000e+00 1.000000000000000000e+00 1.000000000000000000e+00 1.000000000000000000e+00 1.000000000000000000e+00 1.000000000000000000e+00 1.000000000000000000e+00 1.000000000000000000e+00 1.000000000000000000e+00 1.000000000000000000e+00 1.000000000000000000e+00 1.000000000000000000e+00 1.000000000000000000e+00 1.000000000000000000e+00 1.000000000000000000e+00 1.000000000000000000e+00 1.000000000000000000e+00 1.000000000000000000e+00 1.000000000000000000e+00 1.000000000000000000e+00 1.000000000000000000e+00 1.000000000000000000e+00 1.000000000000000000e+00 1.000000000000000000e+00 1.000000000000000000e+00 1.000000000000000000e+00 1.000000000000000000e+00 1.000000000000000000e+00 1.000000000000000000e+00 1.000000000000000000e+00 1.000000000000000000e+00 1.000000000000000000e+00 1.000000000000000000e+00 1.000000000000000000e+00 1.000000000000000000e+00 1.000000000000000000e+00 1.000000000000000000e+00 1.000000000000000000e+00 1.000000000000000000e+00 1.000000000000000000e+00 1.000000000000000000e+00 1.000000000000000000e+00 1.000000000000000000e+00 1.000000000000000000e+00 1.000000000000000000e+00 1.000000000000000000e+00 1.000000000000000000e+00 1.000000000000000000e+00 1.000000000000000000e+00 1.000000000000000000e+00 1.000000000000000000e+00 1.000000000000000000e+00 1.000000000000000000e+00 1.000000000000000000e+00 1.000000000000000000e+00 1.000000000000000000e+00 1.000000000000000000e+00 1.000000000000000000e+00 1.000000000000000000e+00 1.000000000000000000e+00 1.000000000000000000e+00 1.000000000000000000e+00 1.000000000000000000e+00 1.000000000000000000e+00 1.000000000000000000e+00 1.000000000000000000e+00 1.000000000000000000e+00 1.000000000000000000e+00 1.000000000000000000e+00 1.000000000000000000e+00 1.000000000000000000e+00 1.000000000000000000e+00 1.000000000000000000e+00 1.000000000000000000e+00 1.000000000000000000e+00 1.000000000000000000e+00 1.000000000000000000e+00 1.000000000000000000e+00 1.000000000000000000e+00 1.000000000000000000e+00 1.000000000000000000e+00 1.000000000000000000e+00 1.000000000000000000e+00 1.000000000000000000e+00 1.000000000000000000e+00 1.000000000000000000e+00 1.000000000000000000e+00 1.000000000000000000e+00 1.000000000000000000e+00 1.000000000000000000e+00 1.000000000000000000e+00 1.000000000000000000e+00 1.000000000000000000e+00 1.000000000000000000e+00 1.000000000000000000e+00 1.000000000000000000e+00 1.000000000000000000e+00 1.000000000000000000e+00 1.000000000000000000e+00 1.000000000000000000e+00 1.000000000000000000e+00 1.000000000000000000e+00 1.000000000000000000e+00 1.000000000000000000e+00 1.000000000000000000e+00 1.000000000000000000e+00 1.000000000000000000e+00 1.000000000000000000e+00 1.000000000000000000e+00 1.000000000000000000e+00 1.000000000000000000e+00 1.000000000000000000e+00 1.000000000000000000e+00 1.000000000000000000e+00 1.000000000000000000e+00 1.000000000000000000e+00 1.000000000000000000e+00 1.000000000000000000e+00 1.000000000000000000e+00 1.000000000000000000e+00 1.000000000000000000e+00 1.000000000000000000e+00 1.000000000000000000e+00 1.000000000000000000e+00 1.000000000000000000e+00 1.000000000000000000e+00 1.000000000000000000e+00 1.000000000000000000e+00 1.000000000000000000e+00 1.000000000000000000e+00 1.000000000000000000e+00 1.000000000000000000e+00 1.000000000000000000e+00 1.000000000000000000e+00 1.000000000000000000e+00 1.000000000000000000e+00 1.000000000000000000e+00 1.000000000000000000e+00 1.000000000000000000e+00 1.000000000000000000e+00 1.000000000000000000e+00 1.000000000000000000e+00 1.000000000000000000e+00 1.000000000000000000e+00 1.000000000000000000e+00 1.000000000000000000e+00 1.000000000000000000e+00 1.000000000000000000e+00 1.000000000000000000e+00 1.000000000000000000e+00 1.000000000000000000e+00 1.000000000000000000e+00 1.000000000000000000e+00 1.000000000000000000e+00 1.000000000000000000e+00 1.000000000000000000e+00 1.000000000000000000e+00 1.000000000000000000e+00 1.000000000000000000e+00 1.000000000000000000e+00 1.000000000000000000e+00 1.000000000000000000e+00 1.000000000000000000e+00 1.000000000000000000e+00 1.000000000000000000e+00 1.000000000000000000e+00 1.000000000000000000e+00 1.000000000000000000e+00 1.000000000000000000e+00 1.000000000000000000e+00 1.000000000000000000e+00 1.000000000000000000e+00 1.000000000000000000e+00 1.000000000000000000e+00 1.000000000000000000e+00 1.000000000000000000e+00 1.000000000000000000e+00 1.000000000000000000e+00 1.000000000000000000e+00 1.000000000000000000e+00 1.000000000000000000e+00 1.000000000000000000e+00 1.000000000000000000e+00 1.000000000000000000e+00 1.000000000000000000e+00 1.000000000000000000e+00 1.000000000000000000e+00 1.000000000000000000e+00 1.000000000000000000e+00 1.000000000000000000e+00 1.000000000000000000e+00 1.000000000000000000e+00 1.000000000000000000e+00 1.000000000000000000e+00 1.000000000000000000e+00 1.000000000000000000e+00 1.000000000000000000e+00 1.000000000000000000e+00 1.000000000000000000e+00 1.000000000000000000e+00 1.000000000000000000e+00 1.000000000000000000e+00 1.000000000000000000e+00 1.000000000000000000e+00 1.000000000000000000e+00 1.000000000000000000e+00 1.000000000000000000e+00 1.000000000000000000e+00 1.000000000000000000e+00 1.000000000000000000e+00 1.000000000000000000e+00 1.000000000000000000e+00 1.000000000000000000e+00 1.000000000000000000e+00 1.000000000000000000e+00 1.000000000000000000e+00 1.000000000000000000e+00 1.000000000000000000e+00 1.000000000000000000e+00 1.000000000000000000e+00 1.000000000000000000e+00 1.000000000000000000e+00 1.000000000000000000e+00 1.000000000000000000e+00 1.000000000000000000e+00 1.000000000000000000e+00 1.000000000000000000e+00 1.000000000000000000e+00 1.000000000000000000e+00 1.000000000000000000e+00 1.000000000000000000e+00 1.000000000000000000e+00 1.000000000000000000e+00 1.000000000000000000e+00 1.000000000000000000e+00 1.000000000000000000e+00 1.000000000000000000e+00 1.000000000000000000e+00 1.000000000000000000e+00 1.000000000000000000e+00 1.000000000000000000e+00 1.000000000000000000e+00 1.000000000000000000e+00 1.000000000000000000e+00 1.000000000000000000e+00 1.000000000000000000e+00 1.000000000000000000e+00 1.000000000000000000e+00 1.000000000000000000e+00 1.000000000000000000e+00 1.000000000000000000e+00 1.000000000000000000e+00 1.000000000000000000e+00 1.000000000000000000e+00 1.000000000000000000e+00 1.000000000000000000e+00 1.000000000000000000e+00 1.000000000000000000e+00 1.000000000000000000e+00 1.000000000000000000e+00 1.000000000000000000e+00 1.000000000000000000e+00 1.000000000000000000e+00 1.000000000000000000e+00 1.000000000000000000e+00 1.000000000000000000e+00 1.000000000000000000e+00 1.000000000000000000e+00 1.000000000000000000e+00 1.000000000000000000e+00 1.000000000000000000e+00 1.000000000000000000e+00 1.000000000000000000e+00 1.000000000000000000e+00 1.000000000000000000e+00 1.000000000000000000e+00 1.000000000000000000e+00 1.000000000000000000e+00 1.000000000000000000e+00 1.000000000000000000e+00 1.000000000000000000e+00 1.000000000000000000e+00 1.000000000000000000e+00 1.000000000000000000e+00 1.000000000000000000e+00 1.000000000000000000e+00 1.000000000000000000e+00 1.000000000000000000e+00 1.000000000000000000e+00 1.000000000000000000e+00 1.000000000000000000e+00 1.000000000000000000e+00 1.000000000000000000e+00 1.000000000000000000e+00 1.000000000000000000e+00 1.000000000000000000e+00 1.000000000000000000e+00 1.000000000000000000e+00 1.000000000000000000e+00 1.000000000000000000e+00 1.000000000000000000e+00 1.000000000000000000e+00 1.000000000000000000e+00 1.000000000000000000e+00 1.000000000000000000e+00 1.000000000000000000e+00 1.000000000000000000e+00 1.000000000000000000e+00 1.000000000000000000e+00 1.000000000000000000e+00 1.000000000000000000e+00 1.000000000000000000e+00 1.000000000000000000e+00 1.000000000000000000e+00 1.000000000000000000e+00 1.000000000000000000e+00 1.000000000000000000e+00 1.000000000000000000e+00 1.000000000000000000e+00 1.000000000000000000e+00 1.000000000000000000e+00 1.000000000000000000e+00 1.000000000000000000e+00 1.000000000000000000e+00 1.000000000000000000e+00 1.000000000000000000e+00 1.000000000000000000e+00 1.000000000000000000e+00 1.000000000000000000e+00 1.000000000000000000e+00 1.000000000000000000e+00 1.000000000000000000e+00 1.000000000000000000e+00 1.000000000000000000e+00 1.000000000000000000e+00 1.000000000000000000e+00 1.000000000000000000e+00 1.000000000000000000e+00 1.000000000000000000e+00 1.000000000000000000e+00 1.000000000000000000e+00 1.000000000000000000e+00 1.000000000000000000e+00 1.000000000000000000e+00 1.000000000000000000e+00 1.000000000000000000e+00 1.000000000000000000e+00 1.000000000000000000e+00 1.000000000000000000e+00 1.000000000000000000e+00 1.000000000000000000e+00 1.000000000000000000e+00 1.000000000000000000e+00 1.000000000000000000e+00 1.000000000000000000e+00 1.000000000000000000e+00 1.000000000000000000e+00 1.000000000000000000e+00 1.000000000000000000e+00 1.000000000000000000e+00 1.000000000000000000e+00 1.000000000000000000e+00 1.000000000000000000e+00 1.000000000000000000e+00 1.000000000000000000e+00 1.000000000000000000e+00 1.000000000000000000e+00 1.000000000000000000e+00 1.000000000000000000e+00 1.000000000000000000e+00 1.000000000000000000e+00 1.000000000000000000e+00 1.000000000000000000e+00 1.000000000000000000e+00 1.000000000000000000e+00 1.000000000000000000e+00 1.000000000000000000e+00 1.000000000000000000e+00 1.000000000000000000e+00 1.000000000000000000e+00 1.000000000000000000e+00 1.000000000000000000e+00 1.000000000000000000e+00 1.000000000000000000e+00 1.000000000000000000e+00 1.000000000000000000e+00 1.000000000000000000e+00 1.000000000000000000e+00 1.000000000000000000e+00 1.000000000000000000e+00 1.000000000000000000e+00 1.000000000000000000e+00 1.000000000000000000e+00 1.000000000000000000e+00 1.000000000000000000e+00 1.000000000000000000e+00 1.000000000000000000e+00 1.000000000000000000e+00 1.000000000000000000e+00 1.000000000000000000e+00 1.000000000000000000e+00 1.000000000000000000e+00 1.000000000000000000e+00 1.000000000000000000e+00 1.000000000000000000e+00 1.000000000000000000e+00 1.000000000000000000e+00 1.000000000000000000e+00 1.000000000000000000e+00 1.000000000000000000e+00 1.000000000000000000e+00 1.000000000000000000e+00 1.000000000000000000e+00 1.000000000000000000e+00 1.000000000000000000e+00 1.000000000000000000e+00 1.000000000000000000e+00 1.000000000000000000e+00 1.000000000000000000e+00 1.000000000000000000e+00 1.000000000000000000e+00 1.000000000000000000e+00 1.000000000000000000e+00 1.000000000000000000e+00 1.000000000000000000e+00 1.000000000000000000e+00 1.000000000000000000e+00 1.000000000000000000e+00 1.000000000000000000e+00 1.000000000000000000e+00 1.000000000000000000e+00 1.000000000000000000e+00 1.000000000000000000e+00 1.000000000000000000e+00 1.000000000000000000e+00 1.000000000000000000e+00 1.000000000000000000e+00 1.000000000000000000e+00 1.000000000000000000e+00 1.000000000000000000e+00 1.000000000000000000e+00 1.000000000000000000e+00 1.000000000000000000e+00 1.000000000000000000e+00 1.000000000000000000e+00 1.000000000000000000e+00 1.000000000000000000e+00 1.000000000000000000e+00 1.000000000000000000e+00 1.000000000000000000e+00 1.000000000000000000e+00 1.000000000000000000e+00 1.000000000000000000e+00 1.000000000000000000e+00 1.000000000000000000e+00 1.000000000000000000e+00 1.000000000000000000e+00 1.000000000000000000e+00 1.000000000000000000e+00 1.000000000000000000e+00 1.000000000000000000e+00 1.000000000000000000e+00 1.000000000000000000e+00 1.000000000000000000e+00 1.000000000000000000e+00 1.000000000000000000e+00 1.000000000000000000e+00 1.000000000000000000e+00 1.000000000000000000e+00 1.000000000000000000e+00 1.000000000000000000e+00 1.000000000000000000e+00 1.000000000000000000e+00 1.000000000000000000e+00 1.000000000000000000e+00 1.000000000000000000e+00 1.000000000000000000e+00 1.000000000000000000e+00 1.000000000000000000e+00 1.000000000000000000e+00 1.000000000000000000e+00 1.000000000000000000e+00 1.000000000000000000e+00 1.000000000000000000e+00 1.000000000000000000e+00 1.000000000000000000e+00 1.000000000000000000e+00 1.000000000000000000e+00 1.000000000000000000e+00 1.000000000000000000e+00 1.000000000000000000e+00 1.000000000000000000e+00 1.000000000000000000e+00 1.000000000000000000e+00 1.000000000000000000e+00 1.000000000000000000e+00 1.000000000000000000e+00 1.000000000000000000e+00 1.000000000000000000e+00 1.000000000000000000e+00 1.000000000000000000e+00 1.000000000000000000e+00 1.000000000000000000e+00 1.000000000000000000e+00 1.000000000000000000e+00 1.000000000000000000e+00 1.000000000000000000e+00 1.000000000000000000e+00 1.000000000000000000e+00 1.000000000000000000e+00 1.000000000000000000e+00 1.000000000000000000e+00 1.000000000000000000e+00 1.000000000000000000e+00 1.000000000000000000e+00 1.000000000000000000e+00 1.000000000000000000e+00 1.000000000000000000e+00 1.000000000000000000e+00 1.000000000000000000e+00 1.000000000000000000e+00 1.000000000000000000e+00 1.000000000000000000e+00 1.000000000000000000e+00 1.000000000000000000e+00 1.000000000000000000e+00 1.000000000000000000e+00 1.000000000000000000e+00 1.000000000000000000e+00 1.000000000000000000e+00 1.000000000000000000e+00 1.000000000000000000e+00 1.000000000000000000e+00 1.000000000000000000e+00 1.000000000000000000e+00 1.000000000000000000e+00 1.000000000000000000e+00 1.000000000000000000e+00 1.000000000000000000e+00 1.000000000000000000e+00 1.000000000000000000e+00 1.000000000000000000e+00 1.000000000000000000e+00 1.000000000000000000e+00 1.000000000000000000e+00 1.000000000000000000e+00 1.000000000000000000e+00 1.000000000000000000e+00 1.000000000000000000e+00 1.000000000000000000e+00 1.000000000000000000e+00 1.000000000000000000e+00 1.000000000000000000e+00 1.000000000000000000e+00 1.000000000000000000e+00 1.000000000000000000e+00 1.000000000000000000e+00 1.000000000000000000e+00 1.000000000000000000e+00 1.000000000000000000e+00 1.000000000000000000e+00 1.000000000000000000e+00 1.000000000000000000e+00 1.000000000000000000e+00 1.000000000000000000e+00 1.000000000000000000e+00 1.000000000000000000e+00 1.000000000000000000e+00 1.000000000000000000e+00 1.000000000000000000e+00 1.000000000000000000e+00 1.000000000000000000e+00 1.000000000000000000e+00 1.000000000000000000e+00 1.000000000000000000e+00 1.000000000000000000e+00 1.000000000000000000e+00 1.000000000000000000e+00 1.000000000000000000e+00 1.000000000000000000e+00 1.000000000000000000e+00 1.000000000000000000e+00 1.000000000000000000e+00 1.000000000000000000e+00 1.000000000000000000e+00 1.000000000000000000e+00 1.000000000000000000e+00 1.000000000000000000e+00 1.000000000000000000e+00 1.000000000000000000e+00 1.000000000000000000e+00 1.000000000000000000e+00 1.000000000000000000e+00 1.000000000000000000e+00 1.000000000000000000e+00 1.000000000000000000e+00 1.000000000000000000e+00 1.000000000000000000e+00 1.000000000000000000e+00 1.000000000000000000e+00 1.000000000000000000e+00 1.000000000000000000e+00 1.000000000000000000e+00 1.000000000000000000e+00 1.000000000000000000e+00 1.000000000000000000e+00 1.000000000000000000e+00 1.000000000000000000e+00 1.000000000000000000e+00 1.000000000000000000e+00 1.000000000000000000e+00 1.000000000000000000e+00 1.000000000000000000e+00 1.000000000000000000e+00 1.000000000000000000e+00 1.000000000000000000e+00 1.000000000000000000e+00 1.000000000000000000e+00 1.000000000000000000e+00 1.000000000000000000e+00 1.000000000000000000e+00 1.000000000000000000e+00 1.000000000000000000e+00 1.000000000000000000e+00 1.000000000000000000e+00 1.000000000000000000e+00 1.000000000000000000e+00 1.000000000000000000e+00 1.000000000000000000e+00 1.000000000000000000e+00 1.000000000000000000e+00 1.000000000000000000e+00 1.000000000000000000e+00 1.000000000000000000e+00 1.000000000000000000e+00 1.000000000000000000e+00 1.000000000000000000e+00 1.000000000000000000e+00 1.000000000000000000e+00 1.000000000000000000e+00 1.000000000000000000e+00 1.000000000000000000e+00 1.000000000000000000e+00 1.000000000000000000e+00 1.000000000000000000e+00 1.000000000000000000e+00 1.000000000000000000e+00 1.000000000000000000e+00 1.000000000000000000e+00 1.000000000000000000e+00 1.000000000000000000e+00 1.000000000000000000e+00 1.000000000000000000e+00 1.000000000000000000e+00 1.000000000000000000e+00 1.000000000000000000e+00 1.000000000000000000e+00 1.000000000000000000e+00 1.000000000000000000e+00 1.000000000000000000e+00 1.000000000000000000e+00 1.000000000000000000e+00 1.000000000000000000e+00 1.000000000000000000e+00 1.000000000000000000e+00 1.000000000000000000e+00 1.000000000000000000e+00 1.000000000000000000e+00 1.000000000000000000e+00 1.000000000000000000e+00 1.000000000000000000e+00 1.000000000000000000e+00 1.000000000000000000e+00 1.000000000000000000e+00 1.000000000000000000e+00 1.000000000000000000e+00 1.000000000000000000e+00 1.000000000000000000e+00 1.000000000000000000e+00 1.000000000000000000e+00 1.000000000000000000e+00 1.000000000000000000e+00 1.000000000000000000e+00 1.000000000000000000e+00 1.000000000000000000e+00 1.000000000000000000e+00 1.000000000000000000e+00 1.000000000000000000e+00 1.000000000000000000e+00 1.000000000000000000e+00 1.000000000000000000e+00 1.000000000000000000e+00 1.000000000000000000e+00 1.000000000000000000e+00 1.000000000000000000e+00 1.000000000000000000e+00 1.000000000000000000e+00 1.000000000000000000e+00 1.000000000000000000e+00 1.000000000000000000e+00 1.000000000000000000e+00 1.000000000000000000e+00 1.000000000000000000e+00 1.000000000000000000e+00 1.000000000000000000e+00 1.000000000000000000e+00 1.000000000000000000e+00 1.000000000000000000e+00 1.000000000000000000e+00 1.000000000000000000e+00 1.000000000000000000e+00 1.000000000000000000e+00 1.000000000000000000e+00 1.000000000000000000e+00 1.000000000000000000e+00 1.000000000000000000e+00 1.000000000000000000e+00 1.000000000000000000e+00 1.000000000000000000e+00 1.000000000000000000e+00 1.000000000000000000e+00 1.000000000000000000e+00 1.000000000000000000e+00 1.000000000000000000e+00 1.000000000000000000e+00 1.000000000000000000e+00 1.000000000000000000e+00 1.000000000000000000e+00 1.000000000000000000e+00 1.000000000000000000e+00 1.000000000000000000e+00 1.000000000000000000e+00 1.000000000000000000e+00 1.000000000000000000e+00 1.000000000000000000e+00 1.000000000000000000e+00 1.000000000000000000e+00 1.000000000000000000e+00 1.000000000000000000e+00 1.000000000000000000e+00 1.000000000000000000e+00 1.000000000000000000e+00 1.000000000000000000e+00 1.000000000000000000e+00 1.000000000000000000e+00 1.000000000000000000e+00 1.000000000000000000e+00 1.000000000000000000e+00 1.000000000000000000e+00 1.000000000000000000e+00 1.000000000000000000e+00 1.000000000000000000e+00 1.000000000000000000e+00 1.000000000000000000e+00 1.000000000000000000e+00 1.000000000000000000e+00 1.000000000000000000e+00 1.000000000000000000e+00 1.000000000000000000e+00 1.000000000000000000e+00 1.000000000000000000e+00 1.000000000000000000e+00 1.000000000000000000e+00 1.000000000000000000e+00 1.000000000000000000e+00 1.000000000000000000e+00 1.000000000000000000e+00 1.000000000000000000e+00 1.000000000000000000e+00 1.000000000000000000e+00 1.000000000000000000e+00 1.000000000000000000e+00 1.000000000000000000e+00 1.000000000000000000e+00 1.000000000000000000e+00 1.000000000000000000e+00 1.000000000000000000e+00 1.000000000000000000e+00 1.000000000000000000e+00 1.000000000000000000e+00 1.000000000000000000e+00 1.000000000000000000e+00 1.000000000000000000e+00 1.000000000000000000e+00 1.000000000000000000e+00 1.000000000000000000e+00 1.000000000000000000e+00 1.000000000000000000e+00 1.000000000000000000e+00 1.000000000000000000e+00 1.000000000000000000e+00 1.000000000000000000e+00 1.000000000000000000e+00 1.000000000000000000e+00 1.000000000000000000e+00 1.000000000000000000e+00 1.000000000000000000e+00 1.000000000000000000e+00 1.000000000000000000e+00 1.000000000000000000e+00 1.000000000000000000e+00 1.000000000000000000e+00 1.000000000000000000e+00 1.000000000000000000e+00 1.000000000000000000e+00 1.000000000000000000e+00 1.000000000000000000e+00 1.000000000000000000e+00 1.000000000000000000e+00 1.000000000000000000e+00 1.000000000000000000e+00 1.000000000000000000e+00 1.000000000000000000e+00 1.000000000000000000e+00 1.000000000000000000e+00 1.000000000000000000e+00 1.000000000000000000e+00 1.000000000000000000e+00 1.000000000000000000e+00 1.000000000000000000e+00 1.000000000000000000e+00 1.000000000000000000e+00 1.000000000000000000e+00 1.000000000000000000e+00 1.000000000000000000e+00 1.000000000000000000e+00 1.000000000000000000e+00 1.000000000000000000e+00 1.000000000000000000e+00 1.000000000000000000e+00 1.000000000000000000e+00 1.000000000000000000e+00 1.000000000000000000e+00 1.000000000000000000e+00 1.000000000000000000e+00 1.000000000000000000e+00 1.000000000000000000e+00 1.000000000000000000e+00 1.000000000000000000e+00 1.000000000000000000e+00 1.000000000000000000e+00 1.000000000000000000e+00 1.000000000000000000e+00 1.000000000000000000e+00 1.000000000000000000e+00 1.000000000000000000e+00 1.000000000000000000e+00 1.000000000000000000e+00 1.000000000000000000e+00 1.000000000000000000e+00 1.000000000000000000e+00 1.000000000000000000e+00 1.000000000000000000e+00 1.000000000000000000e+00 1.000000000000000000e+00 1.000000000000000000e+00 1.000000000000000000e+00 1.000000000000000000e+00 1.000000000000000000e+00 1.000000000000000000e+00 1.000000000000000000e+00 1.000000000000000000e+00 1.000000000000000000e+00 1.000000000000000000e+00 1.000000000000000000e+00 1.000000000000000000e+00 1.000000000000000000e+00 1.000000000000000000e+00 1.000000000000000000e+00 1.000000000000000000e+00 1.000000000000000000e+00 1.000000000000000000e+00 1.000000000000000000e+00 1.000000000000000000e+00 1.000000000000000000e+00 1.000000000000000000e+00 1.000000000000000000e+00 1.000000000000000000e+00 1.000000000000000000e+00 1.000000000000000000e+00 1.000000000000000000e+00 1.000000000000000000e+00 1.000000000000000000e+00 1.000000000000000000e+00 1.000000000000000000e+00 1.000000000000000000e+00 1.000000000000000000e+00 1.000000000000000000e+00 1.000000000000000000e+00 1.000000000000000000e+00 1.000000000000000000e+00
6.204401540782190222e-02 5.470778756617928895e-01 -3.082426010251818616e-01 7.865276987058988922e-01 5.231134546989383294e-01 5.749178564679305881e-01 5.526201397691036243e-01 4.573918558812469226e-01 5.651957520982476835e-01 5.180616924088540243e-01 1.089439611445375933e+00 -7.493605662766563702e-01 1.432608518648376350e+00 4.732467432849584710e-01 5.197910906105973616e-01 4.367939082884079172e-01 8.131844664543371737e-01 9.790946422635937729e-01 7.531411459707489930e-01 4.972010692484147842e-01 3.785683761306924411e-01 9.997646534590405309e-01 3.507138716621896468e-01 5.799956279579486784e-01 5.835835517860508970e-02 6.560298757059697117e-01 4.458840082215399514e-01 7.234293977621011340e-01 5.240745918398787007e-01 1.660063136387560867e+00 4.858649248150330169e-01 5.983360951080637369e-01 7.185074219970207787e-01 5.107067654500040410e-01 6.829968649404708492e-01 4.681258297630945253e-01 5.939404985912332124e-01 1.894661425683074052e+00 -1.048637708908474186e-01 5.230065200286878602e-01 -2.473689814433296941e-01 -5.619961691995859487e-01 7.444679358342537467e-01 2.333731521708813650e-01 3.491177794311556282e-01 5.008730844476279032e-01 7.868518357449095779e-01 5.563632352232921185e-01 6.973639263000556143e-01 1.102507349448013201e-02 4.694283028640353073e-02 7.264644973141354267e-01 6.855479303819412840e-01 4.135679370557618917e-01 4.713071927400290795e-01 2.739275574337146635e-02 5.783259034556518241e-01 5.189139944501850454e-01 2.049801756708098666e-01 5.121982283504048494e-01 9.347595366887071489e-01 4.352159784901140638e-01 5.161977252693975560e-01 3.507139801064899087e-01 6.723816091167817977e-01 6.822945732047518419e-01 5.251847218955308927e-01 5.073178273778545799e-01 5.229217208749673551e-01 5.758242615680318754e-02 4.965333020051483914e-01 5.796486811020400420e-01 5.398822604896815758e-01 2.284813537812872830e-02 1.537428785101914830e+00 5.141727253524932539e-01 6.406095316691453601e-01 7.078778610656025760e-01 5.215567616378060656e-01 1.391482733931291627e+00 5.289042947298452368e-01 3.824720761064868135e-01 1.472619385089657618e+00 7.801574180586621221e-01 5.311755037919024813e-01 7.482242180543828836e-01 7.948501459511673195e-01 5.024915895870278870e-01 4.318228254224421581e-01 5.770446596414362528e-01 3.506126023333847597e-01 2.266193962661537054e+00 7.979110618827472967e-01 8.231224066093018044e-02 4.981340716549590986e-01 5.442632347338015597e-01 5.399025609693585137e-01 4.880778039926820799e-01 1.908412467114031230e-01 6.597444824931852914e-01 1.664204265081690171e+00 6.854817840485980529e-01 5.090016218535625692e-01 5.043495051139272878e-01 8.490164115897451680e-01 -2.188012941259177779e+00 -1.268524671370379497e+00 4.933984396388848004e-01 6.353792374139022314e-01 9.656323858339512789e-01 5.727784342772410664e-01 4.154297022059740829e-01 1.970736652640538433e-01 5.249325423914305011e-01 5.315020414259329362e-01 5.257454131722930635e-01 4.462124695835492649e-01 4.772268485773925595e-01 1.038618549057809703e+00 5.174959157312741809e-01 1.326743335057946283e+00 5.301330307830584010e-01 6.627586567721425181e-01 -6.042103851067915921e-01 5.294917434075415708e-01 1.995653037322645984e+00 4.574600251100134352e-01 4.972531549099963311e-01 6.624949970410776157e-01 5.291572886949090782e-01 5.929689495513971176e-01 5.194608671111868858e-01 4.481971170610752342e-01 5.765345503702644647e-01 -4.302141865118327968e-01 -1.715539959518922464e-01 6.899754551687834470e-01 3.982217319666765676e-02 1.017041024065178823e+00 4.951758600925901255e-01 5.423793378096806173e-01 8.804936786672437066e-01 4.349126457768163756e-01 4.694912054478496133e-01 5.185014998971749778e-01 2.061252293399163521e-02 1.003958048013974702e+00 -2.414946233057638225e-01 4.137405960092790380e-01 -9.466801972678031696e-01 7.408043748830128727e-01 -2.769617701107212615e-01 5.008582941408659117e-01 4.874521579517289149e-01 6.051058493884402534e-01 5.228601258394675044e-01 2.091575383403830202e+00 -2.002191771304989154e-01 8.346736176251575712e-01 6.444093051535562111e-01 5.725889494575938654e-01 4.994326888770887485e-01 5.047074371216825339e-01 5.229152759542026185e-01 1.058043832301735820e+00 2.885684457150330395e-01 8.514731958573186210e-01 2.801994150221693292e-01 3.623625231269833602e-01 5.890376007290601956e-01 6.571147877349832189e-01 7.863840743585828186e-01 5.009276975797489762e-01 5.241434211615196848e-01 4.017300815235324007e-01 4.117338746051550646e-02 2.404280948512449445e-01 1.225367527636494341e-01 7.630155501655015993e-01 1.144838365971549310e+00 6.436961506837238778e-01 5.210377756771283897e-01 -1.599191863235476518e-01 4.620221375743617798e-01 3.899949799950032103e-01 4.841975223485917579e-01 5.352637722726539815e-01 5.431537016957518338e-01 2.913821285688966256e+00 4.762519533255455961e-01 5.807408196173443615e-01 -9.439204152532584269e-01 5.203961592347553511e-01 4.902153156519097332e-01 2.092309200120658907e-01 5.222353608334783237e-01 9.523670637052394916e-01 5.441010201349123498e-01 3.647479459664204060e-01 5.682562105831151511e-01 6.332027964533544218e-01 5.481903094260048848e-01 8.015588649271622179e-01 6.027435083071547295e-01 5.432021046770735273e-01 3.647479476584241098e-01 1.695915662916483990e-01 1.308943619375468437e+00 5.219399694176288795e-01 5.464009712666315632e-01 4.181926092160495045e-01 -1.019218635427945191e-01 5.076744932866765758e-01 1.536430790778720856e-01 5.210728766106618171e-01 5.205961262227709607e-01 5.202046346295804424e-01 5.250429164420532535e-01 5.296597230380865051e-01 5.221239420375701767e-01 4.494138819759267434e-01 5.380213219338668695e-01 -7.298396756021356957e-01 6.338596988368546681e-01 5.261635924256922170e-01 3.396720205327029563e-01 -3.590504535251107937e-02 1.360434177632728892e+00 9.803039962845683242e-01 4.867348092689818273e-01 -1.011082313962160251e-01 1.074518347614995539e+00 5.206619306676353309e-01 5.068095895900616155e-01 6.783658078774295053e-01 4.034459648813459864e-01 2.153997104296813681e-01 1.532491599229205970e-01 -1.721964733282708160e-01 -4.351367611815500080e-02 5.912978992672021095e-01 5.360154866109212435e-01 -1.274652973995173966e-01 4.624442787777867103e-01 5.195571708232498143e-01 5.472892106621385366e-01 -8.873837065936711344e-02 7.681292481966193186e-01 -2.432538054271215611e+00 6.116961096290671751e-01 -7.089825231643924752e-01 5.026178156580222156e-01 5.140149833297699145e-01 3.507123164797440462e-01 5.119692699870400654e-01 4.991008568742892892e-01 4.932832450098810773e-01 8.008302623372252071e-01 5.803087716158715770e-01 1.708010182377150965e+00 6.851874762474770009e-01 6.668554344857459126e-01 4.495584897091806087e-01 4.437933625511644165e-01 9.347595096022551786e-01 5.313489895815421971e-01 2.783541518521860159e+00 4.389213593866997942e-01 2.129659198217867533e-01 7.869800020649130312e-01 5.241173063188202530e-01 9.353386384877110382e-01 5.199604607196742778e-01 5.676297589564790469e-01 5.208404374472117571e-01 1.182143834200855226e+00 7.598203903008208249e-01 8.525903142205791818e-01 7.912339047132214143e-01 5.906347624407564112e-01 6.887870011706100914e-01 5.096153292712088945e-01 3.664310253666229200e-01 -7.646194255121983030e-01 3.942541720228753266e-01 3.833536354215912323e-01 4.901560028775842071e-01 5.242606977555945846e-01 5.257453576098419790e-01 6.151408732748909758e-01 5.064433354698756329e-01 -9.761846033717604953e-01 7.841378865893265937e-01 4.765800995784280070e-01 -1.811641021648128722e-02 4.524961652325805717e-01 1.865731906346107305e+00 5.095516048816183252e-01 5.218953790072056176e-01 4.137270072319393921e-01 -3.563209948372489944e+00 5.168783881350962339e-01 3.027181713165765231e+00 7.859538463119698504e-01 5.499165859019756741e-01 -5.653671897162965143e-01 5.140884604773229283e-01 5.215907515720911158e-01 4.641072302058137367e-01 4.502198179845174897e-01 3.254879842305070659e-01 6.565385559812514371e-01 3.135614014132675487e-01 5.275529781382330974e-01 5.229046274649904458e-01 3.692121553987137150e-01 5.213055851764653026e-01 7.859124131724458673e-01 5.190969859778148399e-01 1.222798726189756824e+00 5.861143054222464621e-02 2.253979031897886287e+00 2.713791152207666979e+00 4.741361063498036321e-01 -2.498668268262196623e-01 3.840897830537853275e-01 3.997920092479801957e-01 7.480953498035356475e-01 1.410895655410017380e+00 5.286822910335641224e-01 1.142107649048091478e+00 5.182316885198076095e-01 1.172541263230718056e-01 1.265785526424682006e+00 6.107244590118088290e-01 5.754877062911791796e-01 5.415646766801593959e-01 9.100437407310731919e-01 -3.926707251322244296e+00 1.677274997487222752e+00 5.350416142013438847e-01 6.336836172636810538e-01 5.306776088873426112e-01 1.894661417774424983e+00 2.909526425771744584e-01 5.701979788214870393e-01 4.537442218626748791e-01 6.635546293844695187e-01 1.365210001154172348e+00 4.964972828524019666e-01 3.647475839045217216e-01 4.624494611533282451e-01 6.027435073864483295e-01 3.626593207920849604e-01 5.691899081499179891e-01 9.069631348822487782e-01 5.196081986993466018e-01 3.816255851419421141e-01 1.255335107100343239e-01 6.441007505609872563e-01 5.193772127482029211e-01 2.466989842822960022e-01 5.701980100526184980e-01 5.963768059146385969e-01 5.196536055027261014e-01 1.059711975599350708e+00 9.066881553243104630e-01 1.174065741309630040e+00 5.299995670100530187e-01 2.095257016288972207e-01 9.347588900808526668e-01 -1.102364734050345768e-01 9.343898107915591389e-01 6.308331439247824024e-01 5.504005992769245986e-02 3.922459335223735244e-01 8.498929790343131563e-01 3.824170261495182799e-01 4.657652480755039570e-01 3.451972736197524427e-01 -3.447825179142418595e-01 -2.565845238437254761e+00 5.688150851172826261e-01 6.027434934217402729e-01 6.027434517312415529e-01 5.203519192473998745e-01 3.389069317895007094e-01 -2.499347312071135141e-01 2.693019924568335610e-01 5.158277870667489218e-01 7.044778149696967473e-01 5.233164989757370655e-01 1.007733612211174856e+00 3.647479789001366046e-01 5.203571327702758431e-01 5.073015730520646915e-01 3.098749601387589259e-01 6.644586454085957827e-01 5.275359043101891521e-01 5.247058659428588401e-01 4.853852680081311433e-01 3.372328206304490705e-01 2.767640248066659953e-02 6.027435056597506557e-01 6.631507567424486105e-01 5.182005261132087703e-01 3.878057953973342298e-01 8.602762377093909896e-01 7.767237670634745683e-01 5.651872622529312551e-01 1.959538983094855080e+00 4.777365656480331291e-01 -3.276029102661013326e+00 7.868886167489710370e-01 1.561878357996383304e+00 5.728817722994514750e-01 -1.141081029157145377e+00 8.819891703477573675e-01 4.326530490587670030e-01 5.376740573960858693e-01 5.214286340456741886e-01 -4.960382625735641482e-01 5.115681461392348472e-01 1.083259755533329649e+00 4.465720824363316743e-01 -4.365270935019894272e-01 5.123601607704767469e-01 5.212662393552551787e-01 7.971179390148214194e-01 5.378762586954946023e-01 6.252505383730051491e-01 -5.616596976502187255e-01 5.600719847627437797e-01 5.172933278826946646e-01 4.642633525654057958e-01 5.061927297295446548e-01 7.727675961649008718e-01 5.210718966435204935e-01 6.337884170003987849e-01 3.530151948329566802e-01 5.384407039032118591e-01 2.099321107865408376e-01 3.576784099200653322e-01 3.891502749052658805e-01 9.804337816368284830e-01 5.630214649357364598e-01 3.297591485662115574e+00 6.531978212472624445e-01 6.739904622584685923e-01 5.391946536839820059e-01 5.039712786649058751e-01 9.445090309715898497e-03 4.997511972603012054e-01 5.554290125555324531e-01 5.418556056787864339e-01 1.151693001068929911e+00 7.729132625726925498e-01 5.176514668975946698e-01 4.342686730603673162e-01 1.120593252766524106e+00 5.326579461292754170e-01 5.332482075328562887e-01 5.107528590848754435e-01 8.857467689543682132e-01 5.147490442960966917e-01 9.553714804954491768e-01 4.701189765811723542e-01 5.216025798943504377e-01 5.652739805483887603e-02 5.157127597720265744e-01 2.619682000046004780e-02 2.666107853744111855e-01 3.952701071298209134e-01 5.560522846543010100e-01 7.951958685104315583e-01 5.214076278141547283e-01 3.817394581395666120e-01 1.554787416788422083e-01 5.066132893871028164e-01 4.959414796274263515e-01 4.422848021703916221e-01 -7.624871898277315457e-03 5.179336076869097694e-01 2.876125364965359532e-01 5.226053665048968622e-01 4.076464064754906080e-01 1.265994605421882024e+00 7.330600868941782311e-01 5.273299331347831576e-01 2.413169863915724800e-01 8.576825006991870559e-01 4.666128942800937263e-01 1.009271420778262485e+00 5.467477666802815772e-01 6.096130844993893350e-01 7.167242156543442988e-01 2.053318695035789787e+00 5.415367628086471541e-01 6.051961710450237675e-01 5.505268764870592246e-01 7.843859098956030840e-01 6.034941809249314559e-01 8.863057537691401144e-01 -5.933975920156328021e-01 4.571372877997185169e-01 5.234875108024694690e-01 4.507420133049375721e-01 5.216168021920879472e-01 -6.530448380005423603e-01 3.831511431216997887e-01 5.255190597356989013e-01 7.123801107040781400e-01 6.714924182853558854e-01 1.601732432114859828e+00 5.191424520531060516e-01 5.130078071677879326e-01 -7.513627599762344733e-01 5.328435099166659583e-01 1.263071045597718989e+00 7.350688991342532175e-01 3.056680600904673195e-01 2.181490882477214455e-01 -1.945011976465125469e+00 5.513814588645385983e-01 2.063974006967299324e-01 1.116469436537720128e+00 8.359539110847725718e-01 5.561391064865971456e-01 5.790142782765524965e-01 4.943556107833659286e-01 7.867745738124342081e-01 4.093760290763073795e-01 5.488859504611036666e-01 1.113377951238424951e-02 6.329289842873250249e-01 4.576533911033129343e-01 3.456801561893130814e-01 5.225364054093201149e-01 4.202645488624217607e-01 1.251497827540969610e+00 -9.180930980992393908e-02 -2.533528796203004529e-01 4.108217253817766923e-01 4.879884894996427969e-01 5.233405329582845322e-01 5.597682686053064849e-01 -9.089015218898010007e-01 3.260585892484911597e+00 4.293472528835795554e-01 4.349174263208738234e-01 4.742048280541208416e-01 5.193603745136722294e-01 5.002943946370701500e-01 4.423682976969399716e-01 3.321479746678887568e-01 6.261947568517758356e-01 5.221019231391279547e-01 4.453445247321361489e-01 2.971839194041197563e-01 4.153846927541443579e-01 5.402132356696424109e-01 4.047356622366395373e-01 5.793334818495426974e-01 5.030638587822445773e-01 6.950409569989436376e-01 1.035068966245729971e+00 2.369182818262368428e+00 4.703852876513947567e-01 5.037125699151198122e-01 2.957164792104370332e-01 4.795264336035642283e-01 4.078972422783725960e-01 5.203437658469256544e-01 5.285529704708760157e-01 4.782989972146602931e-01 5.914748806062378739e-01 5.886315849547736345e-01 7.863071441679581053e-01 3.650861669466858861e-01 3.809119459702904331e-01 3.813229146368358746e-01 4.590543597319130531e-01 9.802160805342623184e-02 9.347595248787730071e-01 4.384008539220318190e-01 6.862082909801586750e-02 1.915949895935884051e+00 3.506041059920128045e-01 4.009451545579235110e-01 6.017540031083978835e-01 6.819471345385416661e-02 5.521418898428100963e-01 1.549683438440895289e+00 8.171656904732543802e-01 6.513079956844396445e-01 5.243876078393541196e-01 5.071352153584767208e-01 4.064569530464772207e-01 5.890267974223580838e-01 5.390584799250307535e-01 5.249481738434113032e-01 -3.100242199245696884e-01 4.391741527616226937e-01 -1.694183056381921348e+00 5.545860578878195613e-01 5.356370971610868725e-01 5.346534360784553908e-01 4.137114593119539108e-01 9.347595249578084520e-01 2.348745872056101358e-01 4.946684170103554656e-01 1.396013177741485256e+00 -6.023879813909717162e-01 5.243525864042972717e-01 1.172692364545453003e+00 1.594907837195315370e+00 6.035594350827730992e-01 5.237164783296315296e-01 -7.425743791120703596e-02 -1.755052757499109939e+00 2.623523264575562397e-01 8.718380533481391303e-01 5.445984153859043664e-01 5.196561180641195987e-01 6.108585753231952076e-01 4.772391032062406335e-01 -4.422154276715430377e-01 8.491984715803152506e-01 5.257454929674609811e-01 3.230222294151077755e-01 5.168213994587322890e-01 1.109180788556022451e-02 -1.594646535497513673e-01 1.864770741362572037e+00 4.084749667232654424e-01 4.612217563973708412e-01 5.195769022355856137e-01 3.156319367419573862e-01 4.488945003018675051e-01 -1.859610571319079975e-01 -1.458510709117744719e+00 5.160198414207661788e-01 4.893286767381501146e-01 5.582082762702466061e-01 4.770471567678927771e-01 5.356114542682037793e-01 5.473882848357606301e-01 5.323775425342980316e-01 5.474689689702375572e-01 1.046166961845498289e+00 7.007523592393014589e-01 5.351834498454998146e-01 6.546130790091869711e-01 5.574738581639782087e-01 5.933084972622361120e-01 6.783960977231261180e-02 5.701980117511492585e-01 4.325188787088604658e-01 5.822645496014137168e-01 7.342007547795020850e-01 7.792228947891408630e-01 8.863274447271591860e-01 -5.761315649745749612e-01 5.363935366427958762e-01 5.237002980316288747e-01 5.182667680837529378e-01 5.996059585234180256e-01 9.188100698418377732e-01 4.385647234647359616e-01 5.237693027272724011e-01 -3.415827974695798130e-01 -9.260182157374360346e-01 2.382645167981704226e+00 5.316750869746943442e-01 9.125140253554666625e-01 4.351298971165346030e-01 5.855043830331903010e-01 4.161484295598595340e-01 1.542717189595160521e-01 5.212909594412535874e-01 5.069225260967074043e-01 1.187713983282275704e-02 5.152182961164530894e-01 4.781506248255305014e-01 5.217335323036457195e-01 4.033675560518688585e-01 5.302690175205662104e-01 6.557298566315848953e-01 4.435771971808287750e-01 4.929651452698017855e-01 5.573456079371535976e-01 5.271015881321785557e-01 4.226933085540605650e-01 5.115676589426183529e-01 -2.313723286838881010e-01 5.215628795398317141e-01 6.405860916710803821e-01 5.113783547910873972e-01 7.866527346214310379e-01 9.347598266982179993e-01 7.212619114971713374e-01 -6.313264112140701823e-01 9.723642091562968437e-01 1.894661425716231085e+00 5.207575884486850271e-01 4.637059676814562770e-01 1.096601923949743984e+00 5.358321781901469461e-01 7.865846664806579458e-01 5.228614730145165757e-01 1.923297588385227908e+00 5.236821562843239075e-01 4.624448680309501958e-01 1.239122837246834141e+00 -7.103040008953352691e-02 5.222390667469232195e-01 -1.477810691653795028e-01 -1.010097076585875664e+00 -1.595228590945508285e-01 7.813391803022073923e-01 5.308729452601920196e-01 5.389978483111298457e-01 -3.109858591283004015e-01 5.091662237548678638e-01 3.809109683056673828e-02 -4.373393001404923264e-01 5.550490233838806242e-01 5.067003071810407544e-01 5.189745934266092320e-01 5.068338335960687058e-01 4.687751675734274648e-01 9.258613072082555462e-01 -4.692279813848605485e-01 5.216417379358291306e-01 5.090650759492677535e-01 5.192185479257591663e-01 1.183810860158935219e+00 4.719803800128734017e-01 7.178126986905509765e-01 5.229061099137358726e-01 4.578764382378490427e-02 -4.953248842809239161e-01 4.881255055042708624e-01 4.742038041320735808e-01 6.857707319984001071e-01 5.205541855824162845e-01 4.023353682139023668e-01 5.240923377092931990e-01 5.175616452007703039e-01 4.464736419444986781e-01 5.415908197550673986e-01 8.425262574521636960e-01 2.629535650562563998e+00 -2.567613867034370112e-01 6.510053816089379497e-01 3.753756404612232922e-01 1.947040685897394041e-01 6.392988044638502343e-01 -5.186251226474720977e-02 -1.636867856073896066e+00 5.238666549038973885e-01 2.693114969818869664e+00 5.772583349302545797e-01 1.804564591677991214e-01 1.452714318408172556e-01 5.257454552146659799e-01 5.967590039663986934e-01 1.605688212343184373e+00 5.350753586314737076e-01 1.255642458137043171e-01 4.036352484905195159e-01 1.773116750815943110e+00 5.626676312837021188e-01 8.148583235334233565e-01 5.170264242642601538e-01 7.374992480513025139e-01 4.707246226275935697e-01 5.879611842953946788e-01 3.302276104494860504e-02 5.161291374176102398e-01 6.142565188343922511e-01 -5.936677577817442986e-01 -1.293638337410477068e-01 1.188507192117608025e+00 2.427484916177803098e-01 4.762147315019980565e-01 7.331481803428797628e-01 5.068412270597837388e-01 2.038557444200470137e+00 6.373461541867039282e-01 1.026669200078956894e-02 4.274832171129417380e-01 4.062743382202656517e-01 1.161708472131057546e+00 5.058897181564214751e-01 -1.615747210045470270e-02 5.288985366955629708e-01 -2.831910740903852684e-04 4.983583734213304917e-01 5.253052508511351082e-01 2.911878164611499814e-02 -3.352519539838851557e-03 6.560595522805185986e-01 4.500945034335698258e-01 5.814794193017868151e-01 1.500003637036010085e-01 3.960392061179320855e-01 5.223873047184041107e-01 4.261871325473701178e-01 4.999209562466695456e-01 4.810655010466181047e-01 5.595917337623910193e-01 1.024368144678223791e+00 3.221528102252006143e+00 9.819377663982992166e-01 5.119639919370724268e-01 4.999599881457769679e-01 2.217097167042079986e-01 5.168409925985364417e-01 8.675521717261152066e-01 5.186175958803957986e-01 1.317339320900170696e+00 5.461390228405373914e-01 -6.051067092307106376e-01 -2.160083247472252901e-02 4.518868282053905006e-01 6.177256240461351799e-01 5.836109306038802513e-01 5.216311083283868832e-01 5.370319331191335949e-02 5.146284571567578681e-01 6.136338534801477618e-01 -3.948520845143864477e+00 4.781570334412773016e-01 5.414385700242260180e-01 1.148593982477953190e+00 5.132311152430633072e-01 3.745819169894669676e-01 6.556332970245554170e-01 -9.337879969698809068e-01 -4.949245353041188400e-01 1.362980961346599122e-02 5.199757070467954101e-01 6.571647392296600110e-01 2.068948754324707040e-01 5.088580529268839081e-01 -3.523579504413492658e-01 5.140423301149338320e-01 5.803172475650767437e-01 6.978172469664927213e-01 5.618335332140692584e-01 4.640442778666486467e-01 1.372689580260111064e-01 -8.061301848317774521e-01 6.525198724974897724e-01 5.464527124887599285e-01 1.507091545834713664e-01 5.203141166405383933e-01 4.862226793189631802e-01 5.285432836211479968e-01 6.578883268360677938e-01 5.862727603867148307e-01 5.548850282573608572e-01 5.065542586587966634e-01 1.894661429061820446e+00 3.426802075005943027e-01 5.188174406442035425e-01 -1.482220548292471629e-01 4.977136654564515705e-01 6.521324390449082520e-01 5.046008947821167823e-01 4.764190648305869358e-01 3.915592324197444962e-01 9.708754136253764377e-01 1.241034931288920840e+00 5.518026642611396637e-01 5.613052208178650471e-01 5.973167419458005334e-01 5.140574278232328265e-01 5.165425166349768560e-01 5.205858801153105953e-01 9.723203165574031415e-01 6.527683400970436534e-01 -4.713870376207444091e-01 4.734328953738152768e-01 8.934727475072834491e-01 5.123150807692777864e-01 -5.053045444788869384e-02 5.205030661558566196e-01 1.610383057176533850e+00 -1.369454297654990327e-01 6.878362816815963843e-01 2.286638302256081001e-01 5.071374313323350203e-01 8.915725462147721103e-01 5.182768358019093080e-01 3.771462209242837371e-01 1.419898558741849559e+00 4.725244524544917613e-01 5.093612856222796692e-01 -7.439808668358850463e-01 4.359895988209476769e-01 1.037553108178948635e+00 6.368735797781902574e-01 5.993816262939442169e-02 1.007163346911295276e+00 -9.695850191724587810e-04 7.784969369286587337e-01 1.683627817965393847e+00 -8.739491872820353002e-01 5.425060730578030732e-01 5.216330931091986978e-01 -4.972869939058854882e-01 3.015002979273320727e-01 5.216569073768169140e-01 5.364440231586503627e-01 4.566329552195049768e-01 4.780445262036857046e-01 2.624237381337540254e-01 3.552729424752850140e-01 5.475306672600996905e-01 5.183985641023444169e-01 1.036638668800534367e-02 -1.882128105129687867e-01 5.286233253896236439e-01 1.072622971037371142e+00 5.906470746815530859e-01 -5.938009464499111045e-01 4.160366255759451737e-01 5.228032256536633282e-01 5.721746941150470667e-01 4.894129531015400936e-02 3.223211942832628907e-01 5.250014523522861243e-01 5.218730477668231948e-01 4.564160698122073367e-01 -1.566136974793302591e-02 5.362199064129092863e-01 5.417304524870910631e-01 5.339878128713843042e-01 2.125812673163833377e+00 -2.458968737099108751e-02 3.921664168333957035e-01 5.396273070150225948e-01 1.874388443085351241e+00 4.965653742642476276e-01 5.802394484528143881e-01 3.657031444622747818e-02 5.701979560457461904e-01 5.166214141297416074e-01 4.781943729508946195e-01 4.232783506120576522e-01 5.360152809975261556e-01 4.707603641803734806e-01 5.323983247884387371e-01 -5.817972489097456013e-01 5.223501071982974420e-01 5.237279138560723135e-01 5.352040596291055552e-01 1.357517685244222116e+00 5.201666685898200804e-01 -2.521561296759243787e-01 1.157933287855338556e+00 -1.355633572734752601e+00 -5.598423101318206196e-01 4.938895172245032494e-01 5.204824619921605278e-01 6.729747545289234134e-01 5.404362724361865267e-01 5.606867409605604813e-01 5.054817219913741999e-01 5.701979700473414070e-01 5.193238409338207795e-01 5.665414459635644828e-01 6.122174934061551665e-01 5.189098023599918452e-01 3.357490289639078473e-01 5.290803184439293316e-01 5.337777813397536208e-01 4.245617219013274601e-01 5.244656440156943988e-01 5.238610639836365213e-01 5.027467317608608210e-01 6.488003668162233284e-01 5.192986535554782179e-01 7.373594908678637871e-01 5.302985245008120518e-01 5.250782736321691901e-01 5.341156605729194817e-01 4.516830201247308274e-01 3.314371424377796083e-01 2.519915100132724017e+00 5.582591453639940138e-01 6.461781666807441260e-01 2.983475031439725700e-01 5.733519860240766652e-01 1.127680333509398336e+00 4.267862181808005362e-01 6.812441769095385347e-01 5.217316925413129081e-01
7.153452158331787825e-01 2.891167718375287632e-01 4.640139676667037194e-01 -5.198419938305028770e-02 3.036040967442568683e-01 4.250457440167739742e-01 5.415895618893381558e-01 3.585265861135635279e-01 4.068178798158612608e-01 2.890834236485054221e-01 2.103862667797595343e+00 1.752007975443013787e+00 -1.497717066341791137e+00 5.581787199176220238e-01 3.050641769764595446e-01 4.705235431524764089e-01 1.409795419321350496e-01 4.573381406589462905e-01 3.832814001493899392e-01 3.237170821065271653e-01 3.751943248088665528e-01 2.182066704626309139e+00 3.305331183501288295e-01 3.261349396392110855e-01 7.663836895367478474e-01 -1.386006584404621544e-01 3.752168329072836928e-01 1.720514290094785348e-01 3.711605326892079559e-01 -9.636269188221743276e-01 4.693974985623532437e-01 -1.743640792750232871e-01 2.899391367315566903e-01 2.787533964504368411e-01 -4.004215345807248250e-01 5.101855266999038019e-01 3.303140954018803921e-01 -4.182881327964442231e-01 -3.361832010731122811e+00 2.884002962433322992e-01 1.232273429801450604e+00 1.493431713028142704e-01 -1.710300860094729203e-01 7.910292798176548068e-01 5.086698873172309510e-01 3.032256225103950875e-01 -5.228865902731983512e-02 3.300756598208272052e-01 9.311327585868980905e-02 6.601341036545588237e-01 6.998845123827505121e-01 5.182012093700896216e-01 -9.739496483022180850e-02 2.655387268245206212e-01 5.742106930878635440e-01 6.780555673798894789e-01 2.679898034028983522e-01 3.218905052662526245e-01 3.440958184736062075e-01 2.793945436267096794e-01 4.388601980682678705e-01 4.250842381341108367e-01 3.172655009557047157e-01 3.305331103019500949e-01 -3.362447877288832210e-01 1.057932861724101559e-01 2.910336332897910383e-01 3.005576758080990563e-01 3.135326741141054030e-01 6.832658644632938483e-01 2.115735168246878350e-01 2.667126168679178067e-01 3.099920182135750268e-01 7.043047802152152537e-01 1.968504522179598704e+00 3.500695976017982880e-01 4.825736372623330439e-01 4.836115137074924464e-01 3.036354569607048748e-01 -1.374450944105706895e+00 3.249095517573773462e-01 4.889983685423721083e-01 2.457145530136264799e+00 5.668473312578969914e-02 2.359656839316790489e-01 -3.214441397619775542e-01 1.546460773871206895e-01 3.819164661038269570e-01 -5.897836060833558935e-01 -9.300377098983767521e-01 5.087727488889161043e-01 1.639696508251740958e+00 4.316239066833858773e-02 6.845471927269760615e-01 3.697666531283274050e-01 3.621976824257442940e-01 3.017435780977387183e-01 8.048909022660478696e-01 7.355505518223276473e-01 -1.284881785630898610e-01 -1.878528114382907455e-01 5.859777138626359044e-02 3.510892567603963177e-01 2.370508788327170824e-01 -8.291226493629923200e-02 3.222235991050222736e+00 -3.020592976859078349e-01 4.223089533083629887e-01 5.826940129307891375e-02 8.133996960903046025e-01 3.054138904060487714e-01 5.525412375227002348e-01 1.626004609818886004e-01 2.909214077519488018e-01 -4.648775171661743699e-01 3.467295108224642819e-01 4.392932552230937454e-02 3.517008671386051000e-01 1.257988546475671265e+00 3.183621087245627201e-01 -1.494886567209819939e+00 7.949831279869128131e-02 4.087086849750014295e-02 1.547444093464020121e+00 3.055340850720832391e-01 2.234977469260353899e+00 4.184857783282844856e-01 2.072865242237908190e-01 3.212964707614538451e-01 3.022824270253747225e-01 3.444733065719727261e-01 3.032931269004329189e-01 6.632156435521029403e-01 3.806843745611950824e-01 1.523306159344875732e-01 8.478188168644511524e-01 7.372285535736075035e-01 6.937496301033488910e-01 -3.451783160246195137e-01 2.590128461181127606e-01 3.424176308126199997e-01 3.224023901743641729e-01 3.720929780422517763e-01 3.201416461030412441e-01 3.035751138445222375e-01 7.005300381166782442e-01 -2.023428540980996559e-01 3.196753614244628450e-01 3.991324196480861008e-01 4.069322626537996146e-01 -1.619207562130890732e-01 3.255227221095358114e-02 3.032371797914569234e-01 3.356736308522763612e-01 2.583688199177325284e-01 2.985780322482108895e-01 -2.599033711145625425e+00 4.785050538098560291e-01 -6.183145924991688691e-01 -1.266236700360738321e-01 1.156426554512678256e-01 4.386106299600673331e-01 3.134287325715232608e-01 3.034297900627414002e-01 1.383710238795622383e-01 1.448448111577711472e-01 3.231128214081481209e-01 5.107206316760117826e-01 5.031289453478913209e-01 2.493916441731496292e-01 2.714905061660921048e-01 -5.226360090868568953e-02 3.031940568647791823e-01 3.072322677724166895e-01 -2.569042367707423224e+00 6.626749055410147138e-01 5.474827490809739405e-01 9.139132803965411833e-01 -4.635225515821983500e-01 1.176647764689391584e+00 8.302628775969013442e-02 2.961637779917017932e-01 1.253876348646343120e+00 3.995280595796770751e-01 3.205793156010561806e-01 3.787400026056096936e-01 2.645199385376806323e-01 2.878430783795488668e-01 -5.176516795004286742e-01 3.758479075387899382e-01 3.841617647861488849e-01 8.334973821796098914e-01 3.518067052599553324e-01 3.630248691161109820e-01 2.601735290526328570e-01 3.018698556891856177e-01 -1.728702414157432310e+00 2.875667946773085015e-01 3.943030620814467202e-01 2.259629787511553134e-01 1.715240251588155337e-02 3.753470365800891106e-01 3.922021493794813352e-01 1.615051696882665866e-01 -7.390393222936831874e-01 3.943030935099683387e-01 5.074587886217994948e-01 -5.326826734269008989e-01 3.024857676853788813e-01 2.890185249866105699e-01 2.181345960273833318e-01 -3.357912086392063511e+00 3.861659823133646863e-01 9.006303759211455873e-01 3.092201264257893323e-01 3.055390324370121924e-01 3.015063905623119878e-01 3.252658208460047495e-01 2.987027852333641875e-01 2.985888834792523872e-01 3.918174063293740628e-01 7.724646167923693296e-02 6.778510510593910299e-01 1.172777754772089814e-01 3.879637109028156727e-01 5.520814388582224730e-01 4.213354752572399109e-01 -7.319079570593101103e-01 2.373640345433779775e+00 4.191072871798069421e-01 1.262281884690450218e+00 -1.411925716671577513e+00 3.018769385222637158e-01 3.122865865972856425e-01 3.344764161392744795e-01 1.210911867065433078e+00 5.372878035472586911e-01 8.506960313823257458e-01 2.925032025700270988e-01 6.635020322770169843e-01 2.029674255843545716e-01 3.280374515534257851e-01 -1.211467367843741982e+00 4.127956820703077567e-01 3.027145123349950784e-01 5.089486627272750141e-01 8.604373641126662475e-01 -3.970606333307671321e-01 3.283651971604065078e+00 4.931749284861927651e-01 1.340786840298382465e+00 -3.595586113383849591e-01 3.101499050983492212e-01 3.305295382857743602e-01 3.595813878147174902e-01 3.244044323745229885e-01 2.203789192838100930e-01 -1.752901479629286052e-01 7.245477337357951464e-02 5.633459739574346870e-01 2.197457183058302010e-01 1.129376858447349724e-01 2.463854341978096163e-01 5.216423121664052198e-01 4.388602304538998244e-01 2.695910237821746991e-01 3.355501695838096321e+00 3.219915097106251789e-01 6.490306387548205880e-01 5.077456709659485812e-01 3.488356116129259221e-01 4.383728555161069962e-01 2.991712335868833006e-01 2.979548256850263477e-01 3.029985210321565758e-01 -6.637679523744556276e-01 3.917456818804738727e-01 2.849642494526493097e-01 1.521797173527176250e-01 3.591744153286725583e-01 1.571131499707020707e+00 3.372049320859047961e-01 3.350856109471635480e-01 2.024630015922144644e+00 5.182422527712592375e-01 3.372704160936284001e-01 3.275278423943516204e-01 3.157174749310623918e-01 3.467289855216904026e-01 -2.087691478553688196e+00 3.472834186416332014e-01 1.642139402163460771e+00 -1.145993357694622544e-01 3.510764659625978945e-01 6.491549391366865374e-01 3.421675473625653274e-01 -7.389133680995384479e-01 3.310097606901593603e-01 3.013812236351242069e-01 3.990974933166081540e-01 -4.135604798315561936e-01 3.128785880764164973e-01 -2.443159813683073001e+00 -5.280369986654727399e-02 2.825474263206139147e-01 5.939618238186229471e-01 3.039182052374531651e-01 3.055727860442549737e-01 4.981581154237562092e-01 1.553735970499413310e-01 -5.979752387596405649e-02 -7.849329931579258623e-01 -7.052722244802722348e-03 6.872228282831325252e-01 3.009045369745693144e-01 4.888709844443631103e-01 3.157791917595173525e-01 -5.273048982753184011e-02 2.955391389999137419e-01 2.509520236333980137e+00 6.879092472345669229e-01 2.474221743859439659e-01 -1.202104053246971116e+00 2.533240841220477102e-01 4.863458333843254877e+00 4.301482037213707477e-01 -2.137474453483478865e-01 5.729057275849709363e-01 -5.775587645801781633e+00 5.429247840160611460e-01 1.603862147165304952e+00 2.989895845754125259e-01 5.179152882865420970e-01 -4.618828874869276846e-01 4.111755360043155560e-01 2.244221877910654861e-01 3.563525620625764834e-01 2.033843814054540067e-01 3.039900960956910314e+00 -3.902917793450311201e-01 3.144307647487846191e-01 -1.954554638817310064e+00 2.802770778284562891e-01 -4.182881286056938652e-01 7.651701258297217700e-01 4.739774550492377170e-01 2.610731058228226154e-01 2.892618020077265539e-01 1.255704824936934028e+00 1.671017738353698656e-01 3.943032699997732760e-01 4.127891491906207078e-01 1.615051686744444215e-01 4.097176140344191975e-01 3.806182793696635258e-01 -6.326176692873644036e-01 3.056469035409899448e-01 5.647820154608493848e-01 4.135788567796900295e-01 1.901732131859782404e-01 3.002260724535959491e-01 5.183949639220022387e-01 4.739773770122742702e-01 5.289363632975607743e-01 2.989547802944585442e-01 1.544625600331051007e-01 3.570089221537822710e-01 3.587782520858907365e+00 2.733957674342314403e-01 9.041104731062168942e-02 4.388612779428683330e-01 8.315186247987161883e-01 4.709289398603312971e-01 -1.913879909681170388e-01 6.951834002923472644e-01 3.406938239729072060e-01 1.332582736156184000e-01 4.326335166718374148e-01 6.845443687643215647e-01 4.972706147831101320e-01 8.049619964093881475e-01 8.280926945849562681e-01 1.936412374910158329e-01 1.615051498505784278e-01 1.615052574911038930e-01 3.299687353193496708e-01 2.553760854444211414e-01 1.119370788187372900e+00 3.792424994541480077e-01 3.013838896809244439e-01 2.424990219167820482e-01 3.047195479761688475e-01 7.340312028037008218e-01 3.943037035751422725e-01 3.039434578982664337e-01 3.944746813503733351e-01 1.764933006205864074e-01 -6.465486085545381068e-01 3.140724424442163931e-01 3.055791463620892712e-01 3.412169712870334326e-01 6.531660863787640547e-01 6.430601216612876758e-01 1.615051687096273891e-01 1.655081304259875818e-01 2.948454663486650973e-01 5.191750237449783700e-01 -5.984440937271086058e-01 1.675711506659659511e-01 -3.629023836782327983e+00 2.068685449805416798e+00 6.203913907511940939e-01 -4.984519119373557738e-01 -5.190939326950910065e-02 2.109988976020947593e+00 3.280624657384508813e-01 6.583130185830440295e-01 -8.469177388852468236e-02 4.220858300976786381e-01 3.787592455704281158e-01 3.294229605864061883e-01 -5.938550688453443360e-01 3.194915940205426685e-01 2.116706154401342577e+00 1.922161655801140623e-01 -4.826731975379488504e-01 2.866280575121666896e-01 3.056079944284065819e-01 -1.478034928144424498e+00 3.370074871366049996e-01 3.738594086319493859e-01 4.037810667090018235e-01 1.027939292589618581e-01 3.011588305739767990e-01 2.340835080691389403e-01 2.732634287135524698e-01 -1.618219677489941832e-01 2.949722676249556530e-01 1.172828553741736973e-01 3.008239336163101019e-01 3.080481593613781932e-01 1.310375589331006820e-02 3.553930764680859333e-01 4.600040404633026769e-01 -1.446732812638443777e+00 -7.199037673681769611e-01 -1.239538072984368994e-01 1.712732792491443445e-01 1.199900883430673748e-01 4.386501645397729021e-01 3.521701106684017035e-01 7.021038473988256978e-01 -1.465046958076414163e-01 3.284576067102600305e-01 3.067430062693216053e-01 9.746866363531608846e-02 -1.617204749449270007e-01 3.305478833980906028e-01 4.570060757721894906e-01 4.801920461407718776e-01 3.391171941068460982e-01 3.074839498504082780e-01 2.961290335334810786e-01 2.402382394721428449e-01 3.035238310945739815e-01 4.727733104106358608e-01 2.153703307365792130e-01 3.027832841080143056e-01 6.944756613215057328e-01 2.941788012700116139e-01 6.962808319802984425e-01 -5.093148086736135061e-02 5.972877391393059954e-01 3.190884404606859626e-01 -1.486929047379939250e+00 2.994504171944671889e-01 6.213447524140215394e-01 3.373635532954407656e-01 3.385890753865244962e-01 3.750131269459531791e-01 1.573185106208907502e-01 6.882072886034268366e-01 2.986201546339357082e-01 4.413112231973702060e-01 3.037582674087658807e-01 2.711785196509873819e-01 1.670912352726922623e-01 4.580339030770895214e-01 3.000842068635761750e-01 1.392478336238559267e-01 -5.390855339712946961e-03 1.362183270740292274e-01 1.687739202963914886e+00 1.503672145311046593e-01 3.160000046952350927e-01 3.958739436138812295e-01 -8.815247384382253193e-01 2.769973674184522672e-01 2.186917602106849268e-01 2.261518085777210196e-01 -1.142879360936602390e-01 2.596485605776637229e-01 1.751083194692941936e+00 8.982148740770752315e-01 4.777077159782779914e-01 2.583729883911350944e-01 3.009223906848532692e-01 3.448264534355894861e-01 9.415548116214724761e-01 3.128222135390182679e+00 3.034297290957160831e-01 5.984172068345689627e-03 5.809287050692703014e-01 -2.612986518210498876e-01 3.034990048871211710e-01 3.055048332754385365e-01 1.097983705219765849e+00 2.889244747807387936e-01 -3.572430490841998485e-01 3.968101483046520550e-01 1.462547939458277990e-01 6.029066838180855425e-01 1.912851488337483197e+00 2.774229227674547271e-01 2.963086083658660330e-01 1.682946362509262439e+00 3.838809592014100214e-01 2.691307700145819659e-01 1.446924803992426789e-01 1.581837741905039174e-01 -5.250959019335699890e-02 5.271727843464503183e-01 2.484164797937941094e-01 7.019814044848677881e-01 2.882648666660175829e-01 1.925524538253405860e-01 3.401281802682425415e-01 2.842389412364345058e-01 4.595140317915962225e-01 2.671186905235881093e-01 8.659246180301563012e-01 5.225380875218836874e-01 5.251658513408100637e-01 3.694060876746997901e-01 2.571365626153391259e-01 3.125881141584906930e-01 5.961662749707029585e-01 7.845003736742852674e-01 3.755291215885188105e-01 3.438793433783330356e-01 6.361091064043435939e-01 2.986426667304452609e-01 6.770636918651364855e-01 3.738693049786911971e-01 4.916715434426953690e-01 -2.980692410984016605e-01 3.064222190256382650e-01 3.240904488079471291e-01 4.652285081924859567e-01 1.867380727781463301e-01 3.687366137340731820e-01 1.850659672042154424e+00 -2.422274367763777372e-02 3.830957231803537866e-01 -2.393983168478099888e-01 1.712172380655394344e+00 1.171215085279152301e+00 4.150017700416878258e-02 -4.313679654027330890e-01 4.571556463002330872e-01 2.484259085772835274e-01 4.631875450747302003e-01 3.042863541202857625e-01 3.065526062023739007e-01 2.511703620660005742e-01 3.272630507490187912e-01 2.469691556821569378e-01 -5.199293846274548325e-02 -2.474460663737096111e-01 2.869141173682306922e-01 2.064574429539971501e-01 2.695026270630915821e-01 8.902931346959749304e-01 4.388602139013410564e-01 3.233738812079391955e-01 8.670120013033590922e-01 4.748203865830106785e-01 5.083526323331138963e-01 4.376263677644419703e-01 7.036593010111651392e-01 1.491857253416984719e+00 4.074292283504272749e-01 2.149959654637035644e+00 -1.778761280478705770e-02 1.656737751381536783e-01 3.060313354938650754e-01 3.511346181603814953e-01 3.975658901748653218e-01 2.493693545074888440e-01 2.873379259926952534e-01 3.045089037345368732e-01 3.750002346373868534e-01 2.443612059851107410e-01 -3.774636150829781545e-01 3.344538005159916616e-01 -4.318670438082303220e-02 3.132575451814370027e-01 3.990336655844579083e-01 4.388602138860266400e-01 2.441383204010708907e-01 2.561232381855899076e-01 -1.329435566994928042e+00 2.006516392178210761e+00 3.040148114864509310e-01 -7.769704329426780909e-01 2.966041237683590404e-01 3.417121674372525786e-01 3.051958960468074689e-01 -4.920112356415511812e+00 3.623863455129049171e+00 6.395375206431473947e-01 3.149004403214731955e-03 3.251138729537809136e-01 3.067980667609596646e-01 2.440123837716973720e-01 2.688530092950875527e+00 6.361998285641161655e-01 3.194474115943732317e-01 3.467293555388389903e-01 3.263370352295970056e-01 3.296271446869413757e-01 8.499822594877505244e-01 -3.704019437499555534e-01 -1.257281532071047314e+00 -1.254930192597601302e+00 2.966762024607306203e-01 3.085811718753802557e-01 7.504401423802339322e-01 3.502514723121515350e-01 1.559485681562070791e+00 4.996122886545799058e-01 3.008002040448000680e-01 3.398814495722988216e-01 3.023689008879197337e-01 3.322301938424819800e-01 3.139852758717524561e-01 6.325389637442948576e-01 3.655914964950572887e-01 6.583692095179430881e-01 2.396665717943037566e-01 7.748626085519574880e-02 3.141546944367769600e-01 1.748909511622388502e-01 2.331108420027598327e-01 3.279872409614242867e-01 6.245378860706179980e-01 4.739774197320910654e-01 2.155832750743141568e-01 2.378541768321812133e-01 3.001356735596937275e-01 2.822722385260579836e-01 1.751079996865677835e+00 1.974280425786272497e+00 3.131993380455082021e-01 2.888633184738706450e-01 3.007685826996383538e-01 1.760644797185523802e-01 2.179452679059126763e-01 4.566696647330886205e-01 2.895205741472194338e-01 3.309263110929306917e-01 8.166315899608469486e-01 9.055281494358599081e-01 3.644371834458849380e-01 1.911661329857020863e+00 3.979657171742184696e-01 -3.031006289601309578e-01 -2.681256643870476020e-01 -2.975296392436529991e-01 3.033651827713922944e-01 3.559843635671637863e-01 7.071640333579597426e-01 2.925207593529154382e-01 4.221362934839411052e-01 3.153121534495182954e-01 2.848526686273360475e-01 2.615548210168084919e-01 -9.369477645657416087e-02 1.001754071838998783e+00 2.919421824285178269e-01 2.564945095996143398e-01 2.981608533765140456e-01 3.459586103361397824e-01 2.795820485187108240e-01 4.001745748248996537e-01 -6.809514392862409116e-02 2.219168004859147225e-01 2.988764492616238222e-01 -5.226721699451116615e-02 4.388598865681408445e-01 1.087830884298885303e+00 9.807171336950357698e-01 -7.134801816099746175e-01 -4.182881328734533444e-01 6.620699166023078508e-01 -3.418490869630988804e+00 1.592888662379517761e+00 3.088300206004600534e-01 -5.167435339306872960e-02 3.072368097433065270e-01 9.167542592407779134e-01 3.066650646355343901e-01 4.127954339472728051e-01 -4.398095079675706787e-01 8.092302343375469276e-01 3.037706010000472689e-01 8.479335401775529579e-01 2.131584196880372595e+00 -3.705959671459146954e-01 -1.499967584948636912e+00 2.939218908442014500e-01 2.995937871687573417e-01 7.402760029896359173e-01 3.168810158352058926e-01 6.915803786688221599e-01 4.690541564826771759e-01 3.819933456520470672e-01 2.957187450047261135e-01 3.038788894545363384e-01 3.477145869972197434e-01 3.171311745003185245e-01 1.454090991949803513e+00 1.692827411977070762e+00 3.050720079524967265e-01 3.367660108570978972e-01 3.301221664679954704e-01 -2.541431473473769187e-01 2.389037955106508015e-01 -7.310458525702256960e-02 3.026599533783234652e-01 7.045196939362708966e-01 -5.947436353253725549e-01 3.364172627593889353e-01 3.295112263856784796e-01 1.583675449370782751e-01 2.780534758231554271e-01 1.666858679917006258e-01 3.034688379827517601e-01 3.031457513178483776e-01 8.645304616451075785e-02 3.115169563148741938e-01 4.303185716511947478e-01 1.145498898607839600e+00 1.115186908499123719e+00 9.012533778762715775e-01 2.303048564180855962e-01 7.988336741302030086e-01 1.683113135689590922e-01 5.165667110807636853e-01 -2.222698057471885313e+00 3.024330217298609735e-01 6.667729763555737543e-01 3.044646377926965575e-01 9.394267004177285774e-01 1.389395127464892576e+00 3.467294925063355016e-01 2.320836569773726543e-01 3.770021003304296903e-01 4.430354476366124006e-01 5.463233560485575291e-01 9.986087050225268547e-01 -8.401795331525010457e-01 3.172631752814040196e-01 -6.771256183428324416e-05 3.205913472934036057e-01 3.396365992420006807e-01 7.533788291765660672e-01 -3.036529059638272132e-01 4.178060104006817710e-01 3.117042606062410681e-01 3.565353916917037291e-01 8.978531631592734374e-01 4.372466924961704859e-01 -2.281125171142209529e-01 8.570321372847706787e-01 -2.659628581516737533e-02 5.516837957193932995e-01 3.477797245847139007e-01 1.305529015688779770e+00 6.076060732077754878e-01 7.014328330040243697e-01 4.263228870662066905e-01 4.756122930438477781e-01 -6.114945658828696562e-01 2.181975009485860872e-01 7.391843205474893930e-01 3.000001564865048542e-01 5.973173248394352264e-01 2.951664916008081563e-01 2.988667920736216566e-01 7.004542109354962021e-01 1.779793325899908241e-01 -2.086854145613533440e+00 2.308192501458146140e-01 2.512318037378619695e-01 9.833116644082772195e-01 3.116979634154875001e-01 2.882955373823637979e-01 3.728206270530608490e-01 3.072733382163241322e-01 4.124682792987304780e-01 1.358438984426025287e-01 -1.642820586541040795e+00 7.721585230726032423e-01 2.350436817409832513e-01 2.854641989091577514e-01 3.335792171284296392e-01 8.163614810827407586e-01 2.984923049299219033e-01 -1.641422705816661387e-01 3.583323977684835793e-01 1.129787447776759990e+00 3.438114002907959876e-01 4.171501447979779065e-01 1.030643066463456936e+00 4.387109975654115424e-01 2.893990195383715491e+00 3.115366380451458084e-01 3.003170567620093712e-01 7.168678702907116396e-01 3.099061387717777505e-01 3.209696397661558342e-01 -2.226208594115169692e+00 4.707695891041244196e-01 3.099889689760382261e-01 5.218245432067751821e-01 2.908758819651763305e-01 1.920173514243182222e-01 -1.413891896766929501e-01 2.104961722025593396e+00 -5.166057298670941877e-01 8.211646180705458598e-01 3.047149527321048601e-01 3.297761444489991645e-01 8.752354075251836951e-01 2.758802971003858073e-01 1.356976302654052446e+00 2.563259351155087185e-01 4.235249872597906529e-01 -8.893907869676458411e-01 -1.248401699435888329e-01 -6.914127481205234460e-01 -4.149190342877477455e+00 3.040614459448092166e+00 1.307829151360726493e-02 2.860182829305416563e-01 -1.693714249693988316e+00 3.067899545845272358e-01 4.939619307893987066e-01 3.052638264550620040e-01 2.002511490066594402e-01 6.445424055356542281e-01 6.074798506934752096e-01 1.132353706428914863e+00 -4.182881350649997332e-01 -2.446094317091190018e-01 2.958166568514489225e-01 -1.206330346518495134e+00 3.967161174849925809e-01 -6.671642646961088996e-01 3.212337703727546900e-01 4.301630611271198834e-01 1.476215078425880955e-01 4.665877886259147123e-01 2.588094238883882903e-01 2.184846305607791861e-02 3.003589329335958902e-01 2.764252629976301501e-01 3.678810149591972278e-01 2.731559563915839095e-01 2.996103123207271013e-01 -7.132636920763449906e-01 4.237118606728876857e-01 1.555022923683746949e+00 8.457405574081913735e-02 2.331544036790072216e-01 2.497663863224959258e-01 1.199568049915606949e+00 3.168106984785567515e-01 6.915587093278670328e-02 8.778711893810425826e-01 2.022912057569528910e-01 1.909144830371851675e+00 3.205839148220146484e-01 1.420146926240049456e+00 2.842524923519951785e-01 7.320753511405078129e-01 1.363886954855096034e+00 4.281727790008932333e-01 2.179745300465399105e-01 9.644241269829260110e-01 -1.778263931954436050e-01 -7.353807581997186260e-02 2.771809220789068773e-01 3.097388363783702969e-01 3.699921609001941003e-01 1.476208628418837487e-01 7.981183357817894786e-02 -3.994148858662782131e-01 1.291768893282355224e+00 2.999424356622547583e-01 3.031334526371433080e-01 -3.315910984249349269e+00 5.777564385271699576e-01 2.013103300750849478e-01 2.992228467780350676e-01 3.403538117718644118e-01 3.789967318870947066e-01 -1.151558559490875044e+00 6.407268259824903112e-01 3.029106382548411580e-01 3.120483276633345127e-01 1.011596637418559652e+00 4.755594032740733668e-01 2.991668436004453202e-01 -1.432432254398953830e+00 3.185244780376758067e-01 8.978045686930407054e-01 3.944184280795477449e-01 2.916244088245028565e-01 2.496371215581902336e-01 7.072264900589747549e-01 -3.012410098300774552e-02 3.059654189000448610e-01 2.986247617884923433e-01 1.132574927152039113e-01 6.656214995664642142e-01 2.445797196216954739e-01 6.674801915356292081e-01 2.106656678999649923e-01 6.968478408946580105e-01 -2.605681177151653038e-01 -1.515811473513864582e+00 2.879630574595600234e-01 -2.325978318819502816e-02 2.523516499713855943e-01 3.237109279662312433e-01 5.803351357380098080e-02 4.739777150752852442e-01 3.063097793170216354e-01 8.682264690263492846e-02 4.005332877307681838e-01 3.071177418448672869e-01 2.763970898370100016e-01 3.571804373636727203e-01 -8.839924127296087120e-01 3.034031108713173830e-01 3.463026785569395805e-01 2.961011611256743614e-01 -4.094617762214035617e-01 2.989312744662544485e-01 8.531170511907084641e-01 -6.584546823822351458e-01 1.154373730880749793e+00 6.268183667707947215e-01 3.240569262540473061e-01 2.986905024632011685e-01 -2.089471612695267932e+00 3.093806507861620037e-01 3.459075796442482864e-01 3.346364502686494102e-01 4.739774673556152451e-01 3.053145896976643958e-01 3.429795967545011259e-01 4.492419168334958746e-02 2.999448826776514587e-01 4.304835072609506375e-01 3.012510332203640062e-01 2.527144329087480101e-01 2.763226537284705353e-01 2.970668417015951968e-01 2.999994410908383702e-01 3.780245742645780838e-01 1.853521151864575001e-01 2.999133352471893832e-01 6.340881994259764953e-01 1.380128067495812183e-01 3.072063410866306965e-01 -1.585704597081419864e-01 2.216781570737686169e-01 6.845854086695895013e-01 4.655589137136395550e+00 3.034525588986918820e-01 5.237686203855288630e-02 5.773527349033472644e-01 1.720085931646892774e-01 1.586288697849523421e+00 3.064521203869099986e-01 6.220039872395622949e-01 2.969179121696472468e-01
