# 
#                 ----------------------------------------------------
#                 Data from a 3D direct N-body simulation. 
# 
#                 rows are i-particle; 
#                 coumns are :mass, tag, x ,y, z, vx, vy, vz, ax, ay, az
# 
#                 NTHU, Computational Physics 
# 
#                 ----------------------------------------------------
#                 Time = 0.0
0.000000000000000000e+00 1.000000000000000000e+00 2.000000000000000000e+00 3.000000000000000000e+00 4.000000000000000000e+00 5.000000000000000000e+00 6.000000000000000000e+00 7.000000000000000000e+00 8.000000000000000000e+00 9.000000000000000000e+00 1.000000000000000000e+01 1.100000000000000000e+01 1.200000000000000000e+01 1.300000000000000000e+01 1.400000000000000000e+01 1.500000000000000000e+01 1.600000000000000000e+01 1.700000000000000000e+01 1.800000000000000000e+01 1.900000000000000000e+01 2.000000000000000000e+01 2.100000000000000000e+01 2.200000000000000000e+01 2.300000000000000000e+01 2.400000000000000000e+01 2.500000000000000000e+01 2.600000000000000000e+01 2.700000000000000000e+01 2.800000000000000000e+01 2.900000000000000000e+01 3.000000000000000000e+01 3.100000000000000000e+01 3.200000000000000000e+01 3.300000000000000000e+01 3.400000000000000000e+01 3.500000000000000000e+01 3.600000000000000000e+01 3.700000000000000000e+01 3.800000000000000000e+01 3.900000000000000000e+01 4.000000000000000000e+01 4.100000000000000000e+01 4.200000000000000000e+01 4.300000000000000000e+01 4.400000000000000000e+01 4.500000000000000000e+01 4.600000000000000000e+01 4.700000000000000000e+01 4.800000000000000000e+01 4.900000000000000000e+01 5.000000000000000000e+01 5.100000000000000000e+01 5.200000000000000000e+01 5.300000000000000000e+01 5.400000000000000000e+01 5.500000000000000000e+01 5.600000000000000000e+01 5.700000000000000000e+01 5.800000000000000000e+01 5.900000000000000000e+01 6.000000000000000000e+01 6.100000000000000000e+01 6.200000000000000000e+01 6.300000000000000000e+01 6.400000000000000000e+01 6.500000000000000000e+01 6.600000000000000000e+01 6.700000000000000000e+01 6.800000000000000000e+01 6.900000000000000000e+01 7.000000000000000000e+01 7.100000000000000000e+01 7.200000000000000000e+01 7.300000000000000000e+01 7.400000000000000000e+01 7.500000000000000000e+01 7.600000000000000000e+01 7.700000000000000000e+01 7.800000000000000000e+01 7.900000000000000000e+01 8.000000000000000000e+01 8.100000000000000000e+01 8.200000000000000000e+01 8.300000000000000000e+01 8.400000000000000000e+01 8.500000000000000000e+01 8.600000000000000000e+01 8.700000000000000000e+01 8.800000000000000000e+01 8.900000000000000000e+01 9.000000000000000000e+01 9.100000000000000000e+01 9.200000000000000000e+01 9.300000000000000000e+01 9.400000000000000000e+01 9.500000000000000000e+01 9.600000000000000000e+01 9.700000000000000000e+01 9.800000000000000000e+01 9.900000000000000000e+01 1.000000000000000000e+02 1.010000000000000000e+02 1.020000000000000000e+02 1.030000000000000000e+02 1.040000000000000000e+02 1.050000000000000000e+02 1.060000000000000000e+02 1.070000000000000000e+02 1.080000000000000000e+02 1.090000000000000000e+02 1.100000000000000000e+02 1.110000000000000000e+02 1.120000000000000000e+02 1.130000000000000000e+02 1.140000000000000000e+02 1.150000000000000000e+02 1.160000000000000000e+02 1.170000000000000000e+02 1.180000000000000000e+02 1.190000000000000000e+02 1.200000000000000000e+02 1.210000000000000000e+02 1.220000000000000000e+02 1.230000000000000000e+02 1.240000000000000000e+02 1.250000000000000000e+02 1.260000000000000000e+02 1.270000000000000000e+02 1.280000000000000000e+02 1.290000000000000000e+02 1.300000000000000000e+02 1.310000000000000000e+02 1.320000000000000000e+02 1.330000000000000000e+02 1.340000000000000000e+02 1.350000000000000000e+02 1.360000000000000000e+02 1.370000000000000000e+02 1.380000000000000000e+02 1.390000000000000000e+02 1.400000000000000000e+02 1.410000000000000000e+02 1.420000000000000000e+02 1.430000000000000000e+02 1.440000000000000000e+02 1.450000000000000000e+02 1.460000000000000000e+02 1.470000000000000000e+02 1.480000000000000000e+02 1.490000000000000000e+02 1.500000000000000000e+02 1.510000000000000000e+02 1.520000000000000000e+02 1.530000000000000000e+02 1.540000000000000000e+02 1.550000000000000000e+02 1.560000000000000000e+02 1.570000000000000000e+02 1.580000000000000000e+02 1.590000000000000000e+02 1.600000000000000000e+02 1.610000000000000000e+02 1.620000000000000000e+02 1.630000000000000000e+02 1.640000000000000000e+02 1.650000000000000000e+02 1.660000000000000000e+02 1.670000000000000000e+02 1.680000000000000000e+02 1.690000000000000000e+02 1.700000000000000000e+02 1.710000000000000000e+02 1.720000000000000000e+02 1.730000000000000000e+02 1.740000000000000000e+02 1.750000000000000000e+02 1.760000000000000000e+02 1.770000000000000000e+02 1.780000000000000000e+02 1.790000000000000000e+02 1.800000000000000000e+02 1.810000000000000000e+02 1.820000000000000000e+02 1.830000000000000000e+02 1.840000000000000000e+02 1.850000000000000000e+02 1.860000000000000000e+02 1.870000000000000000e+02 1.880000000000000000e+02 1.890000000000000000e+02 1.900000000000000000e+02 1.910000000000000000e+02 1.920000000000000000e+02 1.930000000000000000e+02 1.940000000000000000e+02 1.950000000000000000e+02 1.960000000000000000e+02 1.970000000000000000e+02 1.980000000000000000e+02 1.990000000000000000e+02 2.000000000000000000e+02 2.010000000000000000e+02 2.020000000000000000e+02 2.030000000000000000e+02 2.040000000000000000e+02 2.050000000000000000e+02 2.060000000000000000e+02 2.070000000000000000e+02 2.080000000000000000e+02 2.090000000000000000e+02 2.100000000000000000e+02 2.110000000000000000e+02 2.120000000000000000e+02 2.130000000000000000e+02 2.140000000000000000e+02 2.150000000000000000e+02 2.160000000000000000e+02 2.170000000000000000e+02 2.180000000000000000e+02 2.190000000000000000e+02 2.200000000000000000e+02 2.210000000000000000e+02 2.220000000000000000e+02 2.230000000000000000e+02 2.240000000000000000e+02 2.250000000000000000e+02 2.260000000000000000e+02 2.270000000000000000e+02 2.280000000000000000e+02 2.290000000000000000e+02 2.300000000000000000e+02 2.310000000000000000e+02 2.320000000000000000e+02 2.330000000000000000e+02 2.340000000000000000e+02 2.350000000000000000e+02 2.360000000000000000e+02 2.370000000000000000e+02 2.380000000000000000e+02 2.390000000000000000e+02 2.400000000000000000e+02 2.410000000000000000e+02 2.420000000000000000e+02 2.430000000000000000e+02 2.440000000000000000e+02 2.450000000000000000e+02 2.460000000000000000e+02 2.470000000000000000e+02 2.480000000000000000e+02 2.490000000000000000e+02 2.500000000000000000e+02 2.510000000000000000e+02 2.520000000000000000e+02 2.530000000000000000e+02 2.540000000000000000e+02 2.550000000000000000e+02 2.560000000000000000e+02 2.570000000000000000e+02 2.580000000000000000e+02 2.590000000000000000e+02 2.600000000000000000e+02 2.610000000000000000e+02 2.620000000000000000e+02 2.630000000000000000e+02 2.640000000000000000e+02 2.650000000000000000e+02 2.660000000000000000e+02 2.670000000000000000e+02 2.680000000000000000e+02 2.690000000000000000e+02 2.700000000000000000e+02 2.710000000000000000e+02 2.720000000000000000e+02 2.730000000000000000e+02 2.740000000000000000e+02 2.750000000000000000e+02 2.760000000000000000e+02 2.770000000000000000e+02 2.780000000000000000e+02 2.790000000000000000e+02 2.800000000000000000e+02 2.810000000000000000e+02 2.820000000000000000e+02 2.830000000000000000e+02 2.840000000000000000e+02 2.850000000000000000e+02 2.860000000000000000e+02 2.870000000000000000e+02 2.880000000000000000e+02 2.890000000000000000e+02 2.900000000000000000e+02 2.910000000000000000e+02 2.920000000000000000e+02 2.930000000000000000e+02 2.940000000000000000e+02 2.950000000000000000e+02 2.960000000000000000e+02 2.970000000000000000e+02 2.980000000000000000e+02 2.990000000000000000e+02 3.000000000000000000e+02 3.010000000000000000e+02 3.020000000000000000e+02 3.030000000000000000e+02 3.040000000000000000e+02 3.050000000000000000e+02 3.060000000000000000e+02 3.070000000000000000e+02 3.080000000000000000e+02 3.090000000000000000e+02 3.100000000000000000e+02 3.110000000000000000e+02 3.120000000000000000e+02 3.130000000000000000e+02 3.140000000000000000e+02 3.150000000000000000e+02 3.160000000000000000e+02 3.170000000000000000e+02 3.180000000000000000e+02 3.190000000000000000e+02 3.200000000000000000e+02 3.210000000000000000e+02 3.220000000000000000e+02 3.230000000000000000e+02 3.240000000000000000e+02 3.250000000000000000e+02 3.260000000000000000e+02 3.270000000000000000e+02 3.280000000000000000e+02 3.290000000000000000e+02 3.300000000000000000e+02 3.310000000000000000e+02 3.320000000000000000e+02 3.330000000000000000e+02 3.340000000000000000e+02 3.350000000000000000e+02 3.360000000000000000e+02 3.370000000000000000e+02 3.380000000000000000e+02 3.390000000000000000e+02 3.400000000000000000e+02 3.410000000000000000e+02 3.420000000000000000e+02 3.430000000000000000e+02 3.440000000000000000e+02 3.450000000000000000e+02 3.460000000000000000e+02 3.470000000000000000e+02 3.480000000000000000e+02 3.490000000000000000e+02 3.500000000000000000e+02 3.510000000000000000e+02 3.520000000000000000e+02 3.530000000000000000e+02 3.540000000000000000e+02 3.550000000000000000e+02 3.560000000000000000e+02 3.570000000000000000e+02 3.580000000000000000e+02 3.590000000000000000e+02 3.600000000000000000e+02 3.610000000000000000e+02 3.620000000000000000e+02 3.630000000000000000e+02 3.640000000000000000e+02 3.650000000000000000e+02 3.660000000000000000e+02 3.670000000000000000e+02 3.680000000000000000e+02 3.690000000000000000e+02 3.700000000000000000e+02 3.710000000000000000e+02 3.720000000000000000e+02 3.730000000000000000e+02 3.740000000000000000e+02 3.750000000000000000e+02 3.760000000000000000e+02 3.770000000000000000e+02 3.780000000000000000e+02 3.790000000000000000e+02 3.800000000000000000e+02 3.810000000000000000e+02 3.820000000000000000e+02 3.830000000000000000e+02 3.840000000000000000e+02 3.850000000000000000e+02 3.860000000000000000e+02 3.870000000000000000e+02 3.880000000000000000e+02 3.890000000000000000e+02 3.900000000000000000e+02 3.910000000000000000e+02 3.920000000000000000e+02 3.930000000000000000e+02 3.940000000000000000e+02 3.950000000000000000e+02 3.960000000000000000e+02 3.970000000000000000e+02 3.980000000000000000e+02 3.990000000000000000e+02 4.000000000000000000e+02 4.010000000000000000e+02 4.020000000000000000e+02 4.030000000000000000e+02 4.040000000000000000e+02 4.050000000000000000e+02 4.060000000000000000e+02 4.070000000000000000e+02 4.080000000000000000e+02 4.090000000000000000e+02 4.100000000000000000e+02 4.110000000000000000e+02 4.120000000000000000e+02 4.130000000000000000e+02 4.140000000000000000e+02 4.150000000000000000e+02 4.160000000000000000e+02 4.170000000000000000e+02 4.180000000000000000e+02 4.190000000000000000e+02 4.200000000000000000e+02 4.210000000000000000e+02 4.220000000000000000e+02 4.230000000000000000e+02 4.240000000000000000e+02 4.250000000000000000e+02 4.260000000000000000e+02 4.270000000000000000e+02 4.280000000000000000e+02 4.290000000000000000e+02 4.300000000000000000e+02 4.310000000000000000e+02 4.320000000000000000e+02 4.330000000000000000e+02 4.340000000000000000e+02 4.350000000000000000e+02 4.360000000000000000e+02 4.370000000000000000e+02 4.380000000000000000e+02 4.390000000000000000e+02 4.400000000000000000e+02 4.410000000000000000e+02 4.420000000000000000e+02 4.430000000000000000e+02 4.440000000000000000e+02 4.450000000000000000e+02 4.460000000000000000e+02 4.470000000000000000e+02 4.480000000000000000e+02 4.490000000000000000e+02 4.500000000000000000e+02 4.510000000000000000e+02 4.520000000000000000e+02 4.530000000000000000e+02 4.540000000000000000e+02 4.550000000000000000e+02 4.560000000000000000e+02 4.570000000000000000e+02 4.580000000000000000e+02 4.590000000000000000e+02 4.600000000000000000e+02 4.610000000000000000e+02 4.620000000000000000e+02 4.630000000000000000e+02 4.640000000000000000e+02 4.650000000000000000e+02 4.660000000000000000e+02 4.670000000000000000e+02 4.680000000000000000e+02 4.690000000000000000e+02 4.700000000000000000e+02 4.710000000000000000e+02 4.720000000000000000e+02 4.730000000000000000e+02 4.740000000000000000e+02 4.750000000000000000e+02 4.760000000000000000e+02 4.770000000000000000e+02 4.780000000000000000e+02 4.790000000000000000e+02 4.800000000000000000e+02 4.810000000000000000e+02 4.820000000000000000e+02 4.830000000000000000e+02 4.840000000000000000e+02 4.850000000000000000e+02 4.860000000000000000e+02 4.870000000000000000e+02 4.880000000000000000e+02 4.890000000000000000e+02 4.900000000000000000e+02 4.910000000000000000e+02 4.920000000000000000e+02 4.930000000000000000e+02 4.940000000000000000e+02 4.950000000000000000e+02 4.960000000000000000e+02 4.970000000000000000e+02 4.980000000000000000e+02 4.990000000000000000e+02 5.000000000000000000e+02 5.010000000000000000e+02 5.020000000000000000e+02 5.030000000000000000e+02 5.040000000000000000e+02 5.050000000000000000e+02 5.060000000000000000e+02 5.070000000000000000e+02 5.080000000000000000e+02 5.090000000000000000e+02 5.100000000000000000e+02 5.110000000000000000e+02 5.120000000000000000e+02 5.130000000000000000e+02 5.140000000000000000e+02 5.150000000000000000e+02 5.160000000000000000e+02 5.170000000000000000e+02 5.180000000000000000e+02 5.190000000000000000e+02 5.200000000000000000e+02 5.210000000000000000e+02 5.220000000000000000e+02 5.230000000000000000e+02 5.240000000000000000e+02 5.250000000000000000e+02 5.260000000000000000e+02 5.270000000000000000e+02 5.280000000000000000e+02 5.290000000000000000e+02 5.300000000000000000e+02 5.310000000000000000e+02 5.320000000000000000e+02 5.330000000000000000e+02 5.340000000000000000e+02 5.350000000000000000e+02 5.360000000000000000e+02 5.370000000000000000e+02 5.380000000000000000e+02 5.390000000000000000e+02 5.400000000000000000e+02 5.410000000000000000e+02 5.420000000000000000e+02 5.430000000000000000e+02 5.440000000000000000e+02 5.450000000000000000e+02 5.460000000000000000e+02 5.470000000000000000e+02 5.480000000000000000e+02 5.490000000000000000e+02 5.500000000000000000e+02 5.510000000000000000e+02 5.520000000000000000e+02 5.530000000000000000e+02 5.540000000000000000e+02 5.550000000000000000e+02 5.560000000000000000e+02 5.570000000000000000e+02 5.580000000000000000e+02 5.590000000000000000e+02 5.600000000000000000e+02 5.610000000000000000e+02 5.620000000000000000e+02 5.630000000000000000e+02 5.640000000000000000e+02 5.650000000000000000e+02 5.660000000000000000e+02 5.670000000000000000e+02 5.680000000000000000e+02 5.690000000000000000e+02 5.700000000000000000e+02 5.710000000000000000e+02 5.720000000000000000e+02 5.730000000000000000e+02 5.740000000000000000e+02 5.750000000000000000e+02 5.760000000000000000e+02 5.770000000000000000e+02 5.780000000000000000e+02 5.790000000000000000e+02 5.800000000000000000e+02 5.810000000000000000e+02 5.820000000000000000e+02 5.830000000000000000e+02 5.840000000000000000e+02 5.850000000000000000e+02 5.860000000000000000e+02 5.870000000000000000e+02 5.880000000000000000e+02 5.890000000000000000e+02 5.900000000000000000e+02 5.910000000000000000e+02 5.920000000000000000e+02 5.930000000000000000e+02 5.940000000000000000e+02 5.950000000000000000e+02 5.960000000000000000e+02 5.970000000000000000e+02 5.980000000000000000e+02 5.990000000000000000e+02 6.000000000000000000e+02 6.010000000000000000e+02 6.020000000000000000e+02 6.030000000000000000e+02 6.040000000000000000e+02 6.050000000000000000e+02 6.060000000000000000e+02 6.070000000000000000e+02 6.080000000000000000e+02 6.090000000000000000e+02 6.100000000000000000e+02 6.110000000000000000e+02 6.120000000000000000e+02 6.130000000000000000e+02 6.140000000000000000e+02 6.150000000000000000e+02 6.160000000000000000e+02 6.170000000000000000e+02 6.180000000000000000e+02 6.190000000000000000e+02 6.200000000000000000e+02 6.210000000000000000e+02 6.220000000000000000e+02 6.230000000000000000e+02 6.240000000000000000e+02 6.250000000000000000e+02 6.260000000000000000e+02 6.270000000000000000e+02 6.280000000000000000e+02 6.290000000000000000e+02 6.300000000000000000e+02 6.310000000000000000e+02 6.320000000000000000e+02 6.330000000000000000e+02 6.340000000000000000e+02 6.350000000000000000e+02 6.360000000000000000e+02 6.370000000000000000e+02 6.380000000000000000e+02 6.390000000000000000e+02 6.400000000000000000e+02 6.410000000000000000e+02 6.420000000000000000e+02 6.430000000000000000e+02 6.440000000000000000e+02 6.450000000000000000e+02 6.460000000000000000e+02 6.470000000000000000e+02 6.480000000000000000e+02 6.490000000000000000e+02 6.500000000000000000e+02 6.510000000000000000e+02 6.520000000000000000e+02 6.530000000000000000e+02 6.540000000000000000e+02 6.550000000000000000e+02 6.560000000000000000e+02 6.570000000000000000e+02 6.580000000000000000e+02 6.590000000000000000e+02 6.600000000000000000e+02 6.610000000000000000e+02 6.620000000000000000e+02 6.630000000000000000e+02 6.640000000000000000e+02 6.650000000000000000e+02 6.660000000000000000e+02 6.670000000000000000e+02 6.680000000000000000e+02 6.690000000000000000e+02 6.700000000000000000e+02 6.710000000000000000e+02 6.720000000000000000e+02 6.730000000000000000e+02 6.740000000000000000e+02 6.750000000000000000e+02 6.760000000000000000e+02 6.770000000000000000e+02 6.780000000000000000e+02 6.790000000000000000e+02 6.800000000000000000e+02 6.810000000000000000e+02 6.820000000000000000e+02 6.830000000000000000e+02 6.840000000000000000e+02 6.850000000000000000e+02 6.860000000000000000e+02 6.870000000000000000e+02 6.880000000000000000e+02 6.890000000000000000e+02 6.900000000000000000e+02 6.910000000000000000e+02 6.920000000000000000e+02 6.930000000000000000e+02 6.940000000000000000e+02 6.950000000000000000e+02 6.960000000000000000e+02 6.970000000000000000e+02 6.980000000000000000e+02 6.990000000000000000e+02 7.000000000000000000e+02 7.010000000000000000e+02 7.020000000000000000e+02 7.030000000000000000e+02 7.040000000000000000e+02 7.050000000000000000e+02 7.060000000000000000e+02 7.070000000000000000e+02 7.080000000000000000e+02 7.090000000000000000e+02 7.100000000000000000e+02 7.110000000000000000e+02 7.120000000000000000e+02 7.130000000000000000e+02 7.140000000000000000e+02 7.150000000000000000e+02 7.160000000000000000e+02 7.170000000000000000e+02 7.180000000000000000e+02 7.190000000000000000e+02 7.200000000000000000e+02 7.210000000000000000e+02 7.220000000000000000e+02 7.230000000000000000e+02 7.240000000000000000e+02 7.250000000000000000e+02 7.260000000000000000e+02 7.270000000000000000e+02 7.280000000000000000e+02 7.290000000000000000e+02 7.300000000000000000e+02 7.310000000000000000e+02 7.320000000000000000e+02 7.330000000000000000e+02 7.340000000000000000e+02 7.350000000000000000e+02 7.360000000000000000e+02 7.370000000000000000e+02 7.380000000000000000e+02 7.390000000000000000e+02 7.400000000000000000e+02 7.410000000000000000e+02 7.420000000000000000e+02 7.430000000000000000e+02 7.440000000000000000e+02 7.450000000000000000e+02 7.460000000000000000e+02 7.470000000000000000e+02 7.480000000000000000e+02 7.490000000000000000e+02 7.500000000000000000e+02 7.510000000000000000e+02 7.520000000000000000e+02 7.530000000000000000e+02 7.540000000000000000e+02 7.550000000000000000e+02 7.560000000000000000e+02 7.570000000000000000e+02 7.580000000000000000e+02 7.590000000000000000e+02 7.600000000000000000e+02 7.610000000000000000e+02 7.620000000000000000e+02 7.630000000000000000e+02 7.640000000000000000e+02 7.650000000000000000e+02 7.660000000000000000e+02 7.670000000000000000e+02 7.680000000000000000e+02 7.690000000000000000e+02 7.700000000000000000e+02 7.710000000000000000e+02 7.720000000000000000e+02 7.730000000000000000e+02 7.740000000000000000e+02 7.750000000000000000e+02 7.760000000000000000e+02 7.770000000000000000e+02 7.780000000000000000e+02 7.790000000000000000e+02 7.800000000000000000e+02 7.810000000000000000e+02 7.820000000000000000e+02 7.830000000000000000e+02 7.840000000000000000e+02 7.850000000000000000e+02 7.860000000000000000e+02 7.870000000000000000e+02 7.880000000000000000e+02 7.890000000000000000e+02 7.900000000000000000e+02 7.910000000000000000e+02 7.920000000000000000e+02 7.930000000000000000e+02 7.940000000000000000e+02 7.950000000000000000e+02 7.960000000000000000e+02 7.970000000000000000e+02 7.980000000000000000e+02 7.990000000000000000e+02 8.000000000000000000e+02 8.010000000000000000e+02 8.020000000000000000e+02 8.030000000000000000e+02 8.040000000000000000e+02 8.050000000000000000e+02 8.060000000000000000e+02 8.070000000000000000e+02 8.080000000000000000e+02 8.090000000000000000e+02 8.100000000000000000e+02 8.110000000000000000e+02 8.120000000000000000e+02 8.130000000000000000e+02 8.140000000000000000e+02 8.150000000000000000e+02 8.160000000000000000e+02 8.170000000000000000e+02 8.180000000000000000e+02 8.190000000000000000e+02 8.200000000000000000e+02 8.210000000000000000e+02 8.220000000000000000e+02 8.230000000000000000e+02 8.240000000000000000e+02 8.250000000000000000e+02 8.260000000000000000e+02 8.270000000000000000e+02 8.280000000000000000e+02 8.290000000000000000e+02 8.300000000000000000e+02 8.310000000000000000e+02 8.320000000000000000e+02 8.330000000000000000e+02 8.340000000000000000e+02 8.350000000000000000e+02 8.360000000000000000e+02 8.370000000000000000e+02 8.380000000000000000e+02 8.390000000000000000e+02 8.400000000000000000e+02 8.410000000000000000e+02 8.420000000000000000e+02 8.430000000000000000e+02 8.440000000000000000e+02 8.450000000000000000e+02 8.460000000000000000e+02 8.470000000000000000e+02 8.480000000000000000e+02 8.490000000000000000e+02 8.500000000000000000e+02 8.510000000000000000e+02 8.520000000000000000e+02 8.530000000000000000e+02 8.540000000000000000e+02 8.550000000000000000e+02 8.560000000000000000e+02 8.570000000000000000e+02 8.580000000000000000e+02 8.590000000000000000e+02 8.600000000000000000e+02 8.610000000000000000e+02 8.620000000000000000e+02 8.630000000000000000e+02 8.640000000000000000e+02 8.650000000000000000e+02 8.660000000000000000e+02 8.670000000000000000e+02 8.680000000000000000e+02 8.690000000000000000e+02 8.700000000000000000e+02 8.710000000000000000e+02 8.720000000000000000e+02 8.730000000000000000e+02 8.740000000000000000e+02 8.750000000000000000e+02 8.760000000000000000e+02 8.770000000000000000e+02 8.780000000000000000e+02 8.790000000000000000e+02 8.800000000000000000e+02 8.810000000000000000e+02 8.820000000000000000e+02 8.830000000000000000e+02 8.840000000000000000e+02 8.850000000000000000e+02 8.860000000000000000e+02 8.870000000000000000e+02 8.880000000000000000e+02 8.890000000000000000e+02 8.900000000000000000e+02 8.910000000000000000e+02 8.920000000000000000e+02 8.930000000000000000e+02 8.940000000000000000e+02 8.950000000000000000e+02 8.960000000000000000e+02 8.970000000000000000e+02 8.980000000000000000e+02 8.990000000000000000e+02 9.000000000000000000e+02 9.010000000000000000e+02 9.020000000000000000e+02 9.030000000000000000e+02 9.040000000000000000e+02 9.050000000000000000e+02 9.060000000000000000e+02 9.070000000000000000e+02 9.080000000000000000e+02 9.090000000000000000e+02 9.100000000000000000e+02 9.110000000000000000e+02 9.120000000000000000e+02 9.130000000000000000e+02 9.140000000000000000e+02 9.150000000000000000e+02 9.160000000000000000e+02 9.170000000000000000e+02 9.180000000000000000e+02 9.190000000000000000e+02 9.200000000000000000e+02 9.210000000000000000e+02 9.220000000000000000e+02 9.230000000000000000e+02 9.240000000000000000e+02 9.250000000000000000e+02 9.260000000000000000e+02 9.270000000000000000e+02 9.280000000000000000e+02 9.290000000000000000e+02 9.300000000000000000e+02 9.310000000000000000e+02 9.320000000000000000e+02 9.330000000000000000e+02 9.340000000000000000e+02 9.350000000000000000e+02 9.360000000000000000e+02 9.370000000000000000e+02 9.380000000000000000e+02 9.390000000000000000e+02 9.400000000000000000e+02 9.410000000000000000e+02 9.420000000000000000e+02 9.430000000000000000e+02 9.440000000000000000e+02 9.450000000000000000e+02 9.460000000000000000e+02 9.470000000000000000e+02 9.480000000000000000e+02 9.490000000000000000e+02 9.500000000000000000e+02 9.510000000000000000e+02 9.520000000000000000e+02 9.530000000000000000e+02 9.540000000000000000e+02 9.550000000000000000e+02 9.560000000000000000e+02 9.570000000000000000e+02 9.580000000000000000e+02 9.590000000000000000e+02 9.600000000000000000e+02 9.610000000000000000e+02 9.620000000000000000e+02 9.630000000000000000e+02 9.640000000000000000e+02 9.650000000000000000e+02 9.660000000000000000e+02 9.670000000000000000e+02 9.680000000000000000e+02 9.690000000000000000e+02 9.700000000000000000e+02 9.710000000000000000e+02 9.720000000000000000e+02 9.730000000000000000e+02 9.740000000000000000e+02 9.750000000000000000e+02 9.760000000000000000e+02 9.770000000000000000e+02 9.780000000000000000e+02 9.790000000000000000e+02 9.800000000000000000e+02 9.810000000000000000e+02 9.820000000000000000e+02 9.830000000000000000e+02 9.840000000000000000e+02 9.850000000000000000e+02 9.860000000000000000e+02 9.870000000000000000e+02 9.880000000000000000e+02 9.890000000000000000e+02 9.900000000000000000e+02 9.910000000000000000e+02 9.920000000000000000e+02 9.930000000000000000e+02 9.940000000000000000e+02 9.950000000000000000e+02 9.960000000000000000e+02 9.970000000000000000e+02 9.980000000000000000e+02 9.990000000000000000e+02
1.000000000000000000e+00 1.000000000000000000e+00 1.000000000000000000e+00 1.000000000000000000e+00 1.000000000000000000e+00 1.000000000000000000e+00 1.000000000000000000e+00 1.000000000000000000e+00 1.000000000000000000e+00 1.000000000000000000e+00 1.000000000000000000e+00 1.000000000000000000e+00 1.000000000000000000e+00 1.000000000000000000e+00 1.000000000000000000e+00 1.000000000000000000e+00 1.000000000000000000e+00 1.000000000000000000e+00 1.000000000000000000e+00 1.000000000000000000e+00 1.000000000000000000e+00 1.000000000000000000e+00 1.000000000000000000e+00 1.000000000000000000e+00 1.000000000000000000e+00 1.000000000000000000e+00 1.000000000000000000e+00 1.000000000000000000e+00 1.000000000000000000e+00 1.000000000000000000e+00 1.000000000000000000e+00 1.000000000000000000e+00 1.000000000000000000e+00 1.000000000000000000e+00 1.000000000000000000e+00 1.000000000000000000e+00 1.000000000000000000e+00 1.000000000000000000e+00 1.000000000000000000e+00 1.000000000000000000e+00 1.000000000000000000e+00 1.000000000000000000e+00 1.000000000000000000e+00 1.000000000000000000e+00 1.000000000000000000e+00 1.000000000000000000e+00 1.000000000000000000e+00 1.000000000000000000e+00 1.000000000000000000e+00 1.000000000000000000e+00 1.000000000000000000e+00 1.000000000000000000e+00 1.000000000000000000e+00 1.000000000000000000e+00 1.000000000000000000e+00 1.000000000000000000e+00 1.000000000000000000e+00 1.000000000000000000e+00 1.000000000000000000e+00 1.000000000000000000e+00 1.000000000000000000e+00 1.000000000000000000e+00 1.000000000000000000e+00 1.000000000000000000e+00 1.000000000000000000e+00 1.000000000000000000e+00 1.000000000000000000e+00 1.000000000000000000e+00 1.000000000000000000e+00 1.000000000000000000e+00 1.000000000000000000e+00 1.000000000000000000e+00 1.000000000000000000e+00 1.000000000000000000e+00 1.000000000000000000e+00 1.000000000000000000e+00 1.000000000000000000e+00 1.000000000000000000e+00 1.000000000000000000e+00 1.000000000000000000e+00 1.000000000000000000e+00 1.000000000000000000e+00 1.000000000000000000e+00 1.000000000000000000e+00 1.000000000000000000e+00 1.000000000000000000e+00 1.000000000000000000e+00 1.000000000000000000e+00 1.000000000000000000e+00 1.000000000000000000e+00 1.000000000000000000e+00 1.000000000000000000e+00 1.000000000000000000e+00 1.000000000000000000e+00 1.000000000000000000e+00 1.000000000000000000e+00 1.000000000000000000e+00 1.000000000000000000e+00 1.000000000000000000e+00 1.000000000000000000e+00 1.000000000000000000e+00 1.000000000000000000e+00 1.000000000000000000e+00 1.000000000000000000e+00 1.000000000000000000e+00 1.000000000000000000e+00 1.000000000000000000e+00 1.000000000000000000e+00 1.000000000000000000e+00 1.000000000000000000e+00 1.000000000000000000e+00 1.000000000000000000e+00 1.000000000000000000e+00 1.000000000000000000e+00 1.000000000000000000e+00 1.000000000000000000e+00 1.000000000000000000e+00 1.000000000000000000e+00 1.000000000000000000e+00 1.000000000000000000e+00 1.000000000000000000e+00 1.000000000000000000e+00 1.000000000000000000e+00 1.000000000000000000e+00 1.000000000000000000e+00 1.000000000000000000e+00 1.000000000000000000e+00 1.000000000000000000e+00 1.000000000000000000e+00 1.000000000000000000e+00 1.000000000000000000e+00 1.000000000000000000e+00 1.000000000000000000e+00 1.000000000000000000e+00 1.000000000000000000e+00 1.000000000000000000e+00 1.000000000000000000e+00 1.000000000000000000e+00 1.000000000000000000e+00 1.000000000000000000e+00 1.000000000000000000e+00 1.000000000000000000e+00 1.000000000000000000e+00 1.000000000000000000e+00 1.000000000000000000e+00 1.000000000000000000e+00 1.000000000000000000e+00 1.000000000000000000e+00 1.000000000000000000e+00 1.000000000000000000e+00 1.000000000000000000e+00 1.000000000000000000e+00 1.000000000000000000e+00 1.000000000000000000e+00 1.000000000000000000e+00 1.000000000000000000e+00 1.000000000000000000e+00 1.000000000000000000e+00 1.000000000000000000e+00 1.000000000000000000e+00 1.000000000000000000e+00 1.000000000000000000e+00 1.000000000000000000e+00 1.000000000000000000e+00 1.000000000000000000e+00 1.000000000000000000e+00 1.000000000000000000e+00 1.000000000000000000e+00 1.000000000000000000e+00 1.000000000000000000e+00 1.000000000000000000e+00 1.000000000000000000e+00 1.000000000000000000e+00 1.000000000000000000e+00 1.000000000000000000e+00 1.000000000000000000e+00 1.000000000000000000e+00 1.000000000000000000e+00 1.000000000000000000e+00 1.000000000000000000e+00 1.000000000000000000e+00 1.000000000000000000e+00 1.000000000000000000e+00 1.000000000000000000e+00 1.000000000000000000e+00 1.000000000000000000e+00 1.000000000000000000e+00 1.000000000000000000e+00 1.000000000000000000e+00 1.000000000000000000e+00 1.000000000000000000e+00 1.000000000000000000e+00 1.000000000000000000e+00 1.000000000000000000e+00 1.000000000000000000e+00 1.000000000000000000e+00 1.000000000000000000e+00 1.000000000000000000e+00 1.000000000000000000e+00 1.000000000000000000e+00 1.000000000000000000e+00 1.000000000000000000e+00 1.000000000000000000e+00 1.000000000000000000e+00 1.000000000000000000e+00 1.000000000000000000e+00 1.000000000000000000e+00 1.000000000000000000e+00 1.000000000000000000e+00 1.000000000000000000e+00 1.000000000000000000e+00 1.000000000000000000e+00 1.000000000000000000e+00 1.000000000000000000e+00 1.000000000000000000e+00 1.000000000000000000e+00 1.000000000000000000e+00 1.000000000000000000e+00 1.000000000000000000e+00 1.000000000000000000e+00 1.000000000000000000e+00 1.000000000000000000e+00 1.000000000000000000e+00 1.000000000000000000e+00 1.000000000000000000e+00 1.000000000000000000e+00 1.000000000000000000e+00 1.000000000000000000e+00 1.000000000000000000e+00 1.000000000000000000e+00 1.000000000000000000e+00 1.000000000000000000e+00 1.000000000000000000e+00 1.000000000000000000e+00 1.000000000000000000e+00 1.000000000000000000e+00 1.000000000000000000e+00 1.000000000000000000e+00 1.000000000000000000e+00 1.000000000000000000e+00 1.000000000000000000e+00 1.000000000000000000e+00 1.000000000000000000e+00 1.000000000000000000e+00 1.000000000000000000e+00 1.000000000000000000e+00 1.000000000000000000e+00 1.000000000000000000e+00 1.000000000000000000e+00 1.000000000000000000e+00 1.000000000000000000e+00 1.000000000000000000e+00 1.000000000000000000e+00 1.000000000000000000e+00 1.000000000000000000e+00 1.000000000000000000e+00 1.000000000000000000e+00 1.000000000000000000e+00 1.000000000000000000e+00 1.000000000000000000e+00 1.000000000000000000e+00 1.000000000000000000e+00 1.000000000000000000e+00 1.000000000000000000e+00 1.000000000000000000e+00 1.000000000000000000e+00 1.000000000000000000e+00 1.000000000000000000e+00 1.000000000000000000e+00 1.000000000000000000e+00 1.000000000000000000e+00 1.000000000000000000e+00 1.000000000000000000e+00 1.000000000000000000e+00 1.000000000000000000e+00 1.000000000000000000e+00 1.000000000000000000e+00 1.000000000000000000e+00 1.000000000000000000e+00 1.000000000000000000e+00 1.000000000000000000e+00 1.000000000000000000e+00 1.000000000000000000e+00 1.000000000000000000e+00 1.000000000000000000e+00 1.000000000000000000e+00 1.000000000000000000e+00 1.000000000000000000e+00 1.000000000000000000e+00 1.000000000000000000e+00 1.000000000000000000e+00 1.000000000000000000e+00 1.000000000000000000e+00 1.000000000000000000e+00 1.000000000000000000e+00 1.000000000000000000e+00 1.000000000000000000e+00 1.000000000000000000e+00 1.000000000000000000e+00 1.000000000000000000e+00 1.000000000000000000e+00 1.000000000000000000e+00 1.000000000000000000e+00 1.000000000000000000e+00 1.000000000000000000e+00 1.000000000000000000e+00 1.000000000000000000e+00 1.000000000000000000e+00 1.000000000000000000e+00 1.000000000000000000e+00 1.000000000000000000e+00 1.000000000000000000e+00 1.000000000000000000e+00 1.000000000000000000e+00 1.000000000000000000e+00 1.000000000000000000e+00 1.000000000000000000e+00 1.000000000000000000e+00 1.000000000000000000e+00 1.000000000000000000e+00 1.000000000000000000e+00 1.000000000000000000e+00 1.000000000000000000e+00 1.000000000000000000e+00 1.000000000000000000e+00 1.000000000000000000e+00 1.000000000000000000e+00 1.000000000000000000e+00 1.000000000000000000e+00 1.000000000000000000e+00 1.000000000000000000e+00 1.000000000000000000e+00 1.000000000000000000e+00 1.000000000000000000e+00 1.000000000000000000e+00 1.000000000000000000e+00 1.000000000000000000e+00 1.000000000000000000e+00 1.000000000000000000e+00 1.000000000000000000e+00 1.000000000000000000e+00 1.000000000000000000e+00 1.000000000000000000e+00 1.000000000000000000e+00 1.000000000000000000e+00 1.000000000000000000e+00 1.000000000000000000e+00 1.000000000000000000e+00 1.000000000000000000e+00 1.000000000000000000e+00 1.000000000000000000e+00 1.000000000000000000e+00 1.000000000000000000e+00 1.000000000000000000e+00 1.000000000000000000e+00 1.000000000000000000e+00 1.000000000000000000e+00 1.000000000000000000e+00 1.000000000000000000e+00 1.000000000000000000e+00 1.000000000000000000e+00 1.000000000000000000e+00 1.000000000000000000e+00 1.000000000000000000e+00 1.000000000000000000e+00 1.000000000000000000e+00 1.000000000000000000e+00 1.000000000000000000e+00 1.000000000000000000e+00 1.000000000000000000e+00 1.000000000000000000e+00 1.000000000000000000e+00 1.000000000000000000e+00 1.000000000000000000e+00 1.000000000000000000e+00 1.000000000000000000e+00 1.000000000000000000e+00 1.000000000000000000e+00 1.000000000000000000e+00 1.000000000000000000e+00 1.000000000000000000e+00 1.000000000000000000e+00 1.000000000000000000e+00 1.000000000000000000e+00 1.000000000000000000e+00 1.000000000000000000e+00 1.000000000000000000e+00 1.000000000000000000e+00 1.000000000000000000e+00 1.000000000000000000e+00 1.000000000000000000e+00 1.000000000000000000e+00 1.000000000000000000e+00 1.000000000000000000e+00 1.000000000000000000e+00 1.000000000000000000e+00 1.000000000000000000e+00 1.000000000000000000e+00 1.000000000000000000e+00 1.000000000000000000e+00 1.000000000000000000e+00 1.000000000000000000e+00 1.000000000000000000e+00 1.000000000000000000e+00 1.000000000000000000e+00 1.000000000000000000e+00 1.000000000000000000e+00 1.000000000000000000e+00 1.000000000000000000e+00 1.000000000000000000e+00 1.000000000000000000e+00 1.000000000000000000e+00 1.000000000000000000e+00 1.000000000000000000e+00 1.000000000000000000e+00 1.000000000000000000e+00 1.000000000000000000e+00 1.000000000000000000e+00 1.000000000000000000e+00 1.000000000000000000e+00 1.000000000000000000e+00 1.000000000000000000e+00 1.000000000000000000e+00 1.000000000000000000e+00 1.000000000000000000e+00 1.000000000000000000e+00 1.000000000000000000e+00 1.000000000000000000e+00 1.000000000000000000e+00 1.000000000000000000e+00 1.000000000000000000e+00 1.000000000000000000e+00 1.000000000000000000e+00 1.000000000000000000e+00 1.000000000000000000e+00 1.000000000000000000e+00 1.000000000000000000e+00 1.000000000000000000e+00 1.000000000000000000e+00 1.000000000000000000e+00 1.000000000000000000e+00 1.000000000000000000e+00 1.000000000000000000e+00 1.000000000000000000e+00 1.000000000000000000e+00 1.000000000000000000e+00 1.000000000000000000e+00 1.000000000000000000e+00 1.000000000000000000e+00 1.000000000000000000e+00 1.000000000000000000e+00 1.000000000000000000e+00 1.000000000000000000e+00 1.000000000000000000e+00 1.000000000000000000e+00 1.000000000000000000e+00 1.000000000000000000e+00 1.000000000000000000e+00 1.000000000000000000e+00 1.000000000000000000e+00 1.000000000000000000e+00 1.000000000000000000e+00 1.000000000000000000e+00 1.000000000000000000e+00 1.000000000000000000e+00 1.000000000000000000e+00 1.000000000000000000e+00 1.000000000000000000e+00 1.000000000000000000e+00 1.000000000000000000e+00 1.000000000000000000e+00 1.000000000000000000e+00 1.000000000000000000e+00 1.000000000000000000e+00 1.000000000000000000e+00 1.000000000000000000e+00 1.000000000000000000e+00 1.000000000000000000e+00 1.000000000000000000e+00 1.000000000000000000e+00 1.000000000000000000e+00 1.000000000000000000e+00 1.000000000000000000e+00 1.000000000000000000e+00 1.000000000000000000e+00 1.000000000000000000e+00 1.000000000000000000e+00 1.000000000000000000e+00 1.000000000000000000e+00 1.000000000000000000e+00 1.000000000000000000e+00 1.000000000000000000e+00 1.000000000000000000e+00 1.000000000000000000e+00 1.000000000000000000e+00 1.000000000000000000e+00 1.000000000000000000e+00 1.000000000000000000e+00 1.000000000000000000e+00 1.000000000000000000e+00 1.000000000000000000e+00 1.000000000000000000e+00 1.000000000000000000e+00 1.000000000000000000e+00 1.000000000000000000e+00 1.000000000000000000e+00 1.000000000000000000e+00 1.000000000000000000e+00 1.000000000000000000e+00 1.000000000000000000e+00 1.000000000000000000e+00 1.000000000000000000e+00 1.000000000000000000e+00 1.000000000000000000e+00 1.000000000000000000e+00 1.000000000000000000e+00 1.000000000000000000e+00 1.000000000000000000e+00 1.000000000000000000e+00 1.000000000000000000e+00 1.000000000000000000e+00 1.000000000000000000e+00 1.000000000000000000e+00 1.000000000000000000e+00 1.000000000000000000e+00 1.000000000000000000e+00 1.000000000000000000e+00 1.000000000000000000e+00 1.000000000000000000e+00 1.000000000000000000e+00 1.000000000000000000e+00 1.000000000000000000e+00 1.000000000000000000e+00 1.000000000000000000e+00 1.000000000000000000e+00 1.000000000000000000e+00 1.000000000000000000e+00 1.000000000000000000e+00 1.000000000000000000e+00 1.000000000000000000e+00 1.000000000000000000e+00 1.000000000000000000e+00 1.000000000000000000e+00 1.000000000000000000e+00 1.000000000000000000e+00 1.000000000000000000e+00 1.000000000000000000e+00 1.000000000000000000e+00 1.000000000000000000e+00 1.000000000000000000e+00 1.000000000000000000e+00 1.000000000000000000e+00 1.000000000000000000e+00 1.000000000000000000e+00 1.000000000000000000e+00 1.000000000000000000e+00 1.000000000000000000e+00 1.000000000000000000e+00 1.000000000000000000e+00 1.000000000000000000e+00 1.000000000000000000e+00 1.000000000000000000e+00 1.000000000000000000e+00 1.000000000000000000e+00 1.000000000000000000e+00 1.000000000000000000e+00 1.000000000000000000e+00 1.000000000000000000e+00 1.000000000000000000e+00 1.000000000000000000e+00 1.000000000000000000e+00 1.000000000000000000e+00 1.000000000000000000e+00 1.000000000000000000e+00 1.000000000000000000e+00 1.000000000000000000e+00 1.000000000000000000e+00 1.000000000000000000e+00 1.000000000000000000e+00 1.000000000000000000e+00 1.000000000000000000e+00 1.000000000000000000e+00 1.000000000000000000e+00 1.000000000000000000e+00 1.000000000000000000e+00 1.000000000000000000e+00 1.000000000000000000e+00 1.000000000000000000e+00 1.000000000000000000e+00 1.000000000000000000e+00 1.000000000000000000e+00 1.000000000000000000e+00 1.000000000000000000e+00 1.000000000000000000e+00 1.000000000000000000e+00 1.000000000000000000e+00 1.000000000000000000e+00 1.000000000000000000e+00 1.000000000000000000e+00 1.000000000000000000e+00 1.000000000000000000e+00 1.000000000000000000e+00 1.000000000000000000e+00 1.000000000000000000e+00 1.000000000000000000e+00 1.000000000000000000e+00 1.000000000000000000e+00 1.000000000000000000e+00 1.000000000000000000e+00 1.000000000000000000e+00 1.000000000000000000e+00 1.000000000000000000e+00 1.000000000000000000e+00 1.000000000000000000e+00 1.000000000000000000e+00 1.000000000000000000e+00 1.000000000000000000e+00 1.000000000000000000e+00 1.000000000000000000e+00 1.000000000000000000e+00 1.000000000000000000e+00 1.000000000000000000e+00 1.000000000000000000e+00 1.000000000000000000e+00 1.000000000000000000e+00 1.000000000000000000e+00 1.000000000000000000e+00 1.000000000000000000e+00 1.000000000000000000e+00 1.000000000000000000e+00 1.000000000000000000e+00 1.000000000000000000e+00 1.000000000000000000e+00 1.000000000000000000e+00 1.000000000000000000e+00 1.000000000000000000e+00 1.000000000000000000e+00 1.000000000000000000e+00 1.000000000000000000e+00 1.000000000000000000e+00 1.000000000000000000e+00 1.000000000000000000e+00 1.000000000000000000e+00 1.000000000000000000e+00 1.000000000000000000e+00 1.000000000000000000e+00 1.000000000000000000e+00 1.000000000000000000e+00 1.000000000000000000e+00 1.000000000000000000e+00 1.000000000000000000e+00 1.000000000000000000e+00 1.000000000000000000e+00 1.000000000000000000e+00 1.000000000000000000e+00 1.000000000000000000e+00 1.000000000000000000e+00 1.000000000000000000e+00 1.000000000000000000e+00 1.000000000000000000e+00 1.000000000000000000e+00 1.000000000000000000e+00 1.000000000000000000e+00 1.000000000000000000e+00 1.000000000000000000e+00 1.000000000000000000e+00 1.000000000000000000e+00 1.000000000000000000e+00 1.000000000000000000e+00 1.000000000000000000e+00 1.000000000000000000e+00 1.000000000000000000e+00 1.000000000000000000e+00 1.000000000000000000e+00 1.000000000000000000e+00 1.000000000000000000e+00 1.000000000000000000e+00 1.000000000000000000e+00 1.000000000000000000e+00 1.000000000000000000e+00 1.000000000000000000e+00 1.000000000000000000e+00 1.000000000000000000e+00 1.000000000000000000e+00 1.000000000000000000e+00 1.000000000000000000e+00 1.000000000000000000e+00 1.000000000000000000e+00 1.000000000000000000e+00 1.000000000000000000e+00 1.000000000000000000e+00 1.000000000000000000e+00 1.000000000000000000e+00 1.000000000000000000e+00 1.000000000000000000e+00 1.000000000000000000e+00 1.000000000000000000e+00 1.000000000000000000e+00 1.000000000000000000e+00 1.000000000000000000e+00 1.000000000000000000e+00 1.000000000000000000e+00 1.000000000000000000e+00 1.000000000000000000e+00 1.000000000000000000e+00 1.000000000000000000e+00 1.000000000000000000e+00 1.000000000000000000e+00 1.000000000000000000e+00 1.000000000000000000e+00 1.000000000000000000e+00 1.000000000000000000e+00 1.000000000000000000e+00 1.000000000000000000e+00 1.000000000000000000e+00 1.000000000000000000e+00 1.000000000000000000e+00 1.000000000000000000e+00 1.000000000000000000e+00 1.000000000000000000e+00 1.000000000000000000e+00 1.000000000000000000e+00 1.000000000000000000e+00 1.000000000000000000e+00 1.000000000000000000e+00 1.000000000000000000e+00 1.000000000000000000e+00 1.000000000000000000e+00 1.000000000000000000e+00 1.000000000000000000e+00 1.000000000000000000e+00 1.000000000000000000e+00 1.000000000000000000e+00 1.000000000000000000e+00 1.000000000000000000e+00 1.000000000000000000e+00 1.000000000000000000e+00 1.000000000000000000e+00 1.000000000000000000e+00 1.000000000000000000e+00 1.000000000000000000e+00 1.000000000000000000e+00 1.000000000000000000e+00 1.000000000000000000e+00 1.000000000000000000e+00 1.000000000000000000e+00 1.000000000000000000e+00 1.000000000000000000e+00 1.000000000000000000e+00 1.000000000000000000e+00 1.000000000000000000e+00 1.000000000000000000e+00 1.000000000000000000e+00 1.000000000000000000e+00 1.000000000000000000e+00 1.000000000000000000e+00 1.000000000000000000e+00 1.000000000000000000e+00 1.000000000000000000e+00 1.000000000000000000e+00 1.000000000000000000e+00 1.000000000000000000e+00 1.000000000000000000e+00 1.000000000000000000e+00 1.000000000000000000e+00 1.000000000000000000e+00 1.000000000000000000e+00 1.000000000000000000e+00 1.000000000000000000e+00 1.000000000000000000e+00 1.000000000000000000e+00 1.000000000000000000e+00 1.000000000000000000e+00 1.000000000000000000e+00 1.000000000000000000e+00 1.000000000000000000e+00 1.000000000000000000e+00 1.000000000000000000e+00 1.000000000000000000e+00 1.000000000000000000e+00 1.000000000000000000e+00 1.000000000000000000e+00 1.000000000000000000e+00 1.000000000000000000e+00 1.000000000000000000e+00 1.000000000000000000e+00 1.000000000000000000e+00 1.000000000000000000e+00 1.000000000000000000e+00 1.000000000000000000e+00 1.000000000000000000e+00 1.000000000000000000e+00 1.000000000000000000e+00 1.000000000000000000e+00 1.000000000000000000e+00 1.000000000000000000e+00 1.000000000000000000e+00 1.000000000000000000e+00 1.000000000000000000e+00 1.000000000000000000e+00 1.000000000000000000e+00 1.000000000000000000e+00 1.000000000000000000e+00 1.000000000000000000e+00 1.000000000000000000e+00 1.000000000000000000e+00 1.000000000000000000e+00 1.000000000000000000e+00 1.000000000000000000e+00 1.000000000000000000e+00 1.000000000000000000e+00 1.000000000000000000e+00 1.000000000000000000e+00 1.000000000000000000e+00 1.000000000000000000e+00 1.000000000000000000e+00 1.000000000000000000e+00 1.000000000000000000e+00 1.000000000000000000e+00 1.000000000000000000e+00 1.000000000000000000e+00 1.000000000000000000e+00 1.000000000000000000e+00 1.000000000000000000e+00 1.000000000000000000e+00 1.000000000000000000e+00 1.000000000000000000e+00 1.000000000000000000e+00 1.000000000000000000e+00 1.000000000000000000e+00 1.000000000000000000e+00 1.000000000000000000e+00 1.000000000000000000e+00 1.000000000000000000e+00 1.000000000000000000e+00 1.000000000000000000e+00 1.000000000000000000e+00 1.000000000000000000e+00 1.000000000000000000e+00 1.000000000000000000e+00 1.000000000000000000e+00 1.000000000000000000e+00 1.000000000000000000e+00 1.000000000000000000e+00 1.000000000000000000e+00 1.000000000000000000e+00 1.000000000000000000e+00 1.000000000000000000e+00 1.000000000000000000e+00 1.000000000000000000e+00 1.000000000000000000e+00 1.000000000000000000e+00 1.000000000000000000e+00 1.000000000000000000e+00 1.000000000000000000e+00 1.000000000000000000e+00 1.000000000000000000e+00 1.000000000000000000e+00 1.000000000000000000e+00 1.000000000000000000e+00 1.000000000000000000e+00 1.000000000000000000e+00 1.000000000000000000e+00 1.000000000000000000e+00 1.000000000000000000e+00 1.000000000000000000e+00 1.000000000000000000e+00 1.000000000000000000e+00 1.000000000000000000e+00 1.000000000000000000e+00 1.000000000000000000e+00 1.000000000000000000e+00 1.000000000000000000e+00 1.000000000000000000e+00 1.000000000000000000e+00 1.000000000000000000e+00 1.000000000000000000e+00 1.000000000000000000e+00 1.000000000000000000e+00 1.000000000000000000e+00 1.000000000000000000e+00 1.000000000000000000e+00 1.000000000000000000e+00 1.000000000000000000e+00 1.000000000000000000e+00 1.000000000000000000e+00 1.000000000000000000e+00 1.000000000000000000e+00 1.000000000000000000e+00 1.000000000000000000e+00 1.000000000000000000e+00 1.000000000000000000e+00 1.000000000000000000e+00 1.000000000000000000e+00 1.000000000000000000e+00 1.000000000000000000e+00 1.000000000000000000e+00 1.000000000000000000e+00 1.000000000000000000e+00 1.000000000000000000e+00 1.000000000000000000e+00 1.000000000000000000e+00 1.000000000000000000e+00 1.000000000000000000e+00 1.000000000000000000e+00 1.000000000000000000e+00 1.000000000000000000e+00 1.000000000000000000e+00 1.000000000000000000e+00 1.000000000000000000e+00 1.000000000000000000e+00 1.000000000000000000e+00 1.000000000000000000e+00 1.000000000000000000e+00 1.000000000000000000e+00 1.000000000000000000e+00 1.000000000000000000e+00 1.000000000000000000e+00 1.000000000000000000e+00 1.000000000000000000e+00 1.000000000000000000e+00 1.000000000000000000e+00 1.000000000000000000e+00 1.000000000000000000e+00 1.000000000000000000e+00 1.000000000000000000e+00 1.000000000000000000e+00 1.000000000000000000e+00 1.000000000000000000e+00 1.000000000000000000e+00 1.000000000000000000e+00 1.000000000000000000e+00 1.000000000000000000e+00 1.000000000000000000e+00 1.000000000000000000e+00 1.000000000000000000e+00 1.000000000000000000e+00 1.000000000000000000e+00 1.000000000000000000e+00 1.000000000000000000e+00 1.000000000000000000e+00 1.000000000000000000e+00 1.000000000000000000e+00 1.000000000000000000e+00 1.000000000000000000e+00 1.000000000000000000e+00 1.000000000000000000e+00 1.000000000000000000e+00 1.000000000000000000e+00 1.000000000000000000e+00 1.000000000000000000e+00 1.000000000000000000e+00 1.000000000000000000e+00 1.000000000000000000e+00 1.000000000000000000e+00 1.000000000000000000e+00 1.000000000000000000e+00 1.000000000000000000e+00 1.000000000000000000e+00 1.000000000000000000e+00 1.000000000000000000e+00 1.000000000000000000e+00 1.000000000000000000e+00 1.000000000000000000e+00 1.000000000000000000e+00 1.000000000000000000e+00 1.000000000000000000e+00 1.000000000000000000e+00 1.000000000000000000e+00 1.000000000000000000e+00 1.000000000000000000e+00 1.000000000000000000e+00 1.000000000000000000e+00 1.000000000000000000e+00 1.000000000000000000e+00 1.000000000000000000e+00 1.000000000000000000e+00 1.000000000000000000e+00 1.000000000000000000e+00 1.000000000000000000e+00 1.000000000000000000e+00 1.000000000000000000e+00 1.000000000000000000e+00 1.000000000000000000e+00 1.000000000000000000e+00 1.000000000000000000e+00 1.000000000000000000e+00 1.000000000000000000e+00 1.000000000000000000e+00 1.000000000000000000e+00 1.000000000000000000e+00 1.000000000000000000e+00 1.000000000000000000e+00 1.000000000000000000e+00 1.000000000000000000e+00 1.000000000000000000e+00 1.000000000000000000e+00 1.000000000000000000e+00 1.000000000000000000e+00 1.000000000000000000e+00
4.315821054062755208e-02 5.020394661144033099e-01 -2.597809465703392329e-01 7.631684520451382792e-01 5.175501553596871807e-01 5.133498919900119084e-01 5.957378980996959061e-01 3.322126964547604255e-01 5.501382585388893132e-01 5.268053853143356280e-01 1.083204809263326407e+00 -7.116310082212998767e-01 1.412839739525426630e+00 4.602218054188355056e-01 5.199403297309562744e-01 4.037303058100589204e-01 8.652887518424429159e-01 9.790884758494394768e-01 7.305297037142512995e-01 5.157092602002184556e-01 3.766666574537701484e-01 9.884239169867381491e-01 3.808071460522360896e-01 5.212699069035027222e-01 8.078841762507686652e-02 6.685007349308382807e-01 3.903751406548490177e-01 6.906555728729595334e-01 5.493257221221065079e-01 1.602018961111696616e+00 5.005261813150133632e-01 6.078140402920872987e-01 7.188360148186786480e-01 5.260435154273548353e-01 6.988098840026323311e-01 4.552063448529081735e-01 5.315108468599019087e-01 1.820754191155312895e+00 -7.956120742526805178e-02 5.124029181722138393e-01 -1.946658466601304815e-01 -5.619421527321556420e-01 7.478620575914760593e-01 2.285233383682248320e-01 3.025951832916131679e-01 4.963679785840245384e-01 7.628795153362405435e-01 5.193935944164131957e-01 6.472650662234524788e-01 1.251369969602066784e-02 2.533341300358117609e-02 7.946061118361755771e-01 6.794009904690793133e-01 4.296533912626191998e-01 4.605953716533745523e-01 1.876418255335432841e-02 5.280144790960196177e-01 5.181102717076787600e-01 1.951396798496868312e-01 4.996251391705742728e-01 9.206710600487787444e-01 4.926892232130348215e-01 5.206647743939682993e-01 3.808072126602954910e-01 6.784968945995344392e-01 6.179543698659302198e-01 5.094434686653004363e-01 3.553382541840200970e-01 5.661077177180067199e-01 2.303689398403681310e-02 4.374405331203610192e-01 5.869988877768481661e-01 5.219636267772475025e-01 9.369973846952050350e-03 1.515989476960885707e+00 5.454673789264760098e-01 6.365062576432117813e-01 7.256713184298803077e-01 5.161078981653887121e-01 1.385892089355096335e+00 5.373835897959173824e-01 3.338025146852630076e-01 1.423498908548691988e+00 7.416030275682203854e-01 5.051924576234075870e-01 7.539738509153461887e-01 8.004785688958464540e-01 5.477921200114267419e-01 4.184347361928840159e-01 5.762866425106834001e-01 2.990910035764667851e-01 2.203941509134662802e+00 7.670081081660808930e-01 1.591397775921000665e-02 4.852847020467466188e-01 4.803268684533172350e-01 5.638782699462941972e-01 4.803632467453315402e-01 1.897532606582933989e-01 6.588799822110993354e-01 1.623846439827186128e+00 6.891165697213679220e-01 5.442520918961403220e-01 6.554910199598462661e-01 8.585087065020058361e-01 -2.102418906580294955e+00 -1.232465389656095534e+00 5.342518005251282176e-01 6.081107510320524767e-01 9.699551985286025690e-01 5.788225039016891005e-01 4.290195958590268810e-01 1.730582178091119860e-01 4.982499630105899358e-01 5.247541466510367014e-01 4.958744584836923819e-01 4.697326293226464222e-01 5.204283184909683779e-01 9.592724329183199838e-01 5.112192606826974073e-01 1.310020710725959381e+00 5.453738662866698395e-01 6.149360351792496626e-01 -4.869706568520409395e-01 5.236879015844412288e-01 1.960756794604467501e+00 5.438593128252161568e-01 5.470632270022319776e-01 6.807086452614906635e-01 5.309440074844878898e-01 5.482259525772815723e-01 5.235303367423636001e-01 4.288648084604731459e-01 4.036680823418746789e-01 -3.313429248099614699e-01 -1.701355944257092745e-01 6.576425255310455187e-01 5.371955837501716374e-02 1.004849592667883984e+00 5.971617962717067352e-01 5.042268563099673306e-01 8.694042349919597346e-01 5.534497884419938840e-01 5.352429915567892271e-01 5.188601481476858845e-01 4.642643989713697572e-02 9.445658240280391249e-01 -8.208635020146888561e-02 4.354324680699170891e-01 -9.057555730958399831e-01 7.625718157910204020e-01 -2.904205093762353140e-01 4.963816320091864465e-01 5.604786251522666518e-01 4.662371034033618855e-01 5.245610018119905016e-01 1.988559225761472149e+00 -1.331749452126977096e-01 8.196652865264676402e-01 6.763416005628593020e-01 5.439941643799384163e-01 4.227655609814268689e-01 5.066632444045819916e-01 5.189323380033565858e-01 1.074288957991863525e+00 2.168861891983104029e-01 8.515326786488293109e-01 3.378249825831579622e-01 4.361470571135022678e-01 6.587557082638779704e-01 5.535347488255220050e-01 7.651786438079105634e-01 4.963427628028212468e-01 5.150530328402621594e-01 4.038787974923398472e-01 4.730753283590190955e-02 2.049655069952000530e-01 9.862706693408032632e-02 7.516707226996447444e-01 1.143154655498952454e+00 6.857685785872772444e-01 5.239267706820607273e-01 -1.727517304118584285e-01 4.377550910759970271e-01 5.728041519985302976e-01 5.540229410913334318e-01 5.137452809837195211e-01 5.205342317240139183e-01 2.826694260625239874e+00 5.192902796666399867e-01 5.529296728002889294e-01 -9.063637723213060493e-01 5.457610242641207643e-01 5.286174810895416520e-01 1.940543734988333102e-01 5.212327200715850539e-01 9.399300452605869882e-01 5.310324704277834540e-01 5.435729566814204716e-01 4.782954383845044455e-01 6.313672352218666628e-01 4.931471140761555794e-01 8.905544191721995739e-01 6.016800174002838730e-01 5.432176987557082448e-01 5.435729889740861243e-01 2.216457698944219179e-01 1.294276390873805749e+00 5.608646874200599042e-01 4.289417394185497390e-01 4.267436554598569298e-01 -8.974808958805022274e-02 4.892081780732874807e-01 1.563957264246699785e-01 5.292454991503172668e-01 5.194906670833134843e-01 5.154225016397107062e-01 5.189506501777692016e-01 5.140305545994294789e-01 5.146419251693765684e-01 4.373105783407572056e-01 5.779509894249885704e-01 -7.139785468871061580e-01 6.126594240383305134e-01 4.176670622707092662e-01 3.652389482005284904e-01 5.442006716104638708e-02 1.321014429430563020e+00 9.651951524762947265e-01 4.938888755478756387e-01 -1.028330241775330667e-01 1.061002029972180960e+00 5.190665974353766421e-01 4.524695169034901876e-01 6.248754929145716730e-01 4.099782417209039687e-01 2.931548038166084669e-01 1.755454185654705679e-01 -1.593611498039709529e-01 -8.410515117058232903e-02 4.357359926865157496e-01 5.306682477098526585e-01 -1.123987607632515873e-01 4.297182565632663431e-01 5.151880775828113768e-01 4.995773581486808723e-01 -9.694553072887550360e-02 7.574235914221749688e-01 -2.322390183269853470e+00 6.159023351879500119e-01 -6.316333280066049882e-01 4.983073924312791947e-01 5.154691586394800629e-01 3.808083526621122150e-01 4.778208375255370011e-01 5.656719554283619056e-01 5.411452032630692521e-01 7.727154908398079503e-01 5.619809383837125472e-01 1.696179597311471721e+00 6.812488646199988951e-01 6.866162504837567404e-01 4.650703447878171692e-01 3.718475006921086456e-01 9.206710561617428290e-01 4.359482462087661547e-01 2.707051222201610319e+00 4.782983955156467903e-01 2.271519340417533783e-01 7.469630792987774770e-01 5.043348217098827524e-01 9.210273122121229727e-01 5.205581801889019866e-01 5.731987957932122013e-01 5.173104153134211458e-01 1.123039728508463009e+00 7.696765214599374794e-01 8.599948014133226293e-01 8.060859020292978627e-01 5.322233614951550340e-01 6.818115527228761907e-01 5.147374262375142839e-01 3.797364147635347575e-01 -7.331257231694906507e-01 3.880282820068016725e-01 5.341196939643684249e-01 5.631888012918315756e-01 5.397017506880387172e-01 4.958744530071590995e-01 6.092821243925258257e-01 5.478204975808564914e-01 -8.762393235406070735e-01 7.408717190184664902e-01 5.432825294762253510e-01 -7.904382146165073696e-04 5.215236735059132211e-01 1.854490842560767350e+00 5.062133144348330838e-01 5.208567440278352167e-01 4.354320592420339864e-01 -3.454452577657062928e+00 5.151379962954841796e-01 2.871086336104292425e+00 7.645071775401917069e-01 5.042201152358898320e-01 -5.742327146062918830e-01 5.212638217689287146e-01 5.177174045291107474e-01 4.449996821128169300e-01 4.503939719013440590e-01 3.507869949688534050e-01 6.463033194276259774e-01 3.141142583066411365e-01 5.224209070650416287e-01 5.172571375968304519e-01 3.510607992764473440e-01 5.103085876908136642e-01 7.639842739191681220e-01 5.155005258293380299e-01 1.205703879555231728e+00 1.981385178023163315e-02 2.228544391970470162e+00 2.658621237401858739e+00 5.001355648135326071e-01 -2.234928699653545292e-01 3.988949441538438556e-01 4.005874698580800253e-01 7.361981851365241303e-01 1.385961694831011837e+00 5.336516683408911721e-01 1.130506007852859929e+00 5.185155733295809810e-01 1.214220931043053786e-01 1.257109871507145371e+00 4.975143894979523473e-01 5.502269671761520486e-01 5.118269976443186042e-01 9.031383753481632137e-01 -3.773202600638447812e+00 1.644752057225147723e+00 5.093659453854345598e-01 6.366113719927681824e-01 5.184138472962410704e-01 1.820754185752601284e+00 3.003232656893518038e-01 5.572418807814373265e-01 5.112338678889172261e-01 5.241622113074775324e-01 1.374710186450673000e+00 5.574380861096602802e-01 5.435730231773966414e-01 4.297183945618290868e-01 6.016800148064279652e-01 5.010677148753451826e-01 5.694811502702130657e-01 8.998613165592027618e-01 5.196273444998443791e-01 3.832398163868673269e-01 1.666119563946219517e-01 6.615229213203820402e-01 5.156213005262740845e-01 3.329654135141378868e-01 5.572418915366712522e-01 6.465371226927379977e-01 5.189787554848181994e-01 1.032606784414705769e+00 9.588313087350101016e-01 1.146942617181321067e+00 5.224936896031588951e-01 2.204927117162989447e-01 9.206707026727444232e-01 -1.095297696497638668e-01 9.336026830686603439e-01 6.298909076035028587e-01 1.996669311325693918e-02 5.423828124752594348e-01 9.311414629191385739e-01 3.862049193930331414e-01 4.972253252384699618e-01 2.956612649047379304e-01 -3.374040799631402021e-01 -2.491693100193698385e+00 5.011694952232624845e-01 6.016800137417279704e-01 6.016799684872640164e-01 5.004407423474243055e-01 3.852987098973106317e-01 -2.280151337154417979e-01 2.970503741769420225e-01 5.151217549900410919e-01 7.056421045435143924e-01 5.163474288683430613e-01 1.036325738434961785e+00 5.435727348829425543e-01 5.171018588886022727e-01 4.890063937806262140e-01 2.789386833862577686e-01 6.584363223694310596e-01 5.062102838056276033e-01 5.205095563658910240e-01 5.197954343096449215e-01 2.994332131802733832e-01 1.619713610912328072e-02 6.016800136297310031e-01 6.620679668630781167e-01 5.190116271273240711e-01 3.999869092271766680e-01 8.595176327961246976e-01 7.405573699351621908e-01 5.641071976140454858e-01 1.884484854997690473e+00 5.008838437075343597e-01 -3.125348402355717425e+00 7.632125331322634487e-01 1.532439608155579558e+00 5.817248513326093162e-01 -1.089414455232275314e+00 8.044367817363167195e-01 4.422083037751417534e-01 5.278288836901851022e-01 5.144383426933740733e-01 -3.842103785008511019e-01 5.153878087331168478e-01 1.073545921795004521e+00 4.802637762648894748e-01 -3.792010704719690484e-01 5.137355075845123631e-01 5.183559108990183351e-01 7.886519852877329484e-01 4.911277633029446643e-01 5.815134982582176315e-01 -5.340309769472404433e-01 5.610292825509967107e-01 5.235407185030144239e-01 6.097853330013823792e-01 5.057229621529897301e-01 7.687143223589084640e-01 5.205069654360614528e-01 6.126987829483315773e-01 5.496338913869692755e-01 5.075212285277305169e-01 2.662095425250537994e-01 3.099586387137031607e-01 3.454334743596694790e-01 9.669720147093978646e-01 5.541696030133062001e-01 3.224779605508605318e+00 6.579667670871739427e-01 6.498030534824168480e-01 5.499193087402469704e-01 5.771321671159445055e-01 2.388976696505864736e-02 4.899896340029662456e-01 4.953950190824103483e-01 5.217838411768592755e-01 1.160102836052252506e+00 7.684410514690418470e-01 5.261769602232099219e-01 4.406592661701446145e-01 1.118580795281732598e+00 5.388286181697410360e-01 5.706463129823836633e-01 5.123829724147965781e-01 8.150935116843869288e-01 5.166890797942871316e-01 9.382359900500477634e-01 5.273022018926944998e-01 5.176421449089338989e-01 2.073898970231546901e-02 5.299105564171435745e-01 7.356156725346224903e-03 3.112168489350466416e-01 4.038524765829327179e-01 5.782188380189098309e-01 7.838850783633880548e-01 5.064834588329240050e-01 3.869895358123334739e-01 9.368926502104983622e-02 5.073568923201251524e-01 5.425715774030472893e-01 4.504007335086946395e-01 2.618216102004072149e-02 5.192529055504923052e-01 2.520169075904890033e-01 5.156256235386145192e-01 4.121431943832041811e-01 1.260646955418869064e+00 7.694383548623010549e-01 5.295340378498216705e-01 2.536985388498160243e-01 7.542714696916819062e-01 4.363818523467721811e-01 9.977150525341124121e-01 5.981077018574433302e-01 6.101114092899782015e-01 7.000305251886124180e-01 2.009073542192124862e+00 4.727539109498188896e-01 5.000059035607012925e-01 5.112828171303066549e-01 7.407633406019750177e-01 5.775021002747948717e-01 8.547532934450837727e-01 -5.783265633425441754e-01 3.700797739794781105e-01 5.144830957919155345e-01 4.292398333702617252e-01 3.944217864106778770e-01 -6.264867145958719075e-01 3.867918270851034013e-01 5.163200660655031804e-01 7.319799591344491319e-01 6.682373003094860264e-01 1.511899068860065753e+00 5.195651835945677144e-01 5.131840898021181596e-01 -7.165125339752104194e-01 5.191749384224062513e-01 1.230208583786538412e+00 7.161022759239357161e-01 2.783267808168696233e-01 2.477269766160222209e-01 -1.755516887526223924e+00 5.441610494899952188e-01 1.864318798856003934e-01 1.104189968054251736e+00 8.216868713704600369e-01 5.224414446099161502e-01 5.358900749957844489e-01 6.026177841780369082e-01 7.635199106001890890e-01 4.323464956528139114e-01 5.569553077917702710e-01 2.563915552069470638e-02 5.466400874199116577e-01 5.758802532910688443e-01 4.756096051334299801e-01 5.106127113059190092e-01 4.653910831094547618e-01 1.222276274874251056e+00 -1.008078781625165871e-01 -2.399946117342716678e-01 4.147237930308946829e-01 5.498610350534620661e-01 5.353022260492392714e-01 5.268716815897802608e-01 -8.693840304203286351e-01 3.189510523403553233e+00 5.155766469876315039e-01 4.428190581867894049e-01 4.354691971025917985e-01 5.208036036549411607e-01 5.091767972655856234e-01 5.354773546518769578e-01 3.261947284768708100e-01 6.021429352782990962e-01 5.169149791548133255e-01 5.380000012995709291e-01 3.350101487916156140e-01 4.062881907770051204e-01 5.654681833375573285e-01 4.054899942498756960e-01 5.228223524809375578e-01 5.482190443980842209e-01 6.696125576631815068e-01 1.017440957437751647e+00 2.329711564795981626e+00 5.201562373757735447e-01 4.985174839445420392e-01 3.925319783398335538e-01 4.805255743663097157e-01 3.731017428587974361e-01 5.203338427381603015e-01 5.230784345226034970e-01 5.066180162125633046e-01 5.555175940544451185e-01 4.847118441865014837e-01 7.636431368109520834e-01 3.649083694335522599e-01 4.267007888145969985e-01 4.278646034048776414e-01 5.165880554528650137e-01 1.119687828691430520e-01 9.206710623000600169e-01 5.695751380957643217e-01 1.048109994088697733e-01 1.912658362069878271e+00 2.985042248505959672e-01 4.138830538596333652e-01 5.931734640226890010e-01 6.424231561452795058e-02 5.421399724018803878e-01 1.522316790835607003e+00 7.905923178835964071e-01 7.260439312021138569e-01 5.178245950123028241e-01 5.474242257386038313e-01 4.485721776500414815e-01 6.587674654629952498e-01 5.506470245065829827e-01 5.167988099625353549e-01 -2.377721575397513942e-01 5.123161217757288277e-01 -1.532111593760090429e+00 4.807437132207758590e-01 5.118189599767821729e-01 5.099371247899361359e-01 4.354385472954019343e-01 9.206710624021566813e-01 2.205803341145232965e-01 5.263325776816056845e-01 1.353490399621535278e+00 -5.674103606979739034e-01 5.127244346495064553e-01 1.145098521676132908e+00 1.535582177137802207e+00 5.378775894056128104e-01 5.146500065193135853e-01 -5.943862105902671111e-02 -1.696868398642333853e+00 2.729251853599796718e-01 8.153065115488987713e-01 5.188212963442159209e-01 5.192780458657418885e-01 6.087249829648841981e-01 4.827726324236472633e-01 -4.154403300166309987e-01 8.258075029653786370e-01 4.958741849248851086e-01 3.281792236157447529e-01 5.428797368449320704e-01 -6.091113516160933869e-03 -1.685967342270636160e-01 1.808769979037339715e+00 4.126205724014616605e-01 5.369962669659765764e-01 5.172032817800792381e-01 3.239335654792091512e-01 5.528401504516439191e-01 -1.022531932828399936e-01 -1.228581276707107595e+00 5.206365856757696475e-01 5.452724205423746806e-01 4.938677373057644981e-01 6.031395164055922686e-01 5.103578603387373125e-01 5.460876547961172056e-01 5.469804274387036758e-01 5.674417205940109898e-01 1.035470694155008697e+00 7.194286947107161323e-01 5.098664647431876418e-01 6.091493681259876336e-01 4.773727876105159917e-01 4.696491990264162197e-01 4.466993401711463058e-02 5.572419238025212440e-01 4.535915767418304823e-01 5.312889513656615659e-01 7.580180967434069217e-01 8.855918667794380195e-01 8.547352990577021803e-01 -5.213464156310672060e-01 5.114937738774013587e-01 4.491047582735755994e-01 5.135217696546851007e-01 5.920033511797970771e-01 9.108219336733616167e-01 5.455946513484720706e-01 5.291085803944958199e-01 -2.758357333534471878e-01 -8.821280360036726220e-01 2.316219041023118042e+00 5.049283853935780941e-01 8.998645615296139155e-01 4.200651838290790363e-01 5.746469577378006122e-01 3.875938115581329391e-01 1.512116855022870021e-01 5.181976423557690392e-01 5.464503322806955055e-01 -5.565280990236256414e-03 5.174739104383115906e-01 4.379824409475330804e-01 5.173271403712307315e-01 5.920830555053413491e-01 5.215907646027251321e-01 6.217121733876814771e-01 4.152444235980428666e-01 5.441230166184228834e-01 4.556720070847566917e-01 5.201644279794753745e-01 4.130803052567551537e-01 5.306994269042719647e-01 -2.632750428983436364e-01 5.139960569920600797e-01 6.422412863132301863e-01 5.213003990618613193e-01 7.628937242248753359e-01 9.206713059989762860e-01 7.286709899598743378e-01 -6.054858129658722277e-01 9.835675240200173475e-01 1.820754191188898474e+00 4.987612363314734565e-01 4.637904710652202556e-01 1.082355181174407655e+00 5.686998885218134125e-01 7.626828459476182598e-01 5.183248697182764042e-01 1.852804937405876151e+00 5.152729774576613186e-01 4.297188688449927740e-01 1.235033281273375305e+00 -6.414062487723556916e-02 5.275450726838591953e-01 -1.581510870545864700e-01 -9.719402674100341422e-01 -1.684083505553940208e-01 7.728093873241227429e-01 5.744565937547009282e-01 5.110432621069623815e-01 -3.242287019936722081e-01 5.066531826671811789e-01 5.470171138683229545e-02 -3.936440404643283264e-01 5.161851260883194570e-01 5.214099872896668098e-01 5.295980159557004407e-01 5.389197352197768742e-01 4.980590256341654309e-01 9.135402526795332045e-01 -4.245167078686546414e-01 5.179591505861064205e-01 5.186778965801563945e-01 6.029556694343646273e-01 1.170820565026627236e+00 4.916233967188472498e-01 6.655458577480285465e-01 5.179286191014944585e-01 4.730082276978465200e-02 -3.849428227865631102e-01 5.489430420781643560e-01 5.627161169128553908e-01 6.841033026872824774e-01 5.297067362471713503e-01 3.561121752631500326e-01 5.151973014636926917e-01 5.195089044329819217e-01 3.849602025319888710e-01 5.273116801861235103e-01 8.400460786698800142e-01 2.572921305378873313e+00 -2.462430547772902212e-01 6.608868945300540032e-01 3.330245707105527475e-01 2.055523736622076048e-01 6.638054619620732399e-01 -5.684787303036649420e-02 -1.558942779848141891e+00 5.088491775475511014e-01 2.634900901553663299e+00 5.561977153343190539e-01 1.614599515079152003e-01 1.630673624546954414e-01 4.958744584509704456e-01 5.856525215125315542e-01 1.570762222592006596e+00 5.040955475843550415e-01 1.261050464875879129e-01 4.238191888700771903e-01 1.718042637137946249e+00 6.022525504820753772e-01 7.727962613780685608e-01 5.057424472693797801e-01 7.386684648736169256e-01 4.613871342770827222e-01 5.745181770304093050e-01 2.095643061164327234e-02 5.120951031501684847e-01 5.289519470696206760e-01 -5.780616732803784963e-01 -8.181571097018483507e-02 1.178602565234135646e+00 2.383587208691490267e-01 4.824099976652390653e-01 7.091228201003410003e-01 5.457831835831111755e-01 2.012054891339527973e+00 6.792373887516940378e-01 2.153720318100289799e-02 3.263514900317432410e-01 3.953872844483838356e-01 1.128847616156422484e+00 5.037363091309894347e-01 -2.756275978134428359e-02 5.248046896839675401e-01 -1.254313629006619663e-02 5.352784601572013745e-01 5.176509306550718392e-01 1.052283563717126141e-03 -4.080395123061220791e-02 6.658294763126019200e-01 5.589721826800407856e-01 5.839798815034048518e-01 2.265936217799914276e-01 4.291900433121558223e-01 5.113059826272434716e-01 4.985985480403075654e-01 5.277040704425822737e-01 4.792374685298048664e-01 6.009869832413063939e-01 1.018680744890711587e+00 3.150077794613380444e+00 9.456293126561710061e-01 5.155070268281968238e-01 6.117876752744595414e-01 2.159725726468246509e-01 5.206966797061752805e-01 8.526718661236293295e-01 5.020581379948991785e-01 1.316928831867860250e+00 4.545405013183126952e-01 -5.839915376914911471e-01 -1.890926827078200437e-02 4.115808287865160842e-01 6.142443356228093343e-01 5.485061909438541106e-01 5.147620456051626991e-01 5.163071605730897712e-02 5.042885425286142143e-01 4.411041357575993804e-01 -3.745520675921012010e+00 4.796079948897790102e-01 5.212284048198081443e-01 1.132841283173217528e+00 5.175923191233372522e-01 4.756256102315475909e-01 6.807559123857668260e-01 -8.965066510213793860e-01 -5.019910019046155414e-01 3.497207730593803604e-02 5.207703736502024006e-01 4.834493523184233421e-01 2.144624618746284461e-01 5.189405139931950739e-01 -3.415834757750741413e-01 5.878369036962468597e-01 5.224850369761011581e-01 6.957014991443110086e-01 5.479333488087230197e-01 4.700066387240146581e-01 1.516495436537632358e-01 -7.672514896764757175e-01 6.557253259664874712e-01 5.446106747218206756e-01 1.585292164830263695e-01 5.197684997462637124e-01 5.516076493433440531e-01 5.320544167482389453e-01 6.707635409483375666e-01 5.760647581140646567e-01 5.459214163791630270e-01 5.022121195636346513e-01 1.820754188311928923e+00 3.571236189259808791e-01 5.423567184657243079e-01 -1.272721370307128841e-01 5.447299602286292952e-01 6.330450073877402772e-01 5.143526363495428688e-01 4.895640169924284080e-01 3.589311422424544817e-01 9.450804289135702474e-01 1.212943490505538069e+00 5.558830899843626439e-01 5.853596295396917837e-01 5.966801472838785259e-01 4.789256515549145110e-01 5.375300688244087910e-01 5.180577040171111536e-01 9.835867129878315129e-01 7.055612868294742768e-01 -4.598032392281375391e-01 4.579069967929709217e-01 9.094067240485570469e-01 5.225952601921192153e-01 -2.572343814739776538e-02 5.293090523309487150e-01 1.398470737479168946e+00 -1.388706652749455150e-01 6.185566755154385810e-01 2.407311069520069735e-01 4.856577876415670847e-01 8.503180571387187747e-01 5.208153782514045593e-01 3.712433812557594526e-01 1.404605172816477010e+00 4.704430797618481264e-01 5.273906802356089774e-01 -6.783230918292743050e-01 4.469748463709029007e-01 1.040989629649970549e+00 6.119755483314958111e-01 7.531544235381294750e-02 9.784114186273247249e-01 -3.370756360823869147e-02 6.824711178390084898e-01 1.633904992691121993e+00 -8.618951700261523463e-01 5.815271318633816744e-01 5.181534335957281856e-01 -4.656064875497872291e-01 3.069214714213404083e-01 6.023165347535126557e-01 4.941595491653766881e-01 4.979612088990462149e-01 3.913689535895389926e-01 2.630650858672855530e-01 3.450812763505700653e-01 5.779921968606059890e-01 5.133976911092354989e-01 7.702216836507428006e-03 -1.263608328216012655e-01 5.046674475736313559e-01 1.065462758550860034e+00 4.899504367211314770e-01 -5.785038048774419073e-01 5.025059232192683467e-01 5.179309725643188589e-01 5.507086029887794387e-01 4.392933887319636077e-02 3.283826891253822655e-01 5.164928843265167435e-01 5.036425135795977726e-01 4.517409722231779945e-01 1.697629885158468202e-04 5.526777503550359683e-01 5.234741120919286228e-01 6.123167982568181733e-01 2.094617512015692906e+00 -9.362754745321261347e-04 3.866511807721082494e-01 5.542227857531643043e-01 1.841248960792851275e+00 5.580236046062605482e-01 5.200669341990616923e-01 1.997582674915149986e-02 5.572418705927871807e-01 5.121527676275324792e-01 4.768879361891339985e-01 3.864766999690903981e-01 5.011074945191335006e-01 4.411326726596516701e-01 5.314255024158180962e-01 -5.433684760075743192e-01 5.190878656487297738e-01 5.329576346905399165e-01 5.402357761817426773e-01 1.159431855668367817e+00 5.127467285647416828e-01 -2.462837444375545748e-01 1.100360478337007564e+00 -1.286236434298161813e+00 -5.308496474269228660e-01 5.291532798459455122e-01 5.161690802172209658e-01 6.568318792119758331e-01 5.213558277371750371e-01 4.419487399255879190e-01 5.658908295716890136e-01 5.572418687740501309e-01 5.181695094263274459e-01 4.840584305880378246e-01 5.936230063011345148e-01 5.203157624920726754e-01 3.048926359650133699e-01 5.066445952713115597e-01 5.374004307232328470e-01 3.922631022871299056e-01 5.141908159164672032e-01 5.133485465923970370e-01 5.470644289189309228e-01 6.518466012965151712e-01 5.179360045924682465e-01 7.015918050418202823e-01 5.003242888043387682e-01 5.067990227578850204e-01 5.405230348202285651e-01 3.889324904118037773e-01 3.874506492553345116e-01 2.439384392201899399e+00 4.744788502483518466e-01 6.078027397794488751e-01 3.000257370646512989e-01 5.820964809964942477e-01 1.115620365425013638e+00 4.296237687057338772e-01 6.986147670269952092e-01 5.185015249593367681e-01
7.091651361131967590e-01 3.175785704914648178e-01 4.365138112929380920e-01 -1.122215144968173421e-02 3.123482008387677422e-01 3.435901629851465522e-01 5.355629754002000364e-01 4.173284903483792663e-01 3.208140458101269021e-01 3.284486019044839944e-01 2.063479942978755144e+00 1.723391607962204253e+00 -1.455164728222074100e+00 6.091635136611260881e-01 3.060309889817445783e-01 4.452914010318330118e-01 1.322266235631386344e-01 4.394385242280257065e-01 4.268949357327513350e-01 3.141122442596600561e-01 4.445102461056064658e-01 2.129809963403660245e+00 3.744011159322826465e-01 3.613217864351823683e-01 7.387204974651460088e-01 -1.975489212007688344e-01 4.313240503955336758e-01 2.053296839921983918e-01 2.757616578215902892e-01 -8.990575794753788985e-01 4.025515243403974264e-01 -1.443342897075041709e-01 2.889965700117025915e-01 3.416905999784976000e-01 -4.185559250288106714e-01 4.885360873089630851e-01 3.293869042594960717e-01 -3.714870417108651623e-01 -3.262506784102488400e+00 2.780366334859734057e-01 1.170212708734744700e+00 1.437409086501908739e-01 -1.674556861736933300e-01 7.917732788256915955e-01 5.940364715777470828e-01 3.286512426697517641e-01 -1.080744534748577859e-02 3.243765805625044019e-01 1.796902513242083221e-01 6.563577316581401533e-01 6.810728407017532238e-01 4.908629918870805464e-01 -1.957245891214056399e-01 2.239924234422503713e-01 5.994275841227876267e-01 6.521820758225310710e-01 3.347949459016783536e-01 2.427663266570741496e-01 3.459620273061895235e-01 3.552409985122532143e-01 4.291145434578090279e-01 4.292878959917142412e-01 3.207994263824038295e-01 3.744011033448498282e-01 -3.451368161713649352e-01 1.419427302663703316e-01 3.312640722369284974e-01 3.185334981530190124e-01 2.097045037768650866e-01 7.172788566121897080e-01 1.342209681413016886e-01 2.476620637275632475e-01 3.313306589197156371e-01 7.281345216336232440e-01 1.928857114111581783e+00 4.568619861140311711e-01 4.744593999696123388e-01 4.817483517190057074e-01 3.102336003836311251e-01 -1.345183706587294248e+00 3.180573662434987292e-01 5.766720369916753519e-01 2.352546223046285245e+00 8.341217146827163698e-02 2.610417943911969574e-01 -3.793280187936952652e-01 1.322379676919560598e-01 2.654236044399537198e-01 -5.797928207712539361e-01 -8.965831421373752219e-01 5.943610717792088272e-01 1.591096835936082643e+00 6.547185401940265603e-02 6.841251253575377778e-01 3.284943983309200344e-01 3.312129918812740659e-01 2.660251520797092817e-01 7.661964725950183297e-01 7.373578701446190653e-01 -2.004155273135726223e-01 -1.769135743621656487e-01 5.489569827867121776e-02 2.650430173720242921e-01 2.145297294671582033e-01 -3.592294731747917858e-02 3.129133525771384594e+00 -2.895021431871983575e-01 2.330687753169026766e-01 1.060572112048649290e-01 8.106982012164226647e-01 2.538501849570442559e-01 4.976103550861781799e-01 1.629093453196817642e-01 4.163104926259226235e-01 -4.801596879614234981e-01 2.302272082429358546e-01 1.481293448184630990e-01 4.336706160304755753e-01 1.110039329423042620e+00 3.273709796325416921e-01 -1.460628475848179564e+00 1.731483026658520719e-01 1.123857231137771195e-01 1.418656363250904384e+00 3.157337116601792171e-01 2.181914389034325108e+00 3.098841198156972454e-01 2.384624419482963553e-01 3.058243049232667321e-01 3.034013181148570992e-01 3.400565458450298673e-01 3.142842889893684988e-01 6.753196653230704172e-01 4.207247770552340893e-01 1.680599500623903286e-01 8.620933889645706616e-01 7.188569202332550923e-01 7.162340038608597803e-01 -3.365572411290378430e-01 2.081290853275056529e-01 3.166685330348806837e-01 3.218613303299894812e-01 3.266821558028278893e-01 2.445423229942350618e-01 3.109840472734913264e-01 6.974812101907443829e-01 -1.611746843680442187e-01 3.190931034363703178e-01 4.383958045141185256e-01 4.007047092515324538e-01 -2.288879191408179636e-01 2.522492342578267280e-02 3.286390685991293359e-01 2.694289443650652593e-01 3.025096314913964801e-01 3.083751137483294880e-01 -2.411023269209155551e+00 4.609715885742579067e-01 -6.008028341116723459e-01 -2.059675060854817552e-01 1.869962660183468461e-01 3.135303770876011198e-01 3.185706522596452595e-01 3.118792600759634492e-01 1.225863683068077747e-01 9.689359163240940376e-02 3.174118174591352148e-01 4.649289366368896115e-01 4.037990526175515571e-01 3.115965790209500041e-01 1.937986366350189782e-01 -8.736225664062447632e-03 3.287490554748284111e-01 3.083288136303113935e-01 -2.513218273164732786e+00 6.817277845278325588e-01 5.959947749629004310e-01 9.519109491329756922e-01 -4.581101842069919550e-01 1.172897498229349411e+00 1.751466130526749265e-02 3.065092491575072686e-01 1.240178060841890417e+00 3.232379286209338121e-01 3.095804849640063638e-01 2.741325199357492193e-01 3.698319435718626647e-01 2.854963233714985504e-01 -4.860452312454034973e-01 2.826186555513079401e-01 2.863942297400599579e-01 8.173383215087839382e-01 2.873476840280161371e-01 3.285874082122571260e-01 2.398792404390041322e-01 3.130186250219458843e-01 -1.667516264696534467e+00 3.046961009914861407e-01 2.977080359337594961e-01 3.424442420967128697e-01 5.763957725523949360e-02 3.438922993590763921e-01 3.866664912784458230e-01 1.430022912479696484e-01 -7.740736191363501995e-01 2.977080222747747751e-01 4.784255268900136082e-01 -5.170906531436948450e-01 3.586591909576479775e-01 1.857644481023449090e-01 2.424661915168593584e-01 -3.267821064660144437e+00 4.461478469868100927e-01 9.228264676970189262e-01 3.058857782941291070e-01 3.086728071618666802e-01 3.113034168266589075e-01 3.055442676998453844e-01 3.109303931767606333e-01 3.140286587553082764e-01 3.571521788292311150e-01 1.098149181653829132e-01 6.672820004324578891e-01 1.068328595397803199e-01 4.858196566595082699e-01 4.990608276234658747e-01 3.995587982580401376e-01 -6.814446583204414321e-01 2.300821164657735007e+00 3.991098893010751048e-01 1.243951189743549790e+00 -1.393750086904539831e+00 3.090277766851442509e-01 2.383612070683244488e-01 3.536922781740122756e-01 1.177777232817071917e+00 5.152853208694136988e-01 8.194313024068508033e-01 2.849088930431739053e-01 6.686644776592695072e-01 2.623875757046109647e-01 3.227001338087122084e-01 -1.175716773558897810e+00 4.127744430312008106e-01 3.115280404584641061e-01 4.958932404246357839e-01 8.903795327421352157e-01 -3.678687655545017643e-01 3.172764889186178383e+00 4.983086807205210356e-01 1.274700752018294025e+00 -2.266971286260016649e-01 2.984073195460715811e-01 3.744028518436043895e-01 3.349526203247678025e-01 2.375793011027135526e-01 3.710676888381655991e-01 -1.361474654481264479e-01 1.119596736366861162e-01 5.620955701374623636e-01 2.560572147403632481e-01 9.670179409571127982e-02 2.435453764206446936e-01 4.356261364937776825e-01 4.291145611956817540e-01 2.582698361911389129e-01 3.252176351692760647e+00 3.631180357909361556e-01 6.527860743990161474e-01 5.335226090000595445e-01 2.207744577287103216e-01 4.287738168158581331e-01 3.112737087078125131e-01 2.963774246686511349e-01 3.105695573889993844e-01 -5.804729668090107264e-01 4.396790297281641391e-01 2.852977834947125757e-01 1.371777091202048826e-01 3.069202164678559996e-01 1.539753126578491838e+00 3.434155935463992781e-01 3.057259794330827174e-01 1.999993126339152605e+00 5.038191702220493617e-01 2.673745561152556238e-01 2.642060448176209442e-01 3.424361085481290035e-01 2.302272033073774204e-01 -2.064350076719814187e+00 2.643804193428471727e-01 1.551147100096918585e+00 -5.312149966709027449e-02 3.583769503171664872e-01 6.834167704174579638e-01 3.116565529695890513e-01 -7.247891296668105277e-01 3.984886199101101423e-01 3.192281193091047742e-01 4.383912600533547144e-01 -3.943863434252643518e-01 3.225543674051382648e-01 -2.270938908005708967e+00 -9.448912969849287968e-03 3.297483300176797805e-01 6.008615002450505838e-01 3.126219278922583444e-01 3.100176705563319479e-01 4.850500220922793759e-01 1.855898766787595355e-01 -9.931936558833494300e-02 -7.673537250793097675e-01 -3.365826214076837026e-04 6.875670264999238501e-01 3.051737048082207582e-01 5.016551234498820566e-01 3.181258332440140557e-01 -1.021096126546819013e-02 3.153409223069292278e-01 2.450680701676994033e+00 6.861037019406188708e-01 2.469597826664859941e-01 -1.164483847904472347e+00 2.285088333572017349e-01 4.709540354985937149e+00 3.766346945160982118e-01 -1.619293526872968014e-01 5.707801668140151108e-01 -5.609677697358883108e+00 5.206827312534942909e-01 1.556243433202117332e+00 3.133846514391411819e-01 5.313142479962200682e-01 -4.468456076305080127e-01 4.302075001307408275e-01 3.001393558798606254e-01 2.938755550522201831e-01 2.287928775266905579e-01 2.945277362619687977e+00 -3.752454917932822598e-01 3.090754776985680241e-01 -1.920767830898790995e+00 3.042077901695011688e-01 -3.714870411253551885e-01 7.519696565987809000e-01 5.220252685241049129e-01 2.669383901058074438e-01 2.868128946540174917e-01 1.272838629495694818e+00 1.469568797853346154e-01 2.977079163251913352e-01 4.127752245891220806e-01 1.430022890640744726e-01 3.215260235698019220e-01 3.912788668420048577e-01 -6.145973441194804154e-01 3.085134494962107343e-01 5.550710688770743584e-01 3.916658493842932187e-01 1.692157397887828763e-01 3.109751840539803913e-01 4.917846500962420042e-01 5.220252002228676913e-01 4.563508705118200504e-01 3.106655539918219411e-01 1.805598328913388673e-01 4.094593711053800544e-01 3.440975819019645332e+00 3.075208955247461518e-01 1.284857658939771996e-01 4.291152726358505864e-01 8.439507712993675748e-01 4.678938154934257909e-01 -1.943169080433762574e-01 6.828143425365508223e-01 3.411468107574282538e-01 1.201278151981537839e-01 4.099522425334757858e-01 6.725439027702743156e-01 5.844063442107082507e-01 7.875842054929783620e-01 8.166265056879840056e-01 3.514689256660813443e-01 1.430022912169789939e-01 1.430023654984967085e-01 2.283331347845173054e-01 1.705470381782417111e-01 1.119923536745644377e+00 3.987860337385255582e-01 3.020611443698988374e-01 3.142060955174188486e-01 3.118985827357554363e-01 7.625963989434050294e-01 2.977084654808734299e-01 3.095380887730433406e-01 4.398334163239097649e-01 2.410575852756969839e-01 -6.366092521556636630e-01 3.242272578518068937e-01 3.058986524884611535e-01 3.827908532087327953e-01 6.863632472416444363e-01 7.020485855745537407e-01 1.430022899812536108e-01 9.662601687172622800e-02 3.064067302284071426e-01 4.936833508764450484e-01 -5.927029137430670502e-01 1.851108570258665209e-01 -3.528189494178638252e+00 1.979787184152980162e+00 6.353993432878911607e-01 -4.664472692754311201e-01 -1.133876089418899696e-02 2.061229985050009983e+00 3.145624707735590886e-01 6.434918311203512431e-01 -2.040848994035889680e-02 3.563950041452049189e-01 4.235510701758805063e-01 3.265003135725864092e-01 -4.995955727139934632e-01 3.477709569185071792e-01 2.066410869050006482e+00 2.992201154666443985e-01 -4.363902193194145740e-01 3.151277426426529749e-01 3.193775179906434003e-01 -1.456844456818628508e+00 2.932890046403225925e-01 3.654868887220686924e-01 4.032313631381054253e-01 1.444769514696429002e-01 3.052375757134178080e-01 2.092287838560057955e-01 3.012954008784533011e-01 -1.610767079910818134e-01 2.982303122061651934e-01 1.068576943673801710e-01 3.123081774957230383e-01 3.110925372784082987e-01 1.350428443367909445e-02 4.033843379173282506e-01 5.562277159787348824e-01 -1.395337278169479944e+00 -5.985788876633640898e-01 -1.135667190846325614e-01 1.061993739091619399e-01 2.180848644574578943e-01 4.314357438401955069e-01 3.617138040763935858e-01 7.285796895111499305e-01 -1.297783790072821741e-01 3.147407480090089194e-01 3.291849167395822784e-01 9.401540779739650522e-02 -1.610024084036123238e-01 3.324339511937667857e-01 4.601849266695923202e-01 4.796660205263213461e-01 2.900097159958346382e-01 2.720562565416419498e-01 3.086896172876272826e-01 2.511258619276921511e-01 3.123496873946742247e-01 4.996468135392913568e-01 3.786947767632147244e-01 3.117436221407142161e-01 6.833487246042038166e-01 3.337062507398075306e-01 7.361520581589443557e-01 2.700137619373950762e-02 5.418522792079873973e-01 2.581172767810879232e-01 -1.455698221720477914e+00 3.109681244006560763e-01 6.427462422239845763e-01 3.654211589963672902e-01 3.327569336324806559e-01 2.497007626960312532e-01 1.940129323825466323e-01 6.850178468897157869e-01 3.076891344448899335e-01 4.038235569930713198e-01 3.096259864068253709e-01 2.791974341549412486e-01 1.951696031727942482e-01 4.999073943177746449e-01 3.056483589047460092e-01 2.083953188082586783e-01 9.486635225270782790e-02 7.347952495591558719e-02 1.644664359377158158e+00 2.104543411062652081e-01 3.598616502512101967e-01 3.837697766676473332e-01 -8.490348706376670274e-01 3.684529868911481376e-01 2.656237223922975343e-01 4.132114495105808083e-01 -5.363131115486810541e-02 2.928275888165934315e-01 1.617967075413758060e+00 8.917592485984721096e-01 4.447866084926953567e-01 3.290611846725878253e-01 3.448110734291332524e-01 3.415150159452486900e-01 9.240546226919069683e-01 3.049497398679055227e+00 3.084541398465827089e-01 2.836046766886287859e-02 5.895658145795227290e-01 -2.105106476672735927e-01 3.127310827858158504e-01 3.042748430270995064e-01 1.074300478459371044e+00 3.099013665281356578e-01 -3.302191351508301231e-01 3.824198385811296563e-01 1.286745544141437714e-01 6.376895355728587900e-01 1.790099319374968356e+00 2.633548287533604149e-01 2.629018426763941596e-01 1.662063377487110527e+00 3.996030272859716348e-01 2.817274902909178702e-01 1.811486829614885052e-01 2.403373763848187239e-01 -1.108073354382585127e-02 5.040420987268650066e-01 2.410751456828889305e-01 7.275289837053572350e-01 2.692174114011449682e-01 2.435963559631823816e-01 3.137115507965738126e-01 4.274885082734622976e-01 3.742196792026479257e-01 2.592666663742817512e-01 8.978671612900375187e-01 5.112470309720515971e-01 4.745718841903004415e-01 2.645264599775630221e-01 2.607177153398653191e-01 3.188168516809827269e-01 5.891215928214057485e-01 7.742457762248110553e-01 3.628059878932221038e-01 3.053344592850115724e-01 5.313007212843550153e-01 3.141402335466362272e-01 7.190936474205835705e-01 2.645002861033889929e-01 4.642795453344981671e-01 -3.125454054080031296e-01 3.092575345690052324e-01 3.201428457245749648e-01 4.346489111921908455e-01 2.593745552975811330e-01 3.027070185556119397e-01 1.793684752195217502e+00 5.100186039964565987e-02 2.672816143185072768e-01 -1.919808667377128908e-01 1.651632051146866509e+00 1.153106564893642494e+00 4.199495229629389426e-02 -4.518522268009078635e-01 4.223474659116933094e-01 3.276693831714854732e-01 5.072606232422360861e-01 3.100670387178628418e-01 3.108671303679256814e-01 2.061904575490643154e-01 3.404050618411259554e-01 3.564817341841820530e-01 -1.156245193456960189e-02 -2.123920952173737053e-01 3.514253675933154963e-01 2.749667317126854860e-01 2.265751862429866426e-01 8.720420758376414838e-01 4.291145510696459109e-01 2.648202966225196575e-01 8.466447892915766049e-01 4.757456925553149030e-01 5.947558076430081719e-01 4.630188486065611175e-01 6.937994842876844537e-01 1.473792256408980261e+00 3.629200074141857302e-01 2.090439532824881930e+00 -2.404154599637786660e-02 1.467353135123265206e-01 3.110899044838407179e-01 2.667929458168398771e-01 3.570213927535321186e-01 3.116032364524972120e-01 3.192983105150759560e-01 3.121783504574209833e-01 3.633897154756756120e-01 1.992608735700698019e-01 -3.253383256048371086e-01 2.480296511232363277e-01 -7.077257932474677327e-02 3.074575911583308785e-01 4.383774202425544386e-01 4.291145510401583874e-01 2.169940796333154065e-01 1.998325739668207479e-01 -1.253501522038003024e+00 1.962047445482496988e+00 3.116640150871284876e-01 -7.321438498383474602e-01 2.972872271848923664e-01 3.116608859024167510e-01 3.083316220593607104e-01 -4.784183424853066136e+00 3.538307824028831927e+00 6.283023221516479406e-01 5.344680202832628735e-02 3.233356437494844804e-01 3.064202534122438815e-01 2.789054660469912905e-01 2.622390954414343334e+00 6.244134719971755620e-01 3.193857108141528456e-01 2.302272689570308839e-01 2.804367327347084826e-01 2.761320464157908661e-01 8.635193985085177770e-01 -3.759254120632073426e-01 -1.193112537419851460e+00 -1.217208948144485658e+00 3.126766610986986827e-01 3.073409318306319360e-01 7.257770143610247082e-01 3.701509179638101110e-01 1.405737832964251144e+00 4.794203124735199051e-01 3.135278134515208648e-01 2.985316280339461725e-01 3.307670615536988379e-01 3.181159446791896328e-01 3.084464699501259788e-01 6.457939360574607157e-01 2.678146775664249635e-01 6.586247747059524871e-01 2.265391028247043526e-01 4.258322350693019565e-02 3.086973312686216442e-01 1.847940298070331333e-01 3.524154630159417323e-01 2.645896546613212830e-01 6.495324166431749591e-01 5.220252388035167002e-01 3.733626818504371392e-01 2.915185002526799463e-01 3.103424011670586347e-01 2.666157289170800193e-01 1.617957491486582411e+00 1.892717541319431707e+00 3.077328060035325330e-01 3.625000340897322482e-01 3.110271762246809013e-01 1.619995782791059658e-01 2.283298808877997077e-01 3.275766699073529575e-01 2.992909177258564202e-01 3.249381808388003834e-01 8.012440900367443497e-01 8.832699905154506315e-01 2.375991289363005576e-01 1.868806920878758104e+00 2.817840391746240236e-01 -2.266165610222831972e-01 -2.729764121505827701e-01 -3.121127604940476252e-01 3.127228908224946591e-01 2.645990857409902808e-01 7.101315813518619402e-01 3.135346776781249845e-01 4.581114073529439223e-01 3.138814019466070748e-01 3.603860218665868032e-01 3.546882183693514379e-01 -2.160075298009280637e-02 1.016869063745574175e+00 3.355908779513883111e-01 4.156330901292683011e-01 3.088286649832022723e-01 3.573244324651651538e-01 2.940443952475712552e-01 3.926014827527283813e-01 -9.634703790368998044e-02 2.226782261904580174e-01 3.158602726628197965e-01 -1.058867413626946204e-02 4.291142451747004261e-01 1.106148711050330524e+00 9.599026386945793687e-01 -7.280054677284841791e-01 -3.714870417179937379e-01 6.560726927551839838e-01 -3.327113506448839519e+00 1.571131732623109123e+00 2.711648736402474391e-01 -1.147088760061252405e-02 3.087631888857544360e-01 8.909038478741241329e-01 3.069841518917871825e-01 4.127746167874882244e-01 -4.370169403205763081e-01 8.229223070826474640e-01 3.083264649496993415e-01 8.747928162034530608e-01 2.090692826609190202e+00 -3.757458909816246417e-01 -1.463187104070158728e+00 2.370678104633498207e-01 3.192472557254193988e-01 7.614397766506223464e-01 3.272041834116623527e-01 7.045025960111505059e-01 4.691252891127772329e-01 2.319206860487635080e-01 3.178188470638835805e-01 3.144523051066551722e-01 2.441844351115454170e-01 3.039285137264626790e-01 1.411189642470855432e+00 1.633827077215701973e+00 3.123902357479372838e-01 3.096269363834059929e-01 1.378406547100137769e-01 -2.440457798462480343e-01 2.148607876372882475e-01 -2.993513415596196769e-02 3.099190688666867421e-01 7.045929281594579541e-01 -4.983806185940395928e-01 2.752445169547505510e-01 2.839803409284960001e-01 1.528949282099268669e-01 3.023325454115499689e-01 2.199420025768798470e-01 3.129696697164017771e-01 3.101246959717252616e-01 1.558886787727232180e-02 2.774572328225377582e-01 4.366458380551653806e-01 1.121682383481457768e+00 1.105205805374400496e+00 9.256360301373331989e-01 1.993080069560292100e-01 7.844514311427153164e-01 1.443295817982931106e-01 4.838027101137858388e-01 -2.130877532359722437e+00 3.158939230970163603e-01 6.577419804627985256e-01 2.841469488549989708e-01 9.525738926742258750e-01 1.370465988322985940e+00 2.302272079117900494e-01 2.607640207323580483e-01 3.743959171099346395e-01 3.406329308030436320e-01 5.509396872332633643e-01 8.980793346840272307e-01 -7.894684555815044691e-01 1.941369315670879725e-01 6.399382569964526257e-02 3.303632744198520266e-01 3.417876712409347317e-01 7.694250477088576678e-01 -2.245548747328667827e-01 4.013806940013729951e-01 3.192505312835534070e-01 3.555144801631358042e-01 8.916489683322510462e-01 4.290459571292213337e-01 -2.144510036340698256e-01 8.590531275567270253e-01 -4.436931635045979899e-02 5.695115909626228268e-01 2.644770089927169776e-01 1.287557466897840897e+00 5.817775461176912799e-01 7.290649430460969249e-01 4.383896192964195637e-01 4.869570227650444338e-01 -5.594667593502768987e-01 2.416344375227697239e-01 7.604396519935959775e-01 3.089956130863263373e-01 6.231130969442558731e-01 2.680658648923536225e-01 3.110791868965858131e-01 7.243078242908155273e-01 1.472657386822432968e-01 -2.051016151674660115e+00 2.112964958971016161e-01 2.606039843571330006e-01 8.549530014706473446e-01 3.770659996442649042e-01 3.978587006862549513e-01 3.645433396698465334e-01 3.117934218806658331e-01 3.886440238355471921e-01 7.105359095924858315e-02 -1.623319356895348564e+00 7.560443043367879312e-01 2.505711462963273184e-01 3.052345551537362089e-01 2.107686855356572520e-01 8.219950014932450033e-01 3.138669407485212282e-01 -1.462393391569333789e-01 3.352393190433238246e-01 1.121493536867789853e+00 2.651335359286605131e-01 4.157142821713420422e-01 1.051431136562574142e+00 3.879941368643228250e-01 2.791937260773221130e+00 3.398907592067523797e-01 3.149476533427734704e-01 6.998590731163304435e-01 3.389045038849255453e-01 3.258160283626981291e-01 -2.112156885316558430e+00 4.329286772072014622e-01 3.333585604487999121e-01 5.164952483339263489e-01 3.106604844659369702e-01 2.111915036681007440e-01 -2.024445153909571193e-01 2.056953932182648437e+00 -5.194636888377838213e-01 8.280768647145185790e-01 3.099755400972671882e-01 3.015317241389367520e-01 8.153179757403741235e-01 3.449673319670706895e-01 1.334471311131088855e+00 1.991926115712033540e-01 3.601331211925081766e-01 -8.841830581087198881e-01 -1.332353620333549815e-01 -4.674260084642390400e-01 -3.967123776959931014e+00 2.959820078227340723e+00 3.481007497347009955e-02 3.018633013862737080e-01 -1.633360530816206690e+00 3.153951230145418672e-01 3.517040111725491247e-01 2.891303520176320974e-01 1.640860384520946014e-01 6.409473044074790460e-01 5.996168613068655340e-01 1.052844963394867550e+00 -3.714870413311128772e-01 -2.282241798400544142e-01 2.254275359144468915e-01 -1.188493681696328519e+00 2.596965815623561435e-01 -6.475679479049892828e-01 3.300182714983811993e-01 4.587648597324112676e-01 8.098300290211843389e-02 4.479073902089308334e-01 2.666425592360179841e-01 -5.608049101332064634e-02 2.219242955174572929e-01 2.912262705140100105e-01 3.629948321588364890e-01 3.200623976459986419e-01 3.135988754811068757e-01 -7.282459059467396578e-01 5.164034950861157158e-01 1.539579986764018082e+00 6.779128837388788409e-02 2.380421917549699062e-01 3.192260051836444679e-01 1.208134907136885650e+00 3.290584241293869061e-01 1.179751935562844967e-01 8.907274590852745089e-01 2.709051597619621665e-01 1.865951433595618214e+00 2.709965334166047901e-01 1.294254346239214204e+00 3.028021976965594164e-01 7.359417078356637054e-01 1.351621574051008690e+00 3.572890984195051800e-01 3.647857877904526203e-01 9.329407919839526331e-01 -1.878470678953935435e-01 -6.006152943446270431e-02 2.117491460231598899e-01 3.018031125950625393e-01 3.567069562605438837e-01 1.436579360606422551e-01 1.557156640343527743e-01 -3.716594302603691835e-01 1.292500228192276390e+00 2.889048904935399564e-01 3.142788176406157152e-01 -3.193253766566932939e+00 5.368534025526127129e-01 2.835681085579948024e-01 4.037461664573683273e-01 4.029731538182632633e-01 4.682091504112995684e-01 -1.090277918535746737e+00 6.217076290672043370e-01 2.856314385109740006e-01 3.156839129991940718e-01 1.029320344567476564e+00 4.595411698418625512e-01 3.177577854430856386e-01 -1.404600502382900240e+00 3.970658508167910772e-01 8.915187767530599050e-01 3.089546207993366100e-01 3.010493149659230760e-01 3.453735178150081908e-01 7.119356938919763067e-01 -6.329638258947160867e-02 3.126376513307012606e-01 3.323513894960404280e-01 8.578127792583591094e-02 6.720066618096175448e-01 2.882038317319088327e-01 7.108406765876793543e-01 1.724341548730430607e-01 6.902424401215694338e-01 -2.332159624548427457e-01 -1.508067056071050072e+00 3.026692903382580679e-01 -1.866754461293999509e-02 3.356672423136690120e-01 3.788310298543485222e-01 5.457435910247007693e-02 5.220252139931209623e-01 3.202040672864628901e-01 8.348078319351759369e-02 4.450902057203323658e-01 2.625957980017399329e-01 3.103131276923559723e-01 2.706500498976569524e-01 -8.412179225957859829e-01 3.069555295079172685e-01 3.052028060729281567e-01 3.278108616978383516e-01 -2.399389969850634630e-01 3.121658281846103056e-01 8.211408499426345875e-01 -5.677300117335525309e-01 1.118555678543753817e+00 6.129740756727140027e-01 2.554778419666626776e-01 3.134209327357200814e-01 -2.047283858458747385e+00 3.316620069751091138e-01 2.049188793639516171e-01 2.703787528438067467e-01 5.220253050484546797e-01 3.087247337643003187e-01 3.035622171745366304e-01 7.495571388238680965e-02 3.127221461597219920e-01 4.355309450168637353e-01 3.652801899696162535e-01 2.653766615544873031e-01 2.903393468317083115e-01 3.109028265570579763e-01 3.117303803391546224e-01 2.657483097535029426e-01 7.959618048672015278e-02 3.061971948705240476e-01 6.172376879080978540e-01 1.841913549072715928e-01 3.143872939262385979e-01 -1.385632754161296720e-01 1.681478041546627111e-01 5.914188387927035162e-01 4.481141169188398443e+00 3.448762722157863170e-01 8.819487733959444076e-02 5.562776898427957972e-01 1.878732584996745669e-01 1.555330273082819570e+00 3.510636341569518537e-01 6.442867063302083475e-01 3.151453291666931888e-01
