# 
#                 ----------------------------------------------------
#                 Data from a 3D direct N-body simulation. 
# 
#                 rows are i-particle; 
#                 coumns are :mass, tag, x ,y, z, vx, vy, vz, ax, ay, az
# 
#                 NTHU, Computational Physics 
# 
#                 ----------------------------------------------------
#                 Time = 0.0
0.000000000000000000e+00 1.000000000000000000e+00 2.000000000000000000e+00 3.000000000000000000e+00 4.000000000000000000e+00 5.000000000000000000e+00 6.000000000000000000e+00 7.000000000000000000e+00 8.000000000000000000e+00 9.000000000000000000e+00 1.000000000000000000e+01 1.100000000000000000e+01 1.200000000000000000e+01 1.300000000000000000e+01 1.400000000000000000e+01 1.500000000000000000e+01 1.600000000000000000e+01 1.700000000000000000e+01 1.800000000000000000e+01 1.900000000000000000e+01 2.000000000000000000e+01 2.100000000000000000e+01 2.200000000000000000e+01 2.300000000000000000e+01 2.400000000000000000e+01 2.500000000000000000e+01 2.600000000000000000e+01 2.700000000000000000e+01 2.800000000000000000e+01 2.900000000000000000e+01 3.000000000000000000e+01 3.100000000000000000e+01 3.200000000000000000e+01 3.300000000000000000e+01 3.400000000000000000e+01 3.500000000000000000e+01 3.600000000000000000e+01 3.700000000000000000e+01 3.800000000000000000e+01 3.900000000000000000e+01 4.000000000000000000e+01 4.100000000000000000e+01 4.200000000000000000e+01 4.300000000000000000e+01 4.400000000000000000e+01 4.500000000000000000e+01 4.600000000000000000e+01 4.700000000000000000e+01 4.800000000000000000e+01 4.900000000000000000e+01 5.000000000000000000e+01 5.100000000000000000e+01 5.200000000000000000e+01 5.300000000000000000e+01 5.400000000000000000e+01 5.500000000000000000e+01 5.600000000000000000e+01 5.700000000000000000e+01 5.800000000000000000e+01 5.900000000000000000e+01 6.000000000000000000e+01 6.100000000000000000e+01 6.200000000000000000e+01 6.300000000000000000e+01 6.400000000000000000e+01 6.500000000000000000e+01 6.600000000000000000e+01 6.700000000000000000e+01 6.800000000000000000e+01 6.900000000000000000e+01 7.000000000000000000e+01 7.100000000000000000e+01 7.200000000000000000e+01 7.300000000000000000e+01 7.400000000000000000e+01 7.500000000000000000e+01 7.600000000000000000e+01 7.700000000000000000e+01 7.800000000000000000e+01 7.900000000000000000e+01 8.000000000000000000e+01 8.100000000000000000e+01 8.200000000000000000e+01 8.300000000000000000e+01 8.400000000000000000e+01 8.500000000000000000e+01 8.600000000000000000e+01 8.700000000000000000e+01 8.800000000000000000e+01 8.900000000000000000e+01 9.000000000000000000e+01 9.100000000000000000e+01 9.200000000000000000e+01 9.300000000000000000e+01 9.400000000000000000e+01 9.500000000000000000e+01 9.600000000000000000e+01 9.700000000000000000e+01 9.800000000000000000e+01 9.900000000000000000e+01 1.000000000000000000e+02 1.010000000000000000e+02 1.020000000000000000e+02 1.030000000000000000e+02 1.040000000000000000e+02 1.050000000000000000e+02 1.060000000000000000e+02 1.070000000000000000e+02 1.080000000000000000e+02 1.090000000000000000e+02 1.100000000000000000e+02 1.110000000000000000e+02 1.120000000000000000e+02 1.130000000000000000e+02 1.140000000000000000e+02 1.150000000000000000e+02 1.160000000000000000e+02 1.170000000000000000e+02 1.180000000000000000e+02 1.190000000000000000e+02 1.200000000000000000e+02 1.210000000000000000e+02 1.220000000000000000e+02 1.230000000000000000e+02 1.240000000000000000e+02 1.250000000000000000e+02 1.260000000000000000e+02 1.270000000000000000e+02 1.280000000000000000e+02 1.290000000000000000e+02 1.300000000000000000e+02 1.310000000000000000e+02 1.320000000000000000e+02 1.330000000000000000e+02 1.340000000000000000e+02 1.350000000000000000e+02 1.360000000000000000e+02 1.370000000000000000e+02 1.380000000000000000e+02 1.390000000000000000e+02 1.400000000000000000e+02 1.410000000000000000e+02 1.420000000000000000e+02 1.430000000000000000e+02 1.440000000000000000e+02 1.450000000000000000e+02 1.460000000000000000e+02 1.470000000000000000e+02 1.480000000000000000e+02 1.490000000000000000e+02 1.500000000000000000e+02 1.510000000000000000e+02 1.520000000000000000e+02 1.530000000000000000e+02 1.540000000000000000e+02 1.550000000000000000e+02 1.560000000000000000e+02 1.570000000000000000e+02 1.580000000000000000e+02 1.590000000000000000e+02 1.600000000000000000e+02 1.610000000000000000e+02 1.620000000000000000e+02 1.630000000000000000e+02 1.640000000000000000e+02 1.650000000000000000e+02 1.660000000000000000e+02 1.670000000000000000e+02 1.680000000000000000e+02 1.690000000000000000e+02 1.700000000000000000e+02 1.710000000000000000e+02 1.720000000000000000e+02 1.730000000000000000e+02 1.740000000000000000e+02 1.750000000000000000e+02 1.760000000000000000e+02 1.770000000000000000e+02 1.780000000000000000e+02 1.790000000000000000e+02 1.800000000000000000e+02 1.810000000000000000e+02 1.820000000000000000e+02 1.830000000000000000e+02 1.840000000000000000e+02 1.850000000000000000e+02 1.860000000000000000e+02 1.870000000000000000e+02 1.880000000000000000e+02 1.890000000000000000e+02 1.900000000000000000e+02 1.910000000000000000e+02 1.920000000000000000e+02 1.930000000000000000e+02 1.940000000000000000e+02 1.950000000000000000e+02 1.960000000000000000e+02 1.970000000000000000e+02 1.980000000000000000e+02 1.990000000000000000e+02 2.000000000000000000e+02 2.010000000000000000e+02 2.020000000000000000e+02 2.030000000000000000e+02 2.040000000000000000e+02 2.050000000000000000e+02 2.060000000000000000e+02 2.070000000000000000e+02 2.080000000000000000e+02 2.090000000000000000e+02 2.100000000000000000e+02 2.110000000000000000e+02 2.120000000000000000e+02 2.130000000000000000e+02 2.140000000000000000e+02 2.150000000000000000e+02 2.160000000000000000e+02 2.170000000000000000e+02 2.180000000000000000e+02 2.190000000000000000e+02 2.200000000000000000e+02 2.210000000000000000e+02 2.220000000000000000e+02 2.230000000000000000e+02 2.240000000000000000e+02 2.250000000000000000e+02 2.260000000000000000e+02 2.270000000000000000e+02 2.280000000000000000e+02 2.290000000000000000e+02 2.300000000000000000e+02 2.310000000000000000e+02 2.320000000000000000e+02 2.330000000000000000e+02 2.340000000000000000e+02 2.350000000000000000e+02 2.360000000000000000e+02 2.370000000000000000e+02 2.380000000000000000e+02 2.390000000000000000e+02 2.400000000000000000e+02 2.410000000000000000e+02 2.420000000000000000e+02 2.430000000000000000e+02 2.440000000000000000e+02 2.450000000000000000e+02 2.460000000000000000e+02 2.470000000000000000e+02 2.480000000000000000e+02 2.490000000000000000e+02 2.500000000000000000e+02 2.510000000000000000e+02 2.520000000000000000e+02 2.530000000000000000e+02 2.540000000000000000e+02 2.550000000000000000e+02 2.560000000000000000e+02 2.570000000000000000e+02 2.580000000000000000e+02 2.590000000000000000e+02 2.600000000000000000e+02 2.610000000000000000e+02 2.620000000000000000e+02 2.630000000000000000e+02 2.640000000000000000e+02 2.650000000000000000e+02 2.660000000000000000e+02 2.670000000000000000e+02 2.680000000000000000e+02 2.690000000000000000e+02 2.700000000000000000e+02 2.710000000000000000e+02 2.720000000000000000e+02 2.730000000000000000e+02 2.740000000000000000e+02 2.750000000000000000e+02 2.760000000000000000e+02 2.770000000000000000e+02 2.780000000000000000e+02 2.790000000000000000e+02 2.800000000000000000e+02 2.810000000000000000e+02 2.820000000000000000e+02 2.830000000000000000e+02 2.840000000000000000e+02 2.850000000000000000e+02 2.860000000000000000e+02 2.870000000000000000e+02 2.880000000000000000e+02 2.890000000000000000e+02 2.900000000000000000e+02 2.910000000000000000e+02 2.920000000000000000e+02 2.930000000000000000e+02 2.940000000000000000e+02 2.950000000000000000e+02 2.960000000000000000e+02 2.970000000000000000e+02 2.980000000000000000e+02 2.990000000000000000e+02 3.000000000000000000e+02 3.010000000000000000e+02 3.020000000000000000e+02 3.030000000000000000e+02 3.040000000000000000e+02 3.050000000000000000e+02 3.060000000000000000e+02 3.070000000000000000e+02 3.080000000000000000e+02 3.090000000000000000e+02 3.100000000000000000e+02 3.110000000000000000e+02 3.120000000000000000e+02 3.130000000000000000e+02 3.140000000000000000e+02 3.150000000000000000e+02 3.160000000000000000e+02 3.170000000000000000e+02 3.180000000000000000e+02 3.190000000000000000e+02 3.200000000000000000e+02 3.210000000000000000e+02 3.220000000000000000e+02 3.230000000000000000e+02 3.240000000000000000e+02 3.250000000000000000e+02 3.260000000000000000e+02 3.270000000000000000e+02 3.280000000000000000e+02 3.290000000000000000e+02 3.300000000000000000e+02 3.310000000000000000e+02 3.320000000000000000e+02 3.330000000000000000e+02 3.340000000000000000e+02 3.350000000000000000e+02 3.360000000000000000e+02 3.370000000000000000e+02 3.380000000000000000e+02 3.390000000000000000e+02 3.400000000000000000e+02 3.410000000000000000e+02 3.420000000000000000e+02 3.430000000000000000e+02 3.440000000000000000e+02 3.450000000000000000e+02 3.460000000000000000e+02 3.470000000000000000e+02 3.480000000000000000e+02 3.490000000000000000e+02 3.500000000000000000e+02 3.510000000000000000e+02 3.520000000000000000e+02 3.530000000000000000e+02 3.540000000000000000e+02 3.550000000000000000e+02 3.560000000000000000e+02 3.570000000000000000e+02 3.580000000000000000e+02 3.590000000000000000e+02 3.600000000000000000e+02 3.610000000000000000e+02 3.620000000000000000e+02 3.630000000000000000e+02 3.640000000000000000e+02 3.650000000000000000e+02 3.660000000000000000e+02 3.670000000000000000e+02 3.680000000000000000e+02 3.690000000000000000e+02 3.700000000000000000e+02 3.710000000000000000e+02 3.720000000000000000e+02 3.730000000000000000e+02 3.740000000000000000e+02 3.750000000000000000e+02 3.760000000000000000e+02 3.770000000000000000e+02 3.780000000000000000e+02 3.790000000000000000e+02 3.800000000000000000e+02 3.810000000000000000e+02 3.820000000000000000e+02 3.830000000000000000e+02 3.840000000000000000e+02 3.850000000000000000e+02 3.860000000000000000e+02 3.870000000000000000e+02 3.880000000000000000e+02 3.890000000000000000e+02 3.900000000000000000e+02 3.910000000000000000e+02 3.920000000000000000e+02 3.930000000000000000e+02 3.940000000000000000e+02 3.950000000000000000e+02 3.960000000000000000e+02 3.970000000000000000e+02 3.980000000000000000e+02 3.990000000000000000e+02 4.000000000000000000e+02 4.010000000000000000e+02 4.020000000000000000e+02 4.030000000000000000e+02 4.040000000000000000e+02 4.050000000000000000e+02 4.060000000000000000e+02 4.070000000000000000e+02 4.080000000000000000e+02 4.090000000000000000e+02 4.100000000000000000e+02 4.110000000000000000e+02 4.120000000000000000e+02 4.130000000000000000e+02 4.140000000000000000e+02 4.150000000000000000e+02 4.160000000000000000e+02 4.170000000000000000e+02 4.180000000000000000e+02 4.190000000000000000e+02 4.200000000000000000e+02 4.210000000000000000e+02 4.220000000000000000e+02 4.230000000000000000e+02 4.240000000000000000e+02 4.250000000000000000e+02 4.260000000000000000e+02 4.270000000000000000e+02 4.280000000000000000e+02 4.290000000000000000e+02 4.300000000000000000e+02 4.310000000000000000e+02 4.320000000000000000e+02 4.330000000000000000e+02 4.340000000000000000e+02 4.350000000000000000e+02 4.360000000000000000e+02 4.370000000000000000e+02 4.380000000000000000e+02 4.390000000000000000e+02 4.400000000000000000e+02 4.410000000000000000e+02 4.420000000000000000e+02 4.430000000000000000e+02 4.440000000000000000e+02 4.450000000000000000e+02 4.460000000000000000e+02 4.470000000000000000e+02 4.480000000000000000e+02 4.490000000000000000e+02 4.500000000000000000e+02 4.510000000000000000e+02 4.520000000000000000e+02 4.530000000000000000e+02 4.540000000000000000e+02 4.550000000000000000e+02 4.560000000000000000e+02 4.570000000000000000e+02 4.580000000000000000e+02 4.590000000000000000e+02 4.600000000000000000e+02 4.610000000000000000e+02 4.620000000000000000e+02 4.630000000000000000e+02 4.640000000000000000e+02 4.650000000000000000e+02 4.660000000000000000e+02 4.670000000000000000e+02 4.680000000000000000e+02 4.690000000000000000e+02 4.700000000000000000e+02 4.710000000000000000e+02 4.720000000000000000e+02 4.730000000000000000e+02 4.740000000000000000e+02 4.750000000000000000e+02 4.760000000000000000e+02 4.770000000000000000e+02 4.780000000000000000e+02 4.790000000000000000e+02 4.800000000000000000e+02 4.810000000000000000e+02 4.820000000000000000e+02 4.830000000000000000e+02 4.840000000000000000e+02 4.850000000000000000e+02 4.860000000000000000e+02 4.870000000000000000e+02 4.880000000000000000e+02 4.890000000000000000e+02 4.900000000000000000e+02 4.910000000000000000e+02 4.920000000000000000e+02 4.930000000000000000e+02 4.940000000000000000e+02 4.950000000000000000e+02 4.960000000000000000e+02 4.970000000000000000e+02 4.980000000000000000e+02 4.990000000000000000e+02 5.000000000000000000e+02 5.010000000000000000e+02 5.020000000000000000e+02 5.030000000000000000e+02 5.040000000000000000e+02 5.050000000000000000e+02 5.060000000000000000e+02 5.070000000000000000e+02 5.080000000000000000e+02 5.090000000000000000e+02 5.100000000000000000e+02 5.110000000000000000e+02 5.120000000000000000e+02 5.130000000000000000e+02 5.140000000000000000e+02 5.150000000000000000e+02 5.160000000000000000e+02 5.170000000000000000e+02 5.180000000000000000e+02 5.190000000000000000e+02 5.200000000000000000e+02 5.210000000000000000e+02 5.220000000000000000e+02 5.230000000000000000e+02 5.240000000000000000e+02 5.250000000000000000e+02 5.260000000000000000e+02 5.270000000000000000e+02 5.280000000000000000e+02 5.290000000000000000e+02 5.300000000000000000e+02 5.310000000000000000e+02 5.320000000000000000e+02 5.330000000000000000e+02 5.340000000000000000e+02 5.350000000000000000e+02 5.360000000000000000e+02 5.370000000000000000e+02 5.380000000000000000e+02 5.390000000000000000e+02 5.400000000000000000e+02 5.410000000000000000e+02 5.420000000000000000e+02 5.430000000000000000e+02 5.440000000000000000e+02 5.450000000000000000e+02 5.460000000000000000e+02 5.470000000000000000e+02 5.480000000000000000e+02 5.490000000000000000e+02 5.500000000000000000e+02 5.510000000000000000e+02 5.520000000000000000e+02 5.530000000000000000e+02 5.540000000000000000e+02 5.550000000000000000e+02 5.560000000000000000e+02 5.570000000000000000e+02 5.580000000000000000e+02 5.590000000000000000e+02 5.600000000000000000e+02 5.610000000000000000e+02 5.620000000000000000e+02 5.630000000000000000e+02 5.640000000000000000e+02 5.650000000000000000e+02 5.660000000000000000e+02 5.670000000000000000e+02 5.680000000000000000e+02 5.690000000000000000e+02 5.700000000000000000e+02 5.710000000000000000e+02 5.720000000000000000e+02 5.730000000000000000e+02 5.740000000000000000e+02 5.750000000000000000e+02 5.760000000000000000e+02 5.770000000000000000e+02 5.780000000000000000e+02 5.790000000000000000e+02 5.800000000000000000e+02 5.810000000000000000e+02 5.820000000000000000e+02 5.830000000000000000e+02 5.840000000000000000e+02 5.850000000000000000e+02 5.860000000000000000e+02 5.870000000000000000e+02 5.880000000000000000e+02 5.890000000000000000e+02 5.900000000000000000e+02 5.910000000000000000e+02 5.920000000000000000e+02 5.930000000000000000e+02 5.940000000000000000e+02 5.950000000000000000e+02 5.960000000000000000e+02 5.970000000000000000e+02 5.980000000000000000e+02 5.990000000000000000e+02 6.000000000000000000e+02 6.010000000000000000e+02 6.020000000000000000e+02 6.030000000000000000e+02 6.040000000000000000e+02 6.050000000000000000e+02 6.060000000000000000e+02 6.070000000000000000e+02 6.080000000000000000e+02 6.090000000000000000e+02 6.100000000000000000e+02 6.110000000000000000e+02 6.120000000000000000e+02 6.130000000000000000e+02 6.140000000000000000e+02 6.150000000000000000e+02 6.160000000000000000e+02 6.170000000000000000e+02 6.180000000000000000e+02 6.190000000000000000e+02 6.200000000000000000e+02 6.210000000000000000e+02 6.220000000000000000e+02 6.230000000000000000e+02 6.240000000000000000e+02 6.250000000000000000e+02 6.260000000000000000e+02 6.270000000000000000e+02 6.280000000000000000e+02 6.290000000000000000e+02 6.300000000000000000e+02 6.310000000000000000e+02 6.320000000000000000e+02 6.330000000000000000e+02 6.340000000000000000e+02 6.350000000000000000e+02 6.360000000000000000e+02 6.370000000000000000e+02 6.380000000000000000e+02 6.390000000000000000e+02 6.400000000000000000e+02 6.410000000000000000e+02 6.420000000000000000e+02 6.430000000000000000e+02 6.440000000000000000e+02 6.450000000000000000e+02 6.460000000000000000e+02 6.470000000000000000e+02 6.480000000000000000e+02 6.490000000000000000e+02 6.500000000000000000e+02 6.510000000000000000e+02 6.520000000000000000e+02 6.530000000000000000e+02 6.540000000000000000e+02 6.550000000000000000e+02 6.560000000000000000e+02 6.570000000000000000e+02 6.580000000000000000e+02 6.590000000000000000e+02 6.600000000000000000e+02 6.610000000000000000e+02 6.620000000000000000e+02 6.630000000000000000e+02 6.640000000000000000e+02 6.650000000000000000e+02 6.660000000000000000e+02 6.670000000000000000e+02 6.680000000000000000e+02 6.690000000000000000e+02 6.700000000000000000e+02 6.710000000000000000e+02 6.720000000000000000e+02 6.730000000000000000e+02 6.740000000000000000e+02 6.750000000000000000e+02 6.760000000000000000e+02 6.770000000000000000e+02 6.780000000000000000e+02 6.790000000000000000e+02 6.800000000000000000e+02 6.810000000000000000e+02 6.820000000000000000e+02 6.830000000000000000e+02 6.840000000000000000e+02 6.850000000000000000e+02 6.860000000000000000e+02 6.870000000000000000e+02 6.880000000000000000e+02 6.890000000000000000e+02 6.900000000000000000e+02 6.910000000000000000e+02 6.920000000000000000e+02 6.930000000000000000e+02 6.940000000000000000e+02 6.950000000000000000e+02 6.960000000000000000e+02 6.970000000000000000e+02 6.980000000000000000e+02 6.990000000000000000e+02 7.000000000000000000e+02 7.010000000000000000e+02 7.020000000000000000e+02 7.030000000000000000e+02 7.040000000000000000e+02 7.050000000000000000e+02 7.060000000000000000e+02 7.070000000000000000e+02 7.080000000000000000e+02 7.090000000000000000e+02 7.100000000000000000e+02 7.110000000000000000e+02 7.120000000000000000e+02 7.130000000000000000e+02 7.140000000000000000e+02 7.150000000000000000e+02 7.160000000000000000e+02 7.170000000000000000e+02 7.180000000000000000e+02 7.190000000000000000e+02 7.200000000000000000e+02 7.210000000000000000e+02 7.220000000000000000e+02 7.230000000000000000e+02 7.240000000000000000e+02 7.250000000000000000e+02 7.260000000000000000e+02 7.270000000000000000e+02 7.280000000000000000e+02 7.290000000000000000e+02 7.300000000000000000e+02 7.310000000000000000e+02 7.320000000000000000e+02 7.330000000000000000e+02 7.340000000000000000e+02 7.350000000000000000e+02 7.360000000000000000e+02 7.370000000000000000e+02 7.380000000000000000e+02 7.390000000000000000e+02 7.400000000000000000e+02 7.410000000000000000e+02 7.420000000000000000e+02 7.430000000000000000e+02 7.440000000000000000e+02 7.450000000000000000e+02 7.460000000000000000e+02 7.470000000000000000e+02 7.480000000000000000e+02 7.490000000000000000e+02 7.500000000000000000e+02 7.510000000000000000e+02 7.520000000000000000e+02 7.530000000000000000e+02 7.540000000000000000e+02 7.550000000000000000e+02 7.560000000000000000e+02 7.570000000000000000e+02 7.580000000000000000e+02 7.590000000000000000e+02 7.600000000000000000e+02 7.610000000000000000e+02 7.620000000000000000e+02 7.630000000000000000e+02 7.640000000000000000e+02 7.650000000000000000e+02 7.660000000000000000e+02 7.670000000000000000e+02 7.680000000000000000e+02 7.690000000000000000e+02 7.700000000000000000e+02 7.710000000000000000e+02 7.720000000000000000e+02 7.730000000000000000e+02 7.740000000000000000e+02 7.750000000000000000e+02 7.760000000000000000e+02 7.770000000000000000e+02 7.780000000000000000e+02 7.790000000000000000e+02 7.800000000000000000e+02 7.810000000000000000e+02 7.820000000000000000e+02 7.830000000000000000e+02 7.840000000000000000e+02 7.850000000000000000e+02 7.860000000000000000e+02 7.870000000000000000e+02 7.880000000000000000e+02 7.890000000000000000e+02 7.900000000000000000e+02 7.910000000000000000e+02 7.920000000000000000e+02 7.930000000000000000e+02 7.940000000000000000e+02 7.950000000000000000e+02 7.960000000000000000e+02 7.970000000000000000e+02 7.980000000000000000e+02 7.990000000000000000e+02 8.000000000000000000e+02 8.010000000000000000e+02 8.020000000000000000e+02 8.030000000000000000e+02 8.040000000000000000e+02 8.050000000000000000e+02 8.060000000000000000e+02 8.070000000000000000e+02 8.080000000000000000e+02 8.090000000000000000e+02 8.100000000000000000e+02 8.110000000000000000e+02 8.120000000000000000e+02 8.130000000000000000e+02 8.140000000000000000e+02 8.150000000000000000e+02 8.160000000000000000e+02 8.170000000000000000e+02 8.180000000000000000e+02 8.190000000000000000e+02 8.200000000000000000e+02 8.210000000000000000e+02 8.220000000000000000e+02 8.230000000000000000e+02 8.240000000000000000e+02 8.250000000000000000e+02 8.260000000000000000e+02 8.270000000000000000e+02 8.280000000000000000e+02 8.290000000000000000e+02 8.300000000000000000e+02 8.310000000000000000e+02 8.320000000000000000e+02 8.330000000000000000e+02 8.340000000000000000e+02 8.350000000000000000e+02 8.360000000000000000e+02 8.370000000000000000e+02 8.380000000000000000e+02 8.390000000000000000e+02 8.400000000000000000e+02 8.410000000000000000e+02 8.420000000000000000e+02 8.430000000000000000e+02 8.440000000000000000e+02 8.450000000000000000e+02 8.460000000000000000e+02 8.470000000000000000e+02 8.480000000000000000e+02 8.490000000000000000e+02 8.500000000000000000e+02 8.510000000000000000e+02 8.520000000000000000e+02 8.530000000000000000e+02 8.540000000000000000e+02 8.550000000000000000e+02 8.560000000000000000e+02 8.570000000000000000e+02 8.580000000000000000e+02 8.590000000000000000e+02 8.600000000000000000e+02 8.610000000000000000e+02 8.620000000000000000e+02 8.630000000000000000e+02 8.640000000000000000e+02 8.650000000000000000e+02 8.660000000000000000e+02 8.670000000000000000e+02 8.680000000000000000e+02 8.690000000000000000e+02 8.700000000000000000e+02 8.710000000000000000e+02 8.720000000000000000e+02 8.730000000000000000e+02 8.740000000000000000e+02 8.750000000000000000e+02 8.760000000000000000e+02 8.770000000000000000e+02 8.780000000000000000e+02 8.790000000000000000e+02 8.800000000000000000e+02 8.810000000000000000e+02 8.820000000000000000e+02 8.830000000000000000e+02 8.840000000000000000e+02 8.850000000000000000e+02 8.860000000000000000e+02 8.870000000000000000e+02 8.880000000000000000e+02 8.890000000000000000e+02 8.900000000000000000e+02 8.910000000000000000e+02 8.920000000000000000e+02 8.930000000000000000e+02 8.940000000000000000e+02 8.950000000000000000e+02 8.960000000000000000e+02 8.970000000000000000e+02 8.980000000000000000e+02 8.990000000000000000e+02 9.000000000000000000e+02 9.010000000000000000e+02 9.020000000000000000e+02 9.030000000000000000e+02 9.040000000000000000e+02 9.050000000000000000e+02 9.060000000000000000e+02 9.070000000000000000e+02 9.080000000000000000e+02 9.090000000000000000e+02 9.100000000000000000e+02 9.110000000000000000e+02 9.120000000000000000e+02 9.130000000000000000e+02 9.140000000000000000e+02 9.150000000000000000e+02 9.160000000000000000e+02 9.170000000000000000e+02 9.180000000000000000e+02 9.190000000000000000e+02 9.200000000000000000e+02 9.210000000000000000e+02 9.220000000000000000e+02 9.230000000000000000e+02 9.240000000000000000e+02 9.250000000000000000e+02 9.260000000000000000e+02 9.270000000000000000e+02 9.280000000000000000e+02 9.290000000000000000e+02 9.300000000000000000e+02 9.310000000000000000e+02 9.320000000000000000e+02 9.330000000000000000e+02 9.340000000000000000e+02 9.350000000000000000e+02 9.360000000000000000e+02 9.370000000000000000e+02 9.380000000000000000e+02 9.390000000000000000e+02 9.400000000000000000e+02 9.410000000000000000e+02 9.420000000000000000e+02 9.430000000000000000e+02 9.440000000000000000e+02 9.450000000000000000e+02 9.460000000000000000e+02 9.470000000000000000e+02 9.480000000000000000e+02 9.490000000000000000e+02 9.500000000000000000e+02 9.510000000000000000e+02 9.520000000000000000e+02 9.530000000000000000e+02 9.540000000000000000e+02 9.550000000000000000e+02 9.560000000000000000e+02 9.570000000000000000e+02 9.580000000000000000e+02 9.590000000000000000e+02 9.600000000000000000e+02 9.610000000000000000e+02 9.620000000000000000e+02 9.630000000000000000e+02 9.640000000000000000e+02 9.650000000000000000e+02 9.660000000000000000e+02 9.670000000000000000e+02 9.680000000000000000e+02 9.690000000000000000e+02 9.700000000000000000e+02 9.710000000000000000e+02 9.720000000000000000e+02 9.730000000000000000e+02 9.740000000000000000e+02 9.750000000000000000e+02 9.760000000000000000e+02 9.770000000000000000e+02 9.780000000000000000e+02 9.790000000000000000e+02 9.800000000000000000e+02 9.810000000000000000e+02 9.820000000000000000e+02 9.830000000000000000e+02 9.840000000000000000e+02 9.850000000000000000e+02 9.860000000000000000e+02 9.870000000000000000e+02 9.880000000000000000e+02 9.890000000000000000e+02 9.900000000000000000e+02 9.910000000000000000e+02 9.920000000000000000e+02 9.930000000000000000e+02 9.940000000000000000e+02 9.950000000000000000e+02 9.960000000000000000e+02 9.970000000000000000e+02 9.980000000000000000e+02 9.990000000000000000e+02
1.000000000000000000e+00 1.000000000000000000e+00 1.000000000000000000e+00 1.000000000000000000e+00 1.000000000000000000e+00 1.000000000000000000e+00 1.000000000000000000e+00 1.000000000000000000e+00 1.000000000000000000e+00 1.000000000000000000e+00 1.000000000000000000e+00 1.000000000000000000e+00 1.000000000000000000e+00 1.000000000000000000e+00 1.000000000000000000e+00 1.000000000000000000e+00 1.000000000000000000e+00 1.000000000000000000e+00 1.000000000000000000e+00 1.000000000000000000e+00 1.000000000000000000e+00 1.000000000000000000e+00 1.000000000000000000e+00 1.000000000000000000e+00 1.000000000000000000e+00 1.000000000000000000e+00 1.000000000000000000e+00 1.000000000000000000e+00 1.000000000000000000e+00 1.000000000000000000e+00 1.000000000000000000e+00 1.000000000000000000e+00 1.000000000000000000e+00 1.000000000000000000e+00 1.000000000000000000e+00 1.000000000000000000e+00 1.000000000000000000e+00 1.000000000000000000e+00 1.000000000000000000e+00 1.000000000000000000e+00 1.000000000000000000e+00 1.000000000000000000e+00 1.000000000000000000e+00 1.000000000000000000e+00 1.000000000000000000e+00 1.000000000000000000e+00 1.000000000000000000e+00 1.000000000000000000e+00 1.000000000000000000e+00 1.000000000000000000e+00 1.000000000000000000e+00 1.000000000000000000e+00 1.000000000000000000e+00 1.000000000000000000e+00 1.000000000000000000e+00 1.000000000000000000e+00 1.000000000000000000e+00 1.000000000000000000e+00 1.000000000000000000e+00 1.000000000000000000e+00 1.000000000000000000e+00 1.000000000000000000e+00 1.000000000000000000e+00 1.000000000000000000e+00 1.000000000000000000e+00 1.000000000000000000e+00 1.000000000000000000e+00 1.000000000000000000e+00 1.000000000000000000e+00 1.000000000000000000e+00 1.000000000000000000e+00 1.000000000000000000e+00 1.000000000000000000e+00 1.000000000000000000e+00 1.000000000000000000e+00 1.000000000000000000e+00 1.000000000000000000e+00 1.000000000000000000e+00 1.000000000000000000e+00 1.000000000000000000e+00 1.000000000000000000e+00 1.000000000000000000e+00 1.000000000000000000e+00 1.000000000000000000e+00 1.000000000000000000e+00 1.000000000000000000e+00 1.000000000000000000e+00 1.000000000000000000e+00 1.000000000000000000e+00 1.000000000000000000e+00 1.000000000000000000e+00 1.000000000000000000e+00 1.000000000000000000e+00 1.000000000000000000e+00 1.000000000000000000e+00 1.000000000000000000e+00 1.000000000000000000e+00 1.000000000000000000e+00 1.000000000000000000e+00 1.000000000000000000e+00 1.000000000000000000e+00 1.000000000000000000e+00 1.000000000000000000e+00 1.000000000000000000e+00 1.000000000000000000e+00 1.000000000000000000e+00 1.000000000000000000e+00 1.000000000000000000e+00 1.000000000000000000e+00 1.000000000000000000e+00 1.000000000000000000e+00 1.000000000000000000e+00 1.000000000000000000e+00 1.000000000000000000e+00 1.000000000000000000e+00 1.000000000000000000e+00 1.000000000000000000e+00 1.000000000000000000e+00 1.000000000000000000e+00 1.000000000000000000e+00 1.000000000000000000e+00 1.000000000000000000e+00 1.000000000000000000e+00 1.000000000000000000e+00 1.000000000000000000e+00 1.000000000000000000e+00 1.000000000000000000e+00 1.000000000000000000e+00 1.000000000000000000e+00 1.000000000000000000e+00 1.000000000000000000e+00 1.000000000000000000e+00 1.000000000000000000e+00 1.000000000000000000e+00 1.000000000000000000e+00 1.000000000000000000e+00 1.000000000000000000e+00 1.000000000000000000e+00 1.000000000000000000e+00 1.000000000000000000e+00 1.000000000000000000e+00 1.000000000000000000e+00 1.000000000000000000e+00 1.000000000000000000e+00 1.000000000000000000e+00 1.000000000000000000e+00 1.000000000000000000e+00 1.000000000000000000e+00 1.000000000000000000e+00 1.000000000000000000e+00 1.000000000000000000e+00 1.000000000000000000e+00 1.000000000000000000e+00 1.000000000000000000e+00 1.000000000000000000e+00 1.000000000000000000e+00 1.000000000000000000e+00 1.000000000000000000e+00 1.000000000000000000e+00 1.000000000000000000e+00 1.000000000000000000e+00 1.000000000000000000e+00 1.000000000000000000e+00 1.000000000000000000e+00 1.000000000000000000e+00 1.000000000000000000e+00 1.000000000000000000e+00 1.000000000000000000e+00 1.000000000000000000e+00 1.000000000000000000e+00 1.000000000000000000e+00 1.000000000000000000e+00 1.000000000000000000e+00 1.000000000000000000e+00 1.000000000000000000e+00 1.000000000000000000e+00 1.000000000000000000e+00 1.000000000000000000e+00 1.000000000000000000e+00 1.000000000000000000e+00 1.000000000000000000e+00 1.000000000000000000e+00 1.000000000000000000e+00 1.000000000000000000e+00 1.000000000000000000e+00 1.000000000000000000e+00 1.000000000000000000e+00 1.000000000000000000e+00 1.000000000000000000e+00 1.000000000000000000e+00 1.000000000000000000e+00 1.000000000000000000e+00 1.000000000000000000e+00 1.000000000000000000e+00 1.000000000000000000e+00 1.000000000000000000e+00 1.000000000000000000e+00 1.000000000000000000e+00 1.000000000000000000e+00 1.000000000000000000e+00 1.000000000000000000e+00 1.000000000000000000e+00 1.000000000000000000e+00 1.000000000000000000e+00 1.000000000000000000e+00 1.000000000000000000e+00 1.000000000000000000e+00 1.000000000000000000e+00 1.000000000000000000e+00 1.000000000000000000e+00 1.000000000000000000e+00 1.000000000000000000e+00 1.000000000000000000e+00 1.000000000000000000e+00 1.000000000000000000e+00 1.000000000000000000e+00 1.000000000000000000e+00 1.000000000000000000e+00 1.000000000000000000e+00 1.000000000000000000e+00 1.000000000000000000e+00 1.000000000000000000e+00 1.000000000000000000e+00 1.000000000000000000e+00 1.000000000000000000e+00 1.000000000000000000e+00 1.000000000000000000e+00 1.000000000000000000e+00 1.000000000000000000e+00 1.000000000000000000e+00 1.000000000000000000e+00 1.000000000000000000e+00 1.000000000000000000e+00 1.000000000000000000e+00 1.000000000000000000e+00 1.000000000000000000e+00 1.000000000000000000e+00 1.000000000000000000e+00 1.000000000000000000e+00 1.000000000000000000e+00 1.000000000000000000e+00 1.000000000000000000e+00 1.000000000000000000e+00 1.000000000000000000e+00 1.000000000000000000e+00 1.000000000000000000e+00 1.000000000000000000e+00 1.000000000000000000e+00 1.000000000000000000e+00 1.000000000000000000e+00 1.000000000000000000e+00 1.000000000000000000e+00 1.000000000000000000e+00 1.000000000000000000e+00 1.000000000000000000e+00 1.000000000000000000e+00 1.000000000000000000e+00 1.000000000000000000e+00 1.000000000000000000e+00 1.000000000000000000e+00 1.000000000000000000e+00 1.000000000000000000e+00 1.000000000000000000e+00 1.000000000000000000e+00 1.000000000000000000e+00 1.000000000000000000e+00 1.000000000000000000e+00 1.000000000000000000e+00 1.000000000000000000e+00 1.000000000000000000e+00 1.000000000000000000e+00 1.000000000000000000e+00 1.000000000000000000e+00 1.000000000000000000e+00 1.000000000000000000e+00 1.000000000000000000e+00 1.000000000000000000e+00 1.000000000000000000e+00 1.000000000000000000e+00 1.000000000000000000e+00 1.000000000000000000e+00 1.000000000000000000e+00 1.000000000000000000e+00 1.000000000000000000e+00 1.000000000000000000e+00 1.000000000000000000e+00 1.000000000000000000e+00 1.000000000000000000e+00 1.000000000000000000e+00 1.000000000000000000e+00 1.000000000000000000e+00 1.000000000000000000e+00 1.000000000000000000e+00 1.000000000000000000e+00 1.000000000000000000e+00 1.000000000000000000e+00 1.000000000000000000e+00 1.000000000000000000e+00 1.000000000000000000e+00 1.000000000000000000e+00 1.000000000000000000e+00 1.000000000000000000e+00 1.000000000000000000e+00 1.000000000000000000e+00 1.000000000000000000e+00 1.000000000000000000e+00 1.000000000000000000e+00 1.000000000000000000e+00 1.000000000000000000e+00 1.000000000000000000e+00 1.000000000000000000e+00 1.000000000000000000e+00 1.000000000000000000e+00 1.000000000000000000e+00 1.000000000000000000e+00 1.000000000000000000e+00 1.000000000000000000e+00 1.000000000000000000e+00 1.000000000000000000e+00 1.000000000000000000e+00 1.000000000000000000e+00 1.000000000000000000e+00 1.000000000000000000e+00 1.000000000000000000e+00 1.000000000000000000e+00 1.000000000000000000e+00 1.000000000000000000e+00 1.000000000000000000e+00 1.000000000000000000e+00 1.000000000000000000e+00 1.000000000000000000e+00 1.000000000000000000e+00 1.000000000000000000e+00 1.000000000000000000e+00 1.000000000000000000e+00 1.000000000000000000e+00 1.000000000000000000e+00 1.000000000000000000e+00 1.000000000000000000e+00 1.000000000000000000e+00 1.000000000000000000e+00 1.000000000000000000e+00 1.000000000000000000e+00 1.000000000000000000e+00 1.000000000000000000e+00 1.000000000000000000e+00 1.000000000000000000e+00 1.000000000000000000e+00 1.000000000000000000e+00 1.000000000000000000e+00 1.000000000000000000e+00 1.000000000000000000e+00 1.000000000000000000e+00 1.000000000000000000e+00 1.000000000000000000e+00 1.000000000000000000e+00 1.000000000000000000e+00 1.000000000000000000e+00 1.000000000000000000e+00 1.000000000000000000e+00 1.000000000000000000e+00 1.000000000000000000e+00 1.000000000000000000e+00 1.000000000000000000e+00 1.000000000000000000e+00 1.000000000000000000e+00 1.000000000000000000e+00 1.000000000000000000e+00 1.000000000000000000e+00 1.000000000000000000e+00 1.000000000000000000e+00 1.000000000000000000e+00 1.000000000000000000e+00 1.000000000000000000e+00 1.000000000000000000e+00 1.000000000000000000e+00 1.000000000000000000e+00 1.000000000000000000e+00 1.000000000000000000e+00 1.000000000000000000e+00 1.000000000000000000e+00 1.000000000000000000e+00 1.000000000000000000e+00 1.000000000000000000e+00 1.000000000000000000e+00 1.000000000000000000e+00 1.000000000000000000e+00 1.000000000000000000e+00 1.000000000000000000e+00 1.000000000000000000e+00 1.000000000000000000e+00 1.000000000000000000e+00 1.000000000000000000e+00 1.000000000000000000e+00 1.000000000000000000e+00 1.000000000000000000e+00 1.000000000000000000e+00 1.000000000000000000e+00 1.000000000000000000e+00 1.000000000000000000e+00 1.000000000000000000e+00 1.000000000000000000e+00 1.000000000000000000e+00 1.000000000000000000e+00 1.000000000000000000e+00 1.000000000000000000e+00 1.000000000000000000e+00 1.000000000000000000e+00 1.000000000000000000e+00 1.000000000000000000e+00 1.000000000000000000e+00 1.000000000000000000e+00 1.000000000000000000e+00 1.000000000000000000e+00 1.000000000000000000e+00 1.000000000000000000e+00 1.000000000000000000e+00 1.000000000000000000e+00 1.000000000000000000e+00 1.000000000000000000e+00 1.000000000000000000e+00 1.000000000000000000e+00 1.000000000000000000e+00 1.000000000000000000e+00 1.000000000000000000e+00 1.000000000000000000e+00 1.000000000000000000e+00 1.000000000000000000e+00 1.000000000000000000e+00 1.000000000000000000e+00 1.000000000000000000e+00 1.000000000000000000e+00 1.000000000000000000e+00 1.000000000000000000e+00 1.000000000000000000e+00 1.000000000000000000e+00 1.000000000000000000e+00 1.000000000000000000e+00 1.000000000000000000e+00 1.000000000000000000e+00 1.000000000000000000e+00 1.000000000000000000e+00 1.000000000000000000e+00 1.000000000000000000e+00 1.000000000000000000e+00 1.000000000000000000e+00 1.000000000000000000e+00 1.000000000000000000e+00 1.000000000000000000e+00 1.000000000000000000e+00 1.000000000000000000e+00 1.000000000000000000e+00 1.000000000000000000e+00 1.000000000000000000e+00 1.000000000000000000e+00 1.000000000000000000e+00 1.000000000000000000e+00 1.000000000000000000e+00 1.000000000000000000e+00 1.000000000000000000e+00 1.000000000000000000e+00 1.000000000000000000e+00 1.000000000000000000e+00 1.000000000000000000e+00 1.000000000000000000e+00 1.000000000000000000e+00 1.000000000000000000e+00 1.000000000000000000e+00 1.000000000000000000e+00 1.000000000000000000e+00 1.000000000000000000e+00 1.000000000000000000e+00 1.000000000000000000e+00 1.000000000000000000e+00 1.000000000000000000e+00 1.000000000000000000e+00 1.000000000000000000e+00 1.000000000000000000e+00 1.000000000000000000e+00 1.000000000000000000e+00 1.000000000000000000e+00 1.000000000000000000e+00 1.000000000000000000e+00 1.000000000000000000e+00 1.000000000000000000e+00 1.000000000000000000e+00 1.000000000000000000e+00 1.000000000000000000e+00 1.000000000000000000e+00 1.000000000000000000e+00 1.000000000000000000e+00 1.000000000000000000e+00 1.000000000000000000e+00 1.000000000000000000e+00 1.000000000000000000e+00 1.000000000000000000e+00 1.000000000000000000e+00 1.000000000000000000e+00 1.000000000000000000e+00 1.000000000000000000e+00 1.000000000000000000e+00 1.000000000000000000e+00 1.000000000000000000e+00 1.000000000000000000e+00 1.000000000000000000e+00 1.000000000000000000e+00 1.000000000000000000e+00 1.000000000000000000e+00 1.000000000000000000e+00 1.000000000000000000e+00 1.000000000000000000e+00 1.000000000000000000e+00 1.000000000000000000e+00 1.000000000000000000e+00 1.000000000000000000e+00 1.000000000000000000e+00 1.000000000000000000e+00 1.000000000000000000e+00 1.000000000000000000e+00 1.000000000000000000e+00 1.000000000000000000e+00 1.000000000000000000e+00 1.000000000000000000e+00 1.000000000000000000e+00 1.000000000000000000e+00 1.000000000000000000e+00 1.000000000000000000e+00 1.000000000000000000e+00 1.000000000000000000e+00 1.000000000000000000e+00 1.000000000000000000e+00 1.000000000000000000e+00 1.000000000000000000e+00 1.000000000000000000e+00 1.000000000000000000e+00 1.000000000000000000e+00 1.000000000000000000e+00 1.000000000000000000e+00 1.000000000000000000e+00 1.000000000000000000e+00 1.000000000000000000e+00 1.000000000000000000e+00 1.000000000000000000e+00 1.000000000000000000e+00 1.000000000000000000e+00 1.000000000000000000e+00 1.000000000000000000e+00 1.000000000000000000e+00 1.000000000000000000e+00 1.000000000000000000e+00 1.000000000000000000e+00 1.000000000000000000e+00 1.000000000000000000e+00 1.000000000000000000e+00 1.000000000000000000e+00 1.000000000000000000e+00 1.000000000000000000e+00 1.000000000000000000e+00 1.000000000000000000e+00 1.000000000000000000e+00 1.000000000000000000e+00 1.000000000000000000e+00 1.000000000000000000e+00 1.000000000000000000e+00 1.000000000000000000e+00 1.000000000000000000e+00 1.000000000000000000e+00 1.000000000000000000e+00 1.000000000000000000e+00 1.000000000000000000e+00 1.000000000000000000e+00 1.000000000000000000e+00 1.000000000000000000e+00 1.000000000000000000e+00 1.000000000000000000e+00 1.000000000000000000e+00 1.000000000000000000e+00 1.000000000000000000e+00 1.000000000000000000e+00 1.000000000000000000e+00 1.000000000000000000e+00 1.000000000000000000e+00 1.000000000000000000e+00 1.000000000000000000e+00 1.000000000000000000e+00 1.000000000000000000e+00 1.000000000000000000e+00 1.000000000000000000e+00 1.000000000000000000e+00 1.000000000000000000e+00 1.000000000000000000e+00 1.000000000000000000e+00 1.000000000000000000e+00 1.000000000000000000e+00 1.000000000000000000e+00 1.000000000000000000e+00 1.000000000000000000e+00 1.000000000000000000e+00 1.000000000000000000e+00 1.000000000000000000e+00 1.000000000000000000e+00 1.000000000000000000e+00 1.000000000000000000e+00 1.000000000000000000e+00 1.000000000000000000e+00 1.000000000000000000e+00 1.000000000000000000e+00 1.000000000000000000e+00 1.000000000000000000e+00 1.000000000000000000e+00 1.000000000000000000e+00 1.000000000000000000e+00 1.000000000000000000e+00 1.000000000000000000e+00 1.000000000000000000e+00 1.000000000000000000e+00 1.000000000000000000e+00 1.000000000000000000e+00 1.000000000000000000e+00 1.000000000000000000e+00 1.000000000000000000e+00 1.000000000000000000e+00 1.000000000000000000e+00 1.000000000000000000e+00 1.000000000000000000e+00 1.000000000000000000e+00 1.000000000000000000e+00 1.000000000000000000e+00 1.000000000000000000e+00 1.000000000000000000e+00 1.000000000000000000e+00 1.000000000000000000e+00 1.000000000000000000e+00 1.000000000000000000e+00 1.000000000000000000e+00 1.000000000000000000e+00 1.000000000000000000e+00 1.000000000000000000e+00 1.000000000000000000e+00 1.000000000000000000e+00 1.000000000000000000e+00 1.000000000000000000e+00 1.000000000000000000e+00 1.000000000000000000e+00 1.000000000000000000e+00 1.000000000000000000e+00 1.000000000000000000e+00 1.000000000000000000e+00 1.000000000000000000e+00 1.000000000000000000e+00 1.000000000000000000e+00 1.000000000000000000e+00 1.000000000000000000e+00 1.000000000000000000e+00 1.000000000000000000e+00 1.000000000000000000e+00 1.000000000000000000e+00 1.000000000000000000e+00 1.000000000000000000e+00 1.000000000000000000e+00 1.000000000000000000e+00 1.000000000000000000e+00 1.000000000000000000e+00 1.000000000000000000e+00 1.000000000000000000e+00 1.000000000000000000e+00 1.000000000000000000e+00 1.000000000000000000e+00 1.000000000000000000e+00 1.000000000000000000e+00 1.000000000000000000e+00 1.000000000000000000e+00 1.000000000000000000e+00 1.000000000000000000e+00 1.000000000000000000e+00 1.000000000000000000e+00 1.000000000000000000e+00 1.000000000000000000e+00 1.000000000000000000e+00 1.000000000000000000e+00 1.000000000000000000e+00 1.000000000000000000e+00 1.000000000000000000e+00 1.000000000000000000e+00 1.000000000000000000e+00 1.000000000000000000e+00 1.000000000000000000e+00 1.000000000000000000e+00 1.000000000000000000e+00 1.000000000000000000e+00 1.000000000000000000e+00 1.000000000000000000e+00 1.000000000000000000e+00 1.000000000000000000e+00 1.000000000000000000e+00 1.000000000000000000e+00 1.000000000000000000e+00 1.000000000000000000e+00 1.000000000000000000e+00 1.000000000000000000e+00 1.000000000000000000e+00 1.000000000000000000e+00 1.000000000000000000e+00 1.000000000000000000e+00 1.000000000000000000e+00 1.000000000000000000e+00 1.000000000000000000e+00 1.000000000000000000e+00 1.000000000000000000e+00 1.000000000000000000e+00 1.000000000000000000e+00 1.000000000000000000e+00 1.000000000000000000e+00 1.000000000000000000e+00 1.000000000000000000e+00 1.000000000000000000e+00 1.000000000000000000e+00 1.000000000000000000e+00 1.000000000000000000e+00 1.000000000000000000e+00 1.000000000000000000e+00 1.000000000000000000e+00 1.000000000000000000e+00 1.000000000000000000e+00 1.000000000000000000e+00 1.000000000000000000e+00 1.000000000000000000e+00 1.000000000000000000e+00 1.000000000000000000e+00 1.000000000000000000e+00 1.000000000000000000e+00 1.000000000000000000e+00 1.000000000000000000e+00 1.000000000000000000e+00 1.000000000000000000e+00 1.000000000000000000e+00 1.000000000000000000e+00 1.000000000000000000e+00 1.000000000000000000e+00 1.000000000000000000e+00 1.000000000000000000e+00 1.000000000000000000e+00 1.000000000000000000e+00 1.000000000000000000e+00 1.000000000000000000e+00 1.000000000000000000e+00 1.000000000000000000e+00 1.000000000000000000e+00 1.000000000000000000e+00 1.000000000000000000e+00 1.000000000000000000e+00 1.000000000000000000e+00 1.000000000000000000e+00 1.000000000000000000e+00 1.000000000000000000e+00 1.000000000000000000e+00 1.000000000000000000e+00 1.000000000000000000e+00 1.000000000000000000e+00 1.000000000000000000e+00 1.000000000000000000e+00 1.000000000000000000e+00 1.000000000000000000e+00 1.000000000000000000e+00 1.000000000000000000e+00 1.000000000000000000e+00 1.000000000000000000e+00 1.000000000000000000e+00 1.000000000000000000e+00 1.000000000000000000e+00 1.000000000000000000e+00 1.000000000000000000e+00 1.000000000000000000e+00 1.000000000000000000e+00 1.000000000000000000e+00 1.000000000000000000e+00 1.000000000000000000e+00 1.000000000000000000e+00 1.000000000000000000e+00 1.000000000000000000e+00 1.000000000000000000e+00 1.000000000000000000e+00 1.000000000000000000e+00 1.000000000000000000e+00 1.000000000000000000e+00 1.000000000000000000e+00 1.000000000000000000e+00 1.000000000000000000e+00 1.000000000000000000e+00 1.000000000000000000e+00 1.000000000000000000e+00 1.000000000000000000e+00 1.000000000000000000e+00 1.000000000000000000e+00 1.000000000000000000e+00 1.000000000000000000e+00 1.000000000000000000e+00 1.000000000000000000e+00 1.000000000000000000e+00 1.000000000000000000e+00 1.000000000000000000e+00 1.000000000000000000e+00 1.000000000000000000e+00 1.000000000000000000e+00 1.000000000000000000e+00 1.000000000000000000e+00 1.000000000000000000e+00 1.000000000000000000e+00 1.000000000000000000e+00 1.000000000000000000e+00 1.000000000000000000e+00 1.000000000000000000e+00 1.000000000000000000e+00 1.000000000000000000e+00 1.000000000000000000e+00 1.000000000000000000e+00 1.000000000000000000e+00 1.000000000000000000e+00 1.000000000000000000e+00 1.000000000000000000e+00 1.000000000000000000e+00 1.000000000000000000e+00 1.000000000000000000e+00 1.000000000000000000e+00 1.000000000000000000e+00 1.000000000000000000e+00 1.000000000000000000e+00 1.000000000000000000e+00 1.000000000000000000e+00 1.000000000000000000e+00 1.000000000000000000e+00 1.000000000000000000e+00 1.000000000000000000e+00 1.000000000000000000e+00 1.000000000000000000e+00 1.000000000000000000e+00 1.000000000000000000e+00 1.000000000000000000e+00 1.000000000000000000e+00 1.000000000000000000e+00 1.000000000000000000e+00 1.000000000000000000e+00 1.000000000000000000e+00 1.000000000000000000e+00 1.000000000000000000e+00 1.000000000000000000e+00 1.000000000000000000e+00 1.000000000000000000e+00 1.000000000000000000e+00 1.000000000000000000e+00 1.000000000000000000e+00 1.000000000000000000e+00 1.000000000000000000e+00 1.000000000000000000e+00 1.000000000000000000e+00 1.000000000000000000e+00 1.000000000000000000e+00 1.000000000000000000e+00 1.000000000000000000e+00 1.000000000000000000e+00 1.000000000000000000e+00 1.000000000000000000e+00 1.000000000000000000e+00 1.000000000000000000e+00 1.000000000000000000e+00 1.000000000000000000e+00 1.000000000000000000e+00 1.000000000000000000e+00 1.000000000000000000e+00 1.000000000000000000e+00 1.000000000000000000e+00 1.000000000000000000e+00 1.000000000000000000e+00 1.000000000000000000e+00 1.000000000000000000e+00 1.000000000000000000e+00 1.000000000000000000e+00 1.000000000000000000e+00 1.000000000000000000e+00 1.000000000000000000e+00 1.000000000000000000e+00 1.000000000000000000e+00 1.000000000000000000e+00 1.000000000000000000e+00 1.000000000000000000e+00 1.000000000000000000e+00 1.000000000000000000e+00 1.000000000000000000e+00 1.000000000000000000e+00 1.000000000000000000e+00 1.000000000000000000e+00 1.000000000000000000e+00 1.000000000000000000e+00 1.000000000000000000e+00 1.000000000000000000e+00 1.000000000000000000e+00 1.000000000000000000e+00 1.000000000000000000e+00 1.000000000000000000e+00 1.000000000000000000e+00 1.000000000000000000e+00 1.000000000000000000e+00 1.000000000000000000e+00 1.000000000000000000e+00 1.000000000000000000e+00 1.000000000000000000e+00 1.000000000000000000e+00 1.000000000000000000e+00 1.000000000000000000e+00 1.000000000000000000e+00 1.000000000000000000e+00 1.000000000000000000e+00 1.000000000000000000e+00 1.000000000000000000e+00 1.000000000000000000e+00 1.000000000000000000e+00 1.000000000000000000e+00 1.000000000000000000e+00 1.000000000000000000e+00 1.000000000000000000e+00 1.000000000000000000e+00 1.000000000000000000e+00 1.000000000000000000e+00 1.000000000000000000e+00 1.000000000000000000e+00 1.000000000000000000e+00 1.000000000000000000e+00 1.000000000000000000e+00 1.000000000000000000e+00 1.000000000000000000e+00 1.000000000000000000e+00 1.000000000000000000e+00 1.000000000000000000e+00 1.000000000000000000e+00 1.000000000000000000e+00 1.000000000000000000e+00 1.000000000000000000e+00 1.000000000000000000e+00 1.000000000000000000e+00 1.000000000000000000e+00 1.000000000000000000e+00 1.000000000000000000e+00 1.000000000000000000e+00 1.000000000000000000e+00 1.000000000000000000e+00 1.000000000000000000e+00 1.000000000000000000e+00 1.000000000000000000e+00 1.000000000000000000e+00 1.000000000000000000e+00 1.000000000000000000e+00 1.000000000000000000e+00 1.000000000000000000e+00 1.000000000000000000e+00 1.000000000000000000e+00 1.000000000000000000e+00 1.000000000000000000e+00 1.000000000000000000e+00 1.000000000000000000e+00 1.000000000000000000e+00 1.000000000000000000e+00 1.000000000000000000e+00 1.000000000000000000e+00 1.000000000000000000e+00 1.000000000000000000e+00 1.000000000000000000e+00 1.000000000000000000e+00 1.000000000000000000e+00 1.000000000000000000e+00 1.000000000000000000e+00 1.000000000000000000e+00 1.000000000000000000e+00 1.000000000000000000e+00 1.000000000000000000e+00 1.000000000000000000e+00 1.000000000000000000e+00 1.000000000000000000e+00 1.000000000000000000e+00 1.000000000000000000e+00 1.000000000000000000e+00 1.000000000000000000e+00 1.000000000000000000e+00 1.000000000000000000e+00 1.000000000000000000e+00 1.000000000000000000e+00 1.000000000000000000e+00 1.000000000000000000e+00 1.000000000000000000e+00 1.000000000000000000e+00 1.000000000000000000e+00 1.000000000000000000e+00 1.000000000000000000e+00 1.000000000000000000e+00 1.000000000000000000e+00 1.000000000000000000e+00 1.000000000000000000e+00 1.000000000000000000e+00 1.000000000000000000e+00 1.000000000000000000e+00 1.000000000000000000e+00
-1.308667168725459636e-02 5.076062422873952595e-01 5.462590057227588725e-01 4.631047600183336166e-01 5.009447643319110410e-01 4.784926263439868710e-01 7.684596626409015974e-01 1.996350537767490885e-01 5.749796065727074135e-01 5.048278407490662811e-01 1.034917806629606529e+00 -4.233364336202706801e-01 1.243708762459933004e+00 4.938406289162679541e-01 5.652827332817241812e-01 7.486751009277301527e-01 1.007526511051360485e+00 7.302364453648968468e-01 1.793192654281872411e-01 5.070647308251640117e-01 3.914343661165349264e-01 9.032304678560049149e-01 5.111739047503810474e-01 4.712105537665134958e-01 5.955076712733642363e-01 7.691584226594708751e-01 4.067832541503846877e-01 6.538093298270395426e-01 4.866946584944978893e-01 1.148998248404312195e+00 4.629312780682340311e-01 3.097528179096418199e-01 7.843754340032635941e-01 5.002506723164835689e-01 7.567657258826464561e-01 4.949339772309351293e-01 5.268975762801683116e-01 1.230933187991577027e+00 5.504743127197684466e-02 5.088006829484528204e-01 2.441842624432326581e-01 -4.731877156568141674e-01 7.561820203229502324e-01 1.939390261297737339e-01 2.320713477709307471e-01 5.656582594177079759e-01 4.619710791702426045e-01 5.020601816956372643e-01 4.997943504646262247e-01 -9.566644915071373725e-04 1.301525984418205190e-02 4.842251562081411054e-01 5.729344400450069319e-01 5.619706895554285042e-01 4.991358818933480102e-01 -2.053736554494064309e-02 5.600149913357773679e-01 4.551057674046372625e-01 1.553160359473842456e-01 4.999086279527482635e-01 8.162344445723713759e-01 4.927556143061839200e-01 4.548547314793938701e-01 5.111744666216399002e-01 6.525422847903598056e-01 5.839342560636752166e-01 5.082706766579980773e-01 6.868772605182302815e-01 5.661259414879710183e-01 -1.539167917432911203e-02 5.591674936258205220e-01 5.620377243292071778e-01 5.022938226828589370e-01 1.088230112735999108e-02 1.349969472834313455e+00 5.959731322064206749e-01 6.060413939638167324e-01 7.891052663921047650e-01 5.022902102183827155e-01 1.318825895675564741e+00 5.181050195229472966e-01 1.550752028576460051e-01 1.042864308809519747e+00 4.892600953850844703e-01 4.012642811831264034e-01 7.486302089754612865e-01 8.475321535337835277e-01 5.010677344188032567e-01 3.311319720407318590e-01 5.690132399912080086e-01 2.287704999922630933e-01 1.724573209604247426e+00 4.602419792888766126e-01 -3.130213095010347252e-02 3.888205032603548328e-01 5.674430448816963901e-01 5.012611775655411162e-01 4.554426056885388374e-01 2.101022402118821464e-01 7.714268795079256558e-01 1.207287885585219378e+00 5.875823950853727995e-01 5.003938790449911078e-01 1.071561008240796253e+00 2.701807589133276011e-01 -1.455287575266940081e+00 -9.544780639375326503e-01 5.632124939865389424e-01 5.241161699192298240e-01 9.518648571426405747e-01 5.341023671603978284e-01 4.868624268255215548e-01 6.538162703867191894e-01 5.333701810764555074e-01 4.729897906828958720e-01 6.940064335220865743e-01 3.719257630128430803e-01 6.223885461012110820e-01 4.980103977300134321e-01 5.205272586317823968e-01 1.176001978038182294e+00 3.601327980790944294e-01 4.644061243493957103e-01 4.840684660090802116e-01 4.868310472402004874e-01 1.696796950651703995e+00 5.197566014656663791e-01 5.272014475809049250e-01 5.993188344487023755e-01 5.025677201769007674e-01 5.241395750786145280e-01 5.035573420761036978e-01 4.069890292808125976e-01 1.076951708491536708e-01 5.525847798322237603e-01 -7.696157665234282241e-02 6.233615740405548111e-01 3.355320749867641422e-02 9.134466649179002751e-01 5.213075028016117551e-01 5.012911807655422436e-01 7.580964829954401907e-01 5.607455206241289680e-01 4.289911420669911268e-01 4.988045620816696224e-01 3.696141678803461367e-02 4.763501218412664606e-01 5.121076531289403544e-01 5.336526140315147604e-01 -5.969520902851311872e-01 7.314953721819877908e-01 -2.196425775434593108e-01 5.656929581094627402e-01 4.996031665247123166e-01 8.045516511698203033e-01 5.115826006823244176e-01 1.201617565009389210e+00 4.026986657984775175e-01 8.146328871277046524e-01 7.827843243315542043e-01 4.959780210001123457e-01 5.151788305142919189e-01 4.985374785543198461e-01 5.027748932234336054e-01 1.140988226434757946e+00 -8.980627198558813196e-02 7.609387260525742880e-01 5.556220457739086127e-01 4.901732420141821089e-01 5.208920132698589001e-01 4.514022383572330877e-01 4.630785253444039129e-01 5.659141911062488539e-01 5.054286523515524321e-01 4.216141218807404889e-01 7.042928822367713892e-02 1.325172650408337205e-01 3.474299534643157661e-02 6.522244697820388515e-01 1.091345257400265778e+00 6.201558934771095322e-01 5.075158124877920951e-01 -2.355786377474580195e-01 3.584608464252362903e-01 5.934188098365754671e-01 4.412201220088191600e-01 4.911393075147265086e-01 5.076232033953365086e-01 2.141859251982833445e+00 8.246747614207649013e-01 5.894539524197410785e-01 -5.440215565077840543e-01 5.096285848919729355e-01 5.488888683142142400e-01 1.186778325743105822e-01 4.778178283761941869e-01 8.369243795204477365e-01 5.071683119016744401e-01 6.136032809844975677e-01 4.977642694316618543e-01 4.056951898458218686e-01 5.344719723517072918e-01 1.075992771274944193e+00 5.791350293986651243e-01 5.423397217981824614e-01 6.136031577206588761e-01 5.268775288464204731e-01 1.172160103655804919e+00 4.956032765861022038e-01 5.893124435398366945e-01 4.010243914245241736e-01 5.927844059901404838e-02 5.051134439541240528e-01 2.700772382321089404e-01 5.005900196184686068e-01 5.078456343273725082e-01 5.348811455132415071e-01 5.322695813128955900e-01 5.322757084021637608e-01 4.975166468324277447e-01 4.970692012946985039e-01 3.747504649348319394e-01 -5.220507850742698297e-01 4.519754903642275168e-01 3.017024734261085639e-01 5.625790122241211000e-01 5.472986909353120266e-01 9.417034554180117034e-01 8.486695721570205464e-01 7.594264830221550966e-01 -1.115360134846298812e-01 9.518142085569499811e-01 5.042793321534908557e-01 6.695138412147682017e-01 -2.709088637968691538e-02 4.720030721603389323e-01 4.659454190710826116e-01 3.461038352765035131e-01 -5.837895706995646639e-02 -1.938887624289759304e-01 3.358404665068486228e-01 4.883472370306859434e-01 -3.754715120027654097e-03 5.037661358447251825e-01 5.058809198437196342e-01 9.809597589423355579e-01 -1.211978277981693719e-01 5.562709810570234392e-01 -1.485917666951298788e+00 5.661723511993981273e-01 1.639510285671730988e-02 5.314820119140507559e-01 5.566350396952493007e-01 5.111753609292456479e-01 4.627437326125952710e-01 5.060612069410954650e-01 5.548176929450830963e-01 5.228128315891883426e-01 6.221773737173074137e-01 1.551773744464898908e+00 4.940450826910866011e-01 5.453473136588076198e-01 5.794322666441920067e-01 8.033993998659738622e-01 8.168443064597085135e-01 4.492107342782907242e-01 2.125384952365874547e+00 4.711820086222783255e-01 3.351115744622612524e-01 6.919846060161682910e-01 4.945402859878738622e-01 8.176740461502338686e-01 4.902620911160767703e-01 5.024063325958961768e-01 5.081010501455330841e-01 6.220298322973417671e-01 2.772815316348845038e-01 8.877515408518663609e-01 8.488528409930227170e-01 -5.547737780041067657e-02 6.290634114957462941e-01 5.507416569395503503e-01 5.185136853689472636e-01 -4.831590977651920027e-01 3.533242053560466944e-01 8.721506774313976251e-01 5.809033566011689853e-01 5.164823326853105190e-01 6.940065255955439882e-01 6.281194835430428114e-01 4.981748618917239968e-01 -7.565008327532711518e-02 4.453574820225780773e-01 5.214130554063549638e-01 3.667389674714002790e-02 5.123486171785381904e-01 1.717579143188001201e+00 7.091538224629917453e-01 4.926673556795375664e-01 5.336533925557656044e-01 -2.625425470415245321e+00 5.037068497812459134e-01 1.686759976315959086e+00 4.632630666753209114e-01 4.698579835684669193e-01 -5.825186413336059799e-01 4.947983606098536602e-01 5.143642660706445602e-01 7.871134609979244523e-01 4.894028630537458069e-01 6.377512573060550860e-01 5.760308440071360003e-01 3.243826534481119572e-01 5.333886298279091331e-01 5.262014528113921896e-01 5.173410202761662413e-01 5.053987771317717259e-01 4.633852605709393724e-01 4.968925501275335832e-01 1.075383060647240097e+00 1.042817817575684286e-02 2.012463796988266829e+00 2.219732164621800230e+00 3.984043443269988938e-01 -2.400585122241502209e-02 5.414749918256890338e-01 5.219406267720202441e-01 6.042266504476955236e-01 1.198552624521519006e+00 5.628295084464675080e-01 1.031544081760692455e+00 5.011514047201097721e-01 2.465028070925768255e-01 1.190178010663912378e+00 6.090631705319481393e-01 4.884685702759037351e-01 5.011638431896925372e-01 4.033900259991623494e-01 -2.613670121801725532e+00 1.398688708033476891e+00 4.995410005473198689e-01 6.539968186958812213e-01 5.586919205505574970e-01 1.230933173312869666e+00 3.849446315936617125e-01 5.601551068734331729e-01 2.530476316221113575e-01 5.232307722931832661e-01 1.390575603406397853e+00 5.595719584132745617e-01 6.136033549360648820e-01 5.037617237333852360e-01 5.791350207614450740e-01 5.840458475694081386e-01 4.797908750865158556e-01 7.734399881265503485e-01 5.028465281757452665e-01 4.514335646684132231e-01 4.682179789646411239e-01 4.594979881832628732e-01 4.993806019228034243e-01 4.216991998479666659e-01 5.601550866955911090e-01 4.389089183607114975e-01 5.053779831459130900e-01 3.977245927009880888e-01 1.091828996816931241e+00 9.386460106152443306e-01 5.045490160110567279e-01 5.950918660752061440e-01 8.120629525711974273e-01 -8.616538137555350418e-02 8.830264245059475936e-01 5.516602773194482223e-01 1.263049504877060067e-02 5.766167790283015515e-01 1.140475069113580320e+00 5.259996824355172018e-01 5.184940824927770642e-01 2.396503504330958767e-01 -2.647684035421231097e-01 -1.924804687996255481e+00 4.624775139313878625e-01 5.791350293978785313e-01 5.791350293986640141e-01 5.038437111845955885e-01 5.159347085947267875e-01 -5.296902382676928200e-02 4.994371887220785400e-01 5.118258056995936833e-01 1.584001480307646037e-01 5.072540320340739317e-01 1.152268138294039623e+00 6.136031140098087144e-01 5.072522853823754341e-01 4.932831469458880957e-01 5.904482638830347296e-01 5.637616937655263172e-01 5.170348601622034579e-01 5.034291242790482901e-01 5.249492155289180451e-01 3.293164495487412302e-01 2.735476251592786762e-02 5.791350294524411080e-01 5.974473192277768296e-01 5.025767206083135985e-01 8.174802445516096139e-01 8.024703673579026697e-01 5.426218325539180487e-01 5.550360852241130738e-01 1.311738162755848647e+00 4.963663260866952864e-01 -1.982531012507341206e+00 4.632292937767523155e-01 1.313270229090332419e+00 5.179062142317625295e-01 -6.845256078092469831e-01 4.771994514412210564e-01 3.701494088105783953e-01 4.871274465246611118e-01 5.117975889928148003e-01 5.999099718391305291e-01 4.945840001994083468e-01 9.998856638268055486e-01 4.957903774544877296e-01 9.871174411714231378e-02 5.365233942494964658e-01 5.140533881850768427e-01 7.191744745019490459e-01 5.104185462192445399e-01 7.896127550657162653e-01 -2.121491834608888738e-01 4.961802775614750916e-01 5.015279498856431983e-01 3.548537748485502408e-01 5.134178465006797865e-01 7.347865766588510539e-01 5.002978641935696968e-01 4.517972866510656660e-01 9.358094116663753237e-01 4.910420862265074127e-01 4.051856471290677941e-01 9.678188969381641693e-02 1.292782160334201846e-01 8.646000062011313103e-01 4.974087560458362312e-01 2.673695339656337655e+00 6.255737999502495317e-01 3.818659489871860102e-01 5.936272529324652103e-01 7.844212582476778328e-01 2.977295066099528223e-02 5.388406412768936837e-01 4.673884100862436553e-01 5.585800387534407552e-01 1.126759225243481044e+00 7.347080955804454749e-01 5.058731892465165858e-01 4.730394529026556438e-01 1.012693909830625572e+00 5.150219117709917693e-01 5.017952336636355426e-01 5.099049025130510948e-01 5.559827887356687537e-01 5.067809499102818860e-01 7.802673293925447284e-01 4.951584624685807512e-01 5.023704914618986050e-01 7.708592012204848465e-03 4.909526374254351011e-01 1.445617839867879145e-02 5.342319393700810659e-01 4.958197679616254683e-01 5.184050802523395562e-01 7.052656368139773591e-01 4.820897467899208366e-01 5.872695589167093999e-01 2.058971097515149146e-02 4.688299891159180555e-01 5.087477551234524942e-01 3.780060691956393382e-01 3.094395188558157588e-03 5.296769247615874532e-01 6.624551710227020163e-01 5.089723720119233574e-01 6.106881259910136306e-01 1.010068509737974685e+00 4.320145891740922450e-01 5.243778574086790378e-01 5.771619534664133022e-01 4.035426542593325561e-01 4.764821491045225232e-01 9.051497210725916176e-01 3.420372344300616207e-01 6.902651958028581669e-01 6.005267460119475542e-01 1.676071922761398270e+00 4.978796734636531940e-01 5.992874094225708603e-01 4.893169801773825656e-01 4.457082021815806372e-01 5.518504805947447300e-01 5.588440489913522047e-01 -4.371842580770032294e-01 6.623986629293174833e-01 6.422140092737531614e-01 5.588368844112923117e-01 4.536875040346076138e-01 -3.507035541448436655e-01 4.143945640165471178e-01 4.939761788864744374e-01 5.237368274596158058e-01 6.169290778731171265e-01 6.100140024321414334e-01 5.045616286368705961e-01 5.088369738913810503e-01 -3.799895145312418565e-01 5.882092152106318528e-01 9.758213675006823795e-01 5.517593709241388478e-01 1.170097468776331723e-01 5.747858782673417322e-01 -3.001691929723222518e-01 5.509475426906164097e-01 7.007465573441079565e-01 1.001608304310259046e+00 8.319695387061329939e-01 5.403766805959213659e-01 4.810346386515326200e-01 1.656497866447621536e-01 4.620923866337751651e-01 3.947389912188909444e-01 6.424617037197181135e-01 3.336120616914078907e-02 6.085283050082737066e-01 4.900791387765276452e-01 6.019542882843077480e-01 5.182697802315702207e-01 4.682452562997370671e-01 6.077547860821337355e-01 -1.289630411889532147e-01 -1.348091249579932149e-01 5.033833992196574680e-01 5.020180050892174561e-01 6.167086201411416946e-01 5.113764634977332468e-01 -5.718206657199099707e-01 2.624922575874749864e+00 2.334589212654978041e-01 4.105892488904660520e-01 9.260606740966860206e-01 4.931932011913189307e-01 5.301752105156383177e-01 5.184833372667780882e-01 5.114821244985787718e-01 4.381711842430426329e-01 4.988356244768284986e-01 6.089287297370188368e-01 4.751614303198072320e-01 4.831490397584781715e-01 4.837152061337276487e-01 4.122475249772664108e-01 5.657831105154015328e-01 5.051146622885718251e-01 4.762870312752204849e-01 8.528837510737301564e-01 2.006088550040230789e+00 3.760751779018152718e-01 4.811870127560248789e-01 5.693013489874447774e-01 4.883259145719435201e-01 5.686469938820828407e-01 4.928565609460766606e-01 4.842517778127322092e-01 2.715257654475016214e-01 5.590129649130660683e-01 4.854566048156875868e-01 4.617522117795373471e-01 4.624945887878623707e-01 4.036367937511677328e-01 9.313916381650586551e-01 8.807317466568023168e-01 2.205703488012356883e-01 8.165207968992213017e-01 4.977912292015779228e-01 5.119986489722436751e-01 1.811893953825424397e+00 2.306287271367216674e-01 4.862934052872293078e-01 5.289754721567921925e-01 3.970953802050484344e-02 4.864328927767094246e-01 1.313762479202893907e+00 5.284351549250957403e-01 9.466113334820978054e-01 5.149615217093790331e-01 5.000221672254813177e-01 5.611527551009667381e-01 5.208529557420342737e-01 5.097688540798087642e-01 4.989925758460565519e-01 5.991487386670195647e-01 3.049541975606383515e-01 -2.995703959669894223e-01 5.049055185478663610e-01 5.414403843829730389e-01 4.958880406278468600e-01 5.335785297821614703e-01 8.165176475261509692e-01 5.497324594908306050e-01 5.241602971163383806e-01 9.997320628061330261e-01 -3.017934103050848305e-01 5.074382000585412333e-01 8.810480560281301887e-01 1.052267859610793499e+00 5.432304447237785716e-01 4.975655632079913349e-01 5.249180277739998179e-02 -1.253037926817689440e+00 3.536671959793324937e-01 5.083532236860666131e-01 4.854296988960778991e-01 5.036983045479732635e-01 5.070021560738565691e-01 5.242727534983048221e-01 -2.090944032949191289e-01 7.692227835485077048e-01 6.940065499332920274e-01 6.866061784066015417e-01 4.940935140194149811e-01 -1.212926012121355313e-01 -1.872340638950384106e-01 1.360606555289951336e+00 4.516123381139210968e-01 4.766870314224264660e-01 5.058335765362789171e-01 3.878518096624771760e-01 5.768759499112523503e-01 6.340977137363766891e-01 6.229238739384743706e-01 5.151491671233638936e-01 5.530177833633689310e-01 4.723408435729467003e-01 4.885606827089256643e-01 4.975790860095814505e-01 4.628804917259215501e-01 4.899814586448620890e-01 4.832440676060036355e-01 9.271116003635777592e-01 4.343791460776236235e-01 4.967655716603726068e-01 5.359871347830329480e-01 5.000082744305631710e-01 4.211237487262731727e-01 -7.517259569524668839e-03 5.601551009312938367e-01 7.250248720995131624e-01 4.936797197453767772e-01 5.396654815638031177e-01 1.201472255632457076e+00 5.588828730733100825e-01 -1.033090815214984109e-01 4.966660944046386583e-01 5.574473620551813058e-01 5.108585886898842077e-01 6.068019773355215474e-01 4.581186260382582032e-01 4.847860797719875658e-01 5.025653379830347101e-01 6.675769101404918082e-01 -5.517678074830852930e-01 1.779107351421658434e+00 4.422175513512435763e-01 8.043471801960739853e-01 6.474529201705743198e-01 4.587995177146682035e-01 2.830561262881389206e-01 1.517584411475327022e-01 4.978939533919452542e-01 5.032920631328636762e-01 1.294011703322517533e-02 5.042617783925174013e-01 5.717067061178660037e-01 5.032874630773679359e-01 1.051624485291634326e+00 5.205607352930770038e-01 3.886428378231390757e-01 2.498162120492599392e-01 5.206230648243317383e-01 1.538904546526307926e-01 4.987670967659978971e-01 6.396850517777762368e-01 4.877272317437401083e-01 -4.320291300208686236e-01 4.608269201031702234e-01 6.031225613493506055e-01 4.706519492613368549e-01 4.630277432533712600e-01 8.171474535170738518e-01 7.570048924910481869e-01 -4.071528081820236511e-01 1.022757398882404134e+00 1.230933185655650908e+00 5.951229320285187363e-01 4.645178243433636944e-01 9.725045572498307589e-01 5.049729783000215244e-01 4.634873801375060109e-01 5.091013072976439124e-01 1.292772085608635768e+00 4.937832154532972861e-01 5.037631143928800181e-01 1.176110302439918431e+00 -3.448420700162502933e-02 7.018008291481732108e-01 -7.648224368631599546e-02 -6.789652354477787588e-01 -1.870732437173754648e-01 7.090350732955075230e-01 4.979125825003130057e-01 4.614193557414874580e-01 -3.424998895159392931e-01 5.257676886151669837e-01 1.732827381450124243e-03 5.968756940566206232e-02 5.678879525470227341e-01 4.954288642424608535e-01 5.094900083020135195e-01 4.936829704348793535e-01 5.192997406167223495e-01 8.177447505337123168e-01 -7.346426556274418540e-02 5.029782064856703760e-01 5.313953972553276950e-01 6.368374145585292689e-01 1.070190252170268863e+00 3.584970246614663791e-01 5.998194912160194070e-01 5.069934479342393940e-01 5.124763989958663890e-02 6.010592490594296455e-01 5.026295665376888655e-01 5.372689811810764660e-01 5.400371460625971176e-01 5.653529899861593488e-01 5.522932276176812927e-01 5.061813889287153367e-01 5.215486510593935199e-01 2.520778643200316527e-01 2.952056897452281503e-01 8.037652049483395844e-01 2.133287758145365309e+00 -1.546832559256153816e-01 6.516799318812220854e-01 5.145259358845156727e-01 5.512843498432755673e-01 7.376186261575230496e-01 8.714296393096722382e-02 -9.627628524721802972e-01 4.986783043900615553e-01 2.194335868082539776e+00 4.912448080864756927e-01 1.452945753854462396e-01 3.058185345935577892e-01 6.940064407626610476e-01 6.420338759757641123e-01 1.277765240787937850e+00 5.279414928105796712e-01 1.001311788577784884e-01 6.686678470033001753e-01 1.247282790578845724e+00 4.832331771771092299e-01 5.355052806303552959e-01 5.348677907105439111e-01 8.163405885481417323e-01 6.005052150832468350e-01 4.632434922921457310e-01 -2.200608892116151863e-02 4.959154008225461485e-01 4.927537953550169547e-01 -4.379247435397852217e-01 5.567045610312665316e-01 1.070934720331888634e+00 2.342682542067110463e-01 3.176615717467480282e-01 7.617620662358340899e-01 4.950140670205168680e-01 1.798161419946202821e+00 5.435000876831127536e-01 3.094820196664253495e-02 6.384608544237355687e-01 5.029808948483611708e-01 7.719469770749289861e-01 4.842970435572331867e-01 7.222357580714290626e-02 5.076116854456642624e-01 -7.552533745444904578e-02 5.093518950197718498e-01 4.765855361498694265e-01 -3.483457062124946380e-02 -1.151890867594339285e-01 5.961832294102867857e-01 6.339369754339084784e-01 4.860206749100834389e-01 5.529396305971392422e-01 5.974383457919907325e-01 4.894080795667173356e-01 4.619106242560772624e-01 6.472052195939896890e-01 4.875136442191181363e-01 7.409243248701740114e-01 9.699304737986562674e-01 2.636861676940974064e+00 3.273377939361663547e-01 4.950275996756368646e-01 4.914992678435399776e-01 1.691379715193239708e-01 4.986660201960236849e-01 6.188830567275420691e-01 5.350964431747030625e-01 1.290240948114826036e+00 4.910343931556324648e-01 -4.176370220716034698e-01 4.802929585056959355e-02 4.240348749335031142e-01 5.879808917542360680e-01 4.961443518577826062e-01 5.033670910388871045e-01 1.163935886777826660e-02 5.104586339957156715e-01 3.815100577594797149e-01 -2.214073040952439619e+00 4.359454020071145686e-01 4.971668989063081634e-01 1.008978153888847373e+00 4.769954099612560006e-01 4.191106384004141816e-01 7.749799067361797800e-01 -6.137785822575634320e-01 -4.831779783770239201e-01 3.533397031553998230e-02 4.652496499712034939e-01 5.104667389029263758e-01 8.124063825726017818e-01 4.979451691262730129e-01 -2.168404852162678365e-01 8.839465856555531742e-01 4.833252648310253918e-01 6.695964848989619522e-01 5.222565519252451161e-01 4.480107284822908431e-01 2.604840895479312302e-01 -4.686697660651446551e-01 3.098532268260200673e-01 5.111188503420699414e-01 2.312035877569215137e-01 5.155106006762123494e-01 4.459922631047894548e-01 5.011166805559592596e-01 5.088113664385484070e-01 5.091200979215934064e-01 4.684793278267507244e-01 5.397642359431545911e-01 1.230933159756440798e+00 4.883389645243019217e-01 5.356882682285396546e-01 4.425186381202989711e-02 4.999592044059826823e-01 5.491886685634213006e-01 5.016555005899264730e-01 5.349620857894099579e-01 5.750313130826752994e-01 7.032586537457635734e-01 5.364097526622652046e-01 5.536501169202692196e-01 4.923251439462464907e-01 5.578368946866414380e-01 4.749584811702103337e-01 5.373027599517166131e-01 5.043387216882688762e-01 1.022648317821347463e+00 5.704937762269906010e-01 -3.436379514198448781e-01 3.633841014981996076e-01 8.737901297731975880e-01 5.181209968385417364e-01 1.679951406602291641e-01 5.068401314334227692e-01 2.205709766689713525e-01 -5.082048847292146287e-02 7.581355969672590733e-01 3.383433963431214386e-01 5.390350313639021840e-01 4.599135224088268803e-01 4.864618687180370937e-01 3.674973125652861716e-01 1.278438738176802980e+00 5.885268855392268295e-01 5.468098007423578544e-01 -1.098114888500686670e-01 4.645485838032343828e-01 1.054414874116327949e+00 4.136381460800190868e-01 6.190411537476211423e-01 4.238578843890023484e-01 -2.030060140709753491e-01 4.980091128772920483e-01 1.216670714463443215e+00 -7.343017810791797606e-01 5.152875789617049618e-01 5.081849065149076639e-01 -2.226776471346852415e-01 4.981320754679181007e-01 4.834199210624596232e-01 4.644228576750348281e-01 5.012475515161300965e-01 6.316282117948901487e-01 2.893917814009346889e-01 5.533654852731788587e-01 4.980861244496086471e-01 5.107585792035729266e-01 4.187199614508688161e-02 8.419583845718204840e-01 5.065413933592514129e-01 1.003779031397743715e+00 3.848610022243109108e-01 -4.399732463802621396e-01 6.866011870732773303e-01 4.997120662813454017e-01 3.278143495959055520e-01 1.789958732632490959e-02 5.663313620819905303e-01 5.076938139777901204e-01 5.012452332708037250e-01 4.974320819684051598e-01 1.237518709032370615e-02 5.090510811397161994e-01 3.873604109792268546e-01 4.754140182318093433e-01 1.845215420871977319e+00 3.460516588815026884e-01 3.496327838746228212e-01 5.019859847242538198e-01 1.574675090257530385e+00 2.090356268437146281e-01 5.263825467845020256e-01 2.959213515535880634e-01 5.601583983737514760e-01 5.094475455501155103e-01 5.161478606906770850e-01 5.293046087288182378e-01 4.952922280927647969e-01 5.028724988066756163e-01 4.040552927218209467e-01 -2.112948077311555817e-01 5.056707533227003948e-01 3.851265189389134758e-01 5.037935258145501694e-01 3.950065156104575759e-01 5.070449926420312892e-01 -1.367838725041342629e-01 5.786868995590017661e-01 -7.561929213023069751e-01 -3.109616689834694969e-01 5.028286732195184072e-01 5.031372729071417194e-01 6.143695822151638009e-01 5.027556799697214807e-01 3.196409764847639723e-01 5.565974152196451197e-01 5.601551088447194182e-01 5.072341659953908399e-01 4.841573675332405680e-01 4.704206663205390826e-01 5.077631625828123996e-01 7.414194460847992607e-01 4.776389119109333836e-01 5.070622886709036381e-01 1.982008243842003359e-01 4.983430774805756025e-01 4.927539125533473285e-01 5.024341842930578617e-01 4.227980738803397975e-01 5.013510058950562120e-01 6.066717046321798978e-01 6.041128619059225047e-01 5.253709720271911854e-01 5.738746045464437895e-01 1.306165928416648248e-01 6.714532160240666014e-01 1.832630796319859146e+00 5.244306966091710764e-01 2.984980308731908782e-01 6.868259863975856305e-01 5.462356125258678308e-01 1.034981411995413936e+00 5.270316229952897169e-01 7.857726535797666667e-01 5.043581944745411105e-01
7.527403703002791824e-01 2.816499731769576131e-01 2.546030291330673712e-01 4.547008155413444497e-01 3.158607249005592199e-01 3.813448305214861001e-01 3.781344919191426124e-01 5.370045015304975022e-01 2.689853267369276546e-01 3.015779463064641730e-01 1.752806104350000727e+00 1.502311120635786423e+00 -1.096955063108920214e+00 3.235348435113337140e-01 3.045023401701547061e-01 2.535976116142901193e-01 1.778067857446886946e-01 3.774786522205455519e-01 2.092712699700864376e-01 2.974589899991972319e-01 3.461709620705487045e-01 1.734333860805238325e+00 1.896630660071554064e-01 3.823242238966975126e-01 2.984795846163144084e-01 -5.408427036028023993e-01 4.176328939687359854e-01 1.815856516536831500e-01 3.445399383982715724e-01 -3.969230943550650648e-01 3.436977166163459607e-01 4.551833382210830892e-01 3.494300260033124661e-01 3.120999931597576160e-01 -3.384840100799599849e-01 3.729186816305593566e-01 4.155228992902691987e-01 -5.719285504731223130e-03 -2.552793233333681133e+00 3.016048151330418259e-01 6.507740349970950744e-01 1.211002117036695525e-01 -1.094508442435920548e-01 7.285908979941521091e-01 8.705404924633909358e-01 2.383756701620988738e-01 4.542607586911524553e-01 3.101673734460920207e-01 3.017415409718814945e-01 7.355134235774932749e-01 7.369868435825803754e-01 1.361626485301719869e-01 -6.250487429696901520e-01 2.593857924675597726e-01 3.249725735355701861e-01 6.940016844518310801e-01 2.190845733970740172e-01 4.416413499215682825e-01 3.656067306520000559e-01 3.112065075082026677e-01 3.641540080570503934e-01 2.214643391381645177e-01 3.563456229560523214e-01 1.896629986714029048e-01 -1.424627599619989471e-01 3.434093395001247551e-01 3.037838879778738121e-01 2.563634141595595439e-01 2.988515758195707805e-01 8.013182534695345582e-01 2.587964768655519610e-01 2.913035801851502349e-01 3.306961226650931285e-01 8.132449247528930059e-01 1.625350028976691341e+00 2.397975568522962564e-01 4.132041494572714635e-01 4.220546242715251251e-01 3.164957801268290516e-01 -1.082055993673843863e+00 2.790995429284767737e-01 9.047768483301436016e-01 1.541807467054123304e+00 3.515001103026575979e-01 4.240703321887855926e-01 -6.441535153472934816e-01 8.673923417393819210e-03 3.314135487870709662e-01 -4.673604094985024382e-01 -6.050936297680927778e-01 8.731832130508971890e-01 1.216296253916517189e+00 3.273642516216493381e-01 8.142950457405612186e-01 4.547569198574855087e-01 2.372267036056276701e-01 3.080798952001080337e-01 3.358658435394449304e-01 7.753494623323775592e-01 -5.386805273827909302e-01 -4.882587978342178836e-02 1.524651847983807540e-01 3.124760347088062495e-01 2.675343788925804156e-01 3.553922042034743378e-01 2.425424836648344407e+00 -1.924576738118954078e-01 -4.760783673883432487e-01 2.441456536941541133e-01 7.401066233238271508e-01 1.795111473174028360e-01 3.635790967215188907e-01 3.918983251901712594e-01 2.583275196476550462e-01 -5.541310324359978168e-01 1.950980392029466604e-01 5.863523131159033008e-01 1.128884987295264569e-01 -9.098940363637139650e-02 2.902265837047776076e-01 -1.189440232930183639e+00 3.177519229745545681e-01 3.563967701235168928e-01 3.494757117022477266e-01 3.525946543050813009e-01 1.781872200292226704e+00 2.924499163582581773e-01 3.352340607083107993e-01 2.697461502616650963e-01 3.139212224884829761e-01 2.897573648948149061e-01 3.113364482967048152e-01 4.402989376273682698e-01 1.820505260523148372e-01 3.163774140122066481e-01 9.236736927045320344e-01 1.545156314001671638e-01 7.543367737671234918e-01 -2.610518715983582427e-01 2.816743499300700670e-01 3.048425717948156644e-01 3.183793960556399738e-01 3.982134967792714808e-01 3.104662366981229549e-01 3.072718480322704782e-01 7.426867908934153828e-01 6.046515392372462383e-01 3.308070376336119667e-01 1.763992326898886076e-01 3.544253944268183631e-01 -4.948119105895112391e-01 3.645675763332057590e-02 2.384196250989257249e-01 3.288751833247159917e-01 5.069650448886563465e-01 3.417043067442042115e-01 -9.758291534996970107e-01 3.387005326440854502e-01 -5.070818157266018256e-01 -5.269008041385709884e-01 3.621113243140284266e-01 4.371791371292846340e-01 3.287715675434493834e-01 3.072782510472864548e-01 2.856427023923344133e-02 -9.985148599569405869e-02 3.792445809855374828e-01 3.142279836338056631e-01 3.634929866780160501e-01 4.044858248198755502e-01 6.754422794446989231e-01 4.550040460763066230e-01 2.380193477968318150e-01 3.033384205083555774e-01 -2.067724993949270562e+00 6.959782404975892733e-01 8.019591142541853124e-01 1.054577931769001609e+00 -3.792722602374604124e-01 1.095645104618608201e+00 1.368320888190941165e-01 2.950304144435262343e-01 1.083294617655811809e+00 3.815997974372648538e-01 3.373091914591926366e-01 4.357893892897350963e-01 3.306855409055577399e-01 3.034996468464345454e-01 -2.392426755140945605e-01 1.587271034861584551e-01 4.644213257449232857e-01 6.714672411787779849e-01 2.967330499706037350e-01 2.984028915292522011e-01 1.137137698814602027e-01 3.180072717240737812e-01 -1.161099466766106758e+00 3.049886748802724812e-01 1.209341346520049487e-01 3.397923302796897471e-01 4.240038165014775595e-01 3.201798363477242337e-01 2.545149934398369118e-01 5.614647472511578863e-02 -9.270513781814426757e-01 1.209342547333687456e-01 2.662809563146684155e-01 -3.933568542994101969e-01 3.212709392902287076e-01 4.346529385982161320e-01 3.890875965518813540e-01 -2.548670745207763932e+00 3.202281724002093988e-01 9.066980562261102161e-01 3.149523075438924180e-01 3.386008702052731301e-01 2.787784816789388165e-01 2.632201496736490398e-01 2.746914770663537730e-01 3.200700089431340323e-01 3.253884551935344316e-01 2.465320690918544055e-01 5.730225182457293620e-01 4.792017557596580657e-01 3.874451136215943947e-01 2.227325825095196610e-01 2.944685194073002332e-01 -2.102627107295423070e-01 1.742428722959331822e+00 -3.267555064694675077e-02 1.099814566065263621e+00 -1.234441921585858637e+00 3.018183057090086385e-01 2.556095682457133478e-01 2.766701552966778221e-01 7.134300786550056284e-01 -1.909128704599376003e-01 5.805366551225586980e-01 2.317073759509066244e-01 6.133844366316867358e-01 6.046559727384039906e-01 3.338586304794927684e-01 -9.422558574131880693e-01 2.945820741726182246e-01 3.070602718721248126e-01 5.466322656866151597e-02 1.048991226817600486e+00 8.688960144319032852e-02 2.330748379203762877e+00 4.108901202474379288e-01 7.204348831659198593e-01 2.562421530922128210e-01 3.562512601957174008e-01 1.896618726813280587e-01 3.730810890587467066e-01 3.295568662975619789e-01 3.764484612816742515e-01 3.365577140219463415e-01 3.993004547705419904e-01 5.398819324063166558e-01 3.585328194248939560e-01 2.652449547020711007e-01 2.355069982545112683e-01 3.857689108568306269e-01 3.639378806429952595e-01 3.749550719197414783e-01 2.466923129441249696e+00 2.654128789537072985e-01 6.698967374532113217e-01 1.757047595149544006e-02 3.091452233786756709e-01 3.654713239811033243e-01 3.439567602852965922e-01 3.291752122478037723e-01 3.084457435896001409e-01 1.304651317270931199e-01 3.009948200283704134e-01 2.842165883060166487e-01 1.118688467063705741e-02 9.155044355729670402e-02 1.297701267223410060e+00 2.738545916113562795e-01 9.155188100307694310e-02 1.795658000304022117e+00 3.949168745367753752e-01 6.880854332630012005e-01 1.652115932016799404e-01 3.097329748711532549e-01 1.950977575485097482e-01 -1.784526091643942047e+00 3.232012025180924231e-01 8.229208435912888087e-01 4.351194891383378671e-01 -3.395319790911051072e-01 7.709356020493997041e-01 2.965959342568945667e-01 -5.825799721563230671e-01 1.752158041517149212e-01 3.149898149137944636e-01 1.760927711241307148e-01 -2.481431170563421773e-01 3.400140623149443542e-01 -9.651283623959551194e-01 4.552856457255662903e-01 3.856204052032105034e-01 6.422865597877946975e-01 3.172294347855982855e-01 2.870991943134999502e-01 2.318048274376570683e-01 3.065670707909610160e-01 -8.211444151136459979e-02 -6.204754207068385874e-01 5.701218322261050742e-02 2.743435312621055333e-01 2.812095818512411749e-01 3.041826583676602302e-01 3.233382790600570211e-01 4.550178882450959805e-01 3.154098922824142281e-01 2.003780485759740326e+00 7.651922844216363373e-01 2.433208944484949732e-01 -8.663143859841180294e-01 4.053635880598698837e-01 3.544272411427417335e+00 2.628220296944113188e-01 3.461717743716272722e-01 5.361585386426699351e-01 -4.362629802870436002e+00 3.401379630840508650e-01 1.208640361579928602e+00 3.135342564706074531e-01 5.846797872986048139e-01 -3.781958381483679910e-01 4.297589169516387031e-01 3.752300755160916101e-01 3.003548750024222502e-01 2.913511323043658785e-01 2.230681960130775465e+00 -2.607630045420882281e-01 3.335811662584386439e-01 -1.668662287122888888e+00 2.482708231917789277e-01 -5.719281985798005397e-03 6.123059947683765492e-01 2.729600502073639134e-01 4.570621002842648051e-01 2.486602187560711941e-01 1.342349270107316084e+00 3.049840183148488371e-01 1.209340577599228306e-01 2.945866201270822549e-01 5.614639275934232843e-02 1.299304350952285581e-01 4.189979499742019220e-01 -4.827560081947252502e-01 3.049006743864516311e-01 4.043846138539414214e-01 3.239838522250375608e-01 4.720347658771702481e-01 3.153913265229731921e-01 8.304575741629641183e-02 2.729600509173343847e-01 3.601682583457265219e-01 3.009362354396259986e-01 3.134712935865474615e-01 6.914135257372340249e-01 2.318177989384921922e+00 3.131424017821522465e-01 4.764680601062791787e-01 3.622101409073573697e-01 9.509431889800791238e-01 3.948096085465848670e-01 9.987860103110213217e-02 7.655544811277589234e-01 1.433079709711858329e-01 1.364664252237419162e-01 3.209977622490420290e-01 1.974882076026276689e-01 8.746981056225822115e-01 6.511615696776027473e-01 7.290674184246058731e-01 3.919050351834904578e-01 5.614647473103812764e-02 5.614647472505210346e-02 3.333469277526549535e-01 4.985805104763402218e-01 1.108832242312175698e+00 -8.805227813623262012e-02 3.142498418728096876e-01 4.555181681485442891e-01 2.977780553150945475e-01 8.907062985593976467e-01 1.209342854171974735e-01 3.288944241961340165e-01 3.519667571499474623e-01 3.912250168924469307e-01 -5.132029961699933196e-01 4.844945622790601814e-01 3.471390136625837619e-01 3.397616907279139564e-01 5.019851637977450487e-01 7.875954821276670570e-01 5.614647458340856628e-02 -2.616601252589207394e-01 3.219079498819084617e-01 -4.156424144501098122e-02 -4.893649984767338701e-01 3.913672491192680680e-01 -2.767169578147184339e+00 1.301975229888973518e+00 3.624726337526255615e-01 -2.235320869381420272e-01 4.539451243318063378e-01 1.660955829659020555e+00 2.927294537395986884e-01 5.308335823882470716e-01 7.892605687232603362e-01 5.329128096359174727e-01 2.658290203673619456e-01 3.172945343923877504e-01 4.092760670497376241e-01 3.416579239015796188e-01 1.687186230186687341e+00 2.965669392961669537e-01 -4.717485695258399891e-02 2.698916199952337558e-01 2.852609278164724982e-01 -1.210410034248874611e+00 2.789440927412750182e-01 1.679547357559219717e-02 3.950074364066542554e-01 1.713940852963711514e-01 3.149393825541472736e-01 3.690007785308497823e-01 2.958308026473120966e-01 -1.444424093665143127e-01 3.193296437622813455e-01 4.792877697327267428e-01 3.507982751624290074e-01 3.485888649172417808e-01 6.670072889919539394e-01 6.725479186978656765e-01 8.400954543471543801e-01 -1.004643997144209822e+00 4.741648068242620417e-01 -3.440551334918021120e-02 -2.719626050837014586e-01 3.795253065669556558e-01 3.654342353477016414e-01 3.375675624479443915e-01 8.047642736777305128e-01 3.047183647342144308e-01 2.387729818737857612e-01 2.008904909966393593e-01 9.807677784734217252e-02 -1.439167724978180352e-01 3.042375957563939748e-01 3.446936131183472307e-01 4.495074496820521404e-01 3.188826012286762879e-01 3.301503082340874751e-01 3.048072274769144663e-01 4.863319289302177606e-01 3.052460841442717898e-01 4.972274902046987521e-01 3.354469312152853488e-01 3.155020486317403616e-01 7.636419313609678072e-01 3.178500944966782815e-01 8.118949296685060713e-01 1.911382961886577136e-01 3.482870028731834822e-01 2.888708273593331155e-01 -1.233906950714525497e+00 3.570644126579605171e-01 1.430073520655333885e-01 5.202683608486978750e-01 4.275755105577657145e-01 2.944824411361863237e-01 5.693628886113288878e-01 7.631461282140210578e-01 2.883078709999363221e-01 1.754792420401726505e-01 3.108400982817017266e-01 -1.040885680452599549e-02 4.018883218793138368e-01 2.794064962126458496e-01 2.688579199975938971e-01 2.773081488764662650e-01 3.637700071925075163e-01 7.252006594519347371e-02 1.307002454778513734e+00 4.402776447467232068e-01 2.619084856064078926e-01 3.000606996082042510e-01 -6.043915241258107640e-01 3.000532697695476037e-01 1.579106261532945421e-01 2.714468862477671940e-01 4.345804699520721126e-01 2.005923241390170086e-01 4.416131358481282798e-01 8.356580409216843863e-01 2.840318392553606297e-01 1.580361603136223592e-01 1.310500879592956525e-01 3.454935763448542807e-01 7.573934194960522115e-01 2.457256956194742603e+00 3.292709221143937937e-01 3.832694689954490586e-01 6.026151987967300894e-01 2.659433028469728733e-01 3.022722374524801081e-01 3.065975399281833935e-01 8.509372859583919091e-01 2.061625119048330623e-01 -1.195750786819523570e-01 3.205508723286251693e-01 4.379316087766951804e-02 4.034426853968274274e-01 8.471310510916965075e-01 3.011927416157907378e-01 4.084862468108841349e-01 1.476872820266130759e+00 4.755648378735218840e-01 2.460649229588295905e-01 1.359864989763461263e-01 4.088686604325889595e-01 4.557599582573632624e-01 3.642629665369724878e-01 2.052265878487241069e-01 8.083971400187444090e-01 1.280067166114342847e-01 2.620584166010505589e-01 3.181105684434893943e-01 3.136708404751284429e-01 3.419651431998056990e-01 2.503700987165125569e-01 9.822683415352555514e-01 4.238565644884556005e-01 3.616707917594417232e-01 3.146904555363988498e-01 2.202092735892517972e-01 2.780156472389552214e-01 5.397111853122017466e-01 6.436492780273764813e-01 3.110458718149031188e-01 3.254190384379818113e-01 3.400843796544293363e-01 3.189196283510115082e-01 5.666606570916651320e-01 2.628822653717770574e-01 2.583171108286980155e-01 -7.665953871287453647e-02 3.140758127896021712e-01 4.397938661092833379e-01 5.195216603552343937e-01 4.441019341483432581e-01 3.624805414468306730e-01 1.357124068683151608e+00 4.685044080317181114e-01 3.361845580272527223e-01 3.704976910027950043e-01 1.121617012922945467e+00 1.004645084716701442e+00 2.407656903369631840e-01 -3.571399007413667004e-01 -1.813657420908026952e-01 4.151217301272926985e-01 3.736045513494582471e-01 3.207960265986986581e-01 3.412267403578685965e-01 4.244110621870922917e-01 2.491862492659654149e-01 3.125875260377107279e-01 4.555360338144069376e-01 3.283322886609920666e-01 2.952315351274255595e-01 7.425064743446340154e-01 1.886184466719829575e-02 7.292134406190892149e-01 3.641100432782313767e-01 3.280394026531888718e-01 1.804071604021131869e-01 4.714238128233154690e-01 8.751020727289543499e-01 2.717726818116130150e-01 6.199287227005678691e-01 1.320237065311927083e+00 3.605077078712708993e-01 1.676052968167062174e+00 5.809193164695287681e-01 1.035100524648764203e-01 3.153466274508220368e-01 3.308554933761136407e-01 2.175095037407415444e-01 4.044803418048331101e-01 2.970502548316591440e-01 3.246593830730928887e-01 2.773837476983360140e-01 3.746311805976111908e-01 7.159591357437632142e-02 3.010200502586268811e-01 4.734503374566511047e-01 3.398776944338378625e-01 1.755987803792484481e-01 3.641139887926431729e-01 2.040327892295065171e-01 2.573697258415336142e-01 -6.217762530605374094e-01 1.622972924088769142e+00 2.947622197202998673e-01 -2.959377709738295059e-01 3.041335574062393743e-01 2.445769509942481434e-01 3.148137628590346737e-01 -3.758367070465347570e+00 2.885228723265051975e+00 5.420291965306892612e-01 3.126827541453008896e-01 3.447375568067232443e-01 3.209325407326497070e-01 2.772705925395712589e-01 2.125043229303229086e+00 5.347623869174398248e-01 3.614905918546735819e-01 1.950977903315690432e-01 6.377653806348392296e-01 3.381191352577833098e-01 9.357171582898629048e-01 -3.667243635407141378e-01 -6.817816870890156533e-01 -8.616609476599337292e-01 8.099511965386396728e-02 3.211397267405407541e-01 5.304587241856504320e-01 3.116767980650150816e-01 1.810506036881453229e-01 2.845724457428826515e-01 2.943906167282215325e-01 2.161588193599706664e-01 3.346176836212258476e-01 4.291509496369558807e-01 3.334059483246160638e-01 5.497219866866117632e-01 3.533991889291634436e-01 1.522811401691913924e-01 1.375934523772609219e-01 4.378893378985757590e-01 3.353811172305746768e-01 2.439969238374298799e-01 3.216158691511833423e-01 2.844027531154750266e-01 7.317191443722366184e-01 2.729600511200156454e-01 3.994082137694186518e-01 3.448682147878153748e-01 3.116990717607609485e-01 1.991789694602440208e-01 4.415827571336768953e-01 1.270953345820561520e+00 3.400234422384332822e-01 2.650721622638739228e-01 2.949832832195405929e-01 2.166968805284326949e-01 3.048427221140325716e-01 2.337311164579001788e-01 3.181555612980729864e-01 2.940462382048913415e-01 6.816541820898277537e-01 7.032573359159951520e-01 4.751189743566310297e-01 1.544621688263877246e+00 3.329474184839756323e-01 3.497027000910898353e-01 -3.011837064805953854e-02 -3.859606272152221740e-01 3.113441371695889193e-01 3.210441444693858393e-01 7.887441985353920160e-01 3.135509606090777224e-01 2.283349061947186620e-01 3.043604932450619804e-01 3.080190376153109644e-01 2.797868123544093311e-01 6.210048432590058454e-01 8.606279565516690155e-01 3.403793133824792871e-01 5.666475203086885903e-01 3.210575448644401031e-01 -2.456951284276154279e-02 3.052428285415532128e-01 3.533019219523420018e-01 -2.660236002496166874e-01 2.224011046026873328e-01 3.586158442172134309e-01 4.541221189826766813e-01 3.642642804848627569e-01 1.170500480405537447e+00 8.009709810133589514e-01 -7.504632620720307346e-01 -5.719283684435413212e-03 2.584629400929824294e-01 -2.634836998306048450e+00 1.407103206313499610e+00 3.281130158511402772e-01 4.551592279812424757e-01 3.111258890699666324e-01 6.827383513045264252e-01 3.186343189571529955e-01 2.945844199267091401e-01 -3.476552159366379513e-01 6.662187097870274632e-01 3.898864267500935787e-02 9.109841355656238537e-01 1.775530092471467425e+00 -3.670394480562069184e-01 -1.211016581979353024e+00 3.252462315005935634e-01 4.008751930785072193e-01 9.006173076528440902e-01 3.247890418278158720e-01 7.789983722493544205e-01 4.526110064982289960e-01 4.094306056445294328e-01 3.151882240047008676e-01 2.910980735702791700e-01 3.436432195676629164e-01 2.984193749731480771e-01 1.082825424475487797e+00 1.166795173757891435e+00 3.228955152355322822e-01 2.982829522466486361e-01 -2.094908394754518566e-01 -1.136580784505918235e-01 4.641791546423510439e-01 3.438559285355059503e-01 3.259109609207174740e-01 7.102351040920903413e-01 4.083134429093824291e-01 3.155875641865248382e-01 3.183905167041196083e-01 2.607881720286763794e-01 3.329860642441489493e-01 5.137262491008454113e-01 3.056648023446292828e-01 2.920730020503252145e-01 -3.232140166307342216e-02 4.370220792508420216e-01 4.723881041467260511e-01 9.373024261559652626e-01 1.015579477726767044e+00 8.255348143233998126e-01 3.077857382020142696e-01 2.063136481135635913e-01 -1.557087614321385483e-02 2.260302591398395955e-01 -1.428592978803424174e+00 3.126577430082237985e-01 5.897411489064046108e-01 3.554073150569705963e-01 8.326025618117582905e-01 1.182220472325250959e+00 1.950980638377889653e-01 3.603097609523740058e-02 3.510001713384395261e-01 4.021667908309717876e-01 6.453160213081696739e-01 1.743328114796635908e-01 -3.600162765857444214e-01 5.251024438316936882e-01 4.500390678940233147e-01 2.933726085385203741e-01 3.340887145182224183e-01 2.315735408938420503e-01 3.445453874513860759e-01 2.809938949062652513e-01 3.087160789714563092e-01 3.261836408215047500e-01 8.335119423348673617e-01 2.967673056546099586e-01 -1.502676016489125355e-01 8.115129400443962249e-01 4.316842419085706872e-01 2.009612838835142801e-01 3.398587965494889729e-01 1.144491757883395966e+00 6.063598038255305772e-02 8.031753653365796275e-01 3.045611281204462784e-01 2.869926220315580645e-01 -2.409782665782020383e-02 1.799761136715335719e-01 6.573394906526373038e-01 3.051495017660992293e-01 8.171357939772722068e-01 2.920727106639346982e-01 3.830904550682098231e-01 7.901200312368437118e-01 -6.591840439802128596e-03 -1.732750223780417098e+00 3.634678258437218923e-01 3.455823197146685177e-01 2.421613340709345974e-01 5.044482877530244158e-01 3.811151157153882529e-01 3.601357839858430610e-01 2.042168196240548850e-01 3.435039840315528004e-01 5.457613126001379517e-03 -1.448285874735893541e+00 6.868888833016137951e-01 3.545501022970112825e-01 3.580991489374352188e-01 3.436213939863491107e-01 7.637894744861907226e-01 3.146762098387656525e-01 1.299713977814183630e-01 2.751410344358344862e-01 1.036246144477795283e+00 2.612314333916438969e-01 4.055091972994131488e-01 1.084057656075447573e+00 2.822145541653025558e-01 2.016973115157377539e+00 3.264063802155037219e-01 3.060018059839712534e-01 7.368309878063662444e-01 3.042905958984621351e-01 3.728123637503570897e-01 -1.251602215504625359e+00 3.312522389338237172e-01 3.271997234065595617e-01 4.737379070016887739e-01 3.615826927818669989e-01 2.641358772194033477e-01 -5.163001639328361758e-01 1.693073112566626071e+00 -4.832350020728167217e-01 6.191598420611230669e-01 3.666748077831227248e-01 8.315201958941681459e-02 3.053428868296547694e-01 3.213081454833677242e-01 1.109930707386895143e+00 -5.371202492245145260e-02 3.777298556022957166e-01 -7.417604093951385424e-01 5.271400586654206855e-01 4.301620877321927217e-01 -2.591560082377336371e+00 2.338701648132373023e+00 3.521888779983423645e-01 3.107382119591388658e-01 -1.130806497011305867e+00 2.462170245483900066e-01 -4.045190280608362138e-02 3.163961558649700523e-01 2.324783390531328098e-01 5.992963111415640087e-01 4.804127361154050813e-01 2.753781719406601103e-01 -5.719273196865819198e-03 -1.336630636221253568e-02 2.561482777157467194e-01 -9.957037055340668408e-01 3.388979560168822736e-01 -5.344242002740737796e-01 3.290791430113729210e-01 3.697915141285500473e-01 2.708876673508135990e-01 2.878755424419522924e-01 2.973147040331178825e-01 -6.351010154392881801e-02 3.400321994826256411e-01 3.686512366773065930e-01 3.387019032908234473e-01 3.187467455377578363e-01 3.147241911737564957e-01 -7.501774937019858314e-01 5.421218361682121900e-01 1.381154232491736744e+00 -6.156842544777867392e-04 2.695294569486543224e-01 2.808559091060700008e-01 1.228148965388782710e+00 3.266115492246168817e-01 2.700349423317925379e-01 9.137444752541193926e-01 1.705396122941328363e-01 1.477359618539111352e+00 3.179032449221798617e-01 2.131011237940749758e-01 3.453866206507063552e-01 6.529114376711615542e-01 1.248226158765410654e+00 3.012232414934571390e-01 3.625562498936140687e-01 6.596729240377195991e-01 4.146178362784646576e-01 3.651749397951721543e-02 -1.898265227511647113e-01 3.172813281746140746e-01 3.726261169497467884e-01 1.512050615733503134e-01 5.040173999759769430e-01 -1.365751682194019101e-01 1.271500310728842065e+00 2.915207810150686196e-01 2.981049436036847800e-01 -2.256352801081967563e+00 2.097915334427912504e-01 3.491157304424102326e-01 3.875454320272896935e-01 -1.229343430275985222e-01 2.968280016539022181e-01 -5.496517783510228572e-01 1.858154309850724439e-01 3.210447274199144108e-01 3.177504318366482505e-01 1.124566814271391157e+00 2.487138517564681239e-01 3.290296988605716511e-01 -1.176938835668271510e+00 4.016553017869574083e-01 8.328658776284061371e-01 5.973695237969041116e-01 3.147318796719362211e-01 -1.344618246231586711e-01 7.683104588303631965e-01 2.403815104813204415e-02 3.023680990072988850e-01 3.158605336976179068e-01 3.890200957101423995e-01 7.505756587300027594e-01 2.664841917095074342e-01 7.150135091822200639e-01 4.042230365183185348e-01 6.367500475752638778e-01 1.538774923783734760e-01 -1.396751742628394855e+00 3.244000730230410245e-01 2.076484090743160177e-02 4.179163453202375256e-01 2.818986569488421412e-01 2.301249425716923869e-01 2.729567904458417016e-01 3.049797922244230630e-01 3.390807530369804867e-01 2.828186436244434776e-01 3.169941488976618649e-01 3.395641389468367355e-01 4.241095236815330405e-01 -4.726277835256424975e-01 3.366621224929966516e-01 3.252228170099759064e-01 2.836385756730732122e-01 3.836606293512667687e-01 3.193823486134969025e-01 5.493186313055391512e-01 2.361562248924404250e-01 8.465053624101307461e-01 5.087606657179257752e-01 3.232944397116396806e-01 3.061548148697029736e-01 -1.746751917692403788e+00 3.371473335371871771e-01 3.324689414468056659e-01 2.909912321740023011e-01 2.729600488568533212e-01 3.158146995249638822e-01 3.660640954542188630e-01 4.120703317928001153e-01 3.098397131520753689e-01 2.549033415842863470e-01 3.893785223388617767e-01 3.084053732355402366e-01 4.122454041280388948e-01 3.148438899571492922e-01 3.472180302050316136e-01 3.260337913135413213e-01 3.298515989198226583e-02 3.256087297310759632e-01 1.604886837333810712e-01 2.577162644218413678e-01 2.860431737610165115e-01 1.064336159128795312e-01 -2.773534471440897847e-02 -2.742801498687634787e-01 3.166988684261455411e+00 3.071207197688029522e-01 5.950950600576017102e-01 1.488262164579441105e-01 2.516720087882385326e-01 1.311273710991163854e+00 2.788340429473368243e-01 7.434312845646090517e-01 3.208626485630787228e-01
