# 
#                 ----------------------------------------------------
#                 Data from a 3D direct N-body simulation. 
# 
#                 rows are i-particle; 
#                 coumns are :mass, tag, x ,y, z, vx, vy, vz, ax, ay, az
# 
#                 NTHU, Computational Physics 
# 
#                 ----------------------------------------------------
#                 Time = 0.0
0.000000000000000000e+00 1.000000000000000000e+00 2.000000000000000000e+00 3.000000000000000000e+00 4.000000000000000000e+00 5.000000000000000000e+00 6.000000000000000000e+00 7.000000000000000000e+00 8.000000000000000000e+00 9.000000000000000000e+00 1.000000000000000000e+01 1.100000000000000000e+01 1.200000000000000000e+01 1.300000000000000000e+01 1.400000000000000000e+01 1.500000000000000000e+01 1.600000000000000000e+01 1.700000000000000000e+01 1.800000000000000000e+01 1.900000000000000000e+01 2.000000000000000000e+01 2.100000000000000000e+01 2.200000000000000000e+01 2.300000000000000000e+01 2.400000000000000000e+01 2.500000000000000000e+01 2.600000000000000000e+01 2.700000000000000000e+01 2.800000000000000000e+01 2.900000000000000000e+01 3.000000000000000000e+01 3.100000000000000000e+01 3.200000000000000000e+01 3.300000000000000000e+01 3.400000000000000000e+01 3.500000000000000000e+01 3.600000000000000000e+01 3.700000000000000000e+01 3.800000000000000000e+01 3.900000000000000000e+01 4.000000000000000000e+01 4.100000000000000000e+01 4.200000000000000000e+01 4.300000000000000000e+01 4.400000000000000000e+01 4.500000000000000000e+01 4.600000000000000000e+01 4.700000000000000000e+01 4.800000000000000000e+01 4.900000000000000000e+01 5.000000000000000000e+01 5.100000000000000000e+01 5.200000000000000000e+01 5.300000000000000000e+01 5.400000000000000000e+01 5.500000000000000000e+01 5.600000000000000000e+01 5.700000000000000000e+01 5.800000000000000000e+01 5.900000000000000000e+01 6.000000000000000000e+01 6.100000000000000000e+01 6.200000000000000000e+01 6.300000000000000000e+01 6.400000000000000000e+01 6.500000000000000000e+01 6.600000000000000000e+01 6.700000000000000000e+01 6.800000000000000000e+01 6.900000000000000000e+01 7.000000000000000000e+01 7.100000000000000000e+01 7.200000000000000000e+01 7.300000000000000000e+01 7.400000000000000000e+01 7.500000000000000000e+01 7.600000000000000000e+01 7.700000000000000000e+01 7.800000000000000000e+01 7.900000000000000000e+01 8.000000000000000000e+01 8.100000000000000000e+01 8.200000000000000000e+01 8.300000000000000000e+01 8.400000000000000000e+01 8.500000000000000000e+01 8.600000000000000000e+01 8.700000000000000000e+01 8.800000000000000000e+01 8.900000000000000000e+01 9.000000000000000000e+01 9.100000000000000000e+01 9.200000000000000000e+01 9.300000000000000000e+01 9.400000000000000000e+01 9.500000000000000000e+01 9.600000000000000000e+01 9.700000000000000000e+01 9.800000000000000000e+01 9.900000000000000000e+01 1.000000000000000000e+02 1.010000000000000000e+02 1.020000000000000000e+02 1.030000000000000000e+02 1.040000000000000000e+02 1.050000000000000000e+02 1.060000000000000000e+02 1.070000000000000000e+02 1.080000000000000000e+02 1.090000000000000000e+02 1.100000000000000000e+02 1.110000000000000000e+02 1.120000000000000000e+02 1.130000000000000000e+02 1.140000000000000000e+02 1.150000000000000000e+02 1.160000000000000000e+02 1.170000000000000000e+02 1.180000000000000000e+02 1.190000000000000000e+02 1.200000000000000000e+02 1.210000000000000000e+02 1.220000000000000000e+02 1.230000000000000000e+02 1.240000000000000000e+02 1.250000000000000000e+02 1.260000000000000000e+02 1.270000000000000000e+02 1.280000000000000000e+02 1.290000000000000000e+02 1.300000000000000000e+02 1.310000000000000000e+02 1.320000000000000000e+02 1.330000000000000000e+02 1.340000000000000000e+02 1.350000000000000000e+02 1.360000000000000000e+02 1.370000000000000000e+02 1.380000000000000000e+02 1.390000000000000000e+02 1.400000000000000000e+02 1.410000000000000000e+02 1.420000000000000000e+02 1.430000000000000000e+02 1.440000000000000000e+02 1.450000000000000000e+02 1.460000000000000000e+02 1.470000000000000000e+02 1.480000000000000000e+02 1.490000000000000000e+02 1.500000000000000000e+02 1.510000000000000000e+02 1.520000000000000000e+02 1.530000000000000000e+02 1.540000000000000000e+02 1.550000000000000000e+02 1.560000000000000000e+02 1.570000000000000000e+02 1.580000000000000000e+02 1.590000000000000000e+02 1.600000000000000000e+02 1.610000000000000000e+02 1.620000000000000000e+02 1.630000000000000000e+02 1.640000000000000000e+02 1.650000000000000000e+02 1.660000000000000000e+02 1.670000000000000000e+02 1.680000000000000000e+02 1.690000000000000000e+02 1.700000000000000000e+02 1.710000000000000000e+02 1.720000000000000000e+02 1.730000000000000000e+02 1.740000000000000000e+02 1.750000000000000000e+02 1.760000000000000000e+02 1.770000000000000000e+02 1.780000000000000000e+02 1.790000000000000000e+02 1.800000000000000000e+02 1.810000000000000000e+02 1.820000000000000000e+02 1.830000000000000000e+02 1.840000000000000000e+02 1.850000000000000000e+02 1.860000000000000000e+02 1.870000000000000000e+02 1.880000000000000000e+02 1.890000000000000000e+02 1.900000000000000000e+02 1.910000000000000000e+02 1.920000000000000000e+02 1.930000000000000000e+02 1.940000000000000000e+02 1.950000000000000000e+02 1.960000000000000000e+02 1.970000000000000000e+02 1.980000000000000000e+02 1.990000000000000000e+02 2.000000000000000000e+02 2.010000000000000000e+02 2.020000000000000000e+02 2.030000000000000000e+02 2.040000000000000000e+02 2.050000000000000000e+02 2.060000000000000000e+02 2.070000000000000000e+02 2.080000000000000000e+02 2.090000000000000000e+02 2.100000000000000000e+02 2.110000000000000000e+02 2.120000000000000000e+02 2.130000000000000000e+02 2.140000000000000000e+02 2.150000000000000000e+02 2.160000000000000000e+02 2.170000000000000000e+02 2.180000000000000000e+02 2.190000000000000000e+02 2.200000000000000000e+02 2.210000000000000000e+02 2.220000000000000000e+02 2.230000000000000000e+02 2.240000000000000000e+02 2.250000000000000000e+02 2.260000000000000000e+02 2.270000000000000000e+02 2.280000000000000000e+02 2.290000000000000000e+02 2.300000000000000000e+02 2.310000000000000000e+02 2.320000000000000000e+02 2.330000000000000000e+02 2.340000000000000000e+02 2.350000000000000000e+02 2.360000000000000000e+02 2.370000000000000000e+02 2.380000000000000000e+02 2.390000000000000000e+02 2.400000000000000000e+02 2.410000000000000000e+02 2.420000000000000000e+02 2.430000000000000000e+02 2.440000000000000000e+02 2.450000000000000000e+02 2.460000000000000000e+02 2.470000000000000000e+02 2.480000000000000000e+02 2.490000000000000000e+02 2.500000000000000000e+02 2.510000000000000000e+02 2.520000000000000000e+02 2.530000000000000000e+02 2.540000000000000000e+02 2.550000000000000000e+02 2.560000000000000000e+02 2.570000000000000000e+02 2.580000000000000000e+02 2.590000000000000000e+02 2.600000000000000000e+02 2.610000000000000000e+02 2.620000000000000000e+02 2.630000000000000000e+02 2.640000000000000000e+02 2.650000000000000000e+02 2.660000000000000000e+02 2.670000000000000000e+02 2.680000000000000000e+02 2.690000000000000000e+02 2.700000000000000000e+02 2.710000000000000000e+02 2.720000000000000000e+02 2.730000000000000000e+02 2.740000000000000000e+02 2.750000000000000000e+02 2.760000000000000000e+02 2.770000000000000000e+02 2.780000000000000000e+02 2.790000000000000000e+02 2.800000000000000000e+02 2.810000000000000000e+02 2.820000000000000000e+02 2.830000000000000000e+02 2.840000000000000000e+02 2.850000000000000000e+02 2.860000000000000000e+02 2.870000000000000000e+02 2.880000000000000000e+02 2.890000000000000000e+02 2.900000000000000000e+02 2.910000000000000000e+02 2.920000000000000000e+02 2.930000000000000000e+02 2.940000000000000000e+02 2.950000000000000000e+02 2.960000000000000000e+02 2.970000000000000000e+02 2.980000000000000000e+02 2.990000000000000000e+02 3.000000000000000000e+02 3.010000000000000000e+02 3.020000000000000000e+02 3.030000000000000000e+02 3.040000000000000000e+02 3.050000000000000000e+02 3.060000000000000000e+02 3.070000000000000000e+02 3.080000000000000000e+02 3.090000000000000000e+02 3.100000000000000000e+02 3.110000000000000000e+02 3.120000000000000000e+02 3.130000000000000000e+02 3.140000000000000000e+02 3.150000000000000000e+02 3.160000000000000000e+02 3.170000000000000000e+02 3.180000000000000000e+02 3.190000000000000000e+02 3.200000000000000000e+02 3.210000000000000000e+02 3.220000000000000000e+02 3.230000000000000000e+02 3.240000000000000000e+02 3.250000000000000000e+02 3.260000000000000000e+02 3.270000000000000000e+02 3.280000000000000000e+02 3.290000000000000000e+02 3.300000000000000000e+02 3.310000000000000000e+02 3.320000000000000000e+02 3.330000000000000000e+02 3.340000000000000000e+02 3.350000000000000000e+02 3.360000000000000000e+02 3.370000000000000000e+02 3.380000000000000000e+02 3.390000000000000000e+02 3.400000000000000000e+02 3.410000000000000000e+02 3.420000000000000000e+02 3.430000000000000000e+02 3.440000000000000000e+02 3.450000000000000000e+02 3.460000000000000000e+02 3.470000000000000000e+02 3.480000000000000000e+02 3.490000000000000000e+02 3.500000000000000000e+02 3.510000000000000000e+02 3.520000000000000000e+02 3.530000000000000000e+02 3.540000000000000000e+02 3.550000000000000000e+02 3.560000000000000000e+02 3.570000000000000000e+02 3.580000000000000000e+02 3.590000000000000000e+02 3.600000000000000000e+02 3.610000000000000000e+02 3.620000000000000000e+02 3.630000000000000000e+02 3.640000000000000000e+02 3.650000000000000000e+02 3.660000000000000000e+02 3.670000000000000000e+02 3.680000000000000000e+02 3.690000000000000000e+02 3.700000000000000000e+02 3.710000000000000000e+02 3.720000000000000000e+02 3.730000000000000000e+02 3.740000000000000000e+02 3.750000000000000000e+02 3.760000000000000000e+02 3.770000000000000000e+02 3.780000000000000000e+02 3.790000000000000000e+02 3.800000000000000000e+02 3.810000000000000000e+02 3.820000000000000000e+02 3.830000000000000000e+02 3.840000000000000000e+02 3.850000000000000000e+02 3.860000000000000000e+02 3.870000000000000000e+02 3.880000000000000000e+02 3.890000000000000000e+02 3.900000000000000000e+02 3.910000000000000000e+02 3.920000000000000000e+02 3.930000000000000000e+02 3.940000000000000000e+02 3.950000000000000000e+02 3.960000000000000000e+02 3.970000000000000000e+02 3.980000000000000000e+02 3.990000000000000000e+02 4.000000000000000000e+02 4.010000000000000000e+02 4.020000000000000000e+02 4.030000000000000000e+02 4.040000000000000000e+02 4.050000000000000000e+02 4.060000000000000000e+02 4.070000000000000000e+02 4.080000000000000000e+02 4.090000000000000000e+02 4.100000000000000000e+02 4.110000000000000000e+02 4.120000000000000000e+02 4.130000000000000000e+02 4.140000000000000000e+02 4.150000000000000000e+02 4.160000000000000000e+02 4.170000000000000000e+02 4.180000000000000000e+02 4.190000000000000000e+02 4.200000000000000000e+02 4.210000000000000000e+02 4.220000000000000000e+02 4.230000000000000000e+02 4.240000000000000000e+02 4.250000000000000000e+02 4.260000000000000000e+02 4.270000000000000000e+02 4.280000000000000000e+02 4.290000000000000000e+02 4.300000000000000000e+02 4.310000000000000000e+02 4.320000000000000000e+02 4.330000000000000000e+02 4.340000000000000000e+02 4.350000000000000000e+02 4.360000000000000000e+02 4.370000000000000000e+02 4.380000000000000000e+02 4.390000000000000000e+02 4.400000000000000000e+02 4.410000000000000000e+02 4.420000000000000000e+02 4.430000000000000000e+02 4.440000000000000000e+02 4.450000000000000000e+02 4.460000000000000000e+02 4.470000000000000000e+02 4.480000000000000000e+02 4.490000000000000000e+02 4.500000000000000000e+02 4.510000000000000000e+02 4.520000000000000000e+02 4.530000000000000000e+02 4.540000000000000000e+02 4.550000000000000000e+02 4.560000000000000000e+02 4.570000000000000000e+02 4.580000000000000000e+02 4.590000000000000000e+02 4.600000000000000000e+02 4.610000000000000000e+02 4.620000000000000000e+02 4.630000000000000000e+02 4.640000000000000000e+02 4.650000000000000000e+02 4.660000000000000000e+02 4.670000000000000000e+02 4.680000000000000000e+02 4.690000000000000000e+02 4.700000000000000000e+02 4.710000000000000000e+02 4.720000000000000000e+02 4.730000000000000000e+02 4.740000000000000000e+02 4.750000000000000000e+02 4.760000000000000000e+02 4.770000000000000000e+02 4.780000000000000000e+02 4.790000000000000000e+02 4.800000000000000000e+02 4.810000000000000000e+02 4.820000000000000000e+02 4.830000000000000000e+02 4.840000000000000000e+02 4.850000000000000000e+02 4.860000000000000000e+02 4.870000000000000000e+02 4.880000000000000000e+02 4.890000000000000000e+02 4.900000000000000000e+02 4.910000000000000000e+02 4.920000000000000000e+02 4.930000000000000000e+02 4.940000000000000000e+02 4.950000000000000000e+02 4.960000000000000000e+02 4.970000000000000000e+02 4.980000000000000000e+02 4.990000000000000000e+02 5.000000000000000000e+02 5.010000000000000000e+02 5.020000000000000000e+02 5.030000000000000000e+02 5.040000000000000000e+02 5.050000000000000000e+02 5.060000000000000000e+02 5.070000000000000000e+02 5.080000000000000000e+02 5.090000000000000000e+02 5.100000000000000000e+02 5.110000000000000000e+02 5.120000000000000000e+02 5.130000000000000000e+02 5.140000000000000000e+02 5.150000000000000000e+02 5.160000000000000000e+02 5.170000000000000000e+02 5.180000000000000000e+02 5.190000000000000000e+02 5.200000000000000000e+02 5.210000000000000000e+02 5.220000000000000000e+02 5.230000000000000000e+02 5.240000000000000000e+02 5.250000000000000000e+02 5.260000000000000000e+02 5.270000000000000000e+02 5.280000000000000000e+02 5.290000000000000000e+02 5.300000000000000000e+02 5.310000000000000000e+02 5.320000000000000000e+02 5.330000000000000000e+02 5.340000000000000000e+02 5.350000000000000000e+02 5.360000000000000000e+02 5.370000000000000000e+02 5.380000000000000000e+02 5.390000000000000000e+02 5.400000000000000000e+02 5.410000000000000000e+02 5.420000000000000000e+02 5.430000000000000000e+02 5.440000000000000000e+02 5.450000000000000000e+02 5.460000000000000000e+02 5.470000000000000000e+02 5.480000000000000000e+02 5.490000000000000000e+02 5.500000000000000000e+02 5.510000000000000000e+02 5.520000000000000000e+02 5.530000000000000000e+02 5.540000000000000000e+02 5.550000000000000000e+02 5.560000000000000000e+02 5.570000000000000000e+02 5.580000000000000000e+02 5.590000000000000000e+02 5.600000000000000000e+02 5.610000000000000000e+02 5.620000000000000000e+02 5.630000000000000000e+02 5.640000000000000000e+02 5.650000000000000000e+02 5.660000000000000000e+02 5.670000000000000000e+02 5.680000000000000000e+02 5.690000000000000000e+02 5.700000000000000000e+02 5.710000000000000000e+02 5.720000000000000000e+02 5.730000000000000000e+02 5.740000000000000000e+02 5.750000000000000000e+02 5.760000000000000000e+02 5.770000000000000000e+02 5.780000000000000000e+02 5.790000000000000000e+02 5.800000000000000000e+02 5.810000000000000000e+02 5.820000000000000000e+02 5.830000000000000000e+02 5.840000000000000000e+02 5.850000000000000000e+02 5.860000000000000000e+02 5.870000000000000000e+02 5.880000000000000000e+02 5.890000000000000000e+02 5.900000000000000000e+02 5.910000000000000000e+02 5.920000000000000000e+02 5.930000000000000000e+02 5.940000000000000000e+02 5.950000000000000000e+02 5.960000000000000000e+02 5.970000000000000000e+02 5.980000000000000000e+02 5.990000000000000000e+02 6.000000000000000000e+02 6.010000000000000000e+02 6.020000000000000000e+02 6.030000000000000000e+02 6.040000000000000000e+02 6.050000000000000000e+02 6.060000000000000000e+02 6.070000000000000000e+02 6.080000000000000000e+02 6.090000000000000000e+02 6.100000000000000000e+02 6.110000000000000000e+02 6.120000000000000000e+02 6.130000000000000000e+02 6.140000000000000000e+02 6.150000000000000000e+02 6.160000000000000000e+02 6.170000000000000000e+02 6.180000000000000000e+02 6.190000000000000000e+02 6.200000000000000000e+02 6.210000000000000000e+02 6.220000000000000000e+02 6.230000000000000000e+02 6.240000000000000000e+02 6.250000000000000000e+02 6.260000000000000000e+02 6.270000000000000000e+02 6.280000000000000000e+02 6.290000000000000000e+02 6.300000000000000000e+02 6.310000000000000000e+02 6.320000000000000000e+02 6.330000000000000000e+02 6.340000000000000000e+02 6.350000000000000000e+02 6.360000000000000000e+02 6.370000000000000000e+02 6.380000000000000000e+02 6.390000000000000000e+02 6.400000000000000000e+02 6.410000000000000000e+02 6.420000000000000000e+02 6.430000000000000000e+02 6.440000000000000000e+02 6.450000000000000000e+02 6.460000000000000000e+02 6.470000000000000000e+02 6.480000000000000000e+02 6.490000000000000000e+02 6.500000000000000000e+02 6.510000000000000000e+02 6.520000000000000000e+02 6.530000000000000000e+02 6.540000000000000000e+02 6.550000000000000000e+02 6.560000000000000000e+02 6.570000000000000000e+02 6.580000000000000000e+02 6.590000000000000000e+02 6.600000000000000000e+02 6.610000000000000000e+02 6.620000000000000000e+02 6.630000000000000000e+02 6.640000000000000000e+02 6.650000000000000000e+02 6.660000000000000000e+02 6.670000000000000000e+02 6.680000000000000000e+02 6.690000000000000000e+02 6.700000000000000000e+02 6.710000000000000000e+02 6.720000000000000000e+02 6.730000000000000000e+02 6.740000000000000000e+02 6.750000000000000000e+02 6.760000000000000000e+02 6.770000000000000000e+02 6.780000000000000000e+02 6.790000000000000000e+02 6.800000000000000000e+02 6.810000000000000000e+02 6.820000000000000000e+02 6.830000000000000000e+02 6.840000000000000000e+02 6.850000000000000000e+02 6.860000000000000000e+02 6.870000000000000000e+02 6.880000000000000000e+02 6.890000000000000000e+02 6.900000000000000000e+02 6.910000000000000000e+02 6.920000000000000000e+02 6.930000000000000000e+02 6.940000000000000000e+02 6.950000000000000000e+02 6.960000000000000000e+02 6.970000000000000000e+02 6.980000000000000000e+02 6.990000000000000000e+02 7.000000000000000000e+02 7.010000000000000000e+02 7.020000000000000000e+02 7.030000000000000000e+02 7.040000000000000000e+02 7.050000000000000000e+02 7.060000000000000000e+02 7.070000000000000000e+02 7.080000000000000000e+02 7.090000000000000000e+02 7.100000000000000000e+02 7.110000000000000000e+02 7.120000000000000000e+02 7.130000000000000000e+02 7.140000000000000000e+02 7.150000000000000000e+02 7.160000000000000000e+02 7.170000000000000000e+02 7.180000000000000000e+02 7.190000000000000000e+02 7.200000000000000000e+02 7.210000000000000000e+02 7.220000000000000000e+02 7.230000000000000000e+02 7.240000000000000000e+02 7.250000000000000000e+02 7.260000000000000000e+02 7.270000000000000000e+02 7.280000000000000000e+02 7.290000000000000000e+02 7.300000000000000000e+02 7.310000000000000000e+02 7.320000000000000000e+02 7.330000000000000000e+02 7.340000000000000000e+02 7.350000000000000000e+02 7.360000000000000000e+02 7.370000000000000000e+02 7.380000000000000000e+02 7.390000000000000000e+02 7.400000000000000000e+02 7.410000000000000000e+02 7.420000000000000000e+02 7.430000000000000000e+02 7.440000000000000000e+02 7.450000000000000000e+02 7.460000000000000000e+02 7.470000000000000000e+02 7.480000000000000000e+02 7.490000000000000000e+02 7.500000000000000000e+02 7.510000000000000000e+02 7.520000000000000000e+02 7.530000000000000000e+02 7.540000000000000000e+02 7.550000000000000000e+02 7.560000000000000000e+02 7.570000000000000000e+02 7.580000000000000000e+02 7.590000000000000000e+02 7.600000000000000000e+02 7.610000000000000000e+02 7.620000000000000000e+02 7.630000000000000000e+02 7.640000000000000000e+02 7.650000000000000000e+02 7.660000000000000000e+02 7.670000000000000000e+02 7.680000000000000000e+02 7.690000000000000000e+02 7.700000000000000000e+02 7.710000000000000000e+02 7.720000000000000000e+02 7.730000000000000000e+02 7.740000000000000000e+02 7.750000000000000000e+02 7.760000000000000000e+02 7.770000000000000000e+02 7.780000000000000000e+02 7.790000000000000000e+02 7.800000000000000000e+02 7.810000000000000000e+02 7.820000000000000000e+02 7.830000000000000000e+02 7.840000000000000000e+02 7.850000000000000000e+02 7.860000000000000000e+02 7.870000000000000000e+02 7.880000000000000000e+02 7.890000000000000000e+02 7.900000000000000000e+02 7.910000000000000000e+02 7.920000000000000000e+02 7.930000000000000000e+02 7.940000000000000000e+02 7.950000000000000000e+02 7.960000000000000000e+02 7.970000000000000000e+02 7.980000000000000000e+02 7.990000000000000000e+02 8.000000000000000000e+02 8.010000000000000000e+02 8.020000000000000000e+02 8.030000000000000000e+02 8.040000000000000000e+02 8.050000000000000000e+02 8.060000000000000000e+02 8.070000000000000000e+02 8.080000000000000000e+02 8.090000000000000000e+02 8.100000000000000000e+02 8.110000000000000000e+02 8.120000000000000000e+02 8.130000000000000000e+02 8.140000000000000000e+02 8.150000000000000000e+02 8.160000000000000000e+02 8.170000000000000000e+02 8.180000000000000000e+02 8.190000000000000000e+02 8.200000000000000000e+02 8.210000000000000000e+02 8.220000000000000000e+02 8.230000000000000000e+02 8.240000000000000000e+02 8.250000000000000000e+02 8.260000000000000000e+02 8.270000000000000000e+02 8.280000000000000000e+02 8.290000000000000000e+02 8.300000000000000000e+02 8.310000000000000000e+02 8.320000000000000000e+02 8.330000000000000000e+02 8.340000000000000000e+02 8.350000000000000000e+02 8.360000000000000000e+02 8.370000000000000000e+02 8.380000000000000000e+02 8.390000000000000000e+02 8.400000000000000000e+02 8.410000000000000000e+02 8.420000000000000000e+02 8.430000000000000000e+02 8.440000000000000000e+02 8.450000000000000000e+02 8.460000000000000000e+02 8.470000000000000000e+02 8.480000000000000000e+02 8.490000000000000000e+02 8.500000000000000000e+02 8.510000000000000000e+02 8.520000000000000000e+02 8.530000000000000000e+02 8.540000000000000000e+02 8.550000000000000000e+02 8.560000000000000000e+02 8.570000000000000000e+02 8.580000000000000000e+02 8.590000000000000000e+02 8.600000000000000000e+02 8.610000000000000000e+02 8.620000000000000000e+02 8.630000000000000000e+02 8.640000000000000000e+02 8.650000000000000000e+02 8.660000000000000000e+02 8.670000000000000000e+02 8.680000000000000000e+02 8.690000000000000000e+02 8.700000000000000000e+02 8.710000000000000000e+02 8.720000000000000000e+02 8.730000000000000000e+02 8.740000000000000000e+02 8.750000000000000000e+02 8.760000000000000000e+02 8.770000000000000000e+02 8.780000000000000000e+02 8.790000000000000000e+02 8.800000000000000000e+02 8.810000000000000000e+02 8.820000000000000000e+02 8.830000000000000000e+02 8.840000000000000000e+02 8.850000000000000000e+02 8.860000000000000000e+02 8.870000000000000000e+02 8.880000000000000000e+02 8.890000000000000000e+02 8.900000000000000000e+02 8.910000000000000000e+02 8.920000000000000000e+02 8.930000000000000000e+02 8.940000000000000000e+02 8.950000000000000000e+02 8.960000000000000000e+02 8.970000000000000000e+02 8.980000000000000000e+02 8.990000000000000000e+02 9.000000000000000000e+02 9.010000000000000000e+02 9.020000000000000000e+02 9.030000000000000000e+02 9.040000000000000000e+02 9.050000000000000000e+02 9.060000000000000000e+02 9.070000000000000000e+02 9.080000000000000000e+02 9.090000000000000000e+02 9.100000000000000000e+02 9.110000000000000000e+02 9.120000000000000000e+02 9.130000000000000000e+02 9.140000000000000000e+02 9.150000000000000000e+02 9.160000000000000000e+02 9.170000000000000000e+02 9.180000000000000000e+02 9.190000000000000000e+02 9.200000000000000000e+02 9.210000000000000000e+02 9.220000000000000000e+02 9.230000000000000000e+02 9.240000000000000000e+02 9.250000000000000000e+02 9.260000000000000000e+02 9.270000000000000000e+02 9.280000000000000000e+02 9.290000000000000000e+02 9.300000000000000000e+02 9.310000000000000000e+02 9.320000000000000000e+02 9.330000000000000000e+02 9.340000000000000000e+02 9.350000000000000000e+02 9.360000000000000000e+02 9.370000000000000000e+02 9.380000000000000000e+02 9.390000000000000000e+02 9.400000000000000000e+02 9.410000000000000000e+02 9.420000000000000000e+02 9.430000000000000000e+02 9.440000000000000000e+02 9.450000000000000000e+02 9.460000000000000000e+02 9.470000000000000000e+02 9.480000000000000000e+02 9.490000000000000000e+02 9.500000000000000000e+02 9.510000000000000000e+02 9.520000000000000000e+02 9.530000000000000000e+02 9.540000000000000000e+02 9.550000000000000000e+02 9.560000000000000000e+02 9.570000000000000000e+02 9.580000000000000000e+02 9.590000000000000000e+02 9.600000000000000000e+02 9.610000000000000000e+02 9.620000000000000000e+02 9.630000000000000000e+02 9.640000000000000000e+02 9.650000000000000000e+02 9.660000000000000000e+02 9.670000000000000000e+02 9.680000000000000000e+02 9.690000000000000000e+02 9.700000000000000000e+02 9.710000000000000000e+02 9.720000000000000000e+02 9.730000000000000000e+02 9.740000000000000000e+02 9.750000000000000000e+02 9.760000000000000000e+02 9.770000000000000000e+02 9.780000000000000000e+02 9.790000000000000000e+02 9.800000000000000000e+02 9.810000000000000000e+02 9.820000000000000000e+02 9.830000000000000000e+02 9.840000000000000000e+02 9.850000000000000000e+02 9.860000000000000000e+02 9.870000000000000000e+02 9.880000000000000000e+02 9.890000000000000000e+02 9.900000000000000000e+02 9.910000000000000000e+02 9.920000000000000000e+02 9.930000000000000000e+02 9.940000000000000000e+02 9.950000000000000000e+02 9.960000000000000000e+02 9.970000000000000000e+02 9.980000000000000000e+02 9.990000000000000000e+02
1.000000000000000000e+00 1.000000000000000000e+00 1.000000000000000000e+00 1.000000000000000000e+00 1.000000000000000000e+00 1.000000000000000000e+00 1.000000000000000000e+00 1.000000000000000000e+00 1.000000000000000000e+00 1.000000000000000000e+00 1.000000000000000000e+00 1.000000000000000000e+00 1.000000000000000000e+00 1.000000000000000000e+00 1.000000000000000000e+00 1.000000000000000000e+00 1.000000000000000000e+00 1.000000000000000000e+00 1.000000000000000000e+00 1.000000000000000000e+00 1.000000000000000000e+00 1.000000000000000000e+00 1.000000000000000000e+00 1.000000000000000000e+00 1.000000000000000000e+00 1.000000000000000000e+00 1.000000000000000000e+00 1.000000000000000000e+00 1.000000000000000000e+00 1.000000000000000000e+00 1.000000000000000000e+00 1.000000000000000000e+00 1.000000000000000000e+00 1.000000000000000000e+00 1.000000000000000000e+00 1.000000000000000000e+00 1.000000000000000000e+00 1.000000000000000000e+00 1.000000000000000000e+00 1.000000000000000000e+00 1.000000000000000000e+00 1.000000000000000000e+00 1.000000000000000000e+00 1.000000000000000000e+00 1.000000000000000000e+00 1.000000000000000000e+00 1.000000000000000000e+00 1.000000000000000000e+00 1.000000000000000000e+00 1.000000000000000000e+00 1.000000000000000000e+00 1.000000000000000000e+00 1.000000000000000000e+00 1.000000000000000000e+00 1.000000000000000000e+00 1.000000000000000000e+00 1.000000000000000000e+00 1.000000000000000000e+00 1.000000000000000000e+00 1.000000000000000000e+00 1.000000000000000000e+00 1.000000000000000000e+00 1.000000000000000000e+00 1.000000000000000000e+00 1.000000000000000000e+00 1.000000000000000000e+00 1.000000000000000000e+00 1.000000000000000000e+00 1.000000000000000000e+00 1.000000000000000000e+00 1.000000000000000000e+00 1.000000000000000000e+00 1.000000000000000000e+00 1.000000000000000000e+00 1.000000000000000000e+00 1.000000000000000000e+00 1.000000000000000000e+00 1.000000000000000000e+00 1.000000000000000000e+00 1.000000000000000000e+00 1.000000000000000000e+00 1.000000000000000000e+00 1.000000000000000000e+00 1.000000000000000000e+00 1.000000000000000000e+00 1.000000000000000000e+00 1.000000000000000000e+00 1.000000000000000000e+00 1.000000000000000000e+00 1.000000000000000000e+00 1.000000000000000000e+00 1.000000000000000000e+00 1.000000000000000000e+00 1.000000000000000000e+00 1.000000000000000000e+00 1.000000000000000000e+00 1.000000000000000000e+00 1.000000000000000000e+00 1.000000000000000000e+00 1.000000000000000000e+00 1.000000000000000000e+00 1.000000000000000000e+00 1.000000000000000000e+00 1.000000000000000000e+00 1.000000000000000000e+00 1.000000000000000000e+00 1.000000000000000000e+00 1.000000000000000000e+00 1.000000000000000000e+00 1.000000000000000000e+00 1.000000000000000000e+00 1.000000000000000000e+00 1.000000000000000000e+00 1.000000000000000000e+00 1.000000000000000000e+00 1.000000000000000000e+00 1.000000000000000000e+00 1.000000000000000000e+00 1.000000000000000000e+00 1.000000000000000000e+00 1.000000000000000000e+00 1.000000000000000000e+00 1.000000000000000000e+00 1.000000000000000000e+00 1.000000000000000000e+00 1.000000000000000000e+00 1.000000000000000000e+00 1.000000000000000000e+00 1.000000000000000000e+00 1.000000000000000000e+00 1.000000000000000000e+00 1.000000000000000000e+00 1.000000000000000000e+00 1.000000000000000000e+00 1.000000000000000000e+00 1.000000000000000000e+00 1.000000000000000000e+00 1.000000000000000000e+00 1.000000000000000000e+00 1.000000000000000000e+00 1.000000000000000000e+00 1.000000000000000000e+00 1.000000000000000000e+00 1.000000000000000000e+00 1.000000000000000000e+00 1.000000000000000000e+00 1.000000000000000000e+00 1.000000000000000000e+00 1.000000000000000000e+00 1.000000000000000000e+00 1.000000000000000000e+00 1.000000000000000000e+00 1.000000000000000000e+00 1.000000000000000000e+00 1.000000000000000000e+00 1.000000000000000000e+00 1.000000000000000000e+00 1.000000000000000000e+00 1.000000000000000000e+00 1.000000000000000000e+00 1.000000000000000000e+00 1.000000000000000000e+00 1.000000000000000000e+00 1.000000000000000000e+00 1.000000000000000000e+00 1.000000000000000000e+00 1.000000000000000000e+00 1.000000000000000000e+00 1.000000000000000000e+00 1.000000000000000000e+00 1.000000000000000000e+00 1.000000000000000000e+00 1.000000000000000000e+00 1.000000000000000000e+00 1.000000000000000000e+00 1.000000000000000000e+00 1.000000000000000000e+00 1.000000000000000000e+00 1.000000000000000000e+00 1.000000000000000000e+00 1.000000000000000000e+00 1.000000000000000000e+00 1.000000000000000000e+00 1.000000000000000000e+00 1.000000000000000000e+00 1.000000000000000000e+00 1.000000000000000000e+00 1.000000000000000000e+00 1.000000000000000000e+00 1.000000000000000000e+00 1.000000000000000000e+00 1.000000000000000000e+00 1.000000000000000000e+00 1.000000000000000000e+00 1.000000000000000000e+00 1.000000000000000000e+00 1.000000000000000000e+00 1.000000000000000000e+00 1.000000000000000000e+00 1.000000000000000000e+00 1.000000000000000000e+00 1.000000000000000000e+00 1.000000000000000000e+00 1.000000000000000000e+00 1.000000000000000000e+00 1.000000000000000000e+00 1.000000000000000000e+00 1.000000000000000000e+00 1.000000000000000000e+00 1.000000000000000000e+00 1.000000000000000000e+00 1.000000000000000000e+00 1.000000000000000000e+00 1.000000000000000000e+00 1.000000000000000000e+00 1.000000000000000000e+00 1.000000000000000000e+00 1.000000000000000000e+00 1.000000000000000000e+00 1.000000000000000000e+00 1.000000000000000000e+00 1.000000000000000000e+00 1.000000000000000000e+00 1.000000000000000000e+00 1.000000000000000000e+00 1.000000000000000000e+00 1.000000000000000000e+00 1.000000000000000000e+00 1.000000000000000000e+00 1.000000000000000000e+00 1.000000000000000000e+00 1.000000000000000000e+00 1.000000000000000000e+00 1.000000000000000000e+00 1.000000000000000000e+00 1.000000000000000000e+00 1.000000000000000000e+00 1.000000000000000000e+00 1.000000000000000000e+00 1.000000000000000000e+00 1.000000000000000000e+00 1.000000000000000000e+00 1.000000000000000000e+00 1.000000000000000000e+00 1.000000000000000000e+00 1.000000000000000000e+00 1.000000000000000000e+00 1.000000000000000000e+00 1.000000000000000000e+00 1.000000000000000000e+00 1.000000000000000000e+00 1.000000000000000000e+00 1.000000000000000000e+00 1.000000000000000000e+00 1.000000000000000000e+00 1.000000000000000000e+00 1.000000000000000000e+00 1.000000000000000000e+00 1.000000000000000000e+00 1.000000000000000000e+00 1.000000000000000000e+00 1.000000000000000000e+00 1.000000000000000000e+00 1.000000000000000000e+00 1.000000000000000000e+00 1.000000000000000000e+00 1.000000000000000000e+00 1.000000000000000000e+00 1.000000000000000000e+00 1.000000000000000000e+00 1.000000000000000000e+00 1.000000000000000000e+00 1.000000000000000000e+00 1.000000000000000000e+00 1.000000000000000000e+00 1.000000000000000000e+00 1.000000000000000000e+00 1.000000000000000000e+00 1.000000000000000000e+00 1.000000000000000000e+00 1.000000000000000000e+00 1.000000000000000000e+00 1.000000000000000000e+00 1.000000000000000000e+00 1.000000000000000000e+00 1.000000000000000000e+00 1.000000000000000000e+00 1.000000000000000000e+00 1.000000000000000000e+00 1.000000000000000000e+00 1.000000000000000000e+00 1.000000000000000000e+00 1.000000000000000000e+00 1.000000000000000000e+00 1.000000000000000000e+00 1.000000000000000000e+00 1.000000000000000000e+00 1.000000000000000000e+00 1.000000000000000000e+00 1.000000000000000000e+00 1.000000000000000000e+00 1.000000000000000000e+00 1.000000000000000000e+00 1.000000000000000000e+00 1.000000000000000000e+00 1.000000000000000000e+00 1.000000000000000000e+00 1.000000000000000000e+00 1.000000000000000000e+00 1.000000000000000000e+00 1.000000000000000000e+00 1.000000000000000000e+00 1.000000000000000000e+00 1.000000000000000000e+00 1.000000000000000000e+00 1.000000000000000000e+00 1.000000000000000000e+00 1.000000000000000000e+00 1.000000000000000000e+00 1.000000000000000000e+00 1.000000000000000000e+00 1.000000000000000000e+00 1.000000000000000000e+00 1.000000000000000000e+00 1.000000000000000000e+00 1.000000000000000000e+00 1.000000000000000000e+00 1.000000000000000000e+00 1.000000000000000000e+00 1.000000000000000000e+00 1.000000000000000000e+00 1.000000000000000000e+00 1.000000000000000000e+00 1.000000000000000000e+00 1.000000000000000000e+00 1.000000000000000000e+00 1.000000000000000000e+00 1.000000000000000000e+00 1.000000000000000000e+00 1.000000000000000000e+00 1.000000000000000000e+00 1.000000000000000000e+00 1.000000000000000000e+00 1.000000000000000000e+00 1.000000000000000000e+00 1.000000000000000000e+00 1.000000000000000000e+00 1.000000000000000000e+00 1.000000000000000000e+00 1.000000000000000000e+00 1.000000000000000000e+00 1.000000000000000000e+00 1.000000000000000000e+00 1.000000000000000000e+00 1.000000000000000000e+00 1.000000000000000000e+00 1.000000000000000000e+00 1.000000000000000000e+00 1.000000000000000000e+00 1.000000000000000000e+00 1.000000000000000000e+00 1.000000000000000000e+00 1.000000000000000000e+00 1.000000000000000000e+00 1.000000000000000000e+00 1.000000000000000000e+00 1.000000000000000000e+00 1.000000000000000000e+00 1.000000000000000000e+00 1.000000000000000000e+00 1.000000000000000000e+00 1.000000000000000000e+00 1.000000000000000000e+00 1.000000000000000000e+00 1.000000000000000000e+00 1.000000000000000000e+00 1.000000000000000000e+00 1.000000000000000000e+00 1.000000000000000000e+00 1.000000000000000000e+00 1.000000000000000000e+00 1.000000000000000000e+00 1.000000000000000000e+00 1.000000000000000000e+00 1.000000000000000000e+00 1.000000000000000000e+00 1.000000000000000000e+00 1.000000000000000000e+00 1.000000000000000000e+00 1.000000000000000000e+00 1.000000000000000000e+00 1.000000000000000000e+00 1.000000000000000000e+00 1.000000000000000000e+00 1.000000000000000000e+00 1.000000000000000000e+00 1.000000000000000000e+00 1.000000000000000000e+00 1.000000000000000000e+00 1.000000000000000000e+00 1.000000000000000000e+00 1.000000000000000000e+00 1.000000000000000000e+00 1.000000000000000000e+00 1.000000000000000000e+00 1.000000000000000000e+00 1.000000000000000000e+00 1.000000000000000000e+00 1.000000000000000000e+00 1.000000000000000000e+00 1.000000000000000000e+00 1.000000000000000000e+00 1.000000000000000000e+00 1.000000000000000000e+00 1.000000000000000000e+00 1.000000000000000000e+00 1.000000000000000000e+00 1.000000000000000000e+00 1.000000000000000000e+00 1.000000000000000000e+00 1.000000000000000000e+00 1.000000000000000000e+00 1.000000000000000000e+00 1.000000000000000000e+00 1.000000000000000000e+00 1.000000000000000000e+00 1.000000000000000000e+00 1.000000000000000000e+00 1.000000000000000000e+00 1.000000000000000000e+00 1.000000000000000000e+00 1.000000000000000000e+00 1.000000000000000000e+00 1.000000000000000000e+00 1.000000000000000000e+00 1.000000000000000000e+00 1.000000000000000000e+00 1.000000000000000000e+00 1.000000000000000000e+00 1.000000000000000000e+00 1.000000000000000000e+00 1.000000000000000000e+00 1.000000000000000000e+00 1.000000000000000000e+00 1.000000000000000000e+00 1.000000000000000000e+00 1.000000000000000000e+00 1.000000000000000000e+00 1.000000000000000000e+00 1.000000000000000000e+00 1.000000000000000000e+00 1.000000000000000000e+00 1.000000000000000000e+00 1.000000000000000000e+00 1.000000000000000000e+00 1.000000000000000000e+00 1.000000000000000000e+00 1.000000000000000000e+00 1.000000000000000000e+00 1.000000000000000000e+00 1.000000000000000000e+00 1.000000000000000000e+00 1.000000000000000000e+00 1.000000000000000000e+00 1.000000000000000000e+00 1.000000000000000000e+00 1.000000000000000000e+00 1.000000000000000000e+00 1.000000000000000000e+00 1.000000000000000000e+00 1.000000000000000000e+00 1.000000000000000000e+00 1.000000000000000000e+00 1.000000000000000000e+00 1.000000000000000000e+00 1.000000000000000000e+00 1.000000000000000000e+00 1.000000000000000000e+00 1.000000000000000000e+00 1.000000000000000000e+00 1.000000000000000000e+00 1.000000000000000000e+00 1.000000000000000000e+00 1.000000000000000000e+00 1.000000000000000000e+00 1.000000000000000000e+00 1.000000000000000000e+00 1.000000000000000000e+00 1.000000000000000000e+00 1.000000000000000000e+00 1.000000000000000000e+00 1.000000000000000000e+00 1.000000000000000000e+00 1.000000000000000000e+00 1.000000000000000000e+00 1.000000000000000000e+00 1.000000000000000000e+00 1.000000000000000000e+00 1.000000000000000000e+00 1.000000000000000000e+00 1.000000000000000000e+00 1.000000000000000000e+00 1.000000000000000000e+00 1.000000000000000000e+00 1.000000000000000000e+00 1.000000000000000000e+00 1.000000000000000000e+00 1.000000000000000000e+00 1.000000000000000000e+00 1.000000000000000000e+00 1.000000000000000000e+00 1.000000000000000000e+00 1.000000000000000000e+00 1.000000000000000000e+00 1.000000000000000000e+00 1.000000000000000000e+00 1.000000000000000000e+00 1.000000000000000000e+00 1.000000000000000000e+00 1.000000000000000000e+00 1.000000000000000000e+00 1.000000000000000000e+00 1.000000000000000000e+00 1.000000000000000000e+00 1.000000000000000000e+00 1.000000000000000000e+00 1.000000000000000000e+00 1.000000000000000000e+00 1.000000000000000000e+00 1.000000000000000000e+00 1.000000000000000000e+00 1.000000000000000000e+00 1.000000000000000000e+00 1.000000000000000000e+00 1.000000000000000000e+00 1.000000000000000000e+00 1.000000000000000000e+00 1.000000000000000000e+00 1.000000000000000000e+00 1.000000000000000000e+00 1.000000000000000000e+00 1.000000000000000000e+00 1.000000000000000000e+00 1.000000000000000000e+00 1.000000000000000000e+00 1.000000000000000000e+00 1.000000000000000000e+00 1.000000000000000000e+00 1.000000000000000000e+00 1.000000000000000000e+00 1.000000000000000000e+00 1.000000000000000000e+00 1.000000000000000000e+00 1.000000000000000000e+00 1.000000000000000000e+00 1.000000000000000000e+00 1.000000000000000000e+00 1.000000000000000000e+00 1.000000000000000000e+00 1.000000000000000000e+00 1.000000000000000000e+00 1.000000000000000000e+00 1.000000000000000000e+00 1.000000000000000000e+00 1.000000000000000000e+00 1.000000000000000000e+00 1.000000000000000000e+00 1.000000000000000000e+00 1.000000000000000000e+00 1.000000000000000000e+00 1.000000000000000000e+00 1.000000000000000000e+00 1.000000000000000000e+00 1.000000000000000000e+00 1.000000000000000000e+00 1.000000000000000000e+00 1.000000000000000000e+00 1.000000000000000000e+00 1.000000000000000000e+00 1.000000000000000000e+00 1.000000000000000000e+00 1.000000000000000000e+00 1.000000000000000000e+00 1.000000000000000000e+00 1.000000000000000000e+00 1.000000000000000000e+00 1.000000000000000000e+00 1.000000000000000000e+00 1.000000000000000000e+00 1.000000000000000000e+00 1.000000000000000000e+00 1.000000000000000000e+00 1.000000000000000000e+00 1.000000000000000000e+00 1.000000000000000000e+00 1.000000000000000000e+00 1.000000000000000000e+00 1.000000000000000000e+00 1.000000000000000000e+00 1.000000000000000000e+00 1.000000000000000000e+00 1.000000000000000000e+00 1.000000000000000000e+00 1.000000000000000000e+00 1.000000000000000000e+00 1.000000000000000000e+00 1.000000000000000000e+00 1.000000000000000000e+00 1.000000000000000000e+00 1.000000000000000000e+00 1.000000000000000000e+00 1.000000000000000000e+00 1.000000000000000000e+00 1.000000000000000000e+00 1.000000000000000000e+00 1.000000000000000000e+00 1.000000000000000000e+00 1.000000000000000000e+00 1.000000000000000000e+00 1.000000000000000000e+00 1.000000000000000000e+00 1.000000000000000000e+00 1.000000000000000000e+00 1.000000000000000000e+00 1.000000000000000000e+00 1.000000000000000000e+00 1.000000000000000000e+00 1.000000000000000000e+00 1.000000000000000000e+00 1.000000000000000000e+00 1.000000000000000000e+00 1.000000000000000000e+00 1.000000000000000000e+00 1.000000000000000000e+00 1.000000000000000000e+00 1.000000000000000000e+00 1.000000000000000000e+00 1.000000000000000000e+00 1.000000000000000000e+00 1.000000000000000000e+00 1.000000000000000000e+00 1.000000000000000000e+00 1.000000000000000000e+00 1.000000000000000000e+00 1.000000000000000000e+00 1.000000000000000000e+00 1.000000000000000000e+00 1.000000000000000000e+00 1.000000000000000000e+00 1.000000000000000000e+00 1.000000000000000000e+00 1.000000000000000000e+00 1.000000000000000000e+00 1.000000000000000000e+00 1.000000000000000000e+00 1.000000000000000000e+00 1.000000000000000000e+00 1.000000000000000000e+00 1.000000000000000000e+00 1.000000000000000000e+00 1.000000000000000000e+00 1.000000000000000000e+00 1.000000000000000000e+00 1.000000000000000000e+00 1.000000000000000000e+00 1.000000000000000000e+00 1.000000000000000000e+00 1.000000000000000000e+00 1.000000000000000000e+00 1.000000000000000000e+00 1.000000000000000000e+00 1.000000000000000000e+00 1.000000000000000000e+00 1.000000000000000000e+00 1.000000000000000000e+00 1.000000000000000000e+00 1.000000000000000000e+00 1.000000000000000000e+00 1.000000000000000000e+00 1.000000000000000000e+00 1.000000000000000000e+00 1.000000000000000000e+00 1.000000000000000000e+00 1.000000000000000000e+00 1.000000000000000000e+00 1.000000000000000000e+00 1.000000000000000000e+00 1.000000000000000000e+00 1.000000000000000000e+00 1.000000000000000000e+00 1.000000000000000000e+00 1.000000000000000000e+00 1.000000000000000000e+00 1.000000000000000000e+00 1.000000000000000000e+00 1.000000000000000000e+00 1.000000000000000000e+00 1.000000000000000000e+00 1.000000000000000000e+00 1.000000000000000000e+00 1.000000000000000000e+00 1.000000000000000000e+00 1.000000000000000000e+00 1.000000000000000000e+00 1.000000000000000000e+00 1.000000000000000000e+00 1.000000000000000000e+00 1.000000000000000000e+00 1.000000000000000000e+00 1.000000000000000000e+00 1.000000000000000000e+00 1.000000000000000000e+00 1.000000000000000000e+00 1.000000000000000000e+00 1.000000000000000000e+00 1.000000000000000000e+00 1.000000000000000000e+00 1.000000000000000000e+00 1.000000000000000000e+00 1.000000000000000000e+00 1.000000000000000000e+00 1.000000000000000000e+00 1.000000000000000000e+00 1.000000000000000000e+00 1.000000000000000000e+00 1.000000000000000000e+00 1.000000000000000000e+00 1.000000000000000000e+00 1.000000000000000000e+00 1.000000000000000000e+00 1.000000000000000000e+00 1.000000000000000000e+00 1.000000000000000000e+00 1.000000000000000000e+00 1.000000000000000000e+00 1.000000000000000000e+00 1.000000000000000000e+00 1.000000000000000000e+00 1.000000000000000000e+00 1.000000000000000000e+00 1.000000000000000000e+00 1.000000000000000000e+00 1.000000000000000000e+00 1.000000000000000000e+00 1.000000000000000000e+00 1.000000000000000000e+00 1.000000000000000000e+00 1.000000000000000000e+00 1.000000000000000000e+00 1.000000000000000000e+00 1.000000000000000000e+00 1.000000000000000000e+00 1.000000000000000000e+00 1.000000000000000000e+00 1.000000000000000000e+00 1.000000000000000000e+00 1.000000000000000000e+00 1.000000000000000000e+00 1.000000000000000000e+00 1.000000000000000000e+00 1.000000000000000000e+00 1.000000000000000000e+00 1.000000000000000000e+00 1.000000000000000000e+00 1.000000000000000000e+00 1.000000000000000000e+00 1.000000000000000000e+00 1.000000000000000000e+00 1.000000000000000000e+00 1.000000000000000000e+00 1.000000000000000000e+00 1.000000000000000000e+00 1.000000000000000000e+00 1.000000000000000000e+00 1.000000000000000000e+00 1.000000000000000000e+00 1.000000000000000000e+00 1.000000000000000000e+00 1.000000000000000000e+00 1.000000000000000000e+00 1.000000000000000000e+00 1.000000000000000000e+00 1.000000000000000000e+00 1.000000000000000000e+00 1.000000000000000000e+00 1.000000000000000000e+00 1.000000000000000000e+00 1.000000000000000000e+00 1.000000000000000000e+00 1.000000000000000000e+00 1.000000000000000000e+00 1.000000000000000000e+00 1.000000000000000000e+00 1.000000000000000000e+00 1.000000000000000000e+00 1.000000000000000000e+00 1.000000000000000000e+00 1.000000000000000000e+00 1.000000000000000000e+00 1.000000000000000000e+00 1.000000000000000000e+00 1.000000000000000000e+00 1.000000000000000000e+00 1.000000000000000000e+00 1.000000000000000000e+00 1.000000000000000000e+00 1.000000000000000000e+00 1.000000000000000000e+00 1.000000000000000000e+00 1.000000000000000000e+00 1.000000000000000000e+00 1.000000000000000000e+00 1.000000000000000000e+00 1.000000000000000000e+00 1.000000000000000000e+00 1.000000000000000000e+00 1.000000000000000000e+00 1.000000000000000000e+00 1.000000000000000000e+00 1.000000000000000000e+00 1.000000000000000000e+00 1.000000000000000000e+00 1.000000000000000000e+00 1.000000000000000000e+00 1.000000000000000000e+00 1.000000000000000000e+00 1.000000000000000000e+00 1.000000000000000000e+00 1.000000000000000000e+00 1.000000000000000000e+00 1.000000000000000000e+00 1.000000000000000000e+00 1.000000000000000000e+00 1.000000000000000000e+00 1.000000000000000000e+00 1.000000000000000000e+00 1.000000000000000000e+00 1.000000000000000000e+00 1.000000000000000000e+00 1.000000000000000000e+00 1.000000000000000000e+00 1.000000000000000000e+00 1.000000000000000000e+00 1.000000000000000000e+00 1.000000000000000000e+00 1.000000000000000000e+00 1.000000000000000000e+00 1.000000000000000000e+00 1.000000000000000000e+00 1.000000000000000000e+00 1.000000000000000000e+00 1.000000000000000000e+00 1.000000000000000000e+00 1.000000000000000000e+00 1.000000000000000000e+00 1.000000000000000000e+00 1.000000000000000000e+00 1.000000000000000000e+00 1.000000000000000000e+00 1.000000000000000000e+00 1.000000000000000000e+00 1.000000000000000000e+00 1.000000000000000000e+00 1.000000000000000000e+00 1.000000000000000000e+00 1.000000000000000000e+00 1.000000000000000000e+00 1.000000000000000000e+00 1.000000000000000000e+00 1.000000000000000000e+00 1.000000000000000000e+00 1.000000000000000000e+00 1.000000000000000000e+00 1.000000000000000000e+00 1.000000000000000000e+00 1.000000000000000000e+00 1.000000000000000000e+00 1.000000000000000000e+00 1.000000000000000000e+00 1.000000000000000000e+00 1.000000000000000000e+00 1.000000000000000000e+00 1.000000000000000000e+00 1.000000000000000000e+00 1.000000000000000000e+00 1.000000000000000000e+00 1.000000000000000000e+00 1.000000000000000000e+00 1.000000000000000000e+00 1.000000000000000000e+00 1.000000000000000000e+00 1.000000000000000000e+00 1.000000000000000000e+00 1.000000000000000000e+00 1.000000000000000000e+00 1.000000000000000000e+00 1.000000000000000000e+00 1.000000000000000000e+00 1.000000000000000000e+00 1.000000000000000000e+00 1.000000000000000000e+00 1.000000000000000000e+00 1.000000000000000000e+00 1.000000000000000000e+00 1.000000000000000000e+00 1.000000000000000000e+00 1.000000000000000000e+00 1.000000000000000000e+00 1.000000000000000000e+00 1.000000000000000000e+00 1.000000000000000000e+00 1.000000000000000000e+00 1.000000000000000000e+00 1.000000000000000000e+00 1.000000000000000000e+00 1.000000000000000000e+00 1.000000000000000000e+00 1.000000000000000000e+00 1.000000000000000000e+00 1.000000000000000000e+00 1.000000000000000000e+00 1.000000000000000000e+00 1.000000000000000000e+00 1.000000000000000000e+00 1.000000000000000000e+00 1.000000000000000000e+00 1.000000000000000000e+00 1.000000000000000000e+00 1.000000000000000000e+00 1.000000000000000000e+00 1.000000000000000000e+00 1.000000000000000000e+00 1.000000000000000000e+00 1.000000000000000000e+00 1.000000000000000000e+00 1.000000000000000000e+00 1.000000000000000000e+00 1.000000000000000000e+00 1.000000000000000000e+00 1.000000000000000000e+00 1.000000000000000000e+00 1.000000000000000000e+00 1.000000000000000000e+00 1.000000000000000000e+00 1.000000000000000000e+00 1.000000000000000000e+00 1.000000000000000000e+00 1.000000000000000000e+00 1.000000000000000000e+00 1.000000000000000000e+00 1.000000000000000000e+00 1.000000000000000000e+00 1.000000000000000000e+00 1.000000000000000000e+00 1.000000000000000000e+00 1.000000000000000000e+00 1.000000000000000000e+00 1.000000000000000000e+00 1.000000000000000000e+00 1.000000000000000000e+00 1.000000000000000000e+00 1.000000000000000000e+00 1.000000000000000000e+00 1.000000000000000000e+00 1.000000000000000000e+00 1.000000000000000000e+00 1.000000000000000000e+00 1.000000000000000000e+00 1.000000000000000000e+00 1.000000000000000000e+00 1.000000000000000000e+00 1.000000000000000000e+00 1.000000000000000000e+00 1.000000000000000000e+00 1.000000000000000000e+00 1.000000000000000000e+00 1.000000000000000000e+00 1.000000000000000000e+00 1.000000000000000000e+00 1.000000000000000000e+00 1.000000000000000000e+00 1.000000000000000000e+00 1.000000000000000000e+00 1.000000000000000000e+00 1.000000000000000000e+00 1.000000000000000000e+00 1.000000000000000000e+00 1.000000000000000000e+00 1.000000000000000000e+00 1.000000000000000000e+00 1.000000000000000000e+00 1.000000000000000000e+00 1.000000000000000000e+00 1.000000000000000000e+00 1.000000000000000000e+00 1.000000000000000000e+00 1.000000000000000000e+00 1.000000000000000000e+00 1.000000000000000000e+00 1.000000000000000000e+00
-3.082254522816277667e-03 4.855917679673362186e-01 7.156746328763050613e-01 4.664175511750370262e-01 5.078955338815931420e-01 5.081346273354935272e-01 7.247519866262264188e-01 2.240694001443632455e-01 5.488237644416263938e-01 5.106250649964552135e-01 1.027188381818102014e+00 -3.780190640901971988e-01 1.213780347447426244e+00 5.105380362039247943e-01 4.669168406621437284e-01 6.376277980506048770e-01 9.981238713144477970e-01 6.988014225573634386e-01 1.928914300065837917e-01 5.027673187061026949e-01 3.540000566469079235e-01 8.901012344260950115e-01 3.714457941199227342e-01 5.295850464555861281e-01 6.939692760362802249e-01 7.839315820887534647e-01 4.520667492063232262e-01 6.506579034304910136e-01 5.401836587898002362e-01 1.075167921298498364e+00 5.115537963872317517e-01 3.134329761282527160e-01 8.231050555943610902e-01 5.203513029203861162e-01 7.549503884996791037e-01 5.016856189982703551e-01 4.687827672733739792e-01 1.130856533090670579e+00 8.617408048432036172e-02 5.023643013434717641e-01 3.323166263058228709e-01 -4.443005654704889618e-01 7.543130162017243068e-01 1.947553547616638348e-01 2.298152978615251307e-01 4.630868829166900347e-01 4.649983370233342073e-01 5.274088170074958670e-01 5.833948579136620793e-01 6.511138282802612573e-03 2.207366193770034235e-02 3.460830554797426073e-01 5.539708329102910334e-01 5.613685809823151240e-01 5.130031189583956763e-01 -1.188345671704377909e-02 5.386592055096708354e-01 4.941720608599307618e-01 1.561872028952824565e-01 4.898328023971892931e-01 7.873577035341673414e-01 5.461022756291535885e-01 4.891971726344154781e-01 3.714472374471092242e-01 6.335899273342904259e-01 6.380450612505348396e-01 5.144973924041408297e-01 7.016515701187645560e-01 4.974070672958598172e-01 -2.012391354228194526e-02 5.271402432649268111e-01 5.737747282372201996e-01 5.028991428038721567e-01 3.752552386905670667e-02 1.323420125213027321e+00 6.387968605246300280e-01 6.013884612319786438e-01 7.872685844580377124e-01 5.126586172680267506e-01 1.303800575086537128e+00 5.147920358249661321e-01 1.581023618548631493e-01 9.813105806298750844e-01 5.731107224800525701e-01 4.442408940274342188e-01 7.436384589360702790e-01 8.498502101776673756e-01 5.183721809901817856e-01 3.205629939290519648e-01 5.675221945063453344e-01 2.339156455042836480e-01 1.648185556552853370e+00 4.815922156483548600e-01 3.048762430407640084e-02 3.311263952373680874e-01 4.921654778543528841e-01 4.860739507785139524e-01 5.422098578859428919e-01 2.122599686974784294e-01 7.883554298449777509e-01 1.118504767897158914e+00 5.599202507971650089e-01 5.160056384632925042e-01 1.082353650789673605e+00 1.811683800344397743e-01 -1.354686592632495801e+00 -9.102899180033062754e-01 5.600705492071962333e-01 5.403835734962767479e-01 9.401191912627785419e-01 5.006761089502875794e-01 5.586173377074342694e-01 7.610282386521567410e-01 5.011524565590942393e-01 4.646074896863872095e-01 6.315108030220230040e-01 3.709327482673414056e-01 5.472087548935228307e-01 5.169092953307066196e-01 5.724380841183361879e-01 1.153805530711961014e+00 3.321311024688997082e-01 4.704917641814653217e-01 5.660837244575941396e-01 5.523890321563194039e-01 1.655753917512368556e+00 5.181878743635572881e-01 4.678710694872063036e-01 5.264287476196419790e-01 5.099290310451577435e-01 4.949705080084445541e-01 5.092191946488136001e-01 4.240775633574319636e-01 1.497119226350450971e-01 4.629365110204091138e-01 -4.796040136270467158e-02 7.393170809879142658e-01 1.966663665881791118e-02 8.989608213428291750e-01 4.980377827037416050e-01 5.132643683524109601e-01 7.322924037786662232e-01 6.181358759323115626e-01 6.189651951496020210e-01 5.207563266291321824e-01 -2.403149048018589362e-03 4.979396396947055603e-01 5.048590905113725658e-01 5.524904463114745923e-01 -5.490843216740229904e-01 7.322278841090804624e-01 -1.806007873853319734e-01 4.631447553940776229e-01 5.129704962812029478e-01 8.189012613365376225e-01 5.252697096772008800e-01 1.076452343325301486e+00 5.250826766591885075e-01 8.136419492993123281e-01 7.727919464313001141e-01 5.475813880241314768e-01 4.104122443653677732e-01 5.000104347742176936e-01 5.235082602625115156e-01 1.141344949909314010e+00 -1.114345869818598594e-01 7.638671318489993478e-01 5.233641144830639691e-01 4.543248884867744364e-01 3.947181745955863907e-01 4.918170938196181896e-01 4.667081629743771720e-01 4.632040726478808823e-01 5.169302815648773031e-01 4.246188799812790626e-01 8.219064370367619443e-02 1.373992520614493451e-01 4.109630015151716220e-02 6.347042135763638626e-01 1.076617318341142493e+00 5.230874807187422260e-01 5.558403308310455593e-01 -2.379204463199858510e-01 5.240570403899741381e-01 6.305039832546298628e-01 4.134328951366660898e-01 5.095567579044542050e-01 5.162390055105129383e-01 2.029920895298801931e+00 8.412369827924313093e-01 5.922456129665262248e-01 -4.719515492664019263e-01 4.721978211769826683e-01 5.139608213370016054e-01 1.139869464170258084e-01 5.618409479437399545e-01 8.190856948155010864e-01 5.007910624395972565e-01 5.083581703252503248e-01 5.060003321724583225e-01 5.192440028740186175e-01 4.800109123957462809e-01 1.056621087878709453e+00 5.740098758642983023e-01 5.415033530391222261e-01 5.083579295376755569e-01 4.771838404459954330e-01 1.151145708190575823e+00 4.959216481101832441e-01 5.676914130806602898e-01 3.757890582916809108e-01 7.226957011683131371e-02 5.031731474120665348e-01 2.991501623749640015e-01 5.098513369430672793e-01 5.035524095610286466e-01 5.481391824123427181e-01 5.019938757346180669e-01 5.134353912015419130e-01 4.939544445910540871e-01 5.180935215708512009e-01 5.749654976157441144e-01 -4.795471617353379568e-01 5.098955731797547575e-01 4.783977076192343358e-01 5.590299497270174722e-01 5.108828206675107841e-01 8.613703768618807821e-01 8.300396404022308827e-01 7.928430047410723880e-01 -1.120092979571639391e-01 9.337000846334616577e-01 5.032389961687210311e-01 6.641356674021061668e-01 -5.448520756244847746e-02 4.851109435004134496e-01 4.372716842829122430e-01 3.729061266447948886e-01 -4.193182928656732922e-02 -1.801434355320460923e-01 4.034942207365468381e-01 5.146703599704657295e-01 1.712830578089509156e-02 5.607675030764157631e-01 4.838688634845693670e-01 1.024152531545168721e+00 -1.187593847569474864e-01 5.077598208372363642e-01 -1.355062034887908773e+00 5.248221026576953552e-01 1.380944556086662056e-01 5.053546879824861726e-01 4.681786563562905235e-01 3.714499960779776289e-01 5.261349832681559979e-01 5.053310166602925646e-01 5.443683287434366580e-01 4.906436012414021608e-01 6.308653050397831086e-01 1.519572128988532889e+00 5.299459538200953501e-01 5.075957531525622235e-01 4.332462188515865398e-01 7.672659708678896129e-01 7.872603156399590185e-01 5.340359900364417545e-01 2.034266526679889608e+00 5.133012037701710772e-01 3.515897706726903160e-01 7.840251807082116997e-01 5.278397590266480366e-01 7.870383661659711150e-01 5.415510782330466011e-01 5.117444290283628128e-01 5.217191701711767493e-01 5.011272220198764726e-01 2.071359573320509240e-01 8.872407259667463020e-01 8.508151629295328533e-01 -7.828267421145843064e-02 6.208666567232682398e-01 4.838982097294765583e-01 5.420368943513254045e-01 -4.423241695747220370e-01 3.499325667691499109e-01 8.581363347479550319e-01 4.905403543713718895e-01 5.066516190244353401e-01 6.315109975196621095e-01 6.307013242882143489e-01 5.100367828635695711e-01 6.317306905191535926e-02 4.739525307212149041e-01 5.280645133449793915e-01 4.436177533122524080e-02 5.242781914529975884e-01 1.687359180885043219e+00 7.201420538482311562e-01 5.219470205435723376e-01 5.522982831076778121e-01 -2.495331281088152942e+00 4.519982515779285004e-01 1.500687008939372680e+00 4.679129125419518309e-01 5.282244188425146980e-01 -5.741018181012998989e-01 5.022312710441366734e-01 4.996313985122181056e-01 7.147284924632212322e-01 5.200213713489839629e-01 6.813741323991963084e-01 5.663268883089571659e-01 3.271022348329470919e-01 5.064141228280497620e-01 4.384215682757417465e-01 5.045511530738983064e-01 5.073211603630901623e-01 4.668475045939838308e-01 5.024633097554338512e-01 1.054951064937821537e+00 4.622917517602982869e-03 1.974829804318692039e+00 2.147411292486434586e+00 5.541101317284499173e-01 7.022454397063960727e-03 4.834559362582759867e-01 4.788362987222952172e-01 5.797095228921773646e-01 1.169642119260706492e+00 5.614375991512372543e-01 1.015889095339816306e+00 5.097512135295904079e-01 2.810116625820186509e-01 1.177989631668323600e+00 4.702067826882235790e-01 4.305301960751621859e-01 5.202784297740246089e-01 4.858139925718452656e-01 -2.433592555961754833e+00 1.360422077705128130e+00 5.159662113543341810e-01 6.535929331282059884e-01 4.904115573093643654e-01 1.130856503551905146e+00 4.007952901966149728e-01 5.351069031328905545e-01 2.572524086790697329e-01 4.036091136567433457e-01 1.384777361923422934e+00 3.797144180502060040e-01 5.083583113978428214e-01 5.607586934193836692e-01 5.740098786266671915e-01 5.269154938631471774e-01 4.666208488022968170e-01 7.707187479718508039e-01 5.092150828617723057e-01 4.713062208681941256e-01 5.230248186052470771e-01 4.641603713793920338e-01 5.059818468021910487e-01 3.950663415974929316e-01 5.351070938717776837e-01 5.050509858817696651e-01 5.202440931732954521e-01 4.422011694936782700e-01 1.080927593451908697e+00 9.054751661407433039e-01 5.017202996608441934e-01 6.523725997593239345e-01 7.899446346120060358e-01 -6.558740411365719669e-02 8.588553041452021697e-01 5.201682841815205016e-01 6.167251748299649138e-03 5.697127767645013829e-01 1.122475171652754344e+00 5.344535092269492305e-01 4.193775257442672322e-01 2.287951394587988130e-01 -2.505750161399542542e-01 -1.835591996932548486e+00 3.936232429934289900e-01 5.740098758603769946e-01 5.740098758642988575e-01 5.009675945097696870e-01 3.825569235520487332e-01 -2.426044054647100504e-02 4.886107814889963374e-01 5.179360996285407026e-01 1.559929758729570182e-01 5.094155723100564082e-01 1.157771483982093619e+00 5.083578424646643112e-01 5.085333768923637754e-01 5.182169899155881776e-01 5.721727531365394803e-01 5.543371944369537285e-01 4.994670376851607640e-01 5.681762227068514193e-01 6.997613919606693322e-01 4.319615209104549214e-01 4.816791639418924187e-02 5.740098752176727714e-01 5.892445606903411459e-01 5.069195670372064200e-01 8.055971376707496967e-01 7.740474773846390821e-01 4.996205276390806582e-01 5.534532160059794093e-01 1.221232633583194005e+00 4.261616108258702296e-01 -1.803984179021542289e+00 4.667881688476490099e-01 1.281947575700587594e+00 5.293890329804772366e-01 -6.185171133288879242e-01 4.773156042330949922e-01 3.059894858692530084e-01 6.771274900753588843e-01 5.125938270457537360e-01 6.646164769696092378e-01 5.160328751527379909e-01 9.883901146599572973e-01 4.561185469534134729e-01 1.879541968177171896e-01 5.106937557504612757e-01 4.737113691140467653e-01 7.092719616462204169e-01 5.020367197862983799e-01 8.132413324371311480e-01 -1.387845180809606505e-01 5.373047646418062095e-01 5.064771194395644160e-01 4.198672607542538460e-01 5.045755511357716827e-01 7.295261407967280620e-01 4.961712141034997359e-01 5.099449294137915478e-01 8.914433141829886109e-01 5.244727462241777216e-01 3.252359677211592581e-01 8.749333899665938385e-02 1.246536224499663476e-01 8.485633285535411074e-01 4.965354278755220174e-01 2.587968628808525295e+00 6.113941952664758706e-01 4.537484641940559560e-01 5.918605403232939377e-01 7.855613459854141611e-01 1.753096359628445941e-02 5.209451178596758991e-01 5.317817037001426606e-01 5.649555860374517735e-01 1.105796524411953197e+00 7.289656263611759002e-01 5.241426558373710742e-01 3.779939127038375868e-01 9.761061406900813919e-01 4.867006932181467960e-01 5.073229843148840956e-01 4.856408662423156719e-01 5.792651303173100841e-01 5.050912967067036075e-01 7.569346865092667631e-01 5.097736085287601915e-01 5.036845987484682707e-01 9.416389042738495738e-03 4.851442440248650567e-01 3.872501493215450841e-02 5.300961609044856360e-01 5.056981243234103252e-01 5.021532401563335579e-01 6.948877241047597408e-01 5.262945477058246224e-01 5.718151393116571723e-01 6.276944685553774439e-02 4.669781707269617943e-01 5.051315574455865764e-01 3.732233409724218243e-01 5.695736065626604699e-03 5.119495674603710134e-01 7.146992700788724617e-01 5.195773701604720074e-01 5.874345553383562013e-01 9.210197728267867090e-01 3.479262794088610056e-01 5.098560523738628891e-01 5.424648701895106173e-01 4.524145755713249728e-01 5.033000217118541730e-01 8.897349929797240264e-01 4.370571324531380419e-01 6.874297575801181504e-01 5.906802632266376918e-01 1.624616316766001711e+00 5.310082926469784637e-01 5.598179475149611672e-01 5.576257067661829492e-01 4.745922225562738683e-01 4.374533931259715347e-01 4.672774341430697143e-01 -4.151215367743086304e-01 6.560303313491767652e-01 5.839835532327878331e-01 5.055366555798892492e-01 3.847850572215128495e-01 -2.938878539614480090e-01 4.186982238448883620e-01 5.147348765027932593e-01 4.700859850588520739e-01 6.050314969745314020e-01 4.327740011756113225e-01 5.166723509103694489e-01 4.810943571968288035e-01 -3.118836585877710621e-01 5.857705840496111316e-01 9.348722345392428412e-01 5.846958415663060515e-01 9.972087423177669607e-02 5.776842813447490288e-01 -6.431937173831146770e-02 4.139523969288532168e-01 6.656698820627068303e-01 9.839027720172497382e-01 8.381205449104240923e-01 4.824630524575028723e-01 5.305008219378825052e-01 1.480142120530180128e-01 4.653351112177681603e-01 4.142319973477670003e-01 6.564187610642094883e-01 1.907125025055365561e-02 6.406954225936761782e-01 6.297148803990557653e-01 4.998619888591133709e-01 4.785084598239303655e-01 6.269380359528876623e-01 4.094660609714453336e-01 -1.162264263781924850e-01 -1.177072749482018232e-01 4.793898303922623505e-01 5.029212757078087570e-01 5.626824638808375356e-01 4.692589211344171396e-01 -5.257522441806279367e-01 2.543921244164480733e+00 2.378269457882205840e-01 4.401166350782128589e-01 9.696986226282737764e-01 5.280867299131404291e-01 5.221257504256040516e-01 4.918234458267242704e-01 5.131952962072211522e-01 4.282590973546527291e-01 5.024186955061671345e-01 6.231838622997670774e-01 4.218195499382091374e-01 5.343776065680893028e-01 5.277298105076601020e-01 4.134786252308962906e-01 5.885014092844578215e-01 5.020659697880662797e-01 5.161875093849564999e-01 8.196804747581978301e-01 1.951070371000988679e+00 3.783384959179018625e-01 4.833664120165337974e-01 5.646545399543132504e-01 3.965560177215129434e-01 5.030584716284869362e-01 4.947583040763093298e-01 5.080707849652853492e-01 3.453669240585971467e-01 5.387178549310303044e-01 5.278835393134158060e-01 4.651300417437314039e-01 6.002886310618994470e-01 3.917229358416437490e-01 9.678216809987519875e-01 9.128810381091383430e-01 2.381004561785216855e-01 7.875482615109901108e-01 5.183838525192773217e-01 4.729127986997995192e-01 1.783495974607584467e+00 2.346287778860317030e-01 5.011437753476534196e-01 5.191352707193387372e-01 3.665693562084914453e-02 5.332256457048331066e-01 1.278960423110073297e+00 5.131780400802595787e-01 9.383253593962385120e-01 5.073985816945368876e-01 5.147372971934320862e-01 4.903094450727845111e-01 3.947875343371125001e-01 5.334279119977342054e-01 5.125411890597206810e-01 4.558842663037392384e-01 3.845502612460940939e-01 -1.040161488398868711e-01 4.785957126327911593e-01 5.015562312981169946e-01 5.126640691891578561e-01 5.520925073393683213e-01 7.875365914597126649e-01 6.298939516056074606e-01 6.382966883342391373e-01 9.370171608571411515e-01 -2.603303578376400806e-01 4.989586070398480122e-01 8.263244636322127912e-01 9.673506433890207701e-01 4.845160407375382894e-01 5.006717942460988668e-01 6.986075334344706012e-02 -1.183333090774064011e+00 3.661854273178542507e-01 5.587005262509571191e-01 6.177202181444261253e-01 5.212836581695783345e-01 5.822510847940941536e-01 5.306548347648863961e-01 -1.763241799527461018e-01 7.722940199296938202e-01 6.315107954393964773e-01 6.911464959501001371e-01 5.158084799259126108e-01 -1.284640617338866642e-01 -1.822906636710918682e-01 1.285104864305383288e+00 4.595265677222442613e-01 4.457927362458664056e-01 5.051783318220782748e-01 3.984272740999604268e-01 5.622267576181421145e-01 6.434914453152191793e-01 7.401858554925354605e-01 5.049193326238621271e-01 4.932956087684318702e-01 5.812907432532775642e-01 4.835522204746384167e-01 5.182097754261986156e-01 4.461083938071807031e-01 5.263840577147287370e-01 5.214674021069629628e-01 9.051020621861852744e-01 4.142604360113982254e-01 5.133525508508693935e-01 4.986924599738735142e-01 4.970708440829694763e-01 5.247510452457122554e-01 2.687046579350162515e-02 5.351068981540771929e-01 6.072067306992647850e-01 5.349720320008263252e-01 6.317506744688706766e-01 1.202697877596005993e+00 4.672752837829408090e-01 -3.702736937196571959e-02 4.991809278873156064e-01 4.818208946043102681e-01 4.786507150087111473e-01 5.749024421103898774e-01 4.358746802926601882e-01 4.626961519988072591e-01 5.334593924184701796e-01 7.817782618648407844e-01 -5.007807438191812510e-01 1.688261710146558681e+00 4.738989050293082039e-01 7.895298377930943801e-01 4.325818510411263418e-01 4.284652138311240699e-01 3.035571153611188455e-01 1.558698941176068775e-01 5.081491771451488448e-01 4.937459642708673657e-01 5.137476236488372483e-02 5.254093493875505727e-01 5.532639893950129784e-01 5.152557465560292371e-01 1.045986390008581735e+00 5.030605274003614458e-01 3.596960914377685392e-01 2.397320197113326501e-01 5.487990234132049672e-01 1.888261902411772497e-01 5.121343929566505304e-01 6.134794839811504863e-01 5.158587846150446410e-01 -4.463318891796499432e-01 4.538256533315341290e-01 5.917971857160370108e-01 5.522642143737119813e-01 4.662060691389871558e-01 7.901746704920102893e-01 7.574469767802003428e-01 -3.757784291868102033e-01 1.021321429554874038e+00 1.130856528495864266e+00 5.948330180971167502e-01 4.646503308991340453e-01 9.550785949694631238e-01 5.128695729472999565e-01 4.667431077285654206e-01 5.217805315465761096e-01 1.198993037850387688e+00 4.989421776993947510e-01 5.607625158457349990e-01 1.163252353979757681e+00 -5.042442085822908954e-02 7.233095428504505708e-01 -8.105642863353904048e-02 -6.326226474244769360e-01 -1.818731450598670418e-01 6.967435463099447279e-01 5.125367052318169359e-01 4.301669392539051451e-01 -3.319995443146168124e-01 4.928608691346674231e-01 -1.753658244478600164e-02 1.684438690876850775e-01 4.696457636164423910e-01 5.108771699223739748e-01 4.886948691034356806e-01 5.148986218778193180e-01 5.380753774894505570e-01 8.022213837370648637e-01 -1.589106472736266304e-02 5.079361597069534939e-01 4.128499590599368774e-01 6.208986364186147577e-01 1.051481565886551062e+00 3.067264626538790950e-01 6.497118817669234048e-01 5.485154686256284995e-01 7.396981214946767025e-02 6.627902703697444720e-01 5.140256163001333256e-01 5.378581620342098857e-01 4.969632617756348791e-01 4.968145089145098448e-01 5.879544472997161320e-01 5.204024247182136298e-01 4.945480356623108698e-01 2.823405114268187077e-01 3.307365181048760872e-01 7.950337205277354657e-01 2.062683960295904839e+00 -1.381846171656614941e-01 6.349542456854865291e-01 5.365741208049099598e-01 5.149725824676421038e-01 7.334433671797128129e-01 1.460038232271242409e-01 -8.685955196671713008e-01 5.097458543377619833e-01 2.125811573439777558e+00 5.119275084930373643e-01 1.677858483265763645e-01 3.288140170026999654e-01 6.315108141714734780e-01 6.749758301641847202e-01 1.226179806646919390e+00 4.079696928045900561e-01 9.010947170601842082e-02 6.309595684407934835e-01 1.161736588581832264e+00 4.426404089368637385e-01 5.327800918149752096e-01 4.889957928017418798e-01 8.195233648743360799e-01 6.118751843089120790e-01 4.348242885175396810e-01 -2.094061070941802619e-02 4.854272982685168270e-01 5.421711596232119401e-01 -4.103819373527612391e-01 5.371017192537222984e-01 1.050886774392001843e+00 2.386707279907148149e-01 2.825844666618707035e-01 8.397979712673859787e-01 5.092592489213026985e-01 1.762344956899076109e+00 4.866563170360855284e-01 2.095910902452821634e-02 6.576853973241408857e-01 4.795989839535785837e-01 6.790647955019415427e-01 5.266185653062189775e-01 6.958825898623197115e-02 5.199200300927238061e-01 -7.951498041782113779e-02 4.998383199589336856e-01 5.232031333342754831e-01 -1.917717646350044006e-02 -9.591322896773490925e-02 5.964531853152853502e-01 5.355532296700902251e-01 5.395523221279368009e-01 4.641105067576060672e-01 6.457302333862662280e-01 5.250280733074835782e-01 5.438272241967396781e-01 6.172737439277832250e-01 5.416114516993374428e-01 7.144841847581187011e-01 9.612598846802730135e-01 2.550365694874817901e+00 3.499560647375234979e-01 5.299029619783750533e-01 5.414175480137473073e-01 1.555489861698514109e-01 5.064333542815149247e-01 5.551282902690229948e-01 4.916034607581855620e-01 1.282103404215289011e+00 3.915016750171516069e-01 -3.905352794919876858e-01 5.925446317298730531e-02 6.158537145243748734e-01 5.838891315860246234e-01 4.966743043937056901e-01 4.843895569550779046e-01 4.902612531571789306e-02 5.171977171311271659e-01 4.272868524424320302e-01 -1.976435115263477815e+00 5.456447505796171438e-01 5.107681682707089221e-01 9.888637187642997928e-01 4.919389317539106798e-01 5.969575692668857014e-01 7.796028808017427814e-01 -5.696876858461975557e-01 -4.685475546730727969e-01 1.754885301820698768e-02 5.289909406317769847e-01 5.065055245020910757e-01 9.311920760697055544e-01 4.903416909997919682e-01 -1.888161781576371268e-01 8.995380533554727664e-01 5.123228384211738762e-01 6.638390113159224892e-01 5.078892240510470835e-01 4.495394916663192908e-01 2.774548828002507128e-01 -4.213427437137728382e-01 3.717971716827678796e-01 5.118589409205950291e-01 2.451785227061776817e-01 4.855190395811867510e-01 4.221519637401428549e-01 5.175119886542667302e-01 4.893508412871042101e-01 5.006531650212748819e-01 4.566648425716556825e-01 5.470894849438705521e-01 1.130856532509307621e+00 5.119787510810773767e-01 4.793281935178298481e-01 6.821075224005794524e-02 5.147266254216974479e-01 5.330579994938922095e-01 5.285189886715772056e-01 4.358031108637556716e-01 4.448703947959485316e-01 6.888422536443852273e-01 3.368887149419118598e-01 5.487627354307206273e-01 5.116290041402610234e-01 5.375177371148878169e-01 5.309467723331667832e-01 5.375117102900724975e-01 5.235592698465482142e-01 1.021359532711894502e+00 4.869149883580404792e-01 -3.203007533026317466e-01 3.531666302813848968e-01 8.435790577219530739e-01 4.715714869042897384e-01 1.982122643559788566e-01 5.092378369500712987e-01 1.886522114564581631e-01 -2.889216266110090914e-02 7.922305159923941353e-01 3.546244078489027007e-01 4.844399500350455856e-01 5.406667994825580248e-01 5.403972651272499483e-01 3.772535239932354179e-01 1.256941440294908396e+00 5.513069436613357022e-01 4.645220415822216564e-01 -3.172255926995798392e-03 3.324286854118077006e-01 1.053457413896361050e+00 3.899782057723711892e-01 5.765894672690327072e-01 3.863753480454996114e-01 -2.163091137016879550e-01 5.369459860213980917e-01 1.142526750862732587e+00 -7.085536176237945405e-01 4.889299835899711399e-01 5.098376224499511222e-01 -1.841813359552166574e-01 4.924448724403168165e-01 4.126018389469122694e-01 5.021633556907366680e-01 5.098696492815136816e-01 5.682269272075661792e-01 2.994507452443103679e-01 5.365946538398708165e-01 5.132041947706897922e-01 5.039537021839649578e-01 5.938426518672277471e-02 9.458379762598682072e-01 5.152614878465827664e-01 9.927494723667400489e-01 4.970376462365994064e-01 -4.122400688635199373e-01 7.047804285936003499e-01 5.006979388017431809e-01 3.209032635920116561e-01 5.047937936508198851e-04 6.152850089971486636e-01 5.246170656182244096e-01 5.112817365565037742e-01 4.305003083393173502e-01 -2.663464835451110138e-03 4.895376078015707400e-01 3.753071806572402802e-01 5.343461295790170595e-01 1.804094504821815770e+00 5.063457455736299906e-01 3.448579058107200113e-01 5.030954644391230079e-01 1.530550839887653947e+00 2.026220056083539167e-01 4.996854232430761322e-01 4.912274133616615912e-01 5.351069037391120720e-01 5.104803726519535623e-01 5.260451715513446702e-01 4.526977723088734806e-01 4.945499837301604029e-01 5.250692908373691958e-01 4.408213948424521966e-01 -1.510030339254355980e-01 5.050688853966720515e-01 4.881593730163308886e-01 5.502420021074518885e-01 4.776709357095566544e-01 5.169566065229407315e-01 -1.045328170114072364e-01 4.268445396917920354e-01 -6.725455195256093699e-01 -2.766682005657430943e-01 5.171332702201109077e-01 5.208597999272555068e-01 5.990990255658974473e-01 5.179417617729975554e-01 3.819938394904139889e-01 4.391731491071435567e-01 5.351069030865245324e-01 4.981886974842975047e-01 5.432562950950138303e-01 5.338807936786094110e-01 5.050249147976608732e-01 8.430811479936967112e-01 5.467990533261779529e-01 4.870037878879632243e-01 1.767236740189441768e-01 5.026221934529114810e-01 5.195218563587896687e-01 5.068652111964735418e-01 4.067809147924865143e-01 5.046427567297518957e-01 6.905452912320276804e-01 6.821225797388031920e-01 4.920045027784968328e-01 5.692066377200374339e-01 1.342527612203246457e-01 6.835297840291977289e-01 1.738683121070598414e+00 5.201797439841265858e-01 2.730150640873872936e-01 6.516289405042074989e-01 4.956367369051203342e-01 1.022585539035874902e+00 4.914594832621257958e-01 7.925599525216727725e-01 5.209961282535215954e-01
7.220043782373191110e-01 3.605712288865708381e-01 3.978208457695975864e-01 4.639475516461324944e-01 3.182856730230609887e-01 2.975814418121282556e-01 3.310733812562466905e-01 5.344190938172892480e-01 3.665638047983378334e-01 3.205182700576674204e-01 1.703549555122447323e+00 1.467079173093336353e+00 -1.034492084850584748e+00 3.004351638469833219e-01 3.470782757702158827e-01 2.595589486959350989e-01 1.956834489323328319e-01 3.727634710770194038e-01 1.819481231443000613e-01 3.349167168340217993e-01 4.345332264501288178e-01 1.672821952959527625e+00 2.414000859378197805e-01 2.697927215447782912e-01 2.220912797774702296e-01 -5.620343009966421999e-01 3.563526403436144130e-01 2.018027149065066694e-01 2.559806880901106529e-01 -3.155096642675588314e-01 3.215791497599213566e-01 4.263947340839535083e-01 3.632916664986949318e-01 2.813906085516190148e-01 -2.968937388999611793e-01 3.021769867640846652e-01 4.024941500112985682e-01 5.394474973746721247e-02 -2.436028923187024020e+00 3.345672067553734363e-01 5.470352012226834537e-01 1.211879813815380097e-01 -9.461483686625245249e-02 7.143084662545042818e-01 8.946830813175544739e-01 3.946160244246031956e-01 4.629028323256869637e-01 2.964577071930234453e-01 2.275396601982837552e-01 7.873036251657258289e-01 7.601728313952118565e-01 2.082642992048358010e-01 -6.599965811680124084e-01 2.208625903245183542e-01 3.182726117537751365e-01 7.107997133124351885e-01 2.434820428302204021e-01 2.533053307200109350e-01 3.696578603024511245e-01 3.398022665276795862e-01 3.535790365389209211e-01 3.462665815878777087e-01 3.200635173882695472e-01 2.414000486645650478e-01 -6.020227765315053908e-02 2.636585327653605537e-01 2.962339906536288203e-01 2.057015256496949052e-01 4.059639019486574463e-01 8.281413856937286377e-01 1.991239545843722925e-01 2.520948802159863611e-01 2.967601415287939304e-01 7.933321579381372723e-01 1.577529553635292237e+00 2.032100288920462849e-01 4.037134851556941073e-01 4.057064728871617731e-01 2.920038592947198919e-01 -1.033769959415053119e+00 3.280150111649527966e-01 9.223111208874128497e-01 1.410658260839028344e+00 1.857232710732269754e-01 4.301550344124970837e-01 -6.647376837014651318e-01 -6.502224768389911619e-03 3.115348646891096807e-01 -4.433185818053904659e-01 -5.521992586446334839e-01 8.912461602299106556e-01 1.156528699921225645e+00 3.561540095926831739e-01 7.953011624001460333e-01 5.321842552326778719e-01 3.399293617304600668e-01 2.463576642441963616e-01 3.051032029230645315e-01 7.781340149633274583e-01 -5.581713947629683981e-01 -1.792325515848790241e-02 1.787412007459274754e-01 2.981335079602848159e-01 2.780152858998237164e-01 3.376037780007354883e-01 2.316066309831253278e+00 -1.769877905873013801e-01 -5.272088817362690083e-01 2.339346477408707492e-01 7.205838445364990408e-01 3.466670988258876429e-01 2.400814780271531002e-01 4.154503461832219635e-01 3.365759308305238950e-01 -5.580969135225699596e-01 2.110331510718271852e-01 5.750818859031410213e-01 1.041763272914454502e-01 -1.685353820177591389e-01 3.055508400178409967e-01 -1.145138461953215003e+00 2.985146900120770885e-01 3.543986199277948668e-01 1.635742527507399180e-01 2.546311419150544819e-01 1.719931687624880023e+00 2.324814791744961584e-01 3.351762139752533787e-01 2.784552881201715069e-01 2.931092700707795817e-01 3.211745748543937684e-01 3.081853446660358098e-01 3.806112105953277647e-01 1.597074341064010639e-01 3.541107219010675156e-01 9.268702435377751403e-01 1.044572412391400612e-01 7.810830230912704231e-01 -2.476602279511126159e-01 3.252183253215023551e-01 3.012067866829931662e-01 3.184890746383661764e-01 3.247054013884622115e-01 3.245257988493500667e-01 3.298251522542228753e-01 7.386802679312833853e-01 6.506653118444942763e-01 3.120136842976104496e-01 3.346773118588847740e-01 3.473976124495004592e-01 -5.118972074047106746e-01 4.804484832790376081e-02 3.946808474630839059e-01 3.137153694351864086e-01 4.996764405047415813e-01 2.605890681213298699e-01 -7.478351659376458738e-01 3.091906546787409060e-01 -4.980329586957812915e-01 -5.578183076113256700e-01 2.738543157362894886e-01 3.108164921777042400e-01 3.029297797807384285e-01 2.925411564619876947e-01 1.893087057171852217e-02 -1.121353574709074985e-01 3.866565827065965855e-01 2.135476201208491298e-01 4.415965574763105472e-01 3.067374676215779417e-01 7.159465015861851134e-01 4.638204599925901950e-01 3.942642646105297133e-01 2.957745643406171632e-01 -1.994314421970416085e+00 7.154068627358194377e-01 8.171408440902975245e-01 1.044274417153695955e+00 -3.594730962541814456e-01 1.075115032798519277e+00 2.888847497362395100e-01 2.839507458515234672e-01 1.049509037528960631e+00 3.058404604913759761e-01 3.031575861443665532e-01 4.820000795177237785e-01 3.046818936415233159e-01 3.006109473572385893e-01 -1.992436441869416819e-01 1.392374747504390442e-01 5.010927887030024452e-01 6.442714228475545646e-01 3.191878271862291228e-01 3.724669044328486889e-01 9.693457689362303120e-02 3.468610198370551401e-01 -1.073508319235799036e+00 3.025896629793384252e-01 2.713031300537856461e-01 3.150944549260399907e-01 3.490919496126309030e-01 3.383671223472570211e-01 2.329262803042970731e-01 5.082065980502687569e-02 -9.344313673619680793e-01 2.713031473149573602e-01 3.660562512410938107e-01 -3.730575372365750320e-01 3.202349504794200774e-01 3.665415682194655411e-01 4.432827562958155387e-01 -2.444044553447386914e+00 3.089798609882586922e-01 8.755510307606909626e-01 2.927973669356181974e-01 3.007958085148499383e-01 2.452799268638727048e-01 3.338642456933291758e-01 3.089306737971656558e-01 3.064193210801668954e-01 2.891658321680290467e-01 3.354253974883878442e-01 5.560307142789855384e-01 3.712704950531672821e-01 3.077995247544190738e-01 2.164284957209869631e-01 3.254061128779848211e-01 -1.126780397413675444e-01 1.653937091483316912e+00 -5.890273595964563152e-02 1.076400400647618660e+00 -1.205771118616965287e+00 3.048326092952754474e-01 2.164388933269931758e-01 2.696657275611595850e-01 5.721296593808596898e-01 -2.105904816711392791e-01 5.427963975650531570e-01 2.242433299258872470e-01 5.921742656247005465e-01 5.911247038166460577e-01 2.768009249026240903e-01 -9.098663467867672550e-01 2.410564562140545541e-01 3.432166780024858976e-01 4.299336044169036614e-02 1.052947736011750735e+00 3.208223425654249672e-01 2.199033782325152231e+00 4.555111997813697244e-01 6.165090448464594086e-01 3.936405847825373283e-01 2.861504943522937827e-01 2.413981617024412718e-01 2.943292623784482531e-01 3.019483527645679399e-01 4.084193228086878125e-01 3.036898480254817678e-01 3.743302822444939393e-01 5.341662105211443246e-01 2.489468856196074276e-01 3.625382684606602846e-01 3.899781640438686470e-01 4.470736863025160379e-01 3.555303317337604740e-01 2.606209966824469815e-01 2.344010588428757647e+00 3.219441059830571161e-01 6.707624812999465336e-01 6.657980344657143078e-03 2.887548559820252714e-01 3.457680549568663553e-01 2.561197534776243900e-01 3.085642795494978330e-01 2.992286986267095328e-01 3.131911609487545434e-01 2.450717140833544583e-01 2.834486846895596934e-01 -6.865889811386346152e-03 8.657182176415678665e-02 1.259213905817032630e+00 3.236242696173529110e-01 6.125472673428267179e-02 1.760731453398851620e+00 3.781200835876671884e-01 7.118845041924322103e-01 3.583287730524118420e-01 2.938116299010451460e-01 2.110324828310792544e-01 -1.716385617191366286e+00 3.136767382623147915e-01 6.972810434330091178e-01 4.730278115631744162e-01 -3.939775617703171195e-01 7.380575903225414791e-01 2.984753171692625662e-01 -5.544676229203877593e-01 1.687984765141555821e-01 3.098467361304541590e-01 3.343522986891505067e-01 -2.251796046142122143e-01 3.520512042506907524e-01 -7.602836330356195216e-01 4.643497300741002420e-01 2.914161273901467730e-01 6.465167775461708732e-01 3.069753099770225480e-01 3.442957424643719455e-01 2.619198348129377352e-01 3.318064189919938678e-01 -3.649906284611548896e-02 -5.951910353358884631e-01 6.711587521117266808e-02 3.157848773484225324e-01 3.580169431900092070e-01 3.169714401748635613e-01 3.115142703469556129e-01 4.634680130382693442e-01 3.005813109060895827e-01 1.933978990590828895e+00 7.793905426425610239e-01 2.428274580646365421e-01 -8.173844433622886596e-01 2.602838868312182807e-01 3.362784970956184782e+00 3.496415418340257375e-01 2.446445208944866834e-01 5.294690510359156832e-01 -4.170249867075311201e+00 3.128447249558180543e-01 1.157055016409998860e+00 3.084743443085523062e-01 5.825089154561067240e-01 -3.560128026380314781e-01 4.314083645374076070e-01 4.233560706657291672e-01 3.007619370232633149e-01 3.082148930412700882e-01 2.119738673278834806e+00 -2.428321348850979167e-01 2.996994528643492361e-01 -1.631173494949264002e+00 3.360835013760205547e-01 5.394475365293621705e-02 5.812158800111354440e-01 2.440416898247320110e-01 4.390022963940540257e-01 3.829646881312478990e-01 1.343850977430826266e+00 3.958803000895162461e-01 2.713031302899884811e-01 2.410635549452040949e-01 5.082065807348878222e-02 1.400945140634831942e-01 4.195596096164274647e-01 -4.630108499631286900e-01 3.098939852412300744e-01 5.173417930251711372e-01 3.094358589347384614e-01 3.965744199767862188e-01 2.954415215287877761e-01 1.135831149032486415e-01 2.440406674962914413e-01 4.609927181967721777e-01 2.909122656538307150e-01 2.975704448983599315e-01 7.161780269377313601e-01 2.140524172225168442e+00 3.166019634713277964e-01 4.778443348100321897e-01 3.547236674064475070e-01 9.443409289461689449e-01 3.777232871290114868e-01 2.666593954665623101e-01 7.822898840831720157e-01 1.173843975654127736e-01 1.516946674140595697e-01 2.969042932128400092e-01 2.598923795437143025e-01 8.797502650536821456e-01 6.294024168487819537e-01 7.153045147327047326e-01 3.971010279362098827e-01 5.082065983504736872e-02 5.082065980502182417e-02 2.994687143920948258e-01 4.990955177285220090e-01 1.104211781397836045e+00 -1.271704125867310076e-01 2.996600992105307171e-01 4.291872169801232428e-01 2.924693074469113530e-01 8.996109028608868519e-01 2.713031429138155759e-01 3.149410292389413502e-01 2.846548921328759807e-01 2.090377661478810545e-01 -5.032399703020076220e-01 5.049213825613027007e-01 2.837987521661440304e-01 2.869519731338145974e-01 3.685939178522514292e-01 7.688015577694887748e-01 5.082066154725916468e-02 -3.006474140848682253e-01 3.126099906337859169e-01 -2.944581448606233345e-02 -4.635791866322337418e-01 2.967138795542803020e-01 -2.649172415426036320e+00 1.194970613118159886e+00 3.645840051360590972e-01 -1.855402170893777625e-01 4.632888860440016465e-01 1.596153860977652883e+00 3.245375669368634197e-01 5.133872604724731836e-01 8.128273646429385879e-01 5.198870761471608981e-01 1.735273128522687724e-01 3.083458001075189969e-01 5.519910536487648844e-01 2.885750407616474722e-01 1.628461180788310259e+00 3.170594497632756581e-01 2.685930937466916510e-02 3.127116055820469698e-01 3.649463356819933058e-01 -1.182287037675916030e+00 3.208998141280858252e-01 2.666275586093804634e-02 3.920992451973804860e-01 1.691225641912446898e-01 2.987283303925801770e-01 2.952655211293422344e-01 3.099519390638004745e-01 -1.395499423282904605e-01 3.115386581679370770e-01 3.712653498852171441e-01 3.356432586485151304e-01 2.869135089224026935e-01 6.893206066203637628e-01 6.980337664630719141e-01 8.481538494214417856e-01 -9.435011527509324925e-01 5.089814940951677968e-01 -2.198667853629271765e-02 -3.116539501755306030e-01 2.897354360262312523e-01 3.554928021191680609e-01 3.316039767165276930e-01 8.047046553811793013e-01 3.381491163994602145e-01 3.717912802118485405e-01 2.067117596925623635e-01 1.039928835698298581e-01 -1.394384482089205402e-01 2.884678144008083200e-01 4.713591904647066455e-01 4.389555418770198503e-01 3.172633772377151939e-01 2.972749842779309204e-01 3.007746782443072031e-01 4.888856945541648069e-01 3.331205601143551465e-01 4.761177386553709368e-01 3.052122186101485224e-01 3.009098186678414444e-01 7.890851731660768476e-01 3.083379041801224130e-01 8.000820626790083878e-01 1.255966820044017718e-01 2.807196314571202000e-01 3.207548082634179010e-01 -1.188581564715674110e+00 2.964153192409940685e-01 1.722302531780335322e-01 5.281537077646317746e-01 3.572911153520025307e-01 3.152082411152183905e-01 5.478241686054755588e-01 7.621079468816256419e-01 3.022235260243791855e-01 2.316300557592817777e-01 3.060060541363999742e-01 -6.729548122491338380e-03 4.248431928322400908e-01 1.973981840662880072e-01 3.428176370987611743e-01 1.433152530160863025e-01 3.354575459877665589e-01 1.097349762127524803e-01 1.252156888952192793e+00 3.189656359216084258e-01 2.460353481159450184e-01 2.891996808832154042e-01 -5.665660782376159554e-01 3.936508263018258513e-01 1.755995193290454115e-01 2.272752818645366046e-01 4.725434434770479086e-01 4.066871620031627943e-01 1.638625500263306833e-01 8.224890670653526303e-01 4.224796774792839993e-01 1.489278305078247655e-01 3.250231625628824950e-01 4.132672627793198550e-01 7.252593921459538073e-01 2.365795573104147120e+00 2.941273142237487703e-01 4.235240700897895394e-01 5.966201223202288739e-01 3.574879068597607290e-01 3.013389806251948189e-01 3.849298101025036001e-01 8.077033763367352792e-01 1.930576808831486746e-01 -8.529560262120583491e-02 2.840340093553953005e-01 3.907938828583323171e-02 2.152900972948041669e-01 6.932072207174211353e-01 3.602752424996396030e-01 4.473827096862888486e-01 1.443746637785359166e+00 4.746252275412357058e-01 3.561806382134591886e-01 2.668469357917633289e-01 3.695277645841723024e-01 4.646701462550238970e-01 3.709414935881277242e-01 2.057477524054224516e-01 7.971004404947255040e-01 1.733137211227593344e-01 3.518071560640744222e-01 3.288694449446344370e-01 3.399608645446514088e-01 2.015073157880139798e-01 2.961395002233302987e-01 9.703102375539784941e-01 4.099895555658769619e-01 3.466047695381992977e-01 2.678229283347191014e-01 1.746033687767262199e-01 3.346467160392481710e-01 5.327444132966556722e-01 6.272485908513349973e-01 3.538920276956206701e-01 3.125996157644459483e-01 3.822562452816791745e-01 3.036862322832739047e-01 4.084137985350396183e-01 4.250080664924288376e-01 3.805589110828422883e-01 3.863260905056379452e-02 3.006210918263368947e-01 3.722973770459483411e-01 5.417531155739003790e-01 4.117807564532099951e-01 2.690784690406492485e-01 1.287997678954437397e+00 3.837705452466420031e-01 2.991472505854059771e-01 2.869648253854756303e-01 1.022038416013427931e+00 9.794215605932994340e-01 1.596039144455543846e-01 -3.005668324611553421e-01 -1.802746182513073614e-01 5.132051501016023920e-01 4.275860855517463754e-01 3.096049950399263895e-01 2.892439565635961385e-01 3.658815656814576878e-01 2.330163408934299296e-01 4.006201009657153200e-01 4.642193611879097959e-01 2.400507485583380785e-01 4.232468792627793741e-01 7.707360889885231936e-01 -6.333301954694744648e-04 7.059300210348142812e-01 3.543042139292956194e-01 3.000370033217337196e-01 7.903061180480736025e-02 4.688809066529284197e-01 8.911116143014584656e-01 3.414908229953450558e-01 6.085778088941521391e-01 1.293326028701961228e+00 2.897281441409476632e-01 1.615034893070269595e+00 5.895438839710422929e-01 1.114270544873234292e-01 2.945913393687387694e-01 2.957136955558179459e-01 3.542121039470752519e-01 3.067456916641447262e-01 3.566410837573074644e-01 3.087179650494755734e-01 3.455827975151713471e-01 3.605204196832761943e-01 1.351416404616837263e-01 4.012565873626951496e-01 4.741840947387300220e-01 3.009376237613391458e-01 3.337259559512897322e-01 3.543129278284871675e-01 2.319162089035543828e-01 3.062741031633097188e-01 -5.097450241663445958e-01 1.569766987080611242e+00 3.193586081893617368e-01 -2.051946441589765358e-01 3.050402862160976336e-01 3.058866261532779407e-01 3.100454125216382528e-01 -3.599344873977715409e+00 2.782587239170887461e+00 5.285565710021654651e-01 2.806579338877295271e-01 1.797650774442988708e-01 3.086493471763727681e-01 2.420567934427492185e-01 2.048276732227638064e+00 5.207425693538695333e-01 3.839875954244733602e-01 2.110329801780910230e-01 7.227467087902004206e-01 2.915139151301717191e-01 9.357760377536383789e-01 -3.579843030330825959e-01 -5.964561360144653435e-01 -7.929560376358714135e-01 4.622176088630307322e-02 3.151767477164517106e-01 4.976400788204591863e-01 1.838294494170715776e-01 1.686284842110974957e-01 2.188149950367287155e-01 3.040450533418869172e-01 3.741921721994121430e-01 3.192241772004570932e-01 3.873773746674185059e-01 3.082163274641450124e-01 4.913834132334680138e-01 2.797894556234475916e-01 1.970530941320164930e-01 1.263376361097698075e-01 4.734776212880688617e-01 3.001607067788327199e-01 3.302700407359279722e-01 3.106920949849512059e-01 3.248814586879257837e-01 7.749468447822606132e-01 2.440416972496081971e-01 2.964752127841994711e-01 3.034710111719228776e-01 2.403358548498276681e-01 1.951164322992849087e-01 1.638347608732619864e-01 1.172904306521095563e+00 3.145226890356705440e-01 3.323875164056659948e-01 3.331373228714529788e-01 2.426455094634609455e-01 1.695184688917175109e-01 1.360136265323710070e-01 2.775203874032300955e-01 2.599513705695211119e-01 6.624686701483554208e-01 6.728339401218669247e-01 2.877875061044340987e-01 1.494209247010875874e+00 3.681278606643057505e-01 2.770093694198391687e-01 6.885352807633460248e-02 -3.917832288334894830e-01 3.073326782256654566e-01 3.059416570688541781e-01 8.053977384508835824e-01 2.968579553981864350e-01 2.280662576516236384e-01 2.864642096520396142e-01 2.883896461562356905e-01 3.330622200029120794e-01 6.544346911211379458e-01 7.908021500546407179e-01 2.472373639749682050e-01 5.264758295563531920e-01 3.013818033178976563e-01 2.924858251787564034e-02 3.318883268414948295e-01 3.492145512375848804e-01 -2.853807451994330169e-01 2.181534799239884803e-01 2.610633724281490875e-01 4.628179861626246505e-01 3.563913836843488059e-01 1.169906191262120476e+00 7.759877719241993210e-01 -7.397126080250580049e-01 5.394475523120640520e-02 2.374472076340340410e-01 -2.527005099534419763e+00 1.381247319802478835e+00 2.942748959355796501e-01 4.641796636568584766e-01 2.998604857120485412e-01 6.471903242860441718e-01 3.078118776406636448e-01 2.410576266464576345e-01 -3.412109904482646394e-01 6.819802620993646869e-01 -7.498495390074839603e-03 9.179587909205961793e-01 1.725466588407834623e+00 -3.575711984635554508e-01 -1.164179568662593978e+00 3.037835270931805720e-01 5.330736025735803851e-01 9.183963315068380817e-01 3.083171688043622738e-01 7.464804064568111297e-01 4.423952970215603298e-01 3.647014402231935071e-01 3.067063001442454917e-01 3.244259488209297326e-01 3.090928558307020624e-01 1.229909097615883296e-01 1.030842394081501467e+00 1.089455796783126429e+00 3.078099225346627721e-01 4.236527992714045898e-01 -1.815800939138952075e-01 -8.971725028226687493e-02 5.157676430299914516e-01 2.942311200398501358e-01 2.464074351703493260e-01 7.040088626565368379e-01 5.537517280668041719e-01 2.942583703761182945e-01 3.279544195152667707e-01 3.393035280163538836e-01 2.985114357611931557e-01 3.974056498221438805e-01 2.981635886437163374e-01 3.337166110670656827e-01 2.379062941600166778e-02 3.942163378443802046e-01 4.756643992113352426e-01 9.077902950125047443e-01 9.988556990808663549e-01 7.591177269243607473e-01 3.220759055939226845e-01 3.101103857374847839e-01 -2.990933183317143196e-02 1.924239956302517540e-01 -1.317710550841127315e+00 3.029831611660250834e-01 5.792299231038080531e-01 2.947081853313653355e-01 7.759898947089591825e-01 1.145960150289010437e+00 2.110332118789028655e-01 3.265058125535618555e-02 3.469503143740243489e-01 4.254788176742305694e-01 6.696741438813804681e-01 2.302628919873459523e-01 -2.826082112583284123e-01 5.344289916726190359e-01 4.305719031151512000e-01 3.259838330423497910e-01 3.359238394284905782e-01 2.352109144162544407e-01 2.813167276487655855e-01 2.638411105095050391e-01 3.382826867730852616e-01 2.587992439420883639e-01 8.235877001196963976e-01 2.918954290226721815e-01 -1.406496267016901502e-01 7.924319805216561985e-01 4.158997836534717440e-01 2.141633454476968013e-01 2.984293721533877175e-01 1.120915278318466601e+00 7.895162156818597010e-03 8.027575500372318151e-01 3.416826967908226376e-01 3.654656303224478320e-01 1.059153579757313723e-01 3.579530986601274223e-01 6.648144249552144780e-01 3.070009277436656081e-01 8.496627179114840667e-01 3.193163470379312696e-01 2.840572472329957465e-01 8.063779356654786623e-01 -1.576101244999603135e-02 -1.692381416118761361e+00 4.280348557821107569e-01 2.596636402295712798e-01 3.576357470541934869e-01 5.877207063049505464e-01 2.796693187295766769e-01 2.880664562844772458e-01 2.018308082224069822e-01 2.584658258886994298e-01 6.166977976428927866e-02 -1.416266916357740158e+00 6.721846069234279630e-01 3.496263534767363734e-01 2.735568402698871360e-01 2.557368947235209578e-01 7.420885092906570613e-01 3.027705884966509498e-01 2.241904142333932259e-01 3.410668415997211711e-01 1.019392743536920554e+00 3.428754271829178579e-01 4.040128841374361901e-01 1.084662160217068516e+00 2.969196014271396900e-01 1.895679514635649987e+00 3.237494072076791962e-01 3.446670347309158666e-01 7.287954258133061414e-01 2.958398619670841723e-01 3.862775629825003776e-01 -1.118033377897023950e+00 3.245403957365052827e-01 3.115994732196070705e-01 4.666849700126499134e-01 3.182159415511936484e-01 2.449200489566641659e-01 -5.645698211162881730e-01 1.636369419665929748e+00 -4.683695996712643472e-01 5.786816239390879524e-01 2.833864330672991594e-01 1.338361695662214634e-01 3.332130875692929650e-01 3.173793843288867378e-01 1.065176629450255152e+00 -6.850062838508454155e-02 3.032881508806518078e-01 -7.014169300690140663e-01 5.791054552107218756e-01 3.809858641411070224e-01 -2.377717296775639255e+00 2.240107144429620778e+00 3.087831459392985090e-01 3.052266717632197146e-01 -1.043702388586684293e+00 3.738732879889798966e-01 -3.178091954333674141e-02 3.058290109404825374e-01 4.042797711575280006e-01 5.903378677707767919e-01 4.495103824834074668e-01 2.422529579815067002e-01 5.394475122671020528e-02 5.368405845178736424e-02 3.641501528695969547e-01 -9.581039339731803883e-01 3.027945432890227218e-01 -5.051402036157446318e-01 2.949131539860761486e-01 1.722933863937708143e-01 3.862195609185131717e-01 2.793295674972116616e-01 3.340772195036875725e-01 2.992664216909731584e-02 3.036157142695805611e-01 3.579643432471785180e-01 2.553947611425181341e-01 3.285274373818183880e-01 2.842410972569825445e-01 -7.402594328489173758e-01 4.009087289239551821e-01 1.349201179568248143e+00 -3.075141644572427103e-03 2.732404901865921887e-01 4.179442012463212563e-01 1.223589131767294447e+00 3.065262572850277478e-01 2.625631790988443015e-01 9.197350202884181369e-01 1.586751829408945547e-01 1.404847369815517943e+00 3.964441027698474285e-01 3.494643357515047066e-01 2.590276656552842338e-01 6.136785056530447147e-01 1.230365189874685239e+00 2.739270767727938205e-01 4.650404236105533662e-01 6.080358629063745690e-01 4.745235110169711557e-01 5.069435304197458803e-02 -2.288029765938774107e-01 3.371804731216552775e-01 4.741864380865329909e-01 1.571321386811643794e-01 4.930060033709295353e-01 -9.387334956583859302e-02 1.263760293333917817e+00 3.334049603628588265e-01 3.116454546052747077e-01 -2.108763961242408946e+00 2.907094057673157428e-01 3.343218049563621008e-01 2.980885968505374573e-01 -1.306881857913398115e-01 2.672524209350610747e-01 -4.479000783588205081e-01 1.694447785524787753e-01 2.965053306052087834e-01 2.869622057643744228e-01 1.119702049263031185e+00 2.115114283649405513e-01 3.122629528093363582e-01 -1.138479592295927212e+00 2.987497868864317785e-01 8.240889926423934364e-01 6.807406086981562243e-01 3.076562894164352469e-01 -1.738864299370327937e-01 7.373400341422104987e-01 1.135920376835327095e-01 3.023315666952189340e-01 3.096068810751029243e-01 5.166919344037662620e-01 7.795946784596842205e-01 3.267952447554963169e-01 6.611597408456199032e-01 2.870038197111709488e-01 6.278522163917401588e-01 3.153743758096799743e-01 -1.370529238733210420e+00 3.085124562504210077e-01 2.771888414497437197e-02 4.389405483970068578e-01 3.263521090804245017e-01 3.194018340705950809e-01 2.440416898832517834e-01 2.989951119907156007e-01 2.511424096035573261e-01 4.123568629538532648e-01 2.890968757618207485e-01 2.684272224640852356e-01 4.308811813307680261e-01 -4.059697340844671265e-01 2.991341156132746870e-01 3.178109440909487327e-01 3.282065025401589842e-01 3.361854133247699217e-01 3.028071570592232864e-01 5.022539278473088231e-01 3.683049814166395319e-01 8.039380932644796252e-01 4.926633775553864725e-01 3.038395678853427762e-01 3.039329006967808611e-01 -1.691391677574741959e+00 3.123227947477854594e-01 3.828907037265246727e-01 3.419570781177808105e-01 2.440416875942966468e-01 3.300115313278371709e-01 2.968148781577319428e-01 3.742307528897200752e-01 2.975652466098053783e-01 2.333851103926440351e-01 2.740610957047369123e-01 3.424877970413958694e-01 4.311168992672866906e-01 3.024421499995144647e-01 2.923699262933182608e-01 3.056265353741027258e-01 1.392790611604721451e-01 3.071572724691744583e-01 1.922156908181827106e-01 1.656222159117163306e-01 3.626886375291201170e-01 1.809931801393239170e-01 -1.912243292112131635e-02 -3.237226093326323051e-01 2.963557732042191528e+00 2.942275635001222467e-01 6.468555230842061299e-01 1.653325986772748724e-01 3.486326741158486398e-01 1.271406133709021447e+00 3.668597481527946513e-01 7.506692165103160397e-01 3.076027586197681574e-01
