# 
#                 ----------------------------------------------------
#                 Data from a 3D direct N-body simulation. 
# 
#                 rows are i-particle; 
#                 coumns are :mass, tag, x ,y, z, vx, vy, vz, ax, ay, az
# 
#                 NTHU, Computational Physics 
# 
#                 ----------------------------------------------------
#                 Time = 0.0
0.000000000000000000e+00 1.000000000000000000e+00 2.000000000000000000e+00 3.000000000000000000e+00 4.000000000000000000e+00 5.000000000000000000e+00 6.000000000000000000e+00 7.000000000000000000e+00 8.000000000000000000e+00 9.000000000000000000e+00 1.000000000000000000e+01 1.100000000000000000e+01 1.200000000000000000e+01 1.300000000000000000e+01 1.400000000000000000e+01 1.500000000000000000e+01 1.600000000000000000e+01 1.700000000000000000e+01 1.800000000000000000e+01 1.900000000000000000e+01 2.000000000000000000e+01 2.100000000000000000e+01 2.200000000000000000e+01 2.300000000000000000e+01 2.400000000000000000e+01 2.500000000000000000e+01 2.600000000000000000e+01 2.700000000000000000e+01 2.800000000000000000e+01 2.900000000000000000e+01 3.000000000000000000e+01 3.100000000000000000e+01 3.200000000000000000e+01 3.300000000000000000e+01 3.400000000000000000e+01 3.500000000000000000e+01 3.600000000000000000e+01 3.700000000000000000e+01 3.800000000000000000e+01 3.900000000000000000e+01 4.000000000000000000e+01 4.100000000000000000e+01 4.200000000000000000e+01 4.300000000000000000e+01 4.400000000000000000e+01 4.500000000000000000e+01 4.600000000000000000e+01 4.700000000000000000e+01 4.800000000000000000e+01 4.900000000000000000e+01 5.000000000000000000e+01 5.100000000000000000e+01 5.200000000000000000e+01 5.300000000000000000e+01 5.400000000000000000e+01 5.500000000000000000e+01 5.600000000000000000e+01 5.700000000000000000e+01 5.800000000000000000e+01 5.900000000000000000e+01 6.000000000000000000e+01 6.100000000000000000e+01 6.200000000000000000e+01 6.300000000000000000e+01 6.400000000000000000e+01 6.500000000000000000e+01 6.600000000000000000e+01 6.700000000000000000e+01 6.800000000000000000e+01 6.900000000000000000e+01 7.000000000000000000e+01 7.100000000000000000e+01 7.200000000000000000e+01 7.300000000000000000e+01 7.400000000000000000e+01 7.500000000000000000e+01 7.600000000000000000e+01 7.700000000000000000e+01 7.800000000000000000e+01 7.900000000000000000e+01 8.000000000000000000e+01 8.100000000000000000e+01 8.200000000000000000e+01 8.300000000000000000e+01 8.400000000000000000e+01 8.500000000000000000e+01 8.600000000000000000e+01 8.700000000000000000e+01 8.800000000000000000e+01 8.900000000000000000e+01 9.000000000000000000e+01 9.100000000000000000e+01 9.200000000000000000e+01 9.300000000000000000e+01 9.400000000000000000e+01 9.500000000000000000e+01 9.600000000000000000e+01 9.700000000000000000e+01 9.800000000000000000e+01 9.900000000000000000e+01 1.000000000000000000e+02 1.010000000000000000e+02 1.020000000000000000e+02 1.030000000000000000e+02 1.040000000000000000e+02 1.050000000000000000e+02 1.060000000000000000e+02 1.070000000000000000e+02 1.080000000000000000e+02 1.090000000000000000e+02 1.100000000000000000e+02 1.110000000000000000e+02 1.120000000000000000e+02 1.130000000000000000e+02 1.140000000000000000e+02 1.150000000000000000e+02 1.160000000000000000e+02 1.170000000000000000e+02 1.180000000000000000e+02 1.190000000000000000e+02 1.200000000000000000e+02 1.210000000000000000e+02 1.220000000000000000e+02 1.230000000000000000e+02 1.240000000000000000e+02 1.250000000000000000e+02 1.260000000000000000e+02 1.270000000000000000e+02 1.280000000000000000e+02 1.290000000000000000e+02 1.300000000000000000e+02 1.310000000000000000e+02 1.320000000000000000e+02 1.330000000000000000e+02 1.340000000000000000e+02 1.350000000000000000e+02 1.360000000000000000e+02 1.370000000000000000e+02 1.380000000000000000e+02 1.390000000000000000e+02 1.400000000000000000e+02 1.410000000000000000e+02 1.420000000000000000e+02 1.430000000000000000e+02 1.440000000000000000e+02 1.450000000000000000e+02 1.460000000000000000e+02 1.470000000000000000e+02 1.480000000000000000e+02 1.490000000000000000e+02 1.500000000000000000e+02 1.510000000000000000e+02 1.520000000000000000e+02 1.530000000000000000e+02 1.540000000000000000e+02 1.550000000000000000e+02 1.560000000000000000e+02 1.570000000000000000e+02 1.580000000000000000e+02 1.590000000000000000e+02 1.600000000000000000e+02 1.610000000000000000e+02 1.620000000000000000e+02 1.630000000000000000e+02 1.640000000000000000e+02 1.650000000000000000e+02 1.660000000000000000e+02 1.670000000000000000e+02 1.680000000000000000e+02 1.690000000000000000e+02 1.700000000000000000e+02 1.710000000000000000e+02 1.720000000000000000e+02 1.730000000000000000e+02 1.740000000000000000e+02 1.750000000000000000e+02 1.760000000000000000e+02 1.770000000000000000e+02 1.780000000000000000e+02 1.790000000000000000e+02 1.800000000000000000e+02 1.810000000000000000e+02 1.820000000000000000e+02 1.830000000000000000e+02 1.840000000000000000e+02 1.850000000000000000e+02 1.860000000000000000e+02 1.870000000000000000e+02 1.880000000000000000e+02 1.890000000000000000e+02 1.900000000000000000e+02 1.910000000000000000e+02 1.920000000000000000e+02 1.930000000000000000e+02 1.940000000000000000e+02 1.950000000000000000e+02 1.960000000000000000e+02 1.970000000000000000e+02 1.980000000000000000e+02 1.990000000000000000e+02 2.000000000000000000e+02 2.010000000000000000e+02 2.020000000000000000e+02 2.030000000000000000e+02 2.040000000000000000e+02 2.050000000000000000e+02 2.060000000000000000e+02 2.070000000000000000e+02 2.080000000000000000e+02 2.090000000000000000e+02 2.100000000000000000e+02 2.110000000000000000e+02 2.120000000000000000e+02 2.130000000000000000e+02 2.140000000000000000e+02 2.150000000000000000e+02 2.160000000000000000e+02 2.170000000000000000e+02 2.180000000000000000e+02 2.190000000000000000e+02 2.200000000000000000e+02 2.210000000000000000e+02 2.220000000000000000e+02 2.230000000000000000e+02 2.240000000000000000e+02 2.250000000000000000e+02 2.260000000000000000e+02 2.270000000000000000e+02 2.280000000000000000e+02 2.290000000000000000e+02 2.300000000000000000e+02 2.310000000000000000e+02 2.320000000000000000e+02 2.330000000000000000e+02 2.340000000000000000e+02 2.350000000000000000e+02 2.360000000000000000e+02 2.370000000000000000e+02 2.380000000000000000e+02 2.390000000000000000e+02 2.400000000000000000e+02 2.410000000000000000e+02 2.420000000000000000e+02 2.430000000000000000e+02 2.440000000000000000e+02 2.450000000000000000e+02 2.460000000000000000e+02 2.470000000000000000e+02 2.480000000000000000e+02 2.490000000000000000e+02 2.500000000000000000e+02 2.510000000000000000e+02 2.520000000000000000e+02 2.530000000000000000e+02 2.540000000000000000e+02 2.550000000000000000e+02 2.560000000000000000e+02 2.570000000000000000e+02 2.580000000000000000e+02 2.590000000000000000e+02 2.600000000000000000e+02 2.610000000000000000e+02 2.620000000000000000e+02 2.630000000000000000e+02 2.640000000000000000e+02 2.650000000000000000e+02 2.660000000000000000e+02 2.670000000000000000e+02 2.680000000000000000e+02 2.690000000000000000e+02 2.700000000000000000e+02 2.710000000000000000e+02 2.720000000000000000e+02 2.730000000000000000e+02 2.740000000000000000e+02 2.750000000000000000e+02 2.760000000000000000e+02 2.770000000000000000e+02 2.780000000000000000e+02 2.790000000000000000e+02 2.800000000000000000e+02 2.810000000000000000e+02 2.820000000000000000e+02 2.830000000000000000e+02 2.840000000000000000e+02 2.850000000000000000e+02 2.860000000000000000e+02 2.870000000000000000e+02 2.880000000000000000e+02 2.890000000000000000e+02 2.900000000000000000e+02 2.910000000000000000e+02 2.920000000000000000e+02 2.930000000000000000e+02 2.940000000000000000e+02 2.950000000000000000e+02 2.960000000000000000e+02 2.970000000000000000e+02 2.980000000000000000e+02 2.990000000000000000e+02 3.000000000000000000e+02 3.010000000000000000e+02 3.020000000000000000e+02 3.030000000000000000e+02 3.040000000000000000e+02 3.050000000000000000e+02 3.060000000000000000e+02 3.070000000000000000e+02 3.080000000000000000e+02 3.090000000000000000e+02 3.100000000000000000e+02 3.110000000000000000e+02 3.120000000000000000e+02 3.130000000000000000e+02 3.140000000000000000e+02 3.150000000000000000e+02 3.160000000000000000e+02 3.170000000000000000e+02 3.180000000000000000e+02 3.190000000000000000e+02 3.200000000000000000e+02 3.210000000000000000e+02 3.220000000000000000e+02 3.230000000000000000e+02 3.240000000000000000e+02 3.250000000000000000e+02 3.260000000000000000e+02 3.270000000000000000e+02 3.280000000000000000e+02 3.290000000000000000e+02 3.300000000000000000e+02 3.310000000000000000e+02 3.320000000000000000e+02 3.330000000000000000e+02 3.340000000000000000e+02 3.350000000000000000e+02 3.360000000000000000e+02 3.370000000000000000e+02 3.380000000000000000e+02 3.390000000000000000e+02 3.400000000000000000e+02 3.410000000000000000e+02 3.420000000000000000e+02 3.430000000000000000e+02 3.440000000000000000e+02 3.450000000000000000e+02 3.460000000000000000e+02 3.470000000000000000e+02 3.480000000000000000e+02 3.490000000000000000e+02 3.500000000000000000e+02 3.510000000000000000e+02 3.520000000000000000e+02 3.530000000000000000e+02 3.540000000000000000e+02 3.550000000000000000e+02 3.560000000000000000e+02 3.570000000000000000e+02 3.580000000000000000e+02 3.590000000000000000e+02 3.600000000000000000e+02 3.610000000000000000e+02 3.620000000000000000e+02 3.630000000000000000e+02 3.640000000000000000e+02 3.650000000000000000e+02 3.660000000000000000e+02 3.670000000000000000e+02 3.680000000000000000e+02 3.690000000000000000e+02 3.700000000000000000e+02 3.710000000000000000e+02 3.720000000000000000e+02 3.730000000000000000e+02 3.740000000000000000e+02 3.750000000000000000e+02 3.760000000000000000e+02 3.770000000000000000e+02 3.780000000000000000e+02 3.790000000000000000e+02 3.800000000000000000e+02 3.810000000000000000e+02 3.820000000000000000e+02 3.830000000000000000e+02 3.840000000000000000e+02 3.850000000000000000e+02 3.860000000000000000e+02 3.870000000000000000e+02 3.880000000000000000e+02 3.890000000000000000e+02 3.900000000000000000e+02 3.910000000000000000e+02 3.920000000000000000e+02 3.930000000000000000e+02 3.940000000000000000e+02 3.950000000000000000e+02 3.960000000000000000e+02 3.970000000000000000e+02 3.980000000000000000e+02 3.990000000000000000e+02 4.000000000000000000e+02 4.010000000000000000e+02 4.020000000000000000e+02 4.030000000000000000e+02 4.040000000000000000e+02 4.050000000000000000e+02 4.060000000000000000e+02 4.070000000000000000e+02 4.080000000000000000e+02 4.090000000000000000e+02 4.100000000000000000e+02 4.110000000000000000e+02 4.120000000000000000e+02 4.130000000000000000e+02 4.140000000000000000e+02 4.150000000000000000e+02 4.160000000000000000e+02 4.170000000000000000e+02 4.180000000000000000e+02 4.190000000000000000e+02 4.200000000000000000e+02 4.210000000000000000e+02 4.220000000000000000e+02 4.230000000000000000e+02 4.240000000000000000e+02 4.250000000000000000e+02 4.260000000000000000e+02 4.270000000000000000e+02 4.280000000000000000e+02 4.290000000000000000e+02 4.300000000000000000e+02 4.310000000000000000e+02 4.320000000000000000e+02 4.330000000000000000e+02 4.340000000000000000e+02 4.350000000000000000e+02 4.360000000000000000e+02 4.370000000000000000e+02 4.380000000000000000e+02 4.390000000000000000e+02 4.400000000000000000e+02 4.410000000000000000e+02 4.420000000000000000e+02 4.430000000000000000e+02 4.440000000000000000e+02 4.450000000000000000e+02 4.460000000000000000e+02 4.470000000000000000e+02 4.480000000000000000e+02 4.490000000000000000e+02 4.500000000000000000e+02 4.510000000000000000e+02 4.520000000000000000e+02 4.530000000000000000e+02 4.540000000000000000e+02 4.550000000000000000e+02 4.560000000000000000e+02 4.570000000000000000e+02 4.580000000000000000e+02 4.590000000000000000e+02 4.600000000000000000e+02 4.610000000000000000e+02 4.620000000000000000e+02 4.630000000000000000e+02 4.640000000000000000e+02 4.650000000000000000e+02 4.660000000000000000e+02 4.670000000000000000e+02 4.680000000000000000e+02 4.690000000000000000e+02 4.700000000000000000e+02 4.710000000000000000e+02 4.720000000000000000e+02 4.730000000000000000e+02 4.740000000000000000e+02 4.750000000000000000e+02 4.760000000000000000e+02 4.770000000000000000e+02 4.780000000000000000e+02 4.790000000000000000e+02 4.800000000000000000e+02 4.810000000000000000e+02 4.820000000000000000e+02 4.830000000000000000e+02 4.840000000000000000e+02 4.850000000000000000e+02 4.860000000000000000e+02 4.870000000000000000e+02 4.880000000000000000e+02 4.890000000000000000e+02 4.900000000000000000e+02 4.910000000000000000e+02 4.920000000000000000e+02 4.930000000000000000e+02 4.940000000000000000e+02 4.950000000000000000e+02 4.960000000000000000e+02 4.970000000000000000e+02 4.980000000000000000e+02 4.990000000000000000e+02 5.000000000000000000e+02 5.010000000000000000e+02 5.020000000000000000e+02 5.030000000000000000e+02 5.040000000000000000e+02 5.050000000000000000e+02 5.060000000000000000e+02 5.070000000000000000e+02 5.080000000000000000e+02 5.090000000000000000e+02 5.100000000000000000e+02 5.110000000000000000e+02 5.120000000000000000e+02 5.130000000000000000e+02 5.140000000000000000e+02 5.150000000000000000e+02 5.160000000000000000e+02 5.170000000000000000e+02 5.180000000000000000e+02 5.190000000000000000e+02 5.200000000000000000e+02 5.210000000000000000e+02 5.220000000000000000e+02 5.230000000000000000e+02 5.240000000000000000e+02 5.250000000000000000e+02 5.260000000000000000e+02 5.270000000000000000e+02 5.280000000000000000e+02 5.290000000000000000e+02 5.300000000000000000e+02 5.310000000000000000e+02 5.320000000000000000e+02 5.330000000000000000e+02 5.340000000000000000e+02 5.350000000000000000e+02 5.360000000000000000e+02 5.370000000000000000e+02 5.380000000000000000e+02 5.390000000000000000e+02 5.400000000000000000e+02 5.410000000000000000e+02 5.420000000000000000e+02 5.430000000000000000e+02 5.440000000000000000e+02 5.450000000000000000e+02 5.460000000000000000e+02 5.470000000000000000e+02 5.480000000000000000e+02 5.490000000000000000e+02 5.500000000000000000e+02 5.510000000000000000e+02 5.520000000000000000e+02 5.530000000000000000e+02 5.540000000000000000e+02 5.550000000000000000e+02 5.560000000000000000e+02 5.570000000000000000e+02 5.580000000000000000e+02 5.590000000000000000e+02 5.600000000000000000e+02 5.610000000000000000e+02 5.620000000000000000e+02 5.630000000000000000e+02 5.640000000000000000e+02 5.650000000000000000e+02 5.660000000000000000e+02 5.670000000000000000e+02 5.680000000000000000e+02 5.690000000000000000e+02 5.700000000000000000e+02 5.710000000000000000e+02 5.720000000000000000e+02 5.730000000000000000e+02 5.740000000000000000e+02 5.750000000000000000e+02 5.760000000000000000e+02 5.770000000000000000e+02 5.780000000000000000e+02 5.790000000000000000e+02 5.800000000000000000e+02 5.810000000000000000e+02 5.820000000000000000e+02 5.830000000000000000e+02 5.840000000000000000e+02 5.850000000000000000e+02 5.860000000000000000e+02 5.870000000000000000e+02 5.880000000000000000e+02 5.890000000000000000e+02 5.900000000000000000e+02 5.910000000000000000e+02 5.920000000000000000e+02 5.930000000000000000e+02 5.940000000000000000e+02 5.950000000000000000e+02 5.960000000000000000e+02 5.970000000000000000e+02 5.980000000000000000e+02 5.990000000000000000e+02 6.000000000000000000e+02 6.010000000000000000e+02 6.020000000000000000e+02 6.030000000000000000e+02 6.040000000000000000e+02 6.050000000000000000e+02 6.060000000000000000e+02 6.070000000000000000e+02 6.080000000000000000e+02 6.090000000000000000e+02 6.100000000000000000e+02 6.110000000000000000e+02 6.120000000000000000e+02 6.130000000000000000e+02 6.140000000000000000e+02 6.150000000000000000e+02 6.160000000000000000e+02 6.170000000000000000e+02 6.180000000000000000e+02 6.190000000000000000e+02 6.200000000000000000e+02 6.210000000000000000e+02 6.220000000000000000e+02 6.230000000000000000e+02 6.240000000000000000e+02 6.250000000000000000e+02 6.260000000000000000e+02 6.270000000000000000e+02 6.280000000000000000e+02 6.290000000000000000e+02 6.300000000000000000e+02 6.310000000000000000e+02 6.320000000000000000e+02 6.330000000000000000e+02 6.340000000000000000e+02 6.350000000000000000e+02 6.360000000000000000e+02 6.370000000000000000e+02 6.380000000000000000e+02 6.390000000000000000e+02 6.400000000000000000e+02 6.410000000000000000e+02 6.420000000000000000e+02 6.430000000000000000e+02 6.440000000000000000e+02 6.450000000000000000e+02 6.460000000000000000e+02 6.470000000000000000e+02 6.480000000000000000e+02 6.490000000000000000e+02 6.500000000000000000e+02 6.510000000000000000e+02 6.520000000000000000e+02 6.530000000000000000e+02 6.540000000000000000e+02 6.550000000000000000e+02 6.560000000000000000e+02 6.570000000000000000e+02 6.580000000000000000e+02 6.590000000000000000e+02 6.600000000000000000e+02 6.610000000000000000e+02 6.620000000000000000e+02 6.630000000000000000e+02 6.640000000000000000e+02 6.650000000000000000e+02 6.660000000000000000e+02 6.670000000000000000e+02 6.680000000000000000e+02 6.690000000000000000e+02 6.700000000000000000e+02 6.710000000000000000e+02 6.720000000000000000e+02 6.730000000000000000e+02 6.740000000000000000e+02 6.750000000000000000e+02 6.760000000000000000e+02 6.770000000000000000e+02 6.780000000000000000e+02 6.790000000000000000e+02 6.800000000000000000e+02 6.810000000000000000e+02 6.820000000000000000e+02 6.830000000000000000e+02 6.840000000000000000e+02 6.850000000000000000e+02 6.860000000000000000e+02 6.870000000000000000e+02 6.880000000000000000e+02 6.890000000000000000e+02 6.900000000000000000e+02 6.910000000000000000e+02 6.920000000000000000e+02 6.930000000000000000e+02 6.940000000000000000e+02 6.950000000000000000e+02 6.960000000000000000e+02 6.970000000000000000e+02 6.980000000000000000e+02 6.990000000000000000e+02 7.000000000000000000e+02 7.010000000000000000e+02 7.020000000000000000e+02 7.030000000000000000e+02 7.040000000000000000e+02 7.050000000000000000e+02 7.060000000000000000e+02 7.070000000000000000e+02 7.080000000000000000e+02 7.090000000000000000e+02 7.100000000000000000e+02 7.110000000000000000e+02 7.120000000000000000e+02 7.130000000000000000e+02 7.140000000000000000e+02 7.150000000000000000e+02 7.160000000000000000e+02 7.170000000000000000e+02 7.180000000000000000e+02 7.190000000000000000e+02 7.200000000000000000e+02 7.210000000000000000e+02 7.220000000000000000e+02 7.230000000000000000e+02 7.240000000000000000e+02 7.250000000000000000e+02 7.260000000000000000e+02 7.270000000000000000e+02 7.280000000000000000e+02 7.290000000000000000e+02 7.300000000000000000e+02 7.310000000000000000e+02 7.320000000000000000e+02 7.330000000000000000e+02 7.340000000000000000e+02 7.350000000000000000e+02 7.360000000000000000e+02 7.370000000000000000e+02 7.380000000000000000e+02 7.390000000000000000e+02 7.400000000000000000e+02 7.410000000000000000e+02 7.420000000000000000e+02 7.430000000000000000e+02 7.440000000000000000e+02 7.450000000000000000e+02 7.460000000000000000e+02 7.470000000000000000e+02 7.480000000000000000e+02 7.490000000000000000e+02 7.500000000000000000e+02 7.510000000000000000e+02 7.520000000000000000e+02 7.530000000000000000e+02 7.540000000000000000e+02 7.550000000000000000e+02 7.560000000000000000e+02 7.570000000000000000e+02 7.580000000000000000e+02 7.590000000000000000e+02 7.600000000000000000e+02 7.610000000000000000e+02 7.620000000000000000e+02 7.630000000000000000e+02 7.640000000000000000e+02 7.650000000000000000e+02 7.660000000000000000e+02 7.670000000000000000e+02 7.680000000000000000e+02 7.690000000000000000e+02 7.700000000000000000e+02 7.710000000000000000e+02 7.720000000000000000e+02 7.730000000000000000e+02 7.740000000000000000e+02 7.750000000000000000e+02 7.760000000000000000e+02 7.770000000000000000e+02 7.780000000000000000e+02 7.790000000000000000e+02 7.800000000000000000e+02 7.810000000000000000e+02 7.820000000000000000e+02 7.830000000000000000e+02 7.840000000000000000e+02 7.850000000000000000e+02 7.860000000000000000e+02 7.870000000000000000e+02 7.880000000000000000e+02 7.890000000000000000e+02 7.900000000000000000e+02 7.910000000000000000e+02 7.920000000000000000e+02 7.930000000000000000e+02 7.940000000000000000e+02 7.950000000000000000e+02 7.960000000000000000e+02 7.970000000000000000e+02 7.980000000000000000e+02 7.990000000000000000e+02 8.000000000000000000e+02 8.010000000000000000e+02 8.020000000000000000e+02 8.030000000000000000e+02 8.040000000000000000e+02 8.050000000000000000e+02 8.060000000000000000e+02 8.070000000000000000e+02 8.080000000000000000e+02 8.090000000000000000e+02 8.100000000000000000e+02 8.110000000000000000e+02 8.120000000000000000e+02 8.130000000000000000e+02 8.140000000000000000e+02 8.150000000000000000e+02 8.160000000000000000e+02 8.170000000000000000e+02 8.180000000000000000e+02 8.190000000000000000e+02 8.200000000000000000e+02 8.210000000000000000e+02 8.220000000000000000e+02 8.230000000000000000e+02 8.240000000000000000e+02 8.250000000000000000e+02 8.260000000000000000e+02 8.270000000000000000e+02 8.280000000000000000e+02 8.290000000000000000e+02 8.300000000000000000e+02 8.310000000000000000e+02 8.320000000000000000e+02 8.330000000000000000e+02 8.340000000000000000e+02 8.350000000000000000e+02 8.360000000000000000e+02 8.370000000000000000e+02 8.380000000000000000e+02 8.390000000000000000e+02 8.400000000000000000e+02 8.410000000000000000e+02 8.420000000000000000e+02 8.430000000000000000e+02 8.440000000000000000e+02 8.450000000000000000e+02 8.460000000000000000e+02 8.470000000000000000e+02 8.480000000000000000e+02 8.490000000000000000e+02 8.500000000000000000e+02 8.510000000000000000e+02 8.520000000000000000e+02 8.530000000000000000e+02 8.540000000000000000e+02 8.550000000000000000e+02 8.560000000000000000e+02 8.570000000000000000e+02 8.580000000000000000e+02 8.590000000000000000e+02 8.600000000000000000e+02 8.610000000000000000e+02 8.620000000000000000e+02 8.630000000000000000e+02 8.640000000000000000e+02 8.650000000000000000e+02 8.660000000000000000e+02 8.670000000000000000e+02 8.680000000000000000e+02 8.690000000000000000e+02 8.700000000000000000e+02 8.710000000000000000e+02 8.720000000000000000e+02 8.730000000000000000e+02 8.740000000000000000e+02 8.750000000000000000e+02 8.760000000000000000e+02 8.770000000000000000e+02 8.780000000000000000e+02 8.790000000000000000e+02 8.800000000000000000e+02 8.810000000000000000e+02 8.820000000000000000e+02 8.830000000000000000e+02 8.840000000000000000e+02 8.850000000000000000e+02 8.860000000000000000e+02 8.870000000000000000e+02 8.880000000000000000e+02 8.890000000000000000e+02 8.900000000000000000e+02 8.910000000000000000e+02 8.920000000000000000e+02 8.930000000000000000e+02 8.940000000000000000e+02 8.950000000000000000e+02 8.960000000000000000e+02 8.970000000000000000e+02 8.980000000000000000e+02 8.990000000000000000e+02 9.000000000000000000e+02 9.010000000000000000e+02 9.020000000000000000e+02 9.030000000000000000e+02 9.040000000000000000e+02 9.050000000000000000e+02 9.060000000000000000e+02 9.070000000000000000e+02 9.080000000000000000e+02 9.090000000000000000e+02 9.100000000000000000e+02 9.110000000000000000e+02 9.120000000000000000e+02 9.130000000000000000e+02 9.140000000000000000e+02 9.150000000000000000e+02 9.160000000000000000e+02 9.170000000000000000e+02 9.180000000000000000e+02 9.190000000000000000e+02 9.200000000000000000e+02 9.210000000000000000e+02 9.220000000000000000e+02 9.230000000000000000e+02 9.240000000000000000e+02 9.250000000000000000e+02 9.260000000000000000e+02 9.270000000000000000e+02 9.280000000000000000e+02 9.290000000000000000e+02 9.300000000000000000e+02 9.310000000000000000e+02 9.320000000000000000e+02 9.330000000000000000e+02 9.340000000000000000e+02 9.350000000000000000e+02 9.360000000000000000e+02 9.370000000000000000e+02 9.380000000000000000e+02 9.390000000000000000e+02 9.400000000000000000e+02 9.410000000000000000e+02 9.420000000000000000e+02 9.430000000000000000e+02 9.440000000000000000e+02 9.450000000000000000e+02 9.460000000000000000e+02 9.470000000000000000e+02 9.480000000000000000e+02 9.490000000000000000e+02 9.500000000000000000e+02 9.510000000000000000e+02 9.520000000000000000e+02 9.530000000000000000e+02 9.540000000000000000e+02 9.550000000000000000e+02 9.560000000000000000e+02 9.570000000000000000e+02 9.580000000000000000e+02 9.590000000000000000e+02 9.600000000000000000e+02 9.610000000000000000e+02 9.620000000000000000e+02 9.630000000000000000e+02 9.640000000000000000e+02 9.650000000000000000e+02 9.660000000000000000e+02 9.670000000000000000e+02 9.680000000000000000e+02 9.690000000000000000e+02 9.700000000000000000e+02 9.710000000000000000e+02 9.720000000000000000e+02 9.730000000000000000e+02 9.740000000000000000e+02 9.750000000000000000e+02 9.760000000000000000e+02 9.770000000000000000e+02 9.780000000000000000e+02 9.790000000000000000e+02 9.800000000000000000e+02 9.810000000000000000e+02 9.820000000000000000e+02 9.830000000000000000e+02 9.840000000000000000e+02 9.850000000000000000e+02 9.860000000000000000e+02 9.870000000000000000e+02 9.880000000000000000e+02 9.890000000000000000e+02 9.900000000000000000e+02 9.910000000000000000e+02 9.920000000000000000e+02 9.930000000000000000e+02 9.940000000000000000e+02 9.950000000000000000e+02 9.960000000000000000e+02 9.970000000000000000e+02 9.980000000000000000e+02 9.990000000000000000e+02
1.000000000000000000e+00 1.000000000000000000e+00 1.000000000000000000e+00 1.000000000000000000e+00 1.000000000000000000e+00 1.000000000000000000e+00 1.000000000000000000e+00 1.000000000000000000e+00 1.000000000000000000e+00 1.000000000000000000e+00 1.000000000000000000e+00 1.000000000000000000e+00 1.000000000000000000e+00 1.000000000000000000e+00 1.000000000000000000e+00 1.000000000000000000e+00 1.000000000000000000e+00 1.000000000000000000e+00 1.000000000000000000e+00 1.000000000000000000e+00 1.000000000000000000e+00 1.000000000000000000e+00 1.000000000000000000e+00 1.000000000000000000e+00 1.000000000000000000e+00 1.000000000000000000e+00 1.000000000000000000e+00 1.000000000000000000e+00 1.000000000000000000e+00 1.000000000000000000e+00 1.000000000000000000e+00 1.000000000000000000e+00 1.000000000000000000e+00 1.000000000000000000e+00 1.000000000000000000e+00 1.000000000000000000e+00 1.000000000000000000e+00 1.000000000000000000e+00 1.000000000000000000e+00 1.000000000000000000e+00 1.000000000000000000e+00 1.000000000000000000e+00 1.000000000000000000e+00 1.000000000000000000e+00 1.000000000000000000e+00 1.000000000000000000e+00 1.000000000000000000e+00 1.000000000000000000e+00 1.000000000000000000e+00 1.000000000000000000e+00 1.000000000000000000e+00 1.000000000000000000e+00 1.000000000000000000e+00 1.000000000000000000e+00 1.000000000000000000e+00 1.000000000000000000e+00 1.000000000000000000e+00 1.000000000000000000e+00 1.000000000000000000e+00 1.000000000000000000e+00 1.000000000000000000e+00 1.000000000000000000e+00 1.000000000000000000e+00 1.000000000000000000e+00 1.000000000000000000e+00 1.000000000000000000e+00 1.000000000000000000e+00 1.000000000000000000e+00 1.000000000000000000e+00 1.000000000000000000e+00 1.000000000000000000e+00 1.000000000000000000e+00 1.000000000000000000e+00 1.000000000000000000e+00 1.000000000000000000e+00 1.000000000000000000e+00 1.000000000000000000e+00 1.000000000000000000e+00 1.000000000000000000e+00 1.000000000000000000e+00 1.000000000000000000e+00 1.000000000000000000e+00 1.000000000000000000e+00 1.000000000000000000e+00 1.000000000000000000e+00 1.000000000000000000e+00 1.000000000000000000e+00 1.000000000000000000e+00 1.000000000000000000e+00 1.000000000000000000e+00 1.000000000000000000e+00 1.000000000000000000e+00 1.000000000000000000e+00 1.000000000000000000e+00 1.000000000000000000e+00 1.000000000000000000e+00 1.000000000000000000e+00 1.000000000000000000e+00 1.000000000000000000e+00 1.000000000000000000e+00 1.000000000000000000e+00 1.000000000000000000e+00 1.000000000000000000e+00 1.000000000000000000e+00 1.000000000000000000e+00 1.000000000000000000e+00 1.000000000000000000e+00 1.000000000000000000e+00 1.000000000000000000e+00 1.000000000000000000e+00 1.000000000000000000e+00 1.000000000000000000e+00 1.000000000000000000e+00 1.000000000000000000e+00 1.000000000000000000e+00 1.000000000000000000e+00 1.000000000000000000e+00 1.000000000000000000e+00 1.000000000000000000e+00 1.000000000000000000e+00 1.000000000000000000e+00 1.000000000000000000e+00 1.000000000000000000e+00 1.000000000000000000e+00 1.000000000000000000e+00 1.000000000000000000e+00 1.000000000000000000e+00 1.000000000000000000e+00 1.000000000000000000e+00 1.000000000000000000e+00 1.000000000000000000e+00 1.000000000000000000e+00 1.000000000000000000e+00 1.000000000000000000e+00 1.000000000000000000e+00 1.000000000000000000e+00 1.000000000000000000e+00 1.000000000000000000e+00 1.000000000000000000e+00 1.000000000000000000e+00 1.000000000000000000e+00 1.000000000000000000e+00 1.000000000000000000e+00 1.000000000000000000e+00 1.000000000000000000e+00 1.000000000000000000e+00 1.000000000000000000e+00 1.000000000000000000e+00 1.000000000000000000e+00 1.000000000000000000e+00 1.000000000000000000e+00 1.000000000000000000e+00 1.000000000000000000e+00 1.000000000000000000e+00 1.000000000000000000e+00 1.000000000000000000e+00 1.000000000000000000e+00 1.000000000000000000e+00 1.000000000000000000e+00 1.000000000000000000e+00 1.000000000000000000e+00 1.000000000000000000e+00 1.000000000000000000e+00 1.000000000000000000e+00 1.000000000000000000e+00 1.000000000000000000e+00 1.000000000000000000e+00 1.000000000000000000e+00 1.000000000000000000e+00 1.000000000000000000e+00 1.000000000000000000e+00 1.000000000000000000e+00 1.000000000000000000e+00 1.000000000000000000e+00 1.000000000000000000e+00 1.000000000000000000e+00 1.000000000000000000e+00 1.000000000000000000e+00 1.000000000000000000e+00 1.000000000000000000e+00 1.000000000000000000e+00 1.000000000000000000e+00 1.000000000000000000e+00 1.000000000000000000e+00 1.000000000000000000e+00 1.000000000000000000e+00 1.000000000000000000e+00 1.000000000000000000e+00 1.000000000000000000e+00 1.000000000000000000e+00 1.000000000000000000e+00 1.000000000000000000e+00 1.000000000000000000e+00 1.000000000000000000e+00 1.000000000000000000e+00 1.000000000000000000e+00 1.000000000000000000e+00 1.000000000000000000e+00 1.000000000000000000e+00 1.000000000000000000e+00 1.000000000000000000e+00 1.000000000000000000e+00 1.000000000000000000e+00 1.000000000000000000e+00 1.000000000000000000e+00 1.000000000000000000e+00 1.000000000000000000e+00 1.000000000000000000e+00 1.000000000000000000e+00 1.000000000000000000e+00 1.000000000000000000e+00 1.000000000000000000e+00 1.000000000000000000e+00 1.000000000000000000e+00 1.000000000000000000e+00 1.000000000000000000e+00 1.000000000000000000e+00 1.000000000000000000e+00 1.000000000000000000e+00 1.000000000000000000e+00 1.000000000000000000e+00 1.000000000000000000e+00 1.000000000000000000e+00 1.000000000000000000e+00 1.000000000000000000e+00 1.000000000000000000e+00 1.000000000000000000e+00 1.000000000000000000e+00 1.000000000000000000e+00 1.000000000000000000e+00 1.000000000000000000e+00 1.000000000000000000e+00 1.000000000000000000e+00 1.000000000000000000e+00 1.000000000000000000e+00 1.000000000000000000e+00 1.000000000000000000e+00 1.000000000000000000e+00 1.000000000000000000e+00 1.000000000000000000e+00 1.000000000000000000e+00 1.000000000000000000e+00 1.000000000000000000e+00 1.000000000000000000e+00 1.000000000000000000e+00 1.000000000000000000e+00 1.000000000000000000e+00 1.000000000000000000e+00 1.000000000000000000e+00 1.000000000000000000e+00 1.000000000000000000e+00 1.000000000000000000e+00 1.000000000000000000e+00 1.000000000000000000e+00 1.000000000000000000e+00 1.000000000000000000e+00 1.000000000000000000e+00 1.000000000000000000e+00 1.000000000000000000e+00 1.000000000000000000e+00 1.000000000000000000e+00 1.000000000000000000e+00 1.000000000000000000e+00 1.000000000000000000e+00 1.000000000000000000e+00 1.000000000000000000e+00 1.000000000000000000e+00 1.000000000000000000e+00 1.000000000000000000e+00 1.000000000000000000e+00 1.000000000000000000e+00 1.000000000000000000e+00 1.000000000000000000e+00 1.000000000000000000e+00 1.000000000000000000e+00 1.000000000000000000e+00 1.000000000000000000e+00 1.000000000000000000e+00 1.000000000000000000e+00 1.000000000000000000e+00 1.000000000000000000e+00 1.000000000000000000e+00 1.000000000000000000e+00 1.000000000000000000e+00 1.000000000000000000e+00 1.000000000000000000e+00 1.000000000000000000e+00 1.000000000000000000e+00 1.000000000000000000e+00 1.000000000000000000e+00 1.000000000000000000e+00 1.000000000000000000e+00 1.000000000000000000e+00 1.000000000000000000e+00 1.000000000000000000e+00 1.000000000000000000e+00 1.000000000000000000e+00 1.000000000000000000e+00 1.000000000000000000e+00 1.000000000000000000e+00 1.000000000000000000e+00 1.000000000000000000e+00 1.000000000000000000e+00 1.000000000000000000e+00 1.000000000000000000e+00 1.000000000000000000e+00 1.000000000000000000e+00 1.000000000000000000e+00 1.000000000000000000e+00 1.000000000000000000e+00 1.000000000000000000e+00 1.000000000000000000e+00 1.000000000000000000e+00 1.000000000000000000e+00 1.000000000000000000e+00 1.000000000000000000e+00 1.000000000000000000e+00 1.000000000000000000e+00 1.000000000000000000e+00 1.000000000000000000e+00 1.000000000000000000e+00 1.000000000000000000e+00 1.000000000000000000e+00 1.000000000000000000e+00 1.000000000000000000e+00 1.000000000000000000e+00 1.000000000000000000e+00 1.000000000000000000e+00 1.000000000000000000e+00 1.000000000000000000e+00 1.000000000000000000e+00 1.000000000000000000e+00 1.000000000000000000e+00 1.000000000000000000e+00 1.000000000000000000e+00 1.000000000000000000e+00 1.000000000000000000e+00 1.000000000000000000e+00 1.000000000000000000e+00 1.000000000000000000e+00 1.000000000000000000e+00 1.000000000000000000e+00 1.000000000000000000e+00 1.000000000000000000e+00 1.000000000000000000e+00 1.000000000000000000e+00 1.000000000000000000e+00 1.000000000000000000e+00 1.000000000000000000e+00 1.000000000000000000e+00 1.000000000000000000e+00 1.000000000000000000e+00 1.000000000000000000e+00 1.000000000000000000e+00 1.000000000000000000e+00 1.000000000000000000e+00 1.000000000000000000e+00 1.000000000000000000e+00 1.000000000000000000e+00 1.000000000000000000e+00 1.000000000000000000e+00 1.000000000000000000e+00 1.000000000000000000e+00 1.000000000000000000e+00 1.000000000000000000e+00 1.000000000000000000e+00 1.000000000000000000e+00 1.000000000000000000e+00 1.000000000000000000e+00 1.000000000000000000e+00 1.000000000000000000e+00 1.000000000000000000e+00 1.000000000000000000e+00 1.000000000000000000e+00 1.000000000000000000e+00 1.000000000000000000e+00 1.000000000000000000e+00 1.000000000000000000e+00 1.000000000000000000e+00 1.000000000000000000e+00 1.000000000000000000e+00 1.000000000000000000e+00 1.000000000000000000e+00 1.000000000000000000e+00 1.000000000000000000e+00 1.000000000000000000e+00 1.000000000000000000e+00 1.000000000000000000e+00 1.000000000000000000e+00 1.000000000000000000e+00 1.000000000000000000e+00 1.000000000000000000e+00 1.000000000000000000e+00 1.000000000000000000e+00 1.000000000000000000e+00 1.000000000000000000e+00 1.000000000000000000e+00 1.000000000000000000e+00 1.000000000000000000e+00 1.000000000000000000e+00 1.000000000000000000e+00 1.000000000000000000e+00 1.000000000000000000e+00 1.000000000000000000e+00 1.000000000000000000e+00 1.000000000000000000e+00 1.000000000000000000e+00 1.000000000000000000e+00 1.000000000000000000e+00 1.000000000000000000e+00 1.000000000000000000e+00 1.000000000000000000e+00 1.000000000000000000e+00 1.000000000000000000e+00 1.000000000000000000e+00 1.000000000000000000e+00 1.000000000000000000e+00 1.000000000000000000e+00 1.000000000000000000e+00 1.000000000000000000e+00 1.000000000000000000e+00 1.000000000000000000e+00 1.000000000000000000e+00 1.000000000000000000e+00 1.000000000000000000e+00 1.000000000000000000e+00 1.000000000000000000e+00 1.000000000000000000e+00 1.000000000000000000e+00 1.000000000000000000e+00 1.000000000000000000e+00 1.000000000000000000e+00 1.000000000000000000e+00 1.000000000000000000e+00 1.000000000000000000e+00 1.000000000000000000e+00 1.000000000000000000e+00 1.000000000000000000e+00 1.000000000000000000e+00 1.000000000000000000e+00 1.000000000000000000e+00 1.000000000000000000e+00 1.000000000000000000e+00 1.000000000000000000e+00 1.000000000000000000e+00 1.000000000000000000e+00 1.000000000000000000e+00 1.000000000000000000e+00 1.000000000000000000e+00 1.000000000000000000e+00 1.000000000000000000e+00 1.000000000000000000e+00 1.000000000000000000e+00 1.000000000000000000e+00 1.000000000000000000e+00 1.000000000000000000e+00 1.000000000000000000e+00 1.000000000000000000e+00 1.000000000000000000e+00 1.000000000000000000e+00 1.000000000000000000e+00 1.000000000000000000e+00 1.000000000000000000e+00 1.000000000000000000e+00 1.000000000000000000e+00 1.000000000000000000e+00 1.000000000000000000e+00 1.000000000000000000e+00 1.000000000000000000e+00 1.000000000000000000e+00 1.000000000000000000e+00 1.000000000000000000e+00 1.000000000000000000e+00 1.000000000000000000e+00 1.000000000000000000e+00 1.000000000000000000e+00 1.000000000000000000e+00 1.000000000000000000e+00 1.000000000000000000e+00 1.000000000000000000e+00 1.000000000000000000e+00 1.000000000000000000e+00 1.000000000000000000e+00 1.000000000000000000e+00 1.000000000000000000e+00 1.000000000000000000e+00 1.000000000000000000e+00 1.000000000000000000e+00 1.000000000000000000e+00 1.000000000000000000e+00 1.000000000000000000e+00 1.000000000000000000e+00 1.000000000000000000e+00 1.000000000000000000e+00 1.000000000000000000e+00 1.000000000000000000e+00 1.000000000000000000e+00 1.000000000000000000e+00 1.000000000000000000e+00 1.000000000000000000e+00 1.000000000000000000e+00 1.000000000000000000e+00 1.000000000000000000e+00 1.000000000000000000e+00 1.000000000000000000e+00 1.000000000000000000e+00 1.000000000000000000e+00 1.000000000000000000e+00 1.000000000000000000e+00 1.000000000000000000e+00 1.000000000000000000e+00 1.000000000000000000e+00 1.000000000000000000e+00 1.000000000000000000e+00 1.000000000000000000e+00 1.000000000000000000e+00 1.000000000000000000e+00 1.000000000000000000e+00 1.000000000000000000e+00 1.000000000000000000e+00 1.000000000000000000e+00 1.000000000000000000e+00 1.000000000000000000e+00 1.000000000000000000e+00 1.000000000000000000e+00 1.000000000000000000e+00 1.000000000000000000e+00 1.000000000000000000e+00 1.000000000000000000e+00 1.000000000000000000e+00 1.000000000000000000e+00 1.000000000000000000e+00 1.000000000000000000e+00 1.000000000000000000e+00 1.000000000000000000e+00 1.000000000000000000e+00 1.000000000000000000e+00 1.000000000000000000e+00 1.000000000000000000e+00 1.000000000000000000e+00 1.000000000000000000e+00 1.000000000000000000e+00 1.000000000000000000e+00 1.000000000000000000e+00 1.000000000000000000e+00 1.000000000000000000e+00 1.000000000000000000e+00 1.000000000000000000e+00 1.000000000000000000e+00 1.000000000000000000e+00 1.000000000000000000e+00 1.000000000000000000e+00 1.000000000000000000e+00 1.000000000000000000e+00 1.000000000000000000e+00 1.000000000000000000e+00 1.000000000000000000e+00 1.000000000000000000e+00 1.000000000000000000e+00 1.000000000000000000e+00 1.000000000000000000e+00 1.000000000000000000e+00 1.000000000000000000e+00 1.000000000000000000e+00 1.000000000000000000e+00 1.000000000000000000e+00 1.000000000000000000e+00 1.000000000000000000e+00 1.000000000000000000e+00 1.000000000000000000e+00 1.000000000000000000e+00 1.000000000000000000e+00 1.000000000000000000e+00 1.000000000000000000e+00 1.000000000000000000e+00 1.000000000000000000e+00 1.000000000000000000e+00 1.000000000000000000e+00 1.000000000000000000e+00 1.000000000000000000e+00 1.000000000000000000e+00 1.000000000000000000e+00 1.000000000000000000e+00 1.000000000000000000e+00 1.000000000000000000e+00 1.000000000000000000e+00 1.000000000000000000e+00 1.000000000000000000e+00 1.000000000000000000e+00 1.000000000000000000e+00 1.000000000000000000e+00 1.000000000000000000e+00 1.000000000000000000e+00 1.000000000000000000e+00 1.000000000000000000e+00 1.000000000000000000e+00 1.000000000000000000e+00 1.000000000000000000e+00 1.000000000000000000e+00 1.000000000000000000e+00 1.000000000000000000e+00 1.000000000000000000e+00 1.000000000000000000e+00 1.000000000000000000e+00 1.000000000000000000e+00 1.000000000000000000e+00 1.000000000000000000e+00 1.000000000000000000e+00 1.000000000000000000e+00 1.000000000000000000e+00 1.000000000000000000e+00 1.000000000000000000e+00 1.000000000000000000e+00 1.000000000000000000e+00 1.000000000000000000e+00 1.000000000000000000e+00 1.000000000000000000e+00 1.000000000000000000e+00 1.000000000000000000e+00 1.000000000000000000e+00 1.000000000000000000e+00 1.000000000000000000e+00 1.000000000000000000e+00 1.000000000000000000e+00 1.000000000000000000e+00 1.000000000000000000e+00 1.000000000000000000e+00 1.000000000000000000e+00 1.000000000000000000e+00 1.000000000000000000e+00 1.000000000000000000e+00 1.000000000000000000e+00 1.000000000000000000e+00 1.000000000000000000e+00 1.000000000000000000e+00 1.000000000000000000e+00 1.000000000000000000e+00 1.000000000000000000e+00 1.000000000000000000e+00 1.000000000000000000e+00 1.000000000000000000e+00 1.000000000000000000e+00 1.000000000000000000e+00 1.000000000000000000e+00 1.000000000000000000e+00 1.000000000000000000e+00 1.000000000000000000e+00 1.000000000000000000e+00 1.000000000000000000e+00 1.000000000000000000e+00 1.000000000000000000e+00 1.000000000000000000e+00 1.000000000000000000e+00 1.000000000000000000e+00 1.000000000000000000e+00 1.000000000000000000e+00 1.000000000000000000e+00 1.000000000000000000e+00 1.000000000000000000e+00 1.000000000000000000e+00 1.000000000000000000e+00 1.000000000000000000e+00 1.000000000000000000e+00 1.000000000000000000e+00 1.000000000000000000e+00 1.000000000000000000e+00 1.000000000000000000e+00 1.000000000000000000e+00 1.000000000000000000e+00 1.000000000000000000e+00 1.000000000000000000e+00 1.000000000000000000e+00 1.000000000000000000e+00 1.000000000000000000e+00 1.000000000000000000e+00 1.000000000000000000e+00 1.000000000000000000e+00 1.000000000000000000e+00 1.000000000000000000e+00 1.000000000000000000e+00 1.000000000000000000e+00 1.000000000000000000e+00 1.000000000000000000e+00 1.000000000000000000e+00 1.000000000000000000e+00 1.000000000000000000e+00 1.000000000000000000e+00 1.000000000000000000e+00 1.000000000000000000e+00 1.000000000000000000e+00 1.000000000000000000e+00 1.000000000000000000e+00 1.000000000000000000e+00 1.000000000000000000e+00 1.000000000000000000e+00 1.000000000000000000e+00 1.000000000000000000e+00 1.000000000000000000e+00 1.000000000000000000e+00 1.000000000000000000e+00 1.000000000000000000e+00 1.000000000000000000e+00 1.000000000000000000e+00 1.000000000000000000e+00 1.000000000000000000e+00 1.000000000000000000e+00 1.000000000000000000e+00 1.000000000000000000e+00 1.000000000000000000e+00 1.000000000000000000e+00 1.000000000000000000e+00 1.000000000000000000e+00 1.000000000000000000e+00 1.000000000000000000e+00 1.000000000000000000e+00 1.000000000000000000e+00 1.000000000000000000e+00 1.000000000000000000e+00 1.000000000000000000e+00 1.000000000000000000e+00 1.000000000000000000e+00 1.000000000000000000e+00 1.000000000000000000e+00 1.000000000000000000e+00 1.000000000000000000e+00 1.000000000000000000e+00 1.000000000000000000e+00 1.000000000000000000e+00 1.000000000000000000e+00 1.000000000000000000e+00 1.000000000000000000e+00 1.000000000000000000e+00 1.000000000000000000e+00 1.000000000000000000e+00 1.000000000000000000e+00 1.000000000000000000e+00 1.000000000000000000e+00 1.000000000000000000e+00 1.000000000000000000e+00 1.000000000000000000e+00 1.000000000000000000e+00 1.000000000000000000e+00 1.000000000000000000e+00 1.000000000000000000e+00 1.000000000000000000e+00 1.000000000000000000e+00 1.000000000000000000e+00 1.000000000000000000e+00 1.000000000000000000e+00 1.000000000000000000e+00 1.000000000000000000e+00 1.000000000000000000e+00 1.000000000000000000e+00 1.000000000000000000e+00 1.000000000000000000e+00 1.000000000000000000e+00 1.000000000000000000e+00 1.000000000000000000e+00 1.000000000000000000e+00 1.000000000000000000e+00 1.000000000000000000e+00 1.000000000000000000e+00 1.000000000000000000e+00 1.000000000000000000e+00 1.000000000000000000e+00 1.000000000000000000e+00 1.000000000000000000e+00 1.000000000000000000e+00 1.000000000000000000e+00 1.000000000000000000e+00 1.000000000000000000e+00 1.000000000000000000e+00 1.000000000000000000e+00 1.000000000000000000e+00 1.000000000000000000e+00 1.000000000000000000e+00 1.000000000000000000e+00 1.000000000000000000e+00 1.000000000000000000e+00 1.000000000000000000e+00 1.000000000000000000e+00 1.000000000000000000e+00 1.000000000000000000e+00 1.000000000000000000e+00 1.000000000000000000e+00 1.000000000000000000e+00 1.000000000000000000e+00 1.000000000000000000e+00 1.000000000000000000e+00 1.000000000000000000e+00 1.000000000000000000e+00 1.000000000000000000e+00 1.000000000000000000e+00 1.000000000000000000e+00 1.000000000000000000e+00 1.000000000000000000e+00 1.000000000000000000e+00 1.000000000000000000e+00 1.000000000000000000e+00 1.000000000000000000e+00 1.000000000000000000e+00 1.000000000000000000e+00 1.000000000000000000e+00 1.000000000000000000e+00 1.000000000000000000e+00 1.000000000000000000e+00 1.000000000000000000e+00 1.000000000000000000e+00 1.000000000000000000e+00 1.000000000000000000e+00 1.000000000000000000e+00 1.000000000000000000e+00 1.000000000000000000e+00 1.000000000000000000e+00 1.000000000000000000e+00 1.000000000000000000e+00 1.000000000000000000e+00 1.000000000000000000e+00 1.000000000000000000e+00 1.000000000000000000e+00 1.000000000000000000e+00 1.000000000000000000e+00 1.000000000000000000e+00 1.000000000000000000e+00 1.000000000000000000e+00 1.000000000000000000e+00 1.000000000000000000e+00 1.000000000000000000e+00 1.000000000000000000e+00 1.000000000000000000e+00 1.000000000000000000e+00 1.000000000000000000e+00 1.000000000000000000e+00 1.000000000000000000e+00 1.000000000000000000e+00 1.000000000000000000e+00 1.000000000000000000e+00 1.000000000000000000e+00 1.000000000000000000e+00 1.000000000000000000e+00 1.000000000000000000e+00 1.000000000000000000e+00 1.000000000000000000e+00 1.000000000000000000e+00 1.000000000000000000e+00 1.000000000000000000e+00 1.000000000000000000e+00 1.000000000000000000e+00 1.000000000000000000e+00 1.000000000000000000e+00 1.000000000000000000e+00 1.000000000000000000e+00 1.000000000000000000e+00 1.000000000000000000e+00 1.000000000000000000e+00 1.000000000000000000e+00 1.000000000000000000e+00 1.000000000000000000e+00 1.000000000000000000e+00 1.000000000000000000e+00 1.000000000000000000e+00 1.000000000000000000e+00 1.000000000000000000e+00 1.000000000000000000e+00 1.000000000000000000e+00 1.000000000000000000e+00 1.000000000000000000e+00 1.000000000000000000e+00 1.000000000000000000e+00 1.000000000000000000e+00 1.000000000000000000e+00 1.000000000000000000e+00 1.000000000000000000e+00 1.000000000000000000e+00 1.000000000000000000e+00 1.000000000000000000e+00 1.000000000000000000e+00 1.000000000000000000e+00 1.000000000000000000e+00 1.000000000000000000e+00 1.000000000000000000e+00 1.000000000000000000e+00 1.000000000000000000e+00 1.000000000000000000e+00 1.000000000000000000e+00 1.000000000000000000e+00 1.000000000000000000e+00 1.000000000000000000e+00 1.000000000000000000e+00 1.000000000000000000e+00 1.000000000000000000e+00 1.000000000000000000e+00 1.000000000000000000e+00 1.000000000000000000e+00 1.000000000000000000e+00 1.000000000000000000e+00 1.000000000000000000e+00 1.000000000000000000e+00 1.000000000000000000e+00 1.000000000000000000e+00 1.000000000000000000e+00 1.000000000000000000e+00 1.000000000000000000e+00 1.000000000000000000e+00 1.000000000000000000e+00 1.000000000000000000e+00 1.000000000000000000e+00 1.000000000000000000e+00 1.000000000000000000e+00 1.000000000000000000e+00 1.000000000000000000e+00 1.000000000000000000e+00 1.000000000000000000e+00 1.000000000000000000e+00 1.000000000000000000e+00 1.000000000000000000e+00 1.000000000000000000e+00 1.000000000000000000e+00 1.000000000000000000e+00 1.000000000000000000e+00 1.000000000000000000e+00 1.000000000000000000e+00 1.000000000000000000e+00 1.000000000000000000e+00 1.000000000000000000e+00 1.000000000000000000e+00 1.000000000000000000e+00 1.000000000000000000e+00 1.000000000000000000e+00 1.000000000000000000e+00 1.000000000000000000e+00 1.000000000000000000e+00 1.000000000000000000e+00 1.000000000000000000e+00 1.000000000000000000e+00 1.000000000000000000e+00 1.000000000000000000e+00 1.000000000000000000e+00 1.000000000000000000e+00 1.000000000000000000e+00 1.000000000000000000e+00 1.000000000000000000e+00 1.000000000000000000e+00 1.000000000000000000e+00 1.000000000000000000e+00 1.000000000000000000e+00 1.000000000000000000e+00 1.000000000000000000e+00 1.000000000000000000e+00 1.000000000000000000e+00 1.000000000000000000e+00 1.000000000000000000e+00 1.000000000000000000e+00 1.000000000000000000e+00 1.000000000000000000e+00 1.000000000000000000e+00 1.000000000000000000e+00 1.000000000000000000e+00 1.000000000000000000e+00 1.000000000000000000e+00 1.000000000000000000e+00 1.000000000000000000e+00 1.000000000000000000e+00 1.000000000000000000e+00 1.000000000000000000e+00 1.000000000000000000e+00 1.000000000000000000e+00 1.000000000000000000e+00 1.000000000000000000e+00 1.000000000000000000e+00 1.000000000000000000e+00 1.000000000000000000e+00 1.000000000000000000e+00 1.000000000000000000e+00 1.000000000000000000e+00 1.000000000000000000e+00 1.000000000000000000e+00 1.000000000000000000e+00 1.000000000000000000e+00 1.000000000000000000e+00 1.000000000000000000e+00 1.000000000000000000e+00 1.000000000000000000e+00 1.000000000000000000e+00 1.000000000000000000e+00 1.000000000000000000e+00 1.000000000000000000e+00 1.000000000000000000e+00 1.000000000000000000e+00 1.000000000000000000e+00 1.000000000000000000e+00 1.000000000000000000e+00 1.000000000000000000e+00 1.000000000000000000e+00 1.000000000000000000e+00 1.000000000000000000e+00 1.000000000000000000e+00 1.000000000000000000e+00 1.000000000000000000e+00 1.000000000000000000e+00
1.045762905950821907e-02 5.597250451162633089e-01 -2.200485737685848875e-01 7.386339418221825603e-01 5.164763361911887118e-01 5.431713197399645754e-01 6.260236820469038399e-01 2.785971900557298597e-01 5.221324027800010592e-01 5.211214030824167232e-01 1.078622806264285527e+00 -6.839642758085141550e-01 1.398024209567297671e+00 4.498006008908635445e-01 5.135758597559869632e-01 3.943256707541495931e-01 8.970535974112421318e-01 9.745689683839220407e-01 6.893537664778596197e-01 5.109008087542227239e-01 4.084455021814630271e-01 9.801338642855894623e-01 4.458203701933957652e-01 4.717167874944674377e-01 1.019365810753806306e-01 6.765253743694082944e-01 3.690628538973552697e-01 6.338527619790761403e-01 5.409885645466498971e-01 1.559327368574460193e+00 5.253188692715119457e-01 6.122882675098969552e-01 7.200129105802804963e-01 4.920486759573701185e-01 7.092003205638924834e-01 4.500056927679735308e-01 5.366265919058719192e-01 1.766238162691711855e+00 -6.613431090364334242e-02 5.289512763265966644e-01 -1.556838118461726095e-01 -5.602334654963395666e-01 7.500366448469674152e-01 2.250201763125610765e-01 2.704285842264501638e-01 5.253464778582378480e-01 7.384445221087383437e-01 5.091099495551981713e-01 6.031986577887278322e-01 2.274422309458942401e-02 2.220490050735953076e-03 8.305984499389630349e-01 6.730045013061053405e-01 4.565532163411605282e-01 4.547182131543817118e-01 1.828520773926764834e-02 4.764214541244101153e-01 5.368003825090804648e-01 1.885372046927709100e-01 4.615092432767859409e-01 9.119371306557111367e-01 5.382870238935620888e-01 5.308688725793081487e-01 4.458202808521810612e-01 6.817228444043484936e-01 5.563828203356420143e-01 5.139553387342523649e-01 3.015508011716861447e-01 5.512433441010057278e-01 -2.645813653796205006e-03 4.145900391224422998e-01 5.097608944690974475e-01 5.203117998611470618e-01 2.728575919221066029e-02 1.500232394472180930e+00 5.566581833398064338e-01 6.335146920747888322e-01 7.372925879078494615e-01 5.113607542990374899e-01 1.381360549003593396e+00 5.232028525525614926e-01 3.037233086090902479e-01 1.387423606728064751e+00 6.999746609732382385e-01 4.893404540432311767e-01 7.567617047381360873e-01 8.112915971546162952e-01 5.473119700343438421e-01 4.088098497551947430e-01 5.757112673065385433e-01 2.738564776947680635e-01 2.158246902708451653e+00 7.335925505106941635e-01 -3.587257650512627738e-02 5.557711084983520955e-01 5.217137704120623498e-01 5.522142717366522735e-01 4.746967039391835619e-01 1.894744345094675209e-01 6.753472999914268415e-01 1.592490693461602103e+00 6.885167331604802321e-01 5.487971859026443688e-01 7.378114056457223402e-01 8.599893743465599760e-01 -2.039782864962092823e+00 -1.205983605213973187e+00 5.443065218584303144e-01 5.765658356588191369e-01 9.721676764383094804e-01 5.431593343267112628e-01 4.500629791198353935e-01 1.660211174286552460e-01 4.820214967693970953e-01 5.198512223691273970e-01 5.053465858111325648e-01 5.060773671780357530e-01 5.489585721889579384e-01 8.997992443848298327e-01 5.123326036583887300e-01 1.297648065676715756e+00 5.571761279884291929e-01 5.675326926950031714e-01 -4.005756168295132036e-01 5.203755749774610084e-01 1.935217341721003903e+00 5.575886399950545913e-01 5.255658430139862336e-01 6.868970057282004493e-01 5.168412075583653786e-01 5.073599834820103904e-01 5.140536104317278143e-01 4.163310953480561238e-01 3.056292568694046197e-01 -2.558740070357652940e-01 -1.599880893251497127e-01 6.322165772458167021e-01 4.638541535039399089e-02 9.959866663707733769e-01 6.549978077868066073e-01 5.237423696580838506e-01 8.609534801111616842e-01 6.279855052734651943e-01 5.943835074469980828e-01 5.134639151120748979e-01 4.723032080148378137e-02 8.960028529039760770e-01 3.940751201431066247e-02 4.603418889977934914e-01 -8.758169461308916715e-01 7.743012703022187360e-01 -2.968306653879765888e-01 5.253463949216706785e-01 5.488601064544655905e-01 4.675535564124168042e-01 5.172664404934755877e-01 1.913090811853056739e+00 -8.384960729873147667e-02 8.114302739534091646e-01 6.959005670235716146e-01 5.211715170244372031e-01 4.146294157108015299e-01 5.043885102256749908e-01 5.136195418785772793e-01 1.085162093516034654e+00 1.706200062511382953e-01 8.475990505242791961e-01 3.976020427814001557e-01 5.521053296631489582e-01 6.409275490643183693e-01 4.706356200774381993e-01 7.401829156526011921e-01 5.253601393060678415e-01 5.134765258811765376e-01 4.054790791559594321e-01 3.600880342565169340e-02 1.855780200075308195e-01 8.375229283208483755e-02 7.431070325600881432e-01 1.141194824070028258e+00 7.077831245784093062e-01 5.148451994119015440e-01 -1.815943150117987626e-01 4.502589240207107713e-01 6.560377147756515370e-01 5.276820409250778665e-01 5.168962318643600673e-01 5.236601564780417606e-01 2.762511211162919977e+00 5.517657643374899168e-01 5.262248753317272376e-01 -8.775468933973372687e-01 4.957795850212044497e-01 5.688492050334085226e-01 1.836048702459897874e-01 5.143824510528361982e-01 9.306797137481078730e-01 5.103648033503979109e-01 6.466545622738809618e-01 4.217505930544220294e-01 6.232665555698665427e-01 5.376565500985025503e-01 9.410998551128899603e-01 6.003187181148119667e-01 5.432387619176952676e-01 6.466545673786433523e-01 2.634922803465715169e-01 1.283343427577891660e+00 5.283447049441591936e-01 3.762039931432366591e-01 4.379364536355357385e-01 -7.574363024856969884e-02 4.771299012577283616e-01 1.607451094508624556e-01 5.160290938971997532e-01 5.142965083617994093e-01 5.183085041123218772e-01 5.126419745854343679e-01 5.188039401646022952e-01 5.142353845695912806e-01 4.411220086806750262e-01 6.058746487569842687e-01 -7.010649052613292520e-01 5.842815445402617103e-01 3.492365627978764042e-01 3.872197487446627506e-01 1.215794787512670116e-01 1.290981304674546859e+00 9.541030976380960871e-01 4.995464684485084184e-01 -1.040228188159800782e-01 1.050976425264284808e+00 5.133085042745906268e-01 4.448278329889315819e-01 5.306876063989999226e-01 4.149520722665027694e-01 3.694421260149096109e-01 1.918956747700939491e-01 -1.499005626998548280e-01 -1.095700762001931838e-01 3.465518835017913357e-01 5.094977968127554213e-01 -1.027073713448334452e-01 4.474687807654934568e-01 5.187218125076966668e-01 4.677155677577157777e-01 -1.022233194484131330e-01 7.483013848487293229e-01 -2.241728525904137292e+00 6.020944992394934303e-01 -5.742194745275513990e-01 4.966152473781423327e-01 5.125104212385565017e-01 4.458194354837049511e-01 4.731317774123106612e-01 5.525720272916080367e-01 5.320682532324457759e-01 7.474681058771317499e-01 5.465616106412320985e-01 1.686517655838609686e+00 6.755356614064594867e-01 6.949900727546307611e-01 4.929033861900186664e-01 3.475691947152952932e-01 9.119370902189346539e-01 3.935017010157463302e-01 2.651022036971843576e+00 5.319337818468036216e-01 2.375794157389889694e-01 7.055279924281635529e-01 5.155838797540658325e-01 9.125362983377305337e-01 5.143950996640103135e-01 5.452379245829976906e-01 5.127042948395658106e-01 1.079280217080068827e+00 7.668707755976014173e-01 8.648861627083069825e-01 8.088959992177243707e-01 3.985056312127017164e-01 6.767065151820145230e-01 5.404030960122220284e-01 3.907405042982483034e-01 -7.098538812495093220e-01 3.837135513158214106e-01 6.528774711106613005e-01 5.572293608936237375e-01 5.278121373264997862e-01 5.053465792577754856e-01 6.068916196497464721e-01 5.493499072513747805e-01 -8.025312083274855901e-01 7.056954201467844356e-01 5.266114438881998039e-01 4.122105349043431177e-02 5.535418858067790993e-01 1.845296706629711680e+00 4.986398327928572294e-01 5.131661219939473995e-01 4.603447422045375825e-01 -3.374744964014033233e+00 5.051403003622851884e-01 2.756833375167613731e+00 7.396027742239710268e-01 5.281666713663805135e-01 -5.795609022692072010e-01 5.103045361595875962e-01 5.144704074685922945e-01 4.342689471127010314e-01 4.563103476540944503e-01 3.724794104911443027e-01 6.389465011207602352e-01 3.146266026954149808e-01 5.185984591506319630e-01 5.119223063561814113e-01 3.583269259575473376e-01 5.037787107249034335e-01 7.391732077801014267e-01 5.137513248615833694e-01 1.193173600867845296e+00 5.439788348873043390e-03 2.209490052877727262e+00 2.617868363507014795e+00 5.302470327220027979e-01 -2.041914091405428455e-01 4.362001054918053233e-01 4.033899043382593308e-01 7.263003125775756574e-01 1.367733796500908428e+00 5.371547355289074677e-01 1.121455596463957205e+00 5.125842156382655057e-01 1.264177534416475457e-01 1.248400530943424958e+00 4.151591815427447818e-01 5.227858973016613620e-01 5.119475443047013519e-01 8.842710899712623585e-01 -3.660889754180900457e+00 1.620948334017182635e+00 5.510799343502786884e-01 6.387628113254093520e-01 5.153013861532582673e-01 1.766238170689093723e+00 3.074232915625395579e-01 5.431816402272958699e-01 5.254595227197793594e-01 4.323089403846231971e-01 1.380497125760232091e+00 6.015265092050745555e-01 6.466549104734053977e-01 4.474682239316194465e-01 6.003187175445739987e-01 6.083998464763924474e-01 5.636694056056417157e-01 8.927611812110837208e-01 5.152651875997974473e-01 3.908028979280241955e-01 2.090533955304718083e-01 6.530781721071241552e-01 5.169716497394211130e-01 4.160909764850167503e-01 5.431816389881841678e-01 6.620370325475148920e-01 5.187726284616158701e-01 1.005489565069315194e+00 9.902997697663216137e-01 1.127047310153272308e+00 5.104630427293368466e-01 2.362176581842248824e-01 9.119364288854231448e-01 -1.088918043862593388e-01 9.332712153280524614e-01 6.280610065226228667e-01 6.021854245990825895e-03 5.784967399895645235e-01 9.798582615650597294e-01 3.902555825567915471e-01 5.206381617620747804e-01 2.771670840417584936e-01 -3.316877616528026707e-01 -2.437315478315491113e+00 4.761322871402907664e-01 6.003187181596995048e-01 6.003187652533501506e-01 5.124413060009540555e-01 4.346024786123435235e-01 -2.117966617594486956e-01 3.244581144510735315e-01 5.079176549646512440e-01 6.670631833291936763e-01 5.151170473771207181e-01 1.054849166161977658e+00 6.466546885472912454e-01 5.137307299896126667e-01 4.798111020049888875e-01 2.678969916677454988e-01 6.511727066167681821e-01 5.057865984349405597e-01 5.121048925154177978e-01 5.513950038436685741e-01 2.777700334523250381e-01 2.220267653460307813e-02 6.003187188418344089e-01 6.577469728774768543e-01 5.111493397564328411e-01 4.252312657513408478e-01 8.578403558928913153e-01 6.888651178832334576e-01 5.633012840036042412e-01 1.829493889464315126e+00 5.171800233843260042e-01 -3.015031724774606126e+00 7.388207095322322226e-01 1.509881676533875172e+00 5.089328864878611691e-01 -1.051378215722408527e+00 7.362688243696247081e-01 4.607233450911959460e-01 5.188703300867509860e-01 4.945725281944367557e-01 -3.026416801122046030e-01 5.083669080856948463e-01 1.066433954593305478e+00 6.002548842907936555e-01 -3.366958575373976137e-01 5.114334136038998224e-01 5.189246782011861514e-01 7.720996810867809534e-01 5.433426092865134560e-01 5.217835164703519268e-01 -5.118674395561569890e-01 5.623241319776725033e-01 5.090892301194883673e-01 6.881556508567020503e-01 5.087400965907512562e-01 7.653355260378581493e-01 5.150121554141797731e-01 5.842157558388491045e-01 6.820448540202737053e-01 5.424064917722771773e-01 3.164874815406770181e-01 2.779282376527555942e-01 3.207049065763911133e-01 9.571112189910586654e-01 5.476650350509298937e-01 3.171483859367793201e+00 6.602665215067754501e-01 6.169164159778226519e-01 5.572558190730610983e-01 6.181495848725656606e-01 2.755693793202624101e-02 4.846135905338334604e-01 5.697299074935107122e-01 5.208743858821291983e-01 1.164335102436359071e+00 7.655002960659255118e-01 5.068847772101413574e-01 4.483094054665779926e-01 1.115635908568172630e+00 4.976770434996662940e-01 5.459795825656724721e-01 4.927143738746910251e-01 7.478506455314990475e-01 5.167873373443865326e-01 9.238029585489896389e-01 4.946849901170285446e-01 5.132300822611353119e-01 5.627402659366041032e-03 5.066391902207447728e-01 1.857014108896881330e-02 3.478002262529948929e-01 4.137052094657675538e-01 5.631631451716498926e-01 7.737563685705237670e-01 5.143641475291650389e-01 3.961621801548876887e-01 5.857579676021934523e-02 5.354350057618999514e-01 5.509944850618925249e-01 4.884749740799392281e-01 4.804890825119243619e-02 5.158216642688756570e-01 2.456995667833954955e-01 5.103591158587380550e-01 4.233724933591335171e-01 1.253341073890035684e+00 7.865504264556549829e-01 5.384000007341291916e-01 2.695040135011729232e-01 6.677126224032199353e-01 4.225505454216879064e-01 9.891686236007303235e-01 5.951247110202201318e-01 5.588656153583491104e-01 6.882564017161406644e-01 1.976720562433110562e+00 4.558768872281808160e-01 4.352904032743744600e-01 5.137962624491935193e-01 7.059288081160722816e-01 4.506128105421963181e-01 8.312312285661920264e-01 -5.666282992099113125e-01 3.289110284455189492e-01 5.247580897762554875e-01 4.293590389865901691e-01 3.694132592725284381e-01 -6.057271285658095694e-01 3.894574618002165645e-01 5.166535323135823532e-01 7.383794011074438224e-01 6.651870402742086075e-01 1.444187461800867434e+00 5.181753007013293333e-01 5.199188755818491270e-01 -6.897937359167167770e-01 5.208011041129712027e-01 1.206070605675399587e+00 6.999019525674573527e-01 2.591641331747191468e-01 2.732160614311741065e-01 -1.616643010833131111e+00 4.892207092138950442e-01 1.879390651934509660e-01 1.095024911989459282e+00 8.139975104080864332e-01 5.133318273120875963e-01 5.092536078385848652e-01 6.289528001175999083e-01 7.390640805140861191e-01 4.578865053276739983e-01 5.628919378050881717e-01 2.658760228571895728e-02 4.961857128655337013e-01 6.260455009780727664e-01 6.206063375433790164e-01 5.019030367904232515e-01 5.678627365048146691e-01 1.195710187683995507e+00 -1.072934135396764743e-01 -2.301435848346703450e-01 4.356637494746768979e-01 5.426811563929836435e-01 5.549234642049496458e-01 4.975937363999293206e-01 -8.404890523113005552e-01 3.136581087225858600e+00 5.779611886843488699e-01 4.534247542077254334e-01 4.143503938820563559e-01 5.104387455225194437e-01 5.145085679736657314e-01 6.153636079942684800e-01 3.261988269522866357e-01 5.841777372616759889e-01 5.117930232299596760e-01 6.328699954703617125e-01 3.632469539648897627e-01 4.639542656655398223e-01 5.340326067922361863e-01 4.060605808663496630e-01 4.840120223946836053e-01 5.459727120537510858e-01 6.504319779105456334e-01 1.004057906957093849e+00 2.300385089394596072e+00 5.597714063273852014e-01 4.951122587666130781e-01 4.957604227930852425e-01 5.270701668428463549e-01 3.642564268135615180e-01 5.159721357555597798e-01 5.109013563669239089e-01 5.337384581380947290e-01 4.906839636531726279e-01 4.782916736492918708e-01 7.390367713962532337e-01 3.677689574224785596e-01 5.256918008214159777e-01 4.958683341022157021e-01 5.617847988653081881e-01 1.222229609768419600e-01 9.119371088915041446e-01 5.529110514489257167e-01 1.349087696463608654e-01 1.908802743016426051e+00 2.744263445923456612e-01 4.452529802930952352e-01 5.869053623187492352e-01 6.144069020329106373e-02 5.069637156168216308e-01 1.503333917428824051e+00 7.624364184632690389e-01 7.718074101859204728e-01 5.166026852245620971e-01 5.499949199372026198e-01 4.877021354568812361e-01 6.409168004906458105e-01 4.951423413167448939e-01 5.165661876276537168e-01 -1.806606873169583904e-01 5.668720544596195232e-01 -1.413472932879164645e+00 5.135976629823949535e-01 4.969586687756379351e-01 5.534488870252919357e-01 4.603413809579545157e-01 9.119371088566082806e-01 2.232651047958506552e-01 5.592463846505715264e-01 1.321886577237460170e+00 -5.417912208378327099e-01 5.144165319242234302e-01 1.124086448687765083e+00 1.491708290781411206e+00 4.182058440071972361e-01 5.110978639614778274e-01 -4.859561504454677772e-02 -1.654220034822376562e+00 2.806885585816530915e-01 7.585287398523825608e-01 5.244328694033733029e-01 5.096108472782993060e-01 5.187633783656029340e-01 4.868164755088640328e-01 -3.957760754054698293e-01 8.128821620692318062e-01 5.053465791880554780e-01 3.381209257348057884e-01 5.547582404131848888e-01 -1.852101498257419793e-02 -1.740830764046448764e-01 1.767410718498874100e+00 4.157746639199250693e-01 4.660761005157726955e-01 5.162211073250164706e-01 3.300571006005507124e-01 6.117041677461657612e-01 -4.021543802571150850e-02 -1.059508134212119534e+00 5.108067160046849686e-01 5.101509506844210673e-01 5.391837043638695315e-01 6.113059122085908736e-01 5.515438555895673112e-01 5.432241706008659188e-01 5.477202307814831306e-01 5.783621580239776128e-01 1.027136128240831114e+00 7.269874316924020974e-01 5.514435562117457890e-01 5.661550622292627066e-01 4.548996430111346134e-01 4.224534894231923299e-01 1.478621300353855951e-02 5.431816243139848677e-01 5.251820140234546574e-01 4.635137561279000784e-01 7.511878557722883043e-01 9.483238705623427967e-01 8.312527341955170401e-01 -4.812055237169739486e-01 5.521729157866616111e-01 4.872340358611605415e-01 5.143820672257909399e-01 5.809745976471165640e-01 9.009899382535418999e-01 5.590509859958048278e-01 5.118700295409940315e-01 -2.234182429339156561e-01 -8.500303128086270643e-01 2.267043167298897988e+00 5.167954309557790671e-01 8.906094400917162757e-01 4.607657660544796641e-01 5.705433483115959215e-01 3.680932702306516924e-01 1.494221106826909562e-01 5.166050461573107322e-01 5.496101341233672333e-01 -5.553533724580576349e-04 5.090585326477865546e-01 4.251567993232386322e-01 5.135465112405358523e-01 7.078786920919659664e-01 5.115592027883780757e-01 5.964872096951632230e-01 3.949204180995647406e-01 4.863545653056924323e-01 3.780281945452381165e-01 5.148808850035728746e-01 4.307051844991098277e-01 5.009931989507607764e-01 -2.852526747212900671e-01 5.084823971216151373e-01 6.429211115575259594e-01 5.020034152040082631e-01 7.383952920838733336e-01 9.119373569910804722e-01 7.335005342925970950e-01 -5.865237315803154550e-01 9.909050698044521432e-01 1.766238162680995094e+00 4.822798644390905998e-01 4.638537046352391169e-01 1.071892760945327261e+00 5.463348740125117953e-01 7.382230342682222224e-01 5.175280429982015429e-01 1.800831381601963432e+00 5.111488622690832928e-01 4.474680439325883219e-01 1.233886094939167899e+00 -5.571784340100670307e-02 5.590575266174504510e-01 -1.666520296358848241e-01 -9.439368215413208585e-01 -1.741614648740671678e-01 7.788168942494371194e-01 5.476203217090875874e-01 5.514295090520350273e-01 -3.323666404037994293e-01 5.239024108033887295e-01 3.226421664565372327e-02 -3.600431994101596644e-01 4.748873843626010838e-01 5.209231258028093059e-01 5.133273215701523728e-01 5.648801669827937522e-01 5.602811980965122229e-01 9.044842340893817223e-01 -3.915945159915305562e-01 5.174855241879591228e-01 5.697184507110029106e-01 6.220867869249130377e-01 1.161157372585539527e+00 5.096742418788382523e-01 6.248581693884174282e-01 5.164532790503538751e-01 3.161379074881955076e-02 -3.019366996860474162e-01 5.232071545887004849e-01 4.963136063415525268e-01 6.693339116816824363e-01 5.319465954888450421e-01 3.385555095754740895e-01 5.142497003099759656e-01 5.169048238062462497e-01 3.477770111583400880e-01 5.136394176281813273e-01 8.379065052934844271e-01 2.531295877309567732e+00 -2.383308173779260242e-01 6.663631620655360299e-01 3.335027739556477022e-01 2.173199217329371269e-01 6.800323873975072653e-01 -5.719009330854645662e-02 -1.501805510690624290e+00 5.159631350559388263e-01 2.592290598707008620e+00 5.016281045091046664e-01 1.498598029214060490e-01 1.762918374468102900e-01 5.053465857483693258e-01 5.672080321552056548e-01 1.544729408824841110e+00 4.887520941381488515e-01 1.258505418197991832e-01 4.392863165107998014e-01 1.676891811238962582e+00 5.824732151955228643e-01 7.295715238726382390e-01 5.463905576036091061e-01 7.409802223769264007e-01 4.551792339862856807e-01 5.632171868785963431e-01 1.307015121498152424e-02 5.195899283080650521e-01 5.060443626071610135e-01 -5.668602220237681788e-01 -4.427814760030462232e-02 1.170867701963718810e+00 2.356945732564122709e-01 4.896899866112374156e-01 6.833260705412671498e-01 5.471345723685674400e-01 1.992427589855967351e+00 7.013022137850484228e-01 2.932949698546667705e-02 2.746721417788178243e-01 4.013170364165867254e-01 1.103385934967179960e+00 5.229676139598937734e-01 -2.398981738989125131e-02 5.272624859258283614e-01 -2.095900151885915844e-02 5.083241885539664384e-01 5.179069312396925584e-01 5.838391008880186583e-03 -6.376009089401375729e-02 6.668652561809335078e-01 6.170729301249759935e-01 5.382795550533802098e-01 2.847991766961505689e-01 4.943827346027594993e-01 4.875822231450136490e-01 5.650736610597877352e-01 5.576653246874905268e-01 4.805030655628181324e-01 6.302146527588485814e-01 1.014419329075897602e+00 3.098699766302432934e+00 9.080360087360780375e-01 5.106467464048162208e-01 6.468225813893327958e-01 2.120877836839943076e-01 5.174437131237340504e-01 8.397547619424705623e-01 4.881505426016942706e-01 1.316180228626681714e+00 4.649494960130205468e-01 -5.684218619788294902e-01 -1.395677816500600840e-02 4.103647806595847602e-01 6.116990051612904988e-01 5.054008719603171329e-01 5.245099126546236556e-01 1.526090817267052382e-02 5.481133194450874546e-01 3.947979033468151933e-01 -3.597036161725416736e+00 4.863065294929320714e-01 5.138472972838303843e-01 1.121228654464531127e+00 5.147318844234207713e-01 5.724325698786788541e-01 6.810817045816770499e-01 -8.692085581718491660e-01 -5.057570680976383182e-01 5.022840141669605851e-02 5.161429630592110351e-01 4.166660170808432762e-01 2.222803386154065530e-01 4.923008150062107013e-01 -3.329798638085792462e-01 6.371949082481007665e-01 5.191735634507183006e-01 6.939537671856998990e-01 5.380984330771688695e-01 4.750798180569713036e-01 1.621733346599459891e-01 -7.387222492911350580e-01 6.521501730695451471e-01 4.984353536759669745e-01 1.644652117454823703e-01 5.156820482691779617e-01 5.844296256541017254e-01 5.118339922362890038e-01 6.706084691182833124e-01 5.687714242565004019e-01 5.390678591459103774e-01 4.989149190024083080e-01 1.766238163264246763e+00 3.680705852998689687e-01 5.504926943538941408e-01 -1.104578756009282486e-01 5.470463108827298138e-01 6.221250909674072016e-01 5.093916953478400123e-01 4.991730184365948952e-01 3.487609650022638896e-01 9.142620836823528441e-01 1.187056941910179075e+00 5.573474506571463039e-01 5.652463494347148565e-01 5.956473909769515185e-01 4.629372012502959155e-01 4.955420048842056890e-01 5.140319385809117847e-01 9.908643175957979610e-01 7.266130890130494402e-01 -4.508623792808704733e-01 4.469469996129271094e-01 9.177925276135243671e-01 4.947654080572984059e-01 -7.364585254395566126e-03 5.182161651631319588e-01 1.241778818215027114e+00 -1.384817169262557712e-01 5.603433074396986235e-01 2.496792805123206893e-01 5.466776732655564963e-01 8.192328430677363604e-01 5.230722896311508219e-01 3.676034191015593589e-01 1.393222482190893841e+00 4.914164541863648150e-01 5.258150431695624016e-01 -6.292020354093933454e-01 4.572536698499693464e-01 1.043330236109064169e+00 5.912182681807810480e-01 9.646564018005880647e-02 9.537660653660958721e-01 -5.617559563870613837e-02 5.895615212698198659e-01 1.596867889759802539e+00 -8.523605991985661046e-01 5.427581379237973458e-01 5.159900084403726828e-01 -4.423689007063810186e-01 3.261767999068795887e-01 5.818939128998638077e-01 4.707090164308483371e-01 5.249412821226557835e-01 3.571624566612164875e-01 2.638248459498939158e-01 3.455403071023749884e-01 5.448154642172046147e-01 5.153143837497350388e-01 5.127292513574365634e-03 -7.582656701354101303e-02 5.042129665573449326e-01 1.060093502944867483e+00 4.189318543449369048e-01 -5.663906762479770096e-01 5.665511069582709336e-01 5.157308374179730981e-01 4.960863889857975439e-01 3.286750457404174347e-02 3.379833684920632297e-01 5.166797955418311883e-01 5.238504214380765855e-01 4.538495803025793807e-01 3.802141541614615511e-02 4.545881330116458008e-01 5.092570838943827338e-01 6.503058433402377769e-01 2.071539726799622727e+00 1.854721599168551727e-02 3.827085837392235068e-01 4.786622019162968256e-01 1.816696447031701522e+00 5.711684222784955134e-01 4.756936857491977366e-01 1.461834482023689069e-02 5.431816421067722223e-01 5.069282572904372230e-01 4.723295513174279869e-01 3.804449618676739586e-01 5.147987090296826107e-01 5.546292416257724289e-01 5.633035246007034313e-01 -5.145572616851065151e-01 5.165024852132622524e-01 5.318311777861381984e-01 5.023374131141328247e-01 1.013230795419557628e+00 5.228219171288261968e-01 -2.409860422920291068e-01 1.057538435147122424e+00 -1.235370235447981413e+00 -5.096203084614809864e-01 5.181711417360516103e-01 5.139271483286369513e-01 6.491270859428633910e-01 5.201760171359273155e-01 3.793477155907564180e-01 6.138387656288204486e-01 5.431816444187205217e-01 5.149285405156450723e-01 5.759835656719636265e-01 5.786558428215727856e-01 5.163006390437780979e-01 2.871468022085291172e-01 4.957832264067664751e-01 4.677672536311769380e-01 3.694993192858294639e-01 5.258853981680235989e-01 5.117851081702510241e-01 5.473424286865579136e-01 6.398543545150944256e-01 5.093627729208560773e-01 6.668451586595529612e-01 4.810413651423518511e-01 5.244813912818050428e-01 5.450831933773363502e-01 3.461748423411822317e-01 4.333210706071902729e-01 2.380490871420045895e+00 5.393680945166700047e-01 5.747223922890599690e-01 3.154189982170774731e-01 5.824184828140699377e-01 1.107343217853687278e+00 5.252205185868462634e-01 7.106137985139635571e-01 5.131672974731561476e-01
6.862595541897541507e-01 2.669558450838830366e-01 4.154380453756060243e-01 2.901027236273129306e-02 3.104880457941490146e-01 2.999316472590697336e-01 5.291796151557485173e-01 4.456508460686691153e-01 2.299268004243755770e-01 3.231367712887614485e-01 2.033832415216013434e+00 1.702367220959809746e+00 -1.423372624915120843e+00 6.231014562358300202e-01 3.181248232833474021e-01 4.049105160587877505e-01 1.289639707509855626e-01 4.265818780141099054e-01 4.453372284191450259e-01 3.189111494185832285e-01 4.700863932017340097e-01 2.091560312828135704e+00 3.974110542726755346e-01 3.718830496130074992e-01 7.146331449376620570e-01 -2.449113209722939000e-01 4.598686592669396500e-01 2.411745714623632353e-01 2.808860306074589808e-01 -8.516012103371637387e-01 2.606526200966602924e-01 -1.125804082395875649e-01 2.891794894288751139e-01 2.581899640222715675e-01 -4.269510610310260912e-01 4.468563917555185561e-01 3.040092779862557659e-01 -3.370609175273538982e-01 -3.192480297105489306e+00 3.404886793388430810e-01 1.124254853139137866e+00 1.400026239764927682e-01 -1.643275835163952869e-01 7.916447944759479327e-01 6.390012242259314190e-01 2.839406754233831931e-01 2.931896555098129423e-02 3.100169486573428057e-01 2.472794386408443401e-01 6.932734206706128166e-01 6.834350040419016059e-01 4.629526249873952559e-01 -2.584748515100404598e-01 2.023436765497274303e-01 6.049764260626278034e-01 6.670937516126006495e-01 3.589868865198617143e-01 2.662755947283689251e-01 3.474633101005282221e-01 3.509366459591191090e-01 4.239669854804452576e-01 3.739995663603948861e-01 3.026303171738505271e-01 3.974110660320984145e-01 -3.464366226648318836e-01 1.941021742609346790e-01 3.282456399248160350e-01 3.348001998341709196e-01 2.248058412834255115e-01 7.300158429280815264e-01 1.173569664009240371e-01 3.036042905704757211e-01 3.064403167823168683e-01 7.197757545912478738e-01 1.899774559633883753e+00 5.031908442706526374e-01 4.685221248128321747e-01 4.795213467973047927e-01 3.164194630504909567e-01 -1.322998399704809591e+00 3.027202287333154440e-01 6.265326394539912913e-01 2.275720408997847333e+00 1.143144544051305084e-01 2.785359446117218196e-01 -4.173766981126333375e-01 1.230524431980340588e-01 2.737121498208210379e-01 -5.718247736077508581e-01 -8.714441570725290909e-01 6.390620933195690911e-01 1.555411483754993274e+00 9.244761154567771033e-02 7.003660554441132335e-01 2.816791522718280483e-01 3.070575887203109700e-01 2.757057912695345947e-01 7.349741178752420279e-01 7.385479994520420810e-01 -2.495835494458447101e-01 -1.682145348140442198e-01 5.560758209442884931e-02 2.813600470957403621e-01 2.159203590598276212e-01 2.081815478792492079e-03 3.061006167715741633e+00 -2.802759228530676272e-01 1.048974520181763931e-01 1.726775434409094090e-01 8.077700876899325255e-01 2.339516255315782778e-01 4.308953594769515116e-01 1.681164212587959172e-01 4.666184389474627991e-01 -4.905881831105274316e-01 2.030862776529407387e-01 2.703085134799746436e-01 4.100558233367968541e-01 9.995141354985289661e-01 3.228000302584766446e-01 -1.435336739838266595e+00 2.438823213685869795e-01 1.889917183810578272e-01 1.323809440930093562e+00 3.087350752025048162e-01 2.143101736066658436e+00 1.949777533964459353e-01 3.592031003554645441e-01 2.955486617335947308e-01 3.223516384934380086e-01 2.785919991708957766e-01 3.108611424189032801e-01 6.739946390054062375e-01 4.080472972136014453e-01 1.801749862015276649e-01 8.768109124482097450e-01 7.010901363081027959e-01 7.241206090822699393e-01 -3.300382742463154884e-01 1.991498410362657623e-01 3.593874021666441099e-01 3.214540264031059968e-01 2.563056233625169988e-01 3.069672260338384695e-01 3.149057858575453062e-01 6.930578072971729231e-01 -1.260355365032208574e-01 3.186312626835354767e-01 4.500752390648768420e-01 3.961605732070714869e-01 -2.727801857342004865e-01 2.124990355575440484e-02 2.839432930485141782e-01 2.677921582835061098e-01 3.547872525626633577e-01 3.218935358349615528e-01 -2.273297418980454232e+00 4.481686394818323316e-01 -5.874034484709347304e-01 -2.495308013649589485e-01 3.122991336339867585e-01 2.192243601870799696e-01 3.355788118422758370e-01 3.186592414202996659e-01 1.114031262602804828e-01 6.661296771737126865e-02 3.145029274454161916e-01 4.184253374540162773e-01 2.816677755911283776e-01 3.581905345500709936e-01 1.801764635687837235e-01 3.091247704899632853e-02 2.839321396592323077e-01 3.184473433763272410e-01 -2.471942087943870714e+00 7.118189758197437378e-01 6.269615744490343312e-01 9.754368348686516255e-01 -4.535053362284378053e-01 1.169242128111067425e+00 -1.406682982751311824e-02 3.084281508993346743e-01 1.229201161629988270e+00 2.702767555602803018e-01 3.047951148108369868e-01 2.577058787111807248e-01 2.967620180825653042e-01 3.159063468166743438e-01 -4.627878332740071876e-01 3.449638214332008124e-01 2.204472797712164756e-01 8.050979459327441967e-01 3.111827155530932920e-01 2.423329163276626563e-01 2.256491934309761971e-01 3.058844284703763350e-01 -1.622005738439455502e+00 3.239416416762025963e-01 2.068945143738089576e-01 3.523111368959445655e-01 1.036597280496298484e-01 2.758231709310529078e-01 3.786829106089847907e-01 1.307732178848933502e-01 -7.973286571754831797e-01 2.068945127438726050e-01 4.549020611490116051e-01 -5.055772562172055062e-01 3.546563183603009817e-01 1.573974886498434589e-01 2.606450910036588464e-01 -3.199284750282004097e+00 4.425077343342538327e-01 9.349433563426458038e-01 3.228256339100748495e-01 3.050972207854017459e-01 3.132194025232766799e-01 3.193162514041177347e-01 3.081567081599732583e-01 3.172231752814452799e-01 3.281967184396958892e-01 1.649701690249349706e-01 6.592594933244239064e-01 1.313582401950284806e-01 5.202681519279888089e-01 4.564204810193928652e-01 3.846983995845156823e-01 -6.432331601028488111e-01 2.247408668182229619e+00 3.831842276560505911e-01 1.230436828087314582e+00 -1.380054219449526220e+00 3.115125566860308948e-01 2.071499766104820117e-01 3.493251085410828405e-01 1.150512841109977424e+00 4.862233523578474714e-01 7.965183104749833376e-01 2.794240895299243133e-01 6.703291633377901348e-01 3.202999642804452707e-01 2.836067191521016717e-01 -1.150206040392987239e+00 3.661945546286358155e-01 3.106462625730607163e-01 4.745887371626290596e-01 9.116159021918199823e-01 -3.435815863797045400e-01 3.091563175368764682e+00 4.728508888934197518e-01 1.225624396832789786e+00 -1.232521289535790654e-01 3.125260512795720591e-01 3.974098866920801054e-01 3.104315389693593774e-01 2.696400752769353426e-01 3.584799504142611171e-01 -9.835143749852240380e-02 1.481182499259150187e-01 5.609457898514356167e-01 2.809672033429588822e-01 9.163240041821711646e-02 2.650075796175443976e-01 3.524430451904529416e-01 4.239670203372908897e-01 2.673210283731408121e-01 3.176498379629717483e+00 3.796940024186574725e-01 6.553201377336739242e-01 5.429778086847358853e-01 2.790275072317240923e-01 4.235071881315969899e-01 3.110824278433551582e-01 2.621569543167528438e-01 3.171405368261831503e-01 -5.187568400271898028e-01 4.691489948577154956e-01 2.854781559611557773e-01 1.196204572581618109e-01 2.512973387164417760e-01 1.516704371467436196e+00 2.474104423028442579e-01 2.841616241455845460e-01 1.981632951112968888e+00 4.932586077395790247e-01 3.277493188767459653e-01 2.701479841212145461e-01 2.795449115455329037e-01 2.030862348528259254e-01 -2.045998049846220024e+00 2.790435374066134178e-01 1.484051769536141929e+00 -5.207145597863453018e-03 2.747815993423005088e-01 7.096881316852133859e-01 2.596109385616457432e-01 -7.137889431976012222e-01 4.333310922489924111e-01 3.053963924559591758e-01 4.500857906539236786e-01 -3.803321289523529658e-01 3.342851885318814387e-01 -2.144892753055753332e+00 3.029351486746217209e-02 2.934911558292531697e-01 6.057180555807556432e-01 3.190372728160024152e-01 3.143124003483301343e-01 4.579376669704776082e-01 2.129939222537746701e-01 -1.209252389770931052e-01 -7.542325250694169592e-01 4.696039397154954699e-03 6.825521979575855935e-01 3.176973339242248895e-01 4.890519152836944050e-01 3.241997185643345492e-01 2.968741824822414971e-02 3.204305375841262071e-01 2.407584302872030513e+00 6.971115460618724224e-01 2.466102246146459620e-01 -1.136713665093480596e+00 2.190955334190703985e-01 4.596881208559167931e+00 3.315232315756082571e-01 -1.190109545856798678e-01 5.687723818744021553e-01 -5.488389060026014121e+00 5.042005486776407475e-01 1.521280106331386328e+00 3.184344844730781499e-01 5.402930992815463407e-01 -4.346906271631709728e-01 3.814595555770200486e-01 3.344659607066920448e-01 3.034709374082281141e-01 2.487751732897471313e-01 2.876047978639549196e+00 -3.642222010072286853e-01 2.799442944335919226e-01 -1.895991370482696725e+00 3.303553812355723984e-01 -3.370609207027087662e-01 7.416702807578030576e-01 5.481833034327707743e-01 3.300320284089778844e-01 3.265427578906064388e-01 1.284170322221195315e+00 1.370754970786807747e-01 2.068942439493682006e-01 3.661942149953583692e-01 1.307732189933636102e-01 2.637129476718313437e-01 3.969127932176209073e-01 -6.005281107235592719e-01 3.144807118323725836e-01 5.388144963810580501e-01 3.731922115733204426e-01 1.678875707727727762e-01 3.122812499582464651e-01 4.575845368007433467e-01 5.481833140791840808e-01 3.807064438962999842e-01 3.140683678418307312e-01 2.005219756922144714e-01 4.456557367852689855e-01 3.333356030654187840e+00 3.181650627186498603e-01 1.601296715099229384e-01 4.239680121807766211e-01 8.525853476386063834e-01 4.641749070808561251e-01 -1.914046149333365199e-01 6.886520792711012806e-01 2.527167333367769109e-01 1.134655197165348600e-01 3.928301586796314471e-01 6.560347151049195080e-01 6.482248763998689212e-01 7.747462553752523240e-01 8.082199919936655652e-01 3.826014181825999061e-01 1.307732178026713432e-01 1.307731424902556228e-01 2.978354447887353595e-01 1.214859178058862454e-01 1.120057837517206334e+00 4.118368607883681753e-01 3.068254163394127931e-01 3.658561308966238879e-01 3.163084772957805990e-01 7.814109122107448790e-01 2.068941376597913662e-01 3.129538597137298539e-01 4.404139526556831163e-01 2.908586090187401663e-01 -6.307108868132863533e-01 3.291784084132856614e-01 3.251953982062286141e-01 3.657371556231049925e-01 7.010584501999769236e-01 7.391260855767310955e-01 1.307732181326442533e-01 5.151585416998697570e-02 3.183056560734857654e-01 4.424640779329637730e-01 -5.896963741422009964e-01 2.069043130000698949e-01 -3.454420901995751692e+00 1.914666756429971528e+00 6.273801962006331223e-01 -4.430131922205570727e-01 2.894118937657945770e-02 2.028534611997928394e+00 3.106983786519086910e-01 6.326281801759426893e-01 3.649187547731141262e-02 3.013904602253008047e-01 4.523258848949829325e-01 2.984038252197680485e-01 -4.279118078160105143e-01 2.497672461198152949e-01 2.029621771518032247e+00 3.528776899553131563e-01 -4.020396966597127308e-01 2.948865768309893998e-01 3.075876487193306974e-01 -1.444471982737132176e+00 3.049195112699042975e-01 3.440058257227093241e-01 4.028003190561311730e-01 2.030102888083833990e-01 3.190688355263623932e-01 2.290419069346769365e-01 3.094975837956754905e-01 -1.603442714314008144e-01 3.181803213347143555e-01 1.313664268391949441e-01 3.347770697585429334e-01 2.827696735563782204e-01 2.309120945713460243e-02 4.370745764602029793e-01 6.134937000844356003e-01 -1.357690688061890194e+00 -5.078320601348226271e-01 -1.059543815165592123e-01 5.886914045815248159e-02 2.927373545942094091e-01 4.256734514330766661e-01 3.625528599670683194e-01 7.249617307140424627e-01 -1.060570159414162550e-01 3.256504487390750602e-01 3.047291208139115692e-01 9.213368955088650780e-02 -1.602650967320820019e-01 2.998303102745112358e-01 4.406882388238536064e-01 4.788518639575153890e-01 3.088168662909596685e-01 2.664939174319962412e-01 3.141098602750556634e-01 2.590864390242618165e-01 3.109467253836454836e-01 5.123141868413153555e-01 4.296911985363742748e-01 3.179942506787460377e-01 6.876191209998672171e-01 3.186078584096480038e-01 7.236048430218380290e-01 8.927864984537267623e-02 4.951008916929842130e-01 2.219411914388857154e-01 -1.434491403170078394e+00 2.924590226374237378e-01 6.439057593833906745e-01 3.854640552171499923e-01 2.617690298194219056e-01 2.892722584304210920e-01 2.604964616263590882e-01 6.964602625408904402e-01 3.131154778292307705e-01 3.713990998507131214e-01 3.168579074306107635e-01 2.903150894141791061e-01 2.159379197079875634e-01 5.220525561825849481e-01 2.878134663328291154e-01 2.605290967432403182e-01 1.770909525162259190e-01 4.513229506350574516e-02 1.612938557981999699e+00 3.009019912737753710e-01 3.728557627659619955e-01 3.750082735108125620e-01 -8.252756755318348958e-01 4.239335770817625471e-01 3.278749661414742111e-01 5.077400943496966912e-01 -4.866460997997805460e-03 3.290075792447317848e-01 1.519144995873611403e+00 8.866788892268737676e-01 4.008878385489345608e-01 2.724558813185514738e-01 3.815140990846097035e-01 3.265445678051201450e-01 9.106157784281648793e-01 2.991936711062311183e+00 3.137199486403234872e-01 5.369085819152610850e-02 5.946367518454127588e-01 -1.724533256712315887e-01 3.180129227997107177e-01 3.250544036128729664e-01 1.056212840354699756e+00 3.055839912825390470e-01 -3.103503852037989286e-01 3.715381271893119508e-01 1.167370641855826480e-01 6.581743594711314538e-01 1.700142396221977936e+00 3.609219412357779766e-01 2.410874576836040117e-01 1.646228064421667137e+00 4.117344892476795248e-01 3.055225405978531650e-01 2.514641221760844925e-01 3.347434118434095551e-01 2.896515061557370860e-02 4.527721476065887929e-01 2.358231874766569258e-01 7.262269217204453398e-01 2.777734137596247765e-01 3.180666566378917981e-01 3.001639472869576664e-01 4.586882906352378608e-01 2.759980484910103948e-01 2.535138920311363897e-01 9.187702226667098238e-01 5.029428634785403363e-01 4.081187153386989785e-01 2.858900185980713382e-01 3.049198376593886817e-01 3.028929837591805008e-01 5.840337394218054756e-01 7.663227559200124217e-01 3.305445926244390265e-01 2.810911154899847775e-01 4.350229393159797397e-01 3.178007991084895734e-01 7.401858260003809642e-01 2.135257550702072404e-01 4.427238527360832232e-01 -3.169653834973853446e-01 3.156985506578851575e-01 2.557828222649657923e-01 4.116745792930339709e-01 3.370243673967627807e-01 2.309316732647607451e-01 1.751899725317372258e+00 1.187968141131379857e-01 2.750120967638326475e-01 -1.547864995467070903e-01 1.606227624836011891e+00 1.139651661838824825e+00 6.629827507717868385e-02 -4.618509973517337386e-01 3.705698183457148964e-01 3.628291401874020883e-01 5.157221999808369040e-01 3.144786803855038060e-01 3.201004121931481650e-01 1.948999877128875513e-01 3.414375518722427283e-01 3.717652038062494446e-01 2.866532872442978733e-02 -1.793582329045958768e-01 3.838342118292186189e-01 3.458155376187145857e-01 1.991220645264509537e-01 8.586170123591493342e-01 4.239670034953063604e-01 2.247152242640356179e-01 8.273398630337083226e-01 4.762030766940702486e-01 6.387137229595107879e-01 4.426982282155527137e-01 6.865956457678883407e-01 1.460258667031610003e+00 3.010187993622149283e-01 2.043963265765166515e+00 -1.732643571236568494e-02 1.353388840389870285e-01 3.123141823149463425e-01 2.812077764345437547e-01 3.245389607207485039e-01 3.581723943621881179e-01 3.264770260261324886e-01 3.128774135601499196e-01 3.548032626079280494e-01 1.824544826634579009e-01 -2.871808950233064039e-01 2.670207252433262624e-01 -7.771585527763559542e-02 2.779626394621670937e-01 4.501106140369989239e-01 4.239670035237007584e-01 2.010172556470917471e-01 2.213468535273814264e-01 -1.197068105883989153e+00 1.929453360456937494e+00 3.182579470947347056e-01 -6.978370831552012099e-01 2.978785345709006882e-01 3.125738368670876177e-01 3.195874217950292473e-01 -4.684740125432136360e+00 3.475588077592818070e+00 6.200435222159151882e-01 9.798918200923283084e-02 3.225700817176131996e-01 3.206865964736193009e-01 3.102557436428616255e-01 2.574036079370315644e+00 6.157779814127806173e-01 3.203080006970784877e-01 2.030862793392066712e-01 2.490045767741220495e-01 2.704686290961772488e-01 8.729581511087197709e-01 -3.786547297805752388e-01 -1.145745329716121086e+00 -1.188406254797833794e+00 3.147347971903999841e-01 3.208171076408730116e-01 7.075686662528276605e-01 3.432416961184011073e-01 1.291718301196730367e+00 4.646002940412973792e-01 3.204887652700506018e-01 3.015358290614279513e-01 3.150716441957515102e-01 2.776450000196597490e-01 2.797715079703846364e-01 6.516649202005726504e-01 2.783050441052993262e-01 6.430440762273239574e-01 2.170831735041802157e-01 2.340599874999394620e-02 2.797983388451445452e-01 2.031585368569141792e-01 3.435662592048295827e-01 3.320176912339444786e-01 6.913645346780703527e-01 5.481833226821689609e-01 4.634365232301893567e-01 3.862293665060188563e-01 3.175843052965690028e-01 2.561406047282085430e-01 1.519143737656892368e+00 1.832966263253850370e+00 2.796407482194006033e-01 3.545571508115655246e-01 3.129565846569926091e-01 1.714526565489629673e-01 2.368747422116926349e-01 2.137684247110377411e-01 3.236084951062764281e-01 3.209878014014182490e-01 7.899264711696256658e-01 8.667893852058219384e-01 2.448226838341024947e-01 1.837442632542592769e+00 2.001369305332229009e-01 -1.616137414826412932e-01 -2.716179526349196682e-01 -3.220536155564838743e-01 3.155675259019494194e-01 2.803633489102406173e-01 7.054915152422435165e-01 3.220135690788836214e-01 4.548480729412547330e-01 3.265510839697612355e-01 3.773352553452249958e-01 4.054769789044372907e-01 3.513774912849462750e-02 1.022241073530808286e+00 3.073157589716597471e-01 4.786716952940507919e-01 3.187331221142674087e-01 3.633397899879254322e-01 3.122906385601957324e-01 3.874515225525064221e-01 -1.161656505328757388e-01 2.233837229226977861e-01 3.130410917112839697e-01 2.954822426650425410e-02 4.239667792365569010e-01 1.117963984567208691e+00 9.446427293522299262e-01 -7.371931676550528278e-01 -3.370609175563528681e-01 6.434982636675332657e-01 -3.260217567907744751e+00 1.555273322869705543e+00 2.667870942223947162e-01 2.893818151842546954e-02 3.167426920060934514e-01 8.717988082700250940e-01 3.201125817483021496e-01 3.661944308422803163e-01 -4.356887546258688126e-01 8.285950877237628909e-01 2.603570880605705073e-01 8.868001809501957489e-01 2.060661490109325200e+00 -3.788500535696488480e-01 -1.430667257024582195e+00 2.736782472101222941e-01 2.653680181193910914e-01 7.765370247260771075e-01 3.079140247013218423e-01 7.002942156863009027e-01 4.690311627971760489e-01 1.560557334582765299e-01 3.148298746973979267e-01 3.354470743028443724e-01 2.187682583695386707e-01 3.511427593399211178e-01 1.379737192344795860e+00 1.590331877494450374e+00 3.117714923281023065e-01 2.514508825309824114e-01 4.579246507798195864e-02 -2.360295627465461288e-01 2.009232824520650051e-01 8.227105992237571802e-03 3.181925637873510571e-01 7.068204772473518638e-01 -4.288083919643670416e-01 2.901554844311461379e-01 3.444534006571994822e-01 1.567211426729109569e-01 3.010404621038659800e-01 2.655371906302022578e-01 3.151418442502419981e-01 3.196443421666553264e-01 -2.249392290773603170e-02 2.519443891858563767e-01 4.410733578627001328e-01 1.104181434410637097e+00 1.097665065680278218e+00 9.376630988327985250e-01 1.945819498448154161e-01 7.698384830744504637e-01 1.258566490024035922e-01 4.591602929051131210e-01 -2.063554753621721805e+00 2.848543351524716050e-01 6.511376656997727164e-01 2.707583851238790085e-01 9.578120942461635368e-01 1.355719162808336042e+00 2.030862773352930251e-01 2.897681727960514375e-01 3.723684181889325151e-01 2.433756041076268473e-01 5.556832586842951338e-01 8.177852278882845605e-01 -7.516407861826364112e-01 1.500116473654433680e-01 1.181017540263379489e-01 2.963991107540983605e-01 3.434397984429456430e-01 7.700681014536893132e-01 -1.655399688893582633e-01 3.893509271781580017e-01 3.106348853266246435e-01 2.816123546537466216e-01 8.868431627578937659e-01 4.228167975151968516e-01 -2.048816429392921190e-01 8.594050299795984449e-01 -4.510174597775813699e-02 5.732115663391965654e-01 2.801029095402935987e-01 1.274277063683102229e+00 5.489203291059758794e-01 7.242681482418237282e-01 4.369671683716146449e-01 4.808644415189239907e-01 -5.194678062705740951e-01 2.828935105553015417e-01 7.637437441162869822e-01 3.287669683505164975e-01 6.419197847180746486e-01 2.965476486101443765e-01 3.133034231300410033e-01 7.320158861326739874e-01 1.262254603837164868e-01 -2.019475048606187428e+00 2.768483044876229870e-01 2.814226716118954363e-01 7.564688712840312856e-01 3.984528984235033433e-01 3.991660165406183958e-01 2.747793614792977124e-01 2.484102215941827729e-01 3.675849315773478954e-01 3.265683782272046920e-02 -1.608542636720346586e+00 7.446630777318290484e-01 2.629859829076049427e-01 3.171155654608677210e-01 1.900135967189447994e-01 8.238484384931923366e-01 3.176191272992797687e-01 -1.311531952383457322e-01 3.167831407261425536e-01 1.114988881662316800e+00 2.920950387441448859e-01 4.146768184055906747e-01 1.063447108983345046e+00 3.301256988464774667e-01 2.717206908668278853e+00 2.939826712860827973e-01 2.935954064090252613e-01 6.885067886870581688e-01 3.017155881027477338e-01 2.930283469506140825e-01 -2.028731759800764589e+00 3.868115576850205684e-01 3.088055253704185543e-01 5.125485441784216611e-01 3.165394816434516922e-01 2.947806012556842825e-01 -2.406781063851314850e-01 2.021804620884714687e+00 -5.204162364364214310e-01 8.282010932815562221e-01 3.176967361224694031e-01 3.726558792493930850e-01 7.656125121751194973e-01 3.590825640623455661e-01 1.317042369985949257e+00 1.659552404402409864e-01 2.959466329782973193e-01 -8.784349543968926755e-01 -1.298799199435025364e-01 -2.996035819796171729e-01 -3.833916815210481666e+00 2.900523507977047721e+00 6.730166963816974768e-02 3.259946264650588343e-01 -1.588395185909838858e+00 3.180027768921601106e-01 2.259696680223106380e-01 3.217027952195336549e-01 1.400756731133697974e-01 6.380449392585707535e-01 5.929315803934009921e-01 9.932572863515005679e-01 -3.370609177291266634e-01 -2.151186553850284733e-01 2.094583452167688153e-01 -1.174407047880543065e+00 2.815807013778643397e-01 -6.316221423307605276e-01 3.053906661860447125e-01 4.773790498085868084e-01 4.771246377494425817e-02 4.251928567954654792e-01 2.724164632198536884e-01 -9.968367331187524827e-02 2.035541027193935870e-01 3.019722885718865157e-01 3.521047178504329578e-01 3.120959982026503265e-01 3.200482590422557561e-01 -7.369690551633378828e-01 5.669347586114096282e-01 1.527487139415113493e+00 5.676076784960613214e-02 2.415194803344654362e-01 4.095294756473333297e-01 1.213595503175588952e+00 3.054580141086741252e-01 1.539781052655441185e-01 8.964571621276168356e-01 3.178810799392958186e-01 1.833278946958712297e+00 3.744263861234674584e-01 1.199828182913140528e+00 3.000532575800564095e-01 7.369201457048361048e-01 1.342442059524881603e+00 2.986009983674652313e-01 4.045808488154350457e-01 9.093721457196809466e-01 -1.862376535734359406e-01 -5.029414949388710809e-02 1.632488282814957004e-01 2.964645971841135541e-01 3.465140516473054211e-01 1.416257265641280294e-01 2.270027058481532967e-01 -3.509705274442403433e-01 1.292534453007345929e+00 2.623135332699959021e-01 3.152495471519657366e-01 -3.103337760104454279e+00 4.920818602698109334e-01 3.666518627736286007e-01 4.573428987928310208e-01 4.337356446890921480e-01 5.000940709082041247e-01 -1.044230411322544683e+00 5.978512204475998626e-01 2.648926754001946215e-01 3.203825455824736990e-01 1.042079864479587670e+00 4.466085324265877121e-01 3.233047827205320912e-01 -1.383923301723687604e+00 4.470580871178443938e-01 8.869818991155593579e-01 2.998397564210406041e-01 3.184650282987130931e-01 3.323816573533964758e-01 6.990277471449883873e-01 -8.204557347561890202e-02 3.111475127704630972e-01 2.975029771408128632e-01 7.036982223984313001e-02 7.003664450782938200e-01 3.584685095957956813e-01 7.353869294983067517e-01 1.742955934049639222e-01 6.853401109147555514e-01 -2.109493827975627289e-01 -1.501405944231544387e+00 3.461822686324204090e-01 -1.521906073513716942e-02 3.167995808089667520e-01 3.401994165245287305e-01 5.562775656247995193e-02 5.481833128511934827e-01 3.206556182260963395e-01 8.671062715402629018e-02 4.578806556301397435e-01 2.693766819404274648e-01 3.213729327935262448e-01 2.699244782288605093e-01 -8.091464624312770804e-01 2.995480752711223160e-01 3.575149962322285435e-01 2.939873293406926602e-01 -1.148711072450799564e-01 3.124914372571028776e-01 7.971524037932474771e-01 -5.002728478182769667e-01 1.092325251701647737e+00 6.028499696680494901e-01 2.735055823425861510e-01 3.173936362390302746e-01 -2.020682599114468569e+00 3.033277006823858479e-01 1.819332824808384264e-01 2.341731099658385662e-01 5.481833209146668162e-01 3.142720636042828364e-01 2.617451516463032424e-01 1.124955946889349689e-01 3.201090469123933357e-01 4.359166864872804914e-01 4.175804544603342605e-01 3.806856966509176710e-01 3.012814587204119543e-01 3.150197047702743558e-01 3.201062755051114483e-01 2.746310618705730122e-01 2.257877285747660057e-02 3.214087922155630106e-01 5.912416430272047219e-01 2.187164397276859795e-01 3.289760331580153241e-01 -1.227164145912266469e-01 1.326567123364110756e-01 5.099797221785835610e-01 4.353567632083866989e+00 2.840719119556012751e-01 1.290847385116894175e-01 5.243639346488312425e-01 2.133487877827079382e-01 1.532830537998812082e+00 3.394086547727919734e-01 6.589342807876307218e-01 3.130523865288985519e-01
