# 
#                 ----------------------------------------------------
#                 Data from a 3D direct N-body simulation. 
# 
#                 rows are i-particle; 
#                 coumns are :mass, tag, x ,y, z, vx, vy, vz, ax, ay, az
# 
#                 NTHU, Computational Physics 
# 
#                 ----------------------------------------------------
#                 Time = 0.0
0.000000000000000000e+00 1.000000000000000000e+00 2.000000000000000000e+00 3.000000000000000000e+00 4.000000000000000000e+00 5.000000000000000000e+00 6.000000000000000000e+00 7.000000000000000000e+00 8.000000000000000000e+00 9.000000000000000000e+00 1.000000000000000000e+01 1.100000000000000000e+01 1.200000000000000000e+01 1.300000000000000000e+01 1.400000000000000000e+01 1.500000000000000000e+01 1.600000000000000000e+01 1.700000000000000000e+01 1.800000000000000000e+01 1.900000000000000000e+01 2.000000000000000000e+01 2.100000000000000000e+01 2.200000000000000000e+01 2.300000000000000000e+01 2.400000000000000000e+01 2.500000000000000000e+01 2.600000000000000000e+01 2.700000000000000000e+01 2.800000000000000000e+01 2.900000000000000000e+01 3.000000000000000000e+01 3.100000000000000000e+01 3.200000000000000000e+01 3.300000000000000000e+01 3.400000000000000000e+01 3.500000000000000000e+01 3.600000000000000000e+01 3.700000000000000000e+01 3.800000000000000000e+01 3.900000000000000000e+01 4.000000000000000000e+01 4.100000000000000000e+01 4.200000000000000000e+01 4.300000000000000000e+01 4.400000000000000000e+01 4.500000000000000000e+01 4.600000000000000000e+01 4.700000000000000000e+01 4.800000000000000000e+01 4.900000000000000000e+01 5.000000000000000000e+01 5.100000000000000000e+01 5.200000000000000000e+01 5.300000000000000000e+01 5.400000000000000000e+01 5.500000000000000000e+01 5.600000000000000000e+01 5.700000000000000000e+01 5.800000000000000000e+01 5.900000000000000000e+01 6.000000000000000000e+01 6.100000000000000000e+01 6.200000000000000000e+01 6.300000000000000000e+01 6.400000000000000000e+01 6.500000000000000000e+01 6.600000000000000000e+01 6.700000000000000000e+01 6.800000000000000000e+01 6.900000000000000000e+01 7.000000000000000000e+01 7.100000000000000000e+01 7.200000000000000000e+01 7.300000000000000000e+01 7.400000000000000000e+01 7.500000000000000000e+01 7.600000000000000000e+01 7.700000000000000000e+01 7.800000000000000000e+01 7.900000000000000000e+01 8.000000000000000000e+01 8.100000000000000000e+01 8.200000000000000000e+01 8.300000000000000000e+01 8.400000000000000000e+01 8.500000000000000000e+01 8.600000000000000000e+01 8.700000000000000000e+01 8.800000000000000000e+01 8.900000000000000000e+01 9.000000000000000000e+01 9.100000000000000000e+01 9.200000000000000000e+01 9.300000000000000000e+01 9.400000000000000000e+01 9.500000000000000000e+01 9.600000000000000000e+01 9.700000000000000000e+01 9.800000000000000000e+01 9.900000000000000000e+01 1.000000000000000000e+02 1.010000000000000000e+02 1.020000000000000000e+02 1.030000000000000000e+02 1.040000000000000000e+02 1.050000000000000000e+02 1.060000000000000000e+02 1.070000000000000000e+02 1.080000000000000000e+02 1.090000000000000000e+02 1.100000000000000000e+02 1.110000000000000000e+02 1.120000000000000000e+02 1.130000000000000000e+02 1.140000000000000000e+02 1.150000000000000000e+02 1.160000000000000000e+02 1.170000000000000000e+02 1.180000000000000000e+02 1.190000000000000000e+02 1.200000000000000000e+02 1.210000000000000000e+02 1.220000000000000000e+02 1.230000000000000000e+02 1.240000000000000000e+02 1.250000000000000000e+02 1.260000000000000000e+02 1.270000000000000000e+02 1.280000000000000000e+02 1.290000000000000000e+02 1.300000000000000000e+02 1.310000000000000000e+02 1.320000000000000000e+02 1.330000000000000000e+02 1.340000000000000000e+02 1.350000000000000000e+02 1.360000000000000000e+02 1.370000000000000000e+02 1.380000000000000000e+02 1.390000000000000000e+02 1.400000000000000000e+02 1.410000000000000000e+02 1.420000000000000000e+02 1.430000000000000000e+02 1.440000000000000000e+02 1.450000000000000000e+02 1.460000000000000000e+02 1.470000000000000000e+02 1.480000000000000000e+02 1.490000000000000000e+02 1.500000000000000000e+02 1.510000000000000000e+02 1.520000000000000000e+02 1.530000000000000000e+02 1.540000000000000000e+02 1.550000000000000000e+02 1.560000000000000000e+02 1.570000000000000000e+02 1.580000000000000000e+02 1.590000000000000000e+02 1.600000000000000000e+02 1.610000000000000000e+02 1.620000000000000000e+02 1.630000000000000000e+02 1.640000000000000000e+02 1.650000000000000000e+02 1.660000000000000000e+02 1.670000000000000000e+02 1.680000000000000000e+02 1.690000000000000000e+02 1.700000000000000000e+02 1.710000000000000000e+02 1.720000000000000000e+02 1.730000000000000000e+02 1.740000000000000000e+02 1.750000000000000000e+02 1.760000000000000000e+02 1.770000000000000000e+02 1.780000000000000000e+02 1.790000000000000000e+02 1.800000000000000000e+02 1.810000000000000000e+02 1.820000000000000000e+02 1.830000000000000000e+02 1.840000000000000000e+02 1.850000000000000000e+02 1.860000000000000000e+02 1.870000000000000000e+02 1.880000000000000000e+02 1.890000000000000000e+02 1.900000000000000000e+02 1.910000000000000000e+02 1.920000000000000000e+02 1.930000000000000000e+02 1.940000000000000000e+02 1.950000000000000000e+02 1.960000000000000000e+02 1.970000000000000000e+02 1.980000000000000000e+02 1.990000000000000000e+02 2.000000000000000000e+02 2.010000000000000000e+02 2.020000000000000000e+02 2.030000000000000000e+02 2.040000000000000000e+02 2.050000000000000000e+02 2.060000000000000000e+02 2.070000000000000000e+02 2.080000000000000000e+02 2.090000000000000000e+02 2.100000000000000000e+02 2.110000000000000000e+02 2.120000000000000000e+02 2.130000000000000000e+02 2.140000000000000000e+02 2.150000000000000000e+02 2.160000000000000000e+02 2.170000000000000000e+02 2.180000000000000000e+02 2.190000000000000000e+02 2.200000000000000000e+02 2.210000000000000000e+02 2.220000000000000000e+02 2.230000000000000000e+02 2.240000000000000000e+02 2.250000000000000000e+02 2.260000000000000000e+02 2.270000000000000000e+02 2.280000000000000000e+02 2.290000000000000000e+02 2.300000000000000000e+02 2.310000000000000000e+02 2.320000000000000000e+02 2.330000000000000000e+02 2.340000000000000000e+02 2.350000000000000000e+02 2.360000000000000000e+02 2.370000000000000000e+02 2.380000000000000000e+02 2.390000000000000000e+02 2.400000000000000000e+02 2.410000000000000000e+02 2.420000000000000000e+02 2.430000000000000000e+02 2.440000000000000000e+02 2.450000000000000000e+02 2.460000000000000000e+02 2.470000000000000000e+02 2.480000000000000000e+02 2.490000000000000000e+02 2.500000000000000000e+02 2.510000000000000000e+02 2.520000000000000000e+02 2.530000000000000000e+02 2.540000000000000000e+02 2.550000000000000000e+02 2.560000000000000000e+02 2.570000000000000000e+02 2.580000000000000000e+02 2.590000000000000000e+02 2.600000000000000000e+02 2.610000000000000000e+02 2.620000000000000000e+02 2.630000000000000000e+02 2.640000000000000000e+02 2.650000000000000000e+02 2.660000000000000000e+02 2.670000000000000000e+02 2.680000000000000000e+02 2.690000000000000000e+02 2.700000000000000000e+02 2.710000000000000000e+02 2.720000000000000000e+02 2.730000000000000000e+02 2.740000000000000000e+02 2.750000000000000000e+02 2.760000000000000000e+02 2.770000000000000000e+02 2.780000000000000000e+02 2.790000000000000000e+02 2.800000000000000000e+02 2.810000000000000000e+02 2.820000000000000000e+02 2.830000000000000000e+02 2.840000000000000000e+02 2.850000000000000000e+02 2.860000000000000000e+02 2.870000000000000000e+02 2.880000000000000000e+02 2.890000000000000000e+02 2.900000000000000000e+02 2.910000000000000000e+02 2.920000000000000000e+02 2.930000000000000000e+02 2.940000000000000000e+02 2.950000000000000000e+02 2.960000000000000000e+02 2.970000000000000000e+02 2.980000000000000000e+02 2.990000000000000000e+02 3.000000000000000000e+02 3.010000000000000000e+02 3.020000000000000000e+02 3.030000000000000000e+02 3.040000000000000000e+02 3.050000000000000000e+02 3.060000000000000000e+02 3.070000000000000000e+02 3.080000000000000000e+02 3.090000000000000000e+02 3.100000000000000000e+02 3.110000000000000000e+02 3.120000000000000000e+02 3.130000000000000000e+02 3.140000000000000000e+02 3.150000000000000000e+02 3.160000000000000000e+02 3.170000000000000000e+02 3.180000000000000000e+02 3.190000000000000000e+02 3.200000000000000000e+02 3.210000000000000000e+02 3.220000000000000000e+02 3.230000000000000000e+02 3.240000000000000000e+02 3.250000000000000000e+02 3.260000000000000000e+02 3.270000000000000000e+02 3.280000000000000000e+02 3.290000000000000000e+02 3.300000000000000000e+02 3.310000000000000000e+02 3.320000000000000000e+02 3.330000000000000000e+02 3.340000000000000000e+02 3.350000000000000000e+02 3.360000000000000000e+02 3.370000000000000000e+02 3.380000000000000000e+02 3.390000000000000000e+02 3.400000000000000000e+02 3.410000000000000000e+02 3.420000000000000000e+02 3.430000000000000000e+02 3.440000000000000000e+02 3.450000000000000000e+02 3.460000000000000000e+02 3.470000000000000000e+02 3.480000000000000000e+02 3.490000000000000000e+02 3.500000000000000000e+02 3.510000000000000000e+02 3.520000000000000000e+02 3.530000000000000000e+02 3.540000000000000000e+02 3.550000000000000000e+02 3.560000000000000000e+02 3.570000000000000000e+02 3.580000000000000000e+02 3.590000000000000000e+02 3.600000000000000000e+02 3.610000000000000000e+02 3.620000000000000000e+02 3.630000000000000000e+02 3.640000000000000000e+02 3.650000000000000000e+02 3.660000000000000000e+02 3.670000000000000000e+02 3.680000000000000000e+02 3.690000000000000000e+02 3.700000000000000000e+02 3.710000000000000000e+02 3.720000000000000000e+02 3.730000000000000000e+02 3.740000000000000000e+02 3.750000000000000000e+02 3.760000000000000000e+02 3.770000000000000000e+02 3.780000000000000000e+02 3.790000000000000000e+02 3.800000000000000000e+02 3.810000000000000000e+02 3.820000000000000000e+02 3.830000000000000000e+02 3.840000000000000000e+02 3.850000000000000000e+02 3.860000000000000000e+02 3.870000000000000000e+02 3.880000000000000000e+02 3.890000000000000000e+02 3.900000000000000000e+02 3.910000000000000000e+02 3.920000000000000000e+02 3.930000000000000000e+02 3.940000000000000000e+02 3.950000000000000000e+02 3.960000000000000000e+02 3.970000000000000000e+02 3.980000000000000000e+02 3.990000000000000000e+02 4.000000000000000000e+02 4.010000000000000000e+02 4.020000000000000000e+02 4.030000000000000000e+02 4.040000000000000000e+02 4.050000000000000000e+02 4.060000000000000000e+02 4.070000000000000000e+02 4.080000000000000000e+02 4.090000000000000000e+02 4.100000000000000000e+02 4.110000000000000000e+02 4.120000000000000000e+02 4.130000000000000000e+02 4.140000000000000000e+02 4.150000000000000000e+02 4.160000000000000000e+02 4.170000000000000000e+02 4.180000000000000000e+02 4.190000000000000000e+02 4.200000000000000000e+02 4.210000000000000000e+02 4.220000000000000000e+02 4.230000000000000000e+02 4.240000000000000000e+02 4.250000000000000000e+02 4.260000000000000000e+02 4.270000000000000000e+02 4.280000000000000000e+02 4.290000000000000000e+02 4.300000000000000000e+02 4.310000000000000000e+02 4.320000000000000000e+02 4.330000000000000000e+02 4.340000000000000000e+02 4.350000000000000000e+02 4.360000000000000000e+02 4.370000000000000000e+02 4.380000000000000000e+02 4.390000000000000000e+02 4.400000000000000000e+02 4.410000000000000000e+02 4.420000000000000000e+02 4.430000000000000000e+02 4.440000000000000000e+02 4.450000000000000000e+02 4.460000000000000000e+02 4.470000000000000000e+02 4.480000000000000000e+02 4.490000000000000000e+02 4.500000000000000000e+02 4.510000000000000000e+02 4.520000000000000000e+02 4.530000000000000000e+02 4.540000000000000000e+02 4.550000000000000000e+02 4.560000000000000000e+02 4.570000000000000000e+02 4.580000000000000000e+02 4.590000000000000000e+02 4.600000000000000000e+02 4.610000000000000000e+02 4.620000000000000000e+02 4.630000000000000000e+02 4.640000000000000000e+02 4.650000000000000000e+02 4.660000000000000000e+02 4.670000000000000000e+02 4.680000000000000000e+02 4.690000000000000000e+02 4.700000000000000000e+02 4.710000000000000000e+02 4.720000000000000000e+02 4.730000000000000000e+02 4.740000000000000000e+02 4.750000000000000000e+02 4.760000000000000000e+02 4.770000000000000000e+02 4.780000000000000000e+02 4.790000000000000000e+02 4.800000000000000000e+02 4.810000000000000000e+02 4.820000000000000000e+02 4.830000000000000000e+02 4.840000000000000000e+02 4.850000000000000000e+02 4.860000000000000000e+02 4.870000000000000000e+02 4.880000000000000000e+02 4.890000000000000000e+02 4.900000000000000000e+02 4.910000000000000000e+02 4.920000000000000000e+02 4.930000000000000000e+02 4.940000000000000000e+02 4.950000000000000000e+02 4.960000000000000000e+02 4.970000000000000000e+02 4.980000000000000000e+02 4.990000000000000000e+02 5.000000000000000000e+02 5.010000000000000000e+02 5.020000000000000000e+02 5.030000000000000000e+02 5.040000000000000000e+02 5.050000000000000000e+02 5.060000000000000000e+02 5.070000000000000000e+02 5.080000000000000000e+02 5.090000000000000000e+02 5.100000000000000000e+02 5.110000000000000000e+02 5.120000000000000000e+02 5.130000000000000000e+02 5.140000000000000000e+02 5.150000000000000000e+02 5.160000000000000000e+02 5.170000000000000000e+02 5.180000000000000000e+02 5.190000000000000000e+02 5.200000000000000000e+02 5.210000000000000000e+02 5.220000000000000000e+02 5.230000000000000000e+02 5.240000000000000000e+02 5.250000000000000000e+02 5.260000000000000000e+02 5.270000000000000000e+02 5.280000000000000000e+02 5.290000000000000000e+02 5.300000000000000000e+02 5.310000000000000000e+02 5.320000000000000000e+02 5.330000000000000000e+02 5.340000000000000000e+02 5.350000000000000000e+02 5.360000000000000000e+02 5.370000000000000000e+02 5.380000000000000000e+02 5.390000000000000000e+02 5.400000000000000000e+02 5.410000000000000000e+02 5.420000000000000000e+02 5.430000000000000000e+02 5.440000000000000000e+02 5.450000000000000000e+02 5.460000000000000000e+02 5.470000000000000000e+02 5.480000000000000000e+02 5.490000000000000000e+02 5.500000000000000000e+02 5.510000000000000000e+02 5.520000000000000000e+02 5.530000000000000000e+02 5.540000000000000000e+02 5.550000000000000000e+02 5.560000000000000000e+02 5.570000000000000000e+02 5.580000000000000000e+02 5.590000000000000000e+02 5.600000000000000000e+02 5.610000000000000000e+02 5.620000000000000000e+02 5.630000000000000000e+02 5.640000000000000000e+02 5.650000000000000000e+02 5.660000000000000000e+02 5.670000000000000000e+02 5.680000000000000000e+02 5.690000000000000000e+02 5.700000000000000000e+02 5.710000000000000000e+02 5.720000000000000000e+02 5.730000000000000000e+02 5.740000000000000000e+02 5.750000000000000000e+02 5.760000000000000000e+02 5.770000000000000000e+02 5.780000000000000000e+02 5.790000000000000000e+02 5.800000000000000000e+02 5.810000000000000000e+02 5.820000000000000000e+02 5.830000000000000000e+02 5.840000000000000000e+02 5.850000000000000000e+02 5.860000000000000000e+02 5.870000000000000000e+02 5.880000000000000000e+02 5.890000000000000000e+02 5.900000000000000000e+02 5.910000000000000000e+02 5.920000000000000000e+02 5.930000000000000000e+02 5.940000000000000000e+02 5.950000000000000000e+02 5.960000000000000000e+02 5.970000000000000000e+02 5.980000000000000000e+02 5.990000000000000000e+02 6.000000000000000000e+02 6.010000000000000000e+02 6.020000000000000000e+02 6.030000000000000000e+02 6.040000000000000000e+02 6.050000000000000000e+02 6.060000000000000000e+02 6.070000000000000000e+02 6.080000000000000000e+02 6.090000000000000000e+02 6.100000000000000000e+02 6.110000000000000000e+02 6.120000000000000000e+02 6.130000000000000000e+02 6.140000000000000000e+02 6.150000000000000000e+02 6.160000000000000000e+02 6.170000000000000000e+02 6.180000000000000000e+02 6.190000000000000000e+02 6.200000000000000000e+02 6.210000000000000000e+02 6.220000000000000000e+02 6.230000000000000000e+02 6.240000000000000000e+02 6.250000000000000000e+02 6.260000000000000000e+02 6.270000000000000000e+02 6.280000000000000000e+02 6.290000000000000000e+02 6.300000000000000000e+02 6.310000000000000000e+02 6.320000000000000000e+02 6.330000000000000000e+02 6.340000000000000000e+02 6.350000000000000000e+02 6.360000000000000000e+02 6.370000000000000000e+02 6.380000000000000000e+02 6.390000000000000000e+02 6.400000000000000000e+02 6.410000000000000000e+02 6.420000000000000000e+02 6.430000000000000000e+02 6.440000000000000000e+02 6.450000000000000000e+02 6.460000000000000000e+02 6.470000000000000000e+02 6.480000000000000000e+02 6.490000000000000000e+02 6.500000000000000000e+02 6.510000000000000000e+02 6.520000000000000000e+02 6.530000000000000000e+02 6.540000000000000000e+02 6.550000000000000000e+02 6.560000000000000000e+02 6.570000000000000000e+02 6.580000000000000000e+02 6.590000000000000000e+02 6.600000000000000000e+02 6.610000000000000000e+02 6.620000000000000000e+02 6.630000000000000000e+02 6.640000000000000000e+02 6.650000000000000000e+02 6.660000000000000000e+02 6.670000000000000000e+02 6.680000000000000000e+02 6.690000000000000000e+02 6.700000000000000000e+02 6.710000000000000000e+02 6.720000000000000000e+02 6.730000000000000000e+02 6.740000000000000000e+02 6.750000000000000000e+02 6.760000000000000000e+02 6.770000000000000000e+02 6.780000000000000000e+02 6.790000000000000000e+02 6.800000000000000000e+02 6.810000000000000000e+02 6.820000000000000000e+02 6.830000000000000000e+02 6.840000000000000000e+02 6.850000000000000000e+02 6.860000000000000000e+02 6.870000000000000000e+02 6.880000000000000000e+02 6.890000000000000000e+02 6.900000000000000000e+02 6.910000000000000000e+02 6.920000000000000000e+02 6.930000000000000000e+02 6.940000000000000000e+02 6.950000000000000000e+02 6.960000000000000000e+02 6.970000000000000000e+02 6.980000000000000000e+02 6.990000000000000000e+02 7.000000000000000000e+02 7.010000000000000000e+02 7.020000000000000000e+02 7.030000000000000000e+02 7.040000000000000000e+02 7.050000000000000000e+02 7.060000000000000000e+02 7.070000000000000000e+02 7.080000000000000000e+02 7.090000000000000000e+02 7.100000000000000000e+02 7.110000000000000000e+02 7.120000000000000000e+02 7.130000000000000000e+02 7.140000000000000000e+02 7.150000000000000000e+02 7.160000000000000000e+02 7.170000000000000000e+02 7.180000000000000000e+02 7.190000000000000000e+02 7.200000000000000000e+02 7.210000000000000000e+02 7.220000000000000000e+02 7.230000000000000000e+02 7.240000000000000000e+02 7.250000000000000000e+02 7.260000000000000000e+02 7.270000000000000000e+02 7.280000000000000000e+02 7.290000000000000000e+02 7.300000000000000000e+02 7.310000000000000000e+02 7.320000000000000000e+02 7.330000000000000000e+02 7.340000000000000000e+02 7.350000000000000000e+02 7.360000000000000000e+02 7.370000000000000000e+02 7.380000000000000000e+02 7.390000000000000000e+02 7.400000000000000000e+02 7.410000000000000000e+02 7.420000000000000000e+02 7.430000000000000000e+02 7.440000000000000000e+02 7.450000000000000000e+02 7.460000000000000000e+02 7.470000000000000000e+02 7.480000000000000000e+02 7.490000000000000000e+02 7.500000000000000000e+02 7.510000000000000000e+02 7.520000000000000000e+02 7.530000000000000000e+02 7.540000000000000000e+02 7.550000000000000000e+02 7.560000000000000000e+02 7.570000000000000000e+02 7.580000000000000000e+02 7.590000000000000000e+02 7.600000000000000000e+02 7.610000000000000000e+02 7.620000000000000000e+02 7.630000000000000000e+02 7.640000000000000000e+02 7.650000000000000000e+02 7.660000000000000000e+02 7.670000000000000000e+02 7.680000000000000000e+02 7.690000000000000000e+02 7.700000000000000000e+02 7.710000000000000000e+02 7.720000000000000000e+02 7.730000000000000000e+02 7.740000000000000000e+02 7.750000000000000000e+02 7.760000000000000000e+02 7.770000000000000000e+02 7.780000000000000000e+02 7.790000000000000000e+02 7.800000000000000000e+02 7.810000000000000000e+02 7.820000000000000000e+02 7.830000000000000000e+02 7.840000000000000000e+02 7.850000000000000000e+02 7.860000000000000000e+02 7.870000000000000000e+02 7.880000000000000000e+02 7.890000000000000000e+02 7.900000000000000000e+02 7.910000000000000000e+02 7.920000000000000000e+02 7.930000000000000000e+02 7.940000000000000000e+02 7.950000000000000000e+02 7.960000000000000000e+02 7.970000000000000000e+02 7.980000000000000000e+02 7.990000000000000000e+02 8.000000000000000000e+02 8.010000000000000000e+02 8.020000000000000000e+02 8.030000000000000000e+02 8.040000000000000000e+02 8.050000000000000000e+02 8.060000000000000000e+02 8.070000000000000000e+02 8.080000000000000000e+02 8.090000000000000000e+02 8.100000000000000000e+02 8.110000000000000000e+02 8.120000000000000000e+02 8.130000000000000000e+02 8.140000000000000000e+02 8.150000000000000000e+02 8.160000000000000000e+02 8.170000000000000000e+02 8.180000000000000000e+02 8.190000000000000000e+02 8.200000000000000000e+02 8.210000000000000000e+02 8.220000000000000000e+02 8.230000000000000000e+02 8.240000000000000000e+02 8.250000000000000000e+02 8.260000000000000000e+02 8.270000000000000000e+02 8.280000000000000000e+02 8.290000000000000000e+02 8.300000000000000000e+02 8.310000000000000000e+02 8.320000000000000000e+02 8.330000000000000000e+02 8.340000000000000000e+02 8.350000000000000000e+02 8.360000000000000000e+02 8.370000000000000000e+02 8.380000000000000000e+02 8.390000000000000000e+02 8.400000000000000000e+02 8.410000000000000000e+02 8.420000000000000000e+02 8.430000000000000000e+02 8.440000000000000000e+02 8.450000000000000000e+02 8.460000000000000000e+02 8.470000000000000000e+02 8.480000000000000000e+02 8.490000000000000000e+02 8.500000000000000000e+02 8.510000000000000000e+02 8.520000000000000000e+02 8.530000000000000000e+02 8.540000000000000000e+02 8.550000000000000000e+02 8.560000000000000000e+02 8.570000000000000000e+02 8.580000000000000000e+02 8.590000000000000000e+02 8.600000000000000000e+02 8.610000000000000000e+02 8.620000000000000000e+02 8.630000000000000000e+02 8.640000000000000000e+02 8.650000000000000000e+02 8.660000000000000000e+02 8.670000000000000000e+02 8.680000000000000000e+02 8.690000000000000000e+02 8.700000000000000000e+02 8.710000000000000000e+02 8.720000000000000000e+02 8.730000000000000000e+02 8.740000000000000000e+02 8.750000000000000000e+02 8.760000000000000000e+02 8.770000000000000000e+02 8.780000000000000000e+02 8.790000000000000000e+02 8.800000000000000000e+02 8.810000000000000000e+02 8.820000000000000000e+02 8.830000000000000000e+02 8.840000000000000000e+02 8.850000000000000000e+02 8.860000000000000000e+02 8.870000000000000000e+02 8.880000000000000000e+02 8.890000000000000000e+02 8.900000000000000000e+02 8.910000000000000000e+02 8.920000000000000000e+02 8.930000000000000000e+02 8.940000000000000000e+02 8.950000000000000000e+02 8.960000000000000000e+02 8.970000000000000000e+02 8.980000000000000000e+02 8.990000000000000000e+02 9.000000000000000000e+02 9.010000000000000000e+02 9.020000000000000000e+02 9.030000000000000000e+02 9.040000000000000000e+02 9.050000000000000000e+02 9.060000000000000000e+02 9.070000000000000000e+02 9.080000000000000000e+02 9.090000000000000000e+02 9.100000000000000000e+02 9.110000000000000000e+02 9.120000000000000000e+02 9.130000000000000000e+02 9.140000000000000000e+02 9.150000000000000000e+02 9.160000000000000000e+02 9.170000000000000000e+02 9.180000000000000000e+02 9.190000000000000000e+02 9.200000000000000000e+02 9.210000000000000000e+02 9.220000000000000000e+02 9.230000000000000000e+02 9.240000000000000000e+02 9.250000000000000000e+02 9.260000000000000000e+02 9.270000000000000000e+02 9.280000000000000000e+02 9.290000000000000000e+02 9.300000000000000000e+02 9.310000000000000000e+02 9.320000000000000000e+02 9.330000000000000000e+02 9.340000000000000000e+02 9.350000000000000000e+02 9.360000000000000000e+02 9.370000000000000000e+02 9.380000000000000000e+02 9.390000000000000000e+02 9.400000000000000000e+02 9.410000000000000000e+02 9.420000000000000000e+02 9.430000000000000000e+02 9.440000000000000000e+02 9.450000000000000000e+02 9.460000000000000000e+02 9.470000000000000000e+02 9.480000000000000000e+02 9.490000000000000000e+02 9.500000000000000000e+02 9.510000000000000000e+02 9.520000000000000000e+02 9.530000000000000000e+02 9.540000000000000000e+02 9.550000000000000000e+02 9.560000000000000000e+02 9.570000000000000000e+02 9.580000000000000000e+02 9.590000000000000000e+02 9.600000000000000000e+02 9.610000000000000000e+02 9.620000000000000000e+02 9.630000000000000000e+02 9.640000000000000000e+02 9.650000000000000000e+02 9.660000000000000000e+02 9.670000000000000000e+02 9.680000000000000000e+02 9.690000000000000000e+02 9.700000000000000000e+02 9.710000000000000000e+02 9.720000000000000000e+02 9.730000000000000000e+02 9.740000000000000000e+02 9.750000000000000000e+02 9.760000000000000000e+02 9.770000000000000000e+02 9.780000000000000000e+02 9.790000000000000000e+02 9.800000000000000000e+02 9.810000000000000000e+02 9.820000000000000000e+02 9.830000000000000000e+02 9.840000000000000000e+02 9.850000000000000000e+02 9.860000000000000000e+02 9.870000000000000000e+02 9.880000000000000000e+02 9.890000000000000000e+02 9.900000000000000000e+02 9.910000000000000000e+02 9.920000000000000000e+02 9.930000000000000000e+02 9.940000000000000000e+02 9.950000000000000000e+02 9.960000000000000000e+02 9.970000000000000000e+02 9.980000000000000000e+02 9.990000000000000000e+02
1.000000000000000000e+00 1.000000000000000000e+00 1.000000000000000000e+00 1.000000000000000000e+00 1.000000000000000000e+00 1.000000000000000000e+00 1.000000000000000000e+00 1.000000000000000000e+00 1.000000000000000000e+00 1.000000000000000000e+00 1.000000000000000000e+00 1.000000000000000000e+00 1.000000000000000000e+00 1.000000000000000000e+00 1.000000000000000000e+00 1.000000000000000000e+00 1.000000000000000000e+00 1.000000000000000000e+00 1.000000000000000000e+00 1.000000000000000000e+00 1.000000000000000000e+00 1.000000000000000000e+00 1.000000000000000000e+00 1.000000000000000000e+00 1.000000000000000000e+00 1.000000000000000000e+00 1.000000000000000000e+00 1.000000000000000000e+00 1.000000000000000000e+00 1.000000000000000000e+00 1.000000000000000000e+00 1.000000000000000000e+00 1.000000000000000000e+00 1.000000000000000000e+00 1.000000000000000000e+00 1.000000000000000000e+00 1.000000000000000000e+00 1.000000000000000000e+00 1.000000000000000000e+00 1.000000000000000000e+00 1.000000000000000000e+00 1.000000000000000000e+00 1.000000000000000000e+00 1.000000000000000000e+00 1.000000000000000000e+00 1.000000000000000000e+00 1.000000000000000000e+00 1.000000000000000000e+00 1.000000000000000000e+00 1.000000000000000000e+00 1.000000000000000000e+00 1.000000000000000000e+00 1.000000000000000000e+00 1.000000000000000000e+00 1.000000000000000000e+00 1.000000000000000000e+00 1.000000000000000000e+00 1.000000000000000000e+00 1.000000000000000000e+00 1.000000000000000000e+00 1.000000000000000000e+00 1.000000000000000000e+00 1.000000000000000000e+00 1.000000000000000000e+00 1.000000000000000000e+00 1.000000000000000000e+00 1.000000000000000000e+00 1.000000000000000000e+00 1.000000000000000000e+00 1.000000000000000000e+00 1.000000000000000000e+00 1.000000000000000000e+00 1.000000000000000000e+00 1.000000000000000000e+00 1.000000000000000000e+00 1.000000000000000000e+00 1.000000000000000000e+00 1.000000000000000000e+00 1.000000000000000000e+00 1.000000000000000000e+00 1.000000000000000000e+00 1.000000000000000000e+00 1.000000000000000000e+00 1.000000000000000000e+00 1.000000000000000000e+00 1.000000000000000000e+00 1.000000000000000000e+00 1.000000000000000000e+00 1.000000000000000000e+00 1.000000000000000000e+00 1.000000000000000000e+00 1.000000000000000000e+00 1.000000000000000000e+00 1.000000000000000000e+00 1.000000000000000000e+00 1.000000000000000000e+00 1.000000000000000000e+00 1.000000000000000000e+00 1.000000000000000000e+00 1.000000000000000000e+00 1.000000000000000000e+00 1.000000000000000000e+00 1.000000000000000000e+00 1.000000000000000000e+00 1.000000000000000000e+00 1.000000000000000000e+00 1.000000000000000000e+00 1.000000000000000000e+00 1.000000000000000000e+00 1.000000000000000000e+00 1.000000000000000000e+00 1.000000000000000000e+00 1.000000000000000000e+00 1.000000000000000000e+00 1.000000000000000000e+00 1.000000000000000000e+00 1.000000000000000000e+00 1.000000000000000000e+00 1.000000000000000000e+00 1.000000000000000000e+00 1.000000000000000000e+00 1.000000000000000000e+00 1.000000000000000000e+00 1.000000000000000000e+00 1.000000000000000000e+00 1.000000000000000000e+00 1.000000000000000000e+00 1.000000000000000000e+00 1.000000000000000000e+00 1.000000000000000000e+00 1.000000000000000000e+00 1.000000000000000000e+00 1.000000000000000000e+00 1.000000000000000000e+00 1.000000000000000000e+00 1.000000000000000000e+00 1.000000000000000000e+00 1.000000000000000000e+00 1.000000000000000000e+00 1.000000000000000000e+00 1.000000000000000000e+00 1.000000000000000000e+00 1.000000000000000000e+00 1.000000000000000000e+00 1.000000000000000000e+00 1.000000000000000000e+00 1.000000000000000000e+00 1.000000000000000000e+00 1.000000000000000000e+00 1.000000000000000000e+00 1.000000000000000000e+00 1.000000000000000000e+00 1.000000000000000000e+00 1.000000000000000000e+00 1.000000000000000000e+00 1.000000000000000000e+00 1.000000000000000000e+00 1.000000000000000000e+00 1.000000000000000000e+00 1.000000000000000000e+00 1.000000000000000000e+00 1.000000000000000000e+00 1.000000000000000000e+00 1.000000000000000000e+00 1.000000000000000000e+00 1.000000000000000000e+00 1.000000000000000000e+00 1.000000000000000000e+00 1.000000000000000000e+00 1.000000000000000000e+00 1.000000000000000000e+00 1.000000000000000000e+00 1.000000000000000000e+00 1.000000000000000000e+00 1.000000000000000000e+00 1.000000000000000000e+00 1.000000000000000000e+00 1.000000000000000000e+00 1.000000000000000000e+00 1.000000000000000000e+00 1.000000000000000000e+00 1.000000000000000000e+00 1.000000000000000000e+00 1.000000000000000000e+00 1.000000000000000000e+00 1.000000000000000000e+00 1.000000000000000000e+00 1.000000000000000000e+00 1.000000000000000000e+00 1.000000000000000000e+00 1.000000000000000000e+00 1.000000000000000000e+00 1.000000000000000000e+00 1.000000000000000000e+00 1.000000000000000000e+00 1.000000000000000000e+00 1.000000000000000000e+00 1.000000000000000000e+00 1.000000000000000000e+00 1.000000000000000000e+00 1.000000000000000000e+00 1.000000000000000000e+00 1.000000000000000000e+00 1.000000000000000000e+00 1.000000000000000000e+00 1.000000000000000000e+00 1.000000000000000000e+00 1.000000000000000000e+00 1.000000000000000000e+00 1.000000000000000000e+00 1.000000000000000000e+00 1.000000000000000000e+00 1.000000000000000000e+00 1.000000000000000000e+00 1.000000000000000000e+00 1.000000000000000000e+00 1.000000000000000000e+00 1.000000000000000000e+00 1.000000000000000000e+00 1.000000000000000000e+00 1.000000000000000000e+00 1.000000000000000000e+00 1.000000000000000000e+00 1.000000000000000000e+00 1.000000000000000000e+00 1.000000000000000000e+00 1.000000000000000000e+00 1.000000000000000000e+00 1.000000000000000000e+00 1.000000000000000000e+00 1.000000000000000000e+00 1.000000000000000000e+00 1.000000000000000000e+00 1.000000000000000000e+00 1.000000000000000000e+00 1.000000000000000000e+00 1.000000000000000000e+00 1.000000000000000000e+00 1.000000000000000000e+00 1.000000000000000000e+00 1.000000000000000000e+00 1.000000000000000000e+00 1.000000000000000000e+00 1.000000000000000000e+00 1.000000000000000000e+00 1.000000000000000000e+00 1.000000000000000000e+00 1.000000000000000000e+00 1.000000000000000000e+00 1.000000000000000000e+00 1.000000000000000000e+00 1.000000000000000000e+00 1.000000000000000000e+00 1.000000000000000000e+00 1.000000000000000000e+00 1.000000000000000000e+00 1.000000000000000000e+00 1.000000000000000000e+00 1.000000000000000000e+00 1.000000000000000000e+00 1.000000000000000000e+00 1.000000000000000000e+00 1.000000000000000000e+00 1.000000000000000000e+00 1.000000000000000000e+00 1.000000000000000000e+00 1.000000000000000000e+00 1.000000000000000000e+00 1.000000000000000000e+00 1.000000000000000000e+00 1.000000000000000000e+00 1.000000000000000000e+00 1.000000000000000000e+00 1.000000000000000000e+00 1.000000000000000000e+00 1.000000000000000000e+00 1.000000000000000000e+00 1.000000000000000000e+00 1.000000000000000000e+00 1.000000000000000000e+00 1.000000000000000000e+00 1.000000000000000000e+00 1.000000000000000000e+00 1.000000000000000000e+00 1.000000000000000000e+00 1.000000000000000000e+00 1.000000000000000000e+00 1.000000000000000000e+00 1.000000000000000000e+00 1.000000000000000000e+00 1.000000000000000000e+00 1.000000000000000000e+00 1.000000000000000000e+00 1.000000000000000000e+00 1.000000000000000000e+00 1.000000000000000000e+00 1.000000000000000000e+00 1.000000000000000000e+00 1.000000000000000000e+00 1.000000000000000000e+00 1.000000000000000000e+00 1.000000000000000000e+00 1.000000000000000000e+00 1.000000000000000000e+00 1.000000000000000000e+00 1.000000000000000000e+00 1.000000000000000000e+00 1.000000000000000000e+00 1.000000000000000000e+00 1.000000000000000000e+00 1.000000000000000000e+00 1.000000000000000000e+00 1.000000000000000000e+00 1.000000000000000000e+00 1.000000000000000000e+00 1.000000000000000000e+00 1.000000000000000000e+00 1.000000000000000000e+00 1.000000000000000000e+00 1.000000000000000000e+00 1.000000000000000000e+00 1.000000000000000000e+00 1.000000000000000000e+00 1.000000000000000000e+00 1.000000000000000000e+00 1.000000000000000000e+00 1.000000000000000000e+00 1.000000000000000000e+00 1.000000000000000000e+00 1.000000000000000000e+00 1.000000000000000000e+00 1.000000000000000000e+00 1.000000000000000000e+00 1.000000000000000000e+00 1.000000000000000000e+00 1.000000000000000000e+00 1.000000000000000000e+00 1.000000000000000000e+00 1.000000000000000000e+00 1.000000000000000000e+00 1.000000000000000000e+00 1.000000000000000000e+00 1.000000000000000000e+00 1.000000000000000000e+00 1.000000000000000000e+00 1.000000000000000000e+00 1.000000000000000000e+00 1.000000000000000000e+00 1.000000000000000000e+00 1.000000000000000000e+00 1.000000000000000000e+00 1.000000000000000000e+00 1.000000000000000000e+00 1.000000000000000000e+00 1.000000000000000000e+00 1.000000000000000000e+00 1.000000000000000000e+00 1.000000000000000000e+00 1.000000000000000000e+00 1.000000000000000000e+00 1.000000000000000000e+00 1.000000000000000000e+00 1.000000000000000000e+00 1.000000000000000000e+00 1.000000000000000000e+00 1.000000000000000000e+00 1.000000000000000000e+00 1.000000000000000000e+00 1.000000000000000000e+00 1.000000000000000000e+00 1.000000000000000000e+00 1.000000000000000000e+00 1.000000000000000000e+00 1.000000000000000000e+00 1.000000000000000000e+00 1.000000000000000000e+00 1.000000000000000000e+00 1.000000000000000000e+00 1.000000000000000000e+00 1.000000000000000000e+00 1.000000000000000000e+00 1.000000000000000000e+00 1.000000000000000000e+00 1.000000000000000000e+00 1.000000000000000000e+00 1.000000000000000000e+00 1.000000000000000000e+00 1.000000000000000000e+00 1.000000000000000000e+00 1.000000000000000000e+00 1.000000000000000000e+00 1.000000000000000000e+00 1.000000000000000000e+00 1.000000000000000000e+00 1.000000000000000000e+00 1.000000000000000000e+00 1.000000000000000000e+00 1.000000000000000000e+00 1.000000000000000000e+00 1.000000000000000000e+00 1.000000000000000000e+00 1.000000000000000000e+00 1.000000000000000000e+00 1.000000000000000000e+00 1.000000000000000000e+00 1.000000000000000000e+00 1.000000000000000000e+00 1.000000000000000000e+00 1.000000000000000000e+00 1.000000000000000000e+00 1.000000000000000000e+00 1.000000000000000000e+00 1.000000000000000000e+00 1.000000000000000000e+00 1.000000000000000000e+00 1.000000000000000000e+00 1.000000000000000000e+00 1.000000000000000000e+00 1.000000000000000000e+00 1.000000000000000000e+00 1.000000000000000000e+00 1.000000000000000000e+00 1.000000000000000000e+00 1.000000000000000000e+00 1.000000000000000000e+00 1.000000000000000000e+00 1.000000000000000000e+00 1.000000000000000000e+00 1.000000000000000000e+00 1.000000000000000000e+00 1.000000000000000000e+00 1.000000000000000000e+00 1.000000000000000000e+00 1.000000000000000000e+00 1.000000000000000000e+00 1.000000000000000000e+00 1.000000000000000000e+00 1.000000000000000000e+00 1.000000000000000000e+00 1.000000000000000000e+00 1.000000000000000000e+00 1.000000000000000000e+00 1.000000000000000000e+00 1.000000000000000000e+00 1.000000000000000000e+00 1.000000000000000000e+00 1.000000000000000000e+00 1.000000000000000000e+00 1.000000000000000000e+00 1.000000000000000000e+00 1.000000000000000000e+00 1.000000000000000000e+00 1.000000000000000000e+00 1.000000000000000000e+00 1.000000000000000000e+00 1.000000000000000000e+00 1.000000000000000000e+00 1.000000000000000000e+00 1.000000000000000000e+00 1.000000000000000000e+00 1.000000000000000000e+00 1.000000000000000000e+00 1.000000000000000000e+00 1.000000000000000000e+00 1.000000000000000000e+00 1.000000000000000000e+00 1.000000000000000000e+00 1.000000000000000000e+00 1.000000000000000000e+00 1.000000000000000000e+00 1.000000000000000000e+00 1.000000000000000000e+00 1.000000000000000000e+00 1.000000000000000000e+00 1.000000000000000000e+00 1.000000000000000000e+00 1.000000000000000000e+00 1.000000000000000000e+00 1.000000000000000000e+00 1.000000000000000000e+00 1.000000000000000000e+00 1.000000000000000000e+00 1.000000000000000000e+00 1.000000000000000000e+00 1.000000000000000000e+00 1.000000000000000000e+00 1.000000000000000000e+00 1.000000000000000000e+00 1.000000000000000000e+00 1.000000000000000000e+00 1.000000000000000000e+00 1.000000000000000000e+00 1.000000000000000000e+00 1.000000000000000000e+00 1.000000000000000000e+00 1.000000000000000000e+00 1.000000000000000000e+00 1.000000000000000000e+00 1.000000000000000000e+00 1.000000000000000000e+00 1.000000000000000000e+00 1.000000000000000000e+00 1.000000000000000000e+00 1.000000000000000000e+00 1.000000000000000000e+00 1.000000000000000000e+00 1.000000000000000000e+00 1.000000000000000000e+00 1.000000000000000000e+00 1.000000000000000000e+00 1.000000000000000000e+00 1.000000000000000000e+00 1.000000000000000000e+00 1.000000000000000000e+00 1.000000000000000000e+00 1.000000000000000000e+00 1.000000000000000000e+00 1.000000000000000000e+00 1.000000000000000000e+00 1.000000000000000000e+00 1.000000000000000000e+00 1.000000000000000000e+00 1.000000000000000000e+00 1.000000000000000000e+00 1.000000000000000000e+00 1.000000000000000000e+00 1.000000000000000000e+00 1.000000000000000000e+00 1.000000000000000000e+00 1.000000000000000000e+00 1.000000000000000000e+00 1.000000000000000000e+00 1.000000000000000000e+00 1.000000000000000000e+00 1.000000000000000000e+00 1.000000000000000000e+00 1.000000000000000000e+00 1.000000000000000000e+00 1.000000000000000000e+00 1.000000000000000000e+00 1.000000000000000000e+00 1.000000000000000000e+00 1.000000000000000000e+00 1.000000000000000000e+00 1.000000000000000000e+00 1.000000000000000000e+00 1.000000000000000000e+00 1.000000000000000000e+00 1.000000000000000000e+00 1.000000000000000000e+00 1.000000000000000000e+00 1.000000000000000000e+00 1.000000000000000000e+00 1.000000000000000000e+00 1.000000000000000000e+00 1.000000000000000000e+00 1.000000000000000000e+00 1.000000000000000000e+00 1.000000000000000000e+00 1.000000000000000000e+00 1.000000000000000000e+00 1.000000000000000000e+00 1.000000000000000000e+00 1.000000000000000000e+00 1.000000000000000000e+00 1.000000000000000000e+00 1.000000000000000000e+00 1.000000000000000000e+00 1.000000000000000000e+00 1.000000000000000000e+00 1.000000000000000000e+00 1.000000000000000000e+00 1.000000000000000000e+00 1.000000000000000000e+00 1.000000000000000000e+00 1.000000000000000000e+00 1.000000000000000000e+00 1.000000000000000000e+00 1.000000000000000000e+00 1.000000000000000000e+00 1.000000000000000000e+00 1.000000000000000000e+00 1.000000000000000000e+00 1.000000000000000000e+00 1.000000000000000000e+00 1.000000000000000000e+00 1.000000000000000000e+00 1.000000000000000000e+00 1.000000000000000000e+00 1.000000000000000000e+00 1.000000000000000000e+00 1.000000000000000000e+00 1.000000000000000000e+00 1.000000000000000000e+00 1.000000000000000000e+00 1.000000000000000000e+00 1.000000000000000000e+00 1.000000000000000000e+00 1.000000000000000000e+00 1.000000000000000000e+00 1.000000000000000000e+00 1.000000000000000000e+00 1.000000000000000000e+00 1.000000000000000000e+00 1.000000000000000000e+00 1.000000000000000000e+00 1.000000000000000000e+00 1.000000000000000000e+00 1.000000000000000000e+00 1.000000000000000000e+00 1.000000000000000000e+00 1.000000000000000000e+00 1.000000000000000000e+00 1.000000000000000000e+00 1.000000000000000000e+00 1.000000000000000000e+00 1.000000000000000000e+00 1.000000000000000000e+00 1.000000000000000000e+00 1.000000000000000000e+00 1.000000000000000000e+00 1.000000000000000000e+00 1.000000000000000000e+00 1.000000000000000000e+00 1.000000000000000000e+00 1.000000000000000000e+00 1.000000000000000000e+00 1.000000000000000000e+00 1.000000000000000000e+00 1.000000000000000000e+00 1.000000000000000000e+00 1.000000000000000000e+00 1.000000000000000000e+00 1.000000000000000000e+00 1.000000000000000000e+00 1.000000000000000000e+00 1.000000000000000000e+00 1.000000000000000000e+00 1.000000000000000000e+00 1.000000000000000000e+00 1.000000000000000000e+00 1.000000000000000000e+00 1.000000000000000000e+00 1.000000000000000000e+00 1.000000000000000000e+00 1.000000000000000000e+00 1.000000000000000000e+00 1.000000000000000000e+00 1.000000000000000000e+00 1.000000000000000000e+00 1.000000000000000000e+00 1.000000000000000000e+00 1.000000000000000000e+00 1.000000000000000000e+00 1.000000000000000000e+00 1.000000000000000000e+00 1.000000000000000000e+00 1.000000000000000000e+00 1.000000000000000000e+00 1.000000000000000000e+00 1.000000000000000000e+00 1.000000000000000000e+00 1.000000000000000000e+00 1.000000000000000000e+00 1.000000000000000000e+00 1.000000000000000000e+00 1.000000000000000000e+00 1.000000000000000000e+00 1.000000000000000000e+00 1.000000000000000000e+00 1.000000000000000000e+00 1.000000000000000000e+00 1.000000000000000000e+00 1.000000000000000000e+00 1.000000000000000000e+00 1.000000000000000000e+00 1.000000000000000000e+00 1.000000000000000000e+00 1.000000000000000000e+00 1.000000000000000000e+00 1.000000000000000000e+00 1.000000000000000000e+00 1.000000000000000000e+00 1.000000000000000000e+00 1.000000000000000000e+00 1.000000000000000000e+00 1.000000000000000000e+00 1.000000000000000000e+00 1.000000000000000000e+00 1.000000000000000000e+00 1.000000000000000000e+00 1.000000000000000000e+00 1.000000000000000000e+00 1.000000000000000000e+00 1.000000000000000000e+00 1.000000000000000000e+00 1.000000000000000000e+00 1.000000000000000000e+00 1.000000000000000000e+00 1.000000000000000000e+00 1.000000000000000000e+00 1.000000000000000000e+00 1.000000000000000000e+00 1.000000000000000000e+00 1.000000000000000000e+00 1.000000000000000000e+00 1.000000000000000000e+00 1.000000000000000000e+00 1.000000000000000000e+00 1.000000000000000000e+00 1.000000000000000000e+00 1.000000000000000000e+00 1.000000000000000000e+00 1.000000000000000000e+00 1.000000000000000000e+00 1.000000000000000000e+00 1.000000000000000000e+00 1.000000000000000000e+00 1.000000000000000000e+00 1.000000000000000000e+00 1.000000000000000000e+00 1.000000000000000000e+00 1.000000000000000000e+00 1.000000000000000000e+00 1.000000000000000000e+00 1.000000000000000000e+00 1.000000000000000000e+00 1.000000000000000000e+00 1.000000000000000000e+00 1.000000000000000000e+00 1.000000000000000000e+00 1.000000000000000000e+00 1.000000000000000000e+00 1.000000000000000000e+00 1.000000000000000000e+00 1.000000000000000000e+00 1.000000000000000000e+00 1.000000000000000000e+00 1.000000000000000000e+00 1.000000000000000000e+00 1.000000000000000000e+00 1.000000000000000000e+00 1.000000000000000000e+00 1.000000000000000000e+00 1.000000000000000000e+00 1.000000000000000000e+00 1.000000000000000000e+00 1.000000000000000000e+00 1.000000000000000000e+00 1.000000000000000000e+00 1.000000000000000000e+00 1.000000000000000000e+00 1.000000000000000000e+00 1.000000000000000000e+00 1.000000000000000000e+00 1.000000000000000000e+00 1.000000000000000000e+00 1.000000000000000000e+00 1.000000000000000000e+00 1.000000000000000000e+00 1.000000000000000000e+00 1.000000000000000000e+00 1.000000000000000000e+00 1.000000000000000000e+00 1.000000000000000000e+00 1.000000000000000000e+00 1.000000000000000000e+00 1.000000000000000000e+00 1.000000000000000000e+00 1.000000000000000000e+00 1.000000000000000000e+00 1.000000000000000000e+00 1.000000000000000000e+00 1.000000000000000000e+00 1.000000000000000000e+00 1.000000000000000000e+00 1.000000000000000000e+00 1.000000000000000000e+00 1.000000000000000000e+00 1.000000000000000000e+00 1.000000000000000000e+00 1.000000000000000000e+00 1.000000000000000000e+00 1.000000000000000000e+00 1.000000000000000000e+00 1.000000000000000000e+00 1.000000000000000000e+00 1.000000000000000000e+00 1.000000000000000000e+00 1.000000000000000000e+00 1.000000000000000000e+00 1.000000000000000000e+00 1.000000000000000000e+00 1.000000000000000000e+00 1.000000000000000000e+00 1.000000000000000000e+00 1.000000000000000000e+00 1.000000000000000000e+00 1.000000000000000000e+00 1.000000000000000000e+00 1.000000000000000000e+00 1.000000000000000000e+00 1.000000000000000000e+00 1.000000000000000000e+00 1.000000000000000000e+00 1.000000000000000000e+00 1.000000000000000000e+00 1.000000000000000000e+00 1.000000000000000000e+00 1.000000000000000000e+00 1.000000000000000000e+00 1.000000000000000000e+00 1.000000000000000000e+00 1.000000000000000000e+00 1.000000000000000000e+00 1.000000000000000000e+00 1.000000000000000000e+00 1.000000000000000000e+00 1.000000000000000000e+00 1.000000000000000000e+00 1.000000000000000000e+00 1.000000000000000000e+00 1.000000000000000000e+00 1.000000000000000000e+00 1.000000000000000000e+00 1.000000000000000000e+00 1.000000000000000000e+00 1.000000000000000000e+00 1.000000000000000000e+00 1.000000000000000000e+00 1.000000000000000000e+00 1.000000000000000000e+00 1.000000000000000000e+00 1.000000000000000000e+00 1.000000000000000000e+00 1.000000000000000000e+00 1.000000000000000000e+00 1.000000000000000000e+00 1.000000000000000000e+00 1.000000000000000000e+00 1.000000000000000000e+00 1.000000000000000000e+00 1.000000000000000000e+00 1.000000000000000000e+00 1.000000000000000000e+00 1.000000000000000000e+00 1.000000000000000000e+00 1.000000000000000000e+00 1.000000000000000000e+00 1.000000000000000000e+00 1.000000000000000000e+00 1.000000000000000000e+00 1.000000000000000000e+00 1.000000000000000000e+00 1.000000000000000000e+00 1.000000000000000000e+00 1.000000000000000000e+00 1.000000000000000000e+00 1.000000000000000000e+00 1.000000000000000000e+00 1.000000000000000000e+00 1.000000000000000000e+00 1.000000000000000000e+00 1.000000000000000000e+00 1.000000000000000000e+00 1.000000000000000000e+00 1.000000000000000000e+00 1.000000000000000000e+00 1.000000000000000000e+00 1.000000000000000000e+00 1.000000000000000000e+00 1.000000000000000000e+00 1.000000000000000000e+00 1.000000000000000000e+00 1.000000000000000000e+00 1.000000000000000000e+00 1.000000000000000000e+00 1.000000000000000000e+00 1.000000000000000000e+00 1.000000000000000000e+00 1.000000000000000000e+00 1.000000000000000000e+00 1.000000000000000000e+00 1.000000000000000000e+00 1.000000000000000000e+00 1.000000000000000000e+00 1.000000000000000000e+00 1.000000000000000000e+00 1.000000000000000000e+00 1.000000000000000000e+00 1.000000000000000000e+00 1.000000000000000000e+00 1.000000000000000000e+00 1.000000000000000000e+00 1.000000000000000000e+00 1.000000000000000000e+00 1.000000000000000000e+00 1.000000000000000000e+00 1.000000000000000000e+00 1.000000000000000000e+00 1.000000000000000000e+00 1.000000000000000000e+00 1.000000000000000000e+00 1.000000000000000000e+00 1.000000000000000000e+00 1.000000000000000000e+00 1.000000000000000000e+00 1.000000000000000000e+00 1.000000000000000000e+00 1.000000000000000000e+00 1.000000000000000000e+00 1.000000000000000000e+00 1.000000000000000000e+00 1.000000000000000000e+00 1.000000000000000000e+00 1.000000000000000000e+00 1.000000000000000000e+00 1.000000000000000000e+00 1.000000000000000000e+00 1.000000000000000000e+00 1.000000000000000000e+00 1.000000000000000000e+00 1.000000000000000000e+00 1.000000000000000000e+00 1.000000000000000000e+00 1.000000000000000000e+00 1.000000000000000000e+00 1.000000000000000000e+00 1.000000000000000000e+00 1.000000000000000000e+00 1.000000000000000000e+00 1.000000000000000000e+00 1.000000000000000000e+00 1.000000000000000000e+00 1.000000000000000000e+00 1.000000000000000000e+00 1.000000000000000000e+00 1.000000000000000000e+00 1.000000000000000000e+00 1.000000000000000000e+00 1.000000000000000000e+00 1.000000000000000000e+00 1.000000000000000000e+00 1.000000000000000000e+00 1.000000000000000000e+00 1.000000000000000000e+00 1.000000000000000000e+00 1.000000000000000000e+00 1.000000000000000000e+00 1.000000000000000000e+00 1.000000000000000000e+00 1.000000000000000000e+00 1.000000000000000000e+00 1.000000000000000000e+00 1.000000000000000000e+00 1.000000000000000000e+00 1.000000000000000000e+00 1.000000000000000000e+00 1.000000000000000000e+00 1.000000000000000000e+00 1.000000000000000000e+00 1.000000000000000000e+00 1.000000000000000000e+00 1.000000000000000000e+00 1.000000000000000000e+00 1.000000000000000000e+00 1.000000000000000000e+00 1.000000000000000000e+00 1.000000000000000000e+00 1.000000000000000000e+00 1.000000000000000000e+00 1.000000000000000000e+00 1.000000000000000000e+00 1.000000000000000000e+00 1.000000000000000000e+00 1.000000000000000000e+00 1.000000000000000000e+00 1.000000000000000000e+00 1.000000000000000000e+00 1.000000000000000000e+00 1.000000000000000000e+00 1.000000000000000000e+00 1.000000000000000000e+00 1.000000000000000000e+00 1.000000000000000000e+00 1.000000000000000000e+00 1.000000000000000000e+00 1.000000000000000000e+00 1.000000000000000000e+00 1.000000000000000000e+00 1.000000000000000000e+00 1.000000000000000000e+00 1.000000000000000000e+00 1.000000000000000000e+00 1.000000000000000000e+00 1.000000000000000000e+00 1.000000000000000000e+00 1.000000000000000000e+00 1.000000000000000000e+00 1.000000000000000000e+00
5.132096721735477513e-02 4.462945502325011971e-01 1.048004476916672978e-01 4.669281879617696585e-01 5.342359936655138863e-01 6.091207753849974260e-01 7.584244327289225707e-01 1.774565217953752716e-01 4.216528973292678062e-01 5.296713796577561251e-01 1.052604873688002263e+00 -5.280052097115913723e-01 1.309072135278611881e+00 4.859752444289143769e-01 5.207520154389126965e-01 8.014998482287486459e-01 9.987496140895582020e-01 8.380411429037617488e-01 2.800766205456137747e-01 5.306342273285297173e-01 6.057289327348506225e-01 9.338417689698362834e-01 7.374404616881612418e-01 6.003524665863871901e-01 3.116833917894052397e-01 7.373142307141947738e-01 3.516792903604888942e-01 5.605733628070632690e-01 5.510836543791924891e-01 1.316020278029247370e+00 5.140084804629014847e-01 5.032726294597837935e-01 7.447146137131810395e-01 5.329387931976022896e-01 7.488544689294707180e-01 6.035912881991776224e-01 6.009918403210011695e-01 1.452066260754627525e+00 1.184285518549913971e-02 5.395643519649964137e-01 7.260002660842554412e-02 -5.238851624762329573e-01 7.569431132811444973e-01 2.034207291508328963e-01 2.334363977614307140e-01 5.812356175262430869e-01 4.680402190950916919e-01 5.428268274465773979e-01 4.864502922449508437e-01 -6.184012784399982483e-03 1.733206409547464327e-02 7.961913761501624442e-01 6.167733359061242648e-01 3.976884253952306381e-01 4.813925014943885028e-01 1.353411684882238272e-02 4.426535154230903935e-01 5.518060056847503558e-01 1.617419972996258781e-01 5.326842291277330554e-01 8.640680785085190774e-01 5.073382577750785716e-01 5.340767614089277915e-01 7.374404335136967026e-01 6.784157879044373507e-01 4.130914079672889372e-01 5.233380380462642201e-01 4.038366339305546338e-01 5.242167721058973440e-01 3.870459322991586654e-02 5.837943980263664567e-01 5.476596740741834779e-01 4.990001717669301784e-01 5.251148764800768476e-03 1.410760613287803444e+00 5.150029121553617584e-01 6.169233476155028262e-01 7.807544873562505261e-01 5.263204325319129628e-01 1.348524263339214269e+00 5.245952872195115413e-01 1.760319875305138559e-01 1.182659159215872613e+00 4.349944862238196430e-01 6.255035823450943999e-01 7.572251184074869634e-01 8.363685024617262265e-01 5.229357360440470837e-01 3.589175183146210424e-01 5.720346199662162956e-01 2.436744277175259266e-01 1.899641253569996691e+00 5.358222062113877637e-01 -9.945997025077567277e-02 5.777758396557858278e-01 5.350678462232318910e-01 5.110300625960358945e-01 4.497194300208994244e-01 1.991725606839862550e-01 7.509080476350248334e-01 1.384174503848992321e+00 6.411221968498234114e-01 5.180888232538569671e-01 1.000705180426527452e+00 7.079241570226376679e-01 -1.688801216090093149e+00 -1.055973524390182661e+00 5.670361095057403489e-01 4.816815345595832909e-01 9.692334720700647166e-01 4.587702386698230828e-01 5.123363977986473694e-01 3.505205947025086255e-01 4.479443377592894349e-01 4.923131421802153795e-01 5.385766226589903116e-01 4.232472421606752189e-01 5.892551147139841738e-01 4.924697752967142628e-01 5.779516737557707229e-01 1.226026727568957142e+00 5.061036744879985338e-01 4.560083148765299854e-01 9.855140579362070552e-02 5.190344647562752378e-01 1.792064772063976852e+00 5.236194902758529723e-01 4.757659429985409139e-01 4.225181083351590150e-01 5.294591704728061066e-01 5.851854080385395784e-01 5.448482260958331658e-01 3.889502646796809127e-01 8.422610688140839963e-02 2.527086218093594905e-01 -1.056705942817881133e-01 4.632858167200462063e-01 -2.420645948774864144e-03 9.466067769027100010e-01 5.830437763726580291e-01 5.193680151521544719e-01 8.061055112585984173e-01 5.421851223296541011e-01 5.541881604491974977e-01 5.284620769464904999e-01 -3.448836063739584706e-02 4.963305545412082243e-01 5.825934765910723012e-01 4.957598857190714248e-01 -7.082313349230339172e-01 7.738283665338036021e-01 -2.802579564158106940e-01 5.812537717353142286e-01 5.052818176012586759e-01 7.229077341967060644e-01 5.411644701117144240e-01 1.488110869943695347e+00 1.984481416105246532e-01 7.959350530386214428e-01 7.388715824771193708e-01 4.737702907935614216e-01 6.508630280608365126e-01 5.114418111537837319e-01 5.192506832293058983e-01 1.129498251993344526e+00 -1.578390236092065690e-02 7.920470335851330645e-01 4.930453645696318277e-01 5.826676836146501559e-01 5.126028229492723964e-01 3.663071410063334921e-01 4.675093326955867545e-01 5.813014725420722062e-01 5.351486974194620272e-01 4.148999207028888359e-01 1.736315880966616057e-02 1.344457404686706936e-01 3.626562399188096308e-02 6.908488682656982460e-01 1.118356323555715681e+00 7.183054954062303432e-01 4.903230201516799447e-01 -2.212262936488626208e-01 4.015569358890259122e-01 4.750173946277468362e-01 5.018054806068541485e-01 5.378180789958482144e-01 5.401084706259569046e-01 2.395175611571726204e+00 6.389131686924442999e-01 4.637897492675507882e-01 -6.928458741843951385e-01 5.260613505348344932e-01 4.904455864861944625e-01 1.370298111348538517e-01 5.461063457139128108e-01 8.761888319775388290e-01 5.391050921292692699e-01 7.506510349120992798e-01 5.686836305738649511e-01 3.208883245260966133e-01 4.657867824624795650e-01 1.078676393279049739e+00 5.895171407286169396e-01 5.432437124215980795e-01 7.506510342955263759e-01 5.668160412606465526e-01 1.218695913621231197e+00 4.917370822858758705e-01 4.095455403823724527e-01 5.050447798927134579e-01 8.736049686852015439e-05 4.957876895318877875e-01 2.133387277417747585e-01 5.341738128147447418e-01 5.003811794279434677e-01 5.277022308943933870e-01 5.689630477751389526e-01 4.804440070275779462e-01 5.360999148310574558e-01 5.088259791895303197e-01 2.770426224980939711e-01 -6.066642073335184460e-01 4.035202395950886478e-01 1.898771774507864440e-01 5.728669366363500215e-01 5.535842888170380283e-01 1.099729822856302164e+00 8.912815965547589148e-01 6.325539123274543929e-01 -1.094056523034575290e-01 9.926629784015092994e-01 5.319049780857940668e-01 4.423018397238745458e-01 1.028994904720089143e-01 4.463860090820445103e-01 5.434910803273140800e-01 2.841182832019668036e-01 -9.570860723192028963e-02 -1.927659211570725284e-01 2.334463028734093670e-01 5.167663653298079085e-01 -4.727907919581360308e-02 4.824338112341046148e-01 5.445270894528438932e-01 8.028413086609929028e-01 -1.196513194971506461e-01 6.524624500325538756e-01 -1.788660884607875312e+00 5.435506245114203328e-01 -2.354342951748557011e-01 4.934556325550368827e-01 5.034709873984725137e-01 7.374402995997301202e-01 5.242257990333429873e-01 5.067204628278388912e-01 4.335164725812695186e-01 4.883898528746702383e-01 5.739721078883716077e-01 1.615784996832986264e+00 6.029041403918303788e-01 6.572084947426565238e-01 4.849747699109842602e-01 7.137115988289455260e-01 8.640691041665087280e-01 3.310478808085809965e-01 2.336069131850790459e+00 4.623368358582550242e-01 2.962824245497396314e-01 4.322816549473509351e-01 5.056181837007259761e-01 8.577832262966469390e-01 5.504973372482735439e-01 5.072401756983092591e-01 5.311158414088564816e-01 8.216178730480037107e-01 5.294177091152684200e-01 8.837214248562451635e-01 8.402561476384785566e-01 4.564449444829037777e-02 6.480959876428172839e-01 5.666674290693836102e-01 4.643598433763694855e-01 -5.758412745421704892e-01 3.633080313378646564e-01 8.633352463218240125e-01 5.899794395707150807e-01 5.475244725411142488e-01 5.385766272361952600e-01 6.146584017291409907e-01 5.263924810984058622e-01 -3.772928663488329115e-01 4.528034743207329793e-01 5.097470231369367610e-01 -3.437929625193993782e-02 5.469997953643493949e-01 1.778036914996147466e+00 5.046018007915454850e-01 5.300664873541369726e-01 4.957834744561576135e-01 -2.926060099168139583e+00 5.110255561182714956e-01 2.115644311298192193e+00 4.670121056813176796e-01 5.438425629942870154e-01 -5.918701491654273505e-01 5.311573554239737982e-01 5.485244222112859447e-01 7.572324983900614592e-01 4.422412029605838346e-01 5.276002226253814209e-01 5.998789572386235003e-01 3.193278569597869931e-01 4.922176527682682878e-01 5.587189044679312655e-01 5.014646359007549625e-01 5.284717131728295936e-01 4.675868626346503243e-01 5.353459526424650949e-01 1.122630561650391545e+00 -1.825664873101686715e-03 2.095485173502719345e+00 2.382986014213966275e+00 3.119126580963159090e-01 -9.600926920013333477e-02 5.391344461658877929e-01 4.539805230567476313e-01 6.582080211598900776e-01 1.265920352486517908e+00 5.540227558497663463e-01 1.067860143166930564e+00 5.447658210971603188e-01 1.827582898859978766e-01 1.206955755663565055e+00 6.287825605678765140e-01 5.066295813966120720e-01 5.067223511124785418e-01 4.983143271456244583e-01 -3.031857661769771006e+00 1.487507201546822033e+00 4.578505914728447368e-01 6.501200916099945104e-01 5.473258025378735514e-01 1.452066221726548756e+00 3.513457379940096992e-01 4.417181824709069393e-01 2.940797087054531356e-01 6.115387059654948665e-01 1.395710409451370815e+00 7.588378351340759886e-01 7.506510275591884440e-01 4.824309881499910801e-01 5.895171422367316838e-01 6.990502168295373853e-01 5.122503079975762041e-01 8.213485231406840725e-01 5.263625198415472495e-01 5.652019680091662224e-01 6.650914534544937196e-01 5.017112392170354207e-01 5.319661155093338145e-01 5.197672482307909014e-01 4.417179194589606617e-01 4.318680731467560707e-01 5.279537537205938325e-01 7.119460569727896759e-01 1.087214609451833347e+00 1.014639942541750051e+00 5.571508094891121088e-01 4.211965991493172301e-01 8.642018685861352356e-01 -1.173465584136811901e-01 9.172066007780054209e-01 5.974435388474766961e-01 -3.715699508946503690e-03 5.011453294486667431e-01 1.132053116987020491e+00 4.439740322587634180e-01 6.199968760896070741e-01 2.341457596425029208e-01 -2.945611837194878624e-01 -2.130711275670374771e+00 4.589070272760355507e-01 5.895171488006920590e-01 5.895171426018936955e-01 4.928210524524016534e-01 7.033167573969749675e-01 -1.180621675640512597e-01 5.391613357176129329e-01 5.178077347976801637e-01 2.698279998022304338e-01 5.225900595405849058e-01 1.127759673790239781e+00 7.506510349989194975e-01 5.371312716095688611e-01 4.928318939665511933e-01 3.942152017242123718e-01 5.779095676652173941e-01 5.346512045960444270e-01 5.106709840156714586e-01 4.619182319960072891e-01 2.427916330411381829e-01 -3.276437812891650793e-03 5.895171425973504409e-01 6.456833161398976006e-01 5.355978646284955680e-01 7.742892400178470469e-01 8.447208892474246111e-01 5.518115713286941837e-01 5.585145706353290551e-01 1.519906299103330749e+00 5.085777174806483947e-01 -2.395843764512021856e+00 4.683109573029362593e-01 1.386728839856069984e+00 4.737053799723233150e-01 -8.340649745125794379e-01 4.810552109730670822e-01 5.880509092206511745e-01 4.540678816591867117e-01 5.320191076590055079e-01 1.903979689841887313e-01 4.999047571906190535e-01 1.026517121170620550e+00 5.339817254747354358e-01 -8.660385618094339211e-02 4.934470824762015040e-01 4.849290484704897319e-01 7.373365324503912133e-01 5.014507633427753852e-01 6.950816352999914516e-01 -3.544062003157651408e-01 4.790012087641871696e-01 5.296090583963022347e-01 5.933179270568964547e-01 5.712754406836864085e-01 7.471362772131423524e-01 5.263766349321326032e-01 4.036530405144136413e-01 9.487938387992370659e-01 4.683814986832413596e-01 6.049938456972928646e-01 1.435810990890957206e-01 1.659788592133658869e-01 9.016803979837506589e-01 5.127558181927596159e-01 2.872649989330870124e+00 6.252650706356228660e-01 3.663588946902608390e-01 5.898869068168317575e-01 7.528714378871603774e-01 1.940249231398027269e-03 5.407924969006414617e-01 4.827826094316820527e-01 4.697249903411457317e-01 1.158052614033547867e+00 7.473246116489824509e-01 5.253792622439634741e-01 5.299947816308221427e-01 1.072682160008117114e+00 5.402437832528801387e-01 4.983303114917619348e-01 5.371960510592701521e-01 4.326314229478344653e-01 5.412713009338177006e-01 8.371827071518812557e-01 5.027511026459090537e-01 5.270875297623203171e-01 6.104191122507460904e-04 5.228529259892673586e-01 6.964250770356433980e-03 5.492645007075698249e-01 4.953814829989147128e-01 5.732370414083387544e-01 7.475330765268575206e-01 4.908184682480187799e-01 5.308836340388149999e-01 -2.137052449113444746e-02 5.089045396343959693e-01 5.170145811578507056e-01 4.201739309387084731e-01 -1.100848838284035694e-03 5.635077390977653033e-01 4.273817295945310790e-01 5.124650474155321156e-01 6.334548437733380499e-01 1.151855675731677131e+00 7.288100506905359488e-01 4.989491432160406137e-01 4.783235322123445821e-01 3.530535851243817858e-01 4.284971103801678005e-01 9.397280142376105427e-01 3.664049638331814962e-01 3.733932141751494793e-01 6.300391647309440124e-01 1.795876972275637584e+00 6.158711241438775685e-01 4.510968307225798335e-01 5.066313160426345608e-01 4.525397848238931764e-01 5.030351306815338264e-01 6.885700266295449179e-01 -4.932429919651196704e-01 4.007161175995927471e-01 4.118448896356519118e-01 5.996712751423095566e-01 6.587092563027127090e-01 -4.668764576190502225e-01 4.044180596946998496e-01 5.214829522127323314e-01 6.477923707430318645e-01 6.401747641594929261e-01 1.017398361864441769e+00 5.346792742611731208e-01 5.642122553419305353e-01 -5.185281213478977191e-01 5.222867373841598715e-01 1.069104292607795825e+00 5.657279831338848375e-01 1.656140435828716562e-01 4.445164236413574610e-01 -8.329653202614178964e-01 5.078183232615521847e-01 4.822464416464687376e-01 1.040739267516789690e+00 8.154239756119078253e-01 5.671993235484960039e-01 4.493303796688984941e-01 2.929661782364383349e-01 4.686315930040848565e-01 6.165744731077371643e-01 6.037095556639703320e-01 3.771599250787590393e-03 5.126837405913211576e-01 3.095299366817753639e-01 7.227585795715808503e-01 6.379854283766345224e-01 5.671835444751425204e-01 9.409044692328281112e-01 -1.362230295423604576e-01 -1.736785186982440221e-01 5.676892653317734405e-01 4.407302996737440526e-01 3.822289049399650307e-01 4.700925952358022686e-01 -6.789466209570054200e-01 2.818596775251302144e+00 3.240124476459784186e-01 4.574124684601216795e-01 7.711971306978000484e-01 5.438922077532617472e-01 5.329854790700007117e-01 4.725551116463635459e-01 4.264878574193144423e-01 4.866368645179635632e-01 5.347250817437434467e-01 5.055893310523210671e-01 5.605543485260983116e-01 6.116773345882523527e-01 5.696018185588287430e-01 4.095785432836017148e-01 4.479768968648402683e-01 5.238024267359971953e-01 5.338352563292572128e-01 9.201150067525092346e-01 2.128495300944429403e+00 5.983713974549171866e-01 4.819743276136139176e-01 5.781573532161508044e-01 5.068777599909460863e-01 5.430880942859696026e-01 5.304306555246891541e-01 5.490139293392026776e-01 2.897978097549203658e-01 5.059725707301133690e-01 5.675802757150761879e-01 4.685678352151960158e-01 4.708839367123864861e-01 7.240377048542291361e-01 8.092807246689891487e-01 7.799703609233077373e-01 1.806080557336715298e-01 8.640682611324069784e-01 4.591794311212509250e-01 3.718438756792022959e-01 1.864137864058645233e+00 2.421521547930517715e-01 4.885939570899371365e-01 5.519811519033583913e-01 4.737288317303450791e-02 5.812741489127316585e-01 1.394228128496588281e+00 5.071637136282829417e-01 9.235813433716747456e-01 5.297563778780746135e-01 5.233158869157814586e-01 4.217807948227927928e-01 5.126176834493102463e-01 5.231932839054653783e-01 5.322462083061971772e-01 2.512109586035628506e-01 4.204356528663727444e-01 -7.471423514764173879e-01 5.075643255190653846e-01 4.752776742473683869e-01 4.561767046730516584e-01 4.957742511190022516e-01 8.640682745792473973e-01 3.730859340235476163e-01 3.525121798911330928e-01 1.135541088134862653e+00 -3.978717730654014462e-01 5.320302135428023327e-01 9.905071475731225261e-01 1.236220521719400889e+00 4.269516317091103796e-01 5.327215734576825623e-01 1.213377013210529057e-02 -1.414055190064356093e+00 3.244858458579797378e-01 4.904522227288709013e-01 5.108220727825670826e-01 5.322304255475962531e-01 4.810460015358858921e-01 5.093770224370500754e-01 -2.844043310322958984e-01 7.710188841172089802e-01 5.385766390486811384e-01 5.939777933535926868e-01 5.199542268773053033e-01 -8.546431007171600980e-02 -1.904089592764967587e-01 1.528516598313355512e+00 4.355464178276034493e-01 4.671477789292015070e-01 5.316835696799587785e-01 3.646120602736377392e-01 3.495868467576387362e-01 3.341281188584921402e-01 -8.613071252941813249e-02 5.250099895678339568e-01 5.984193839672475868e-01 5.775949812764438196e-01 5.506388567232122222e-01 4.625387006063932938e-01 5.030642750674295671e-01 5.426440823128096946e-01 4.929684083749104051e-01 9.722338137981322292e-01 6.515950287515637207e-01 4.571964105035319359e-01 5.734655179571699346e-01 5.031563649374590774e-01 4.772721058449030940e-01 2.029092481790857258e-02 4.417181343326936349e-01 7.654512991355044704e-01 5.364498973275725335e-01 4.440311966814837197e-01 1.156058243892860160e+00 6.885463677459608967e-01 -2.552407463580770863e-01 4.577559202801795291e-01 4.778602930362743084e-01 5.533169372337455316e-01 4.249931317462037894e-01 7.639815456911435154e-01 4.875769129168348037e-01 5.179608927854557621e-01 1.665758323374146033e-01 -6.705883929481873951e-01 1.981218548974104321e+00 5.246771846816903340e-01 8.387815466284929133e-01 7.402089210944784448e-01 5.276958356018456309e-01 2.892013200337235079e-01 1.465438462643691153e-01 5.109578284753657496e-01 5.259722087202715057e-01 1.002962710875569298e-02 5.253294566050470404e-01 5.544428898424721419e-01 5.278982682346688993e-01 1.007726324761630377e+00 5.193031512479300282e-01 4.676717932540421230e-01 2.944266311230083755e-01 5.988114198702170210e-01 1.569938351309220215e-01 5.328585632187311516e-01 6.545193846551584649e-01 5.286269675954825553e-01 -3.862472699109947283e-01 4.786758022570652416e-01 6.309053757827438602e-01 4.796937417317068131e-01 4.683907839963996067e-01 8.640186109935309444e-01 7.520426371209475436e-01 -4.793768975565030344e-01 1.017894029095712360e+00 1.452066261065055208e+00 4.610576607825609408e-01 4.642337605790047284e-01 1.012607589532141805e+00 5.060535352082327076e-01 4.672936498356417001e-01 5.191712223523801129e-01 1.501864172250557239e+00 5.364641345550910101e-01 4.824302963734383165e-01 1.211313382215697843e+00 2.625812440003219908e-02 4.969554363116855944e-01 -8.482303914366064179e-02 -7.856624229889317412e-01 -1.906457689342963280e-01 7.246079753229065501e-01 5.031789040681379221e-01 6.156627719830364276e-01 -3.529786807831580830e-01 4.943404898069373998e-01 2.863781606667024915e-02 -1.381812781771366572e-01 4.503116791155015730e-01 5.359659635738753813e-01 5.584252544657911654e-01 4.818119430550950044e-01 4.715985381666707443e-01 8.529775038622303684e-01 -2.033365915225443521e-01 5.140256515866166165e-01 5.389984669972245346e-01 6.559248456276721706e-01 1.109479838150077446e+00 6.208803392904980178e-01 4.429511875229589224e-01 4.984695865760605527e-01 1.942540162333294268e-02 1.902286587374050209e-01 5.012610842253907295e-01 5.140358676949894345e-01 4.840233009737528458e-01 5.075728463651879574e-01 4.128754624697010822e-01 5.250489266071954875e-01 5.260176989951648174e-01 2.396356580514921453e-01 4.539380520080157910e-01 8.206161414265730203e-01 2.294588938026131952e+00 -1.903855012393964319e-01 6.726910814305246955e-01 5.593370545643799874e-01 3.498293758345004112e-01 7.331447484797857239e-01 -5.688473590481061062e-03 -1.179569994976392255e+00 4.802485500784797190e-01 2.353380340648767888e+00 5.647667102409973383e-01 1.226277751317960962e-01 2.529926432675505543e-01 5.385766219916678921e-01 5.439804618578665263e-01 1.390303100820487359e+00 5.748988456119511481e-01 1.159117669215960211e-01 6.112190288849802533e-01 1.430538684203815691e+00 5.532554064713126607e-01 4.569884485191911816e-01 5.412289612221212742e-01 7.859325679907686046e-01 4.421003955615325776e-01 5.303536566945229458e-01 -1.636355819457796165e-02 5.453532404401799649e-01 5.676583132141784782e-01 -4.944898143759467457e-01 2.319997565451623611e-01 1.114491327141017507e+00 2.296224672784382692e-01 5.580266802796643999e-01 4.537923052841792426e-01 5.227318197708190617e-01 1.878407013750848842e+00 6.639773874778500673e-01 4.222583624647110317e-04 2.903635319627658751e-01 5.391554118853488786e-01 9.316831048849031349e-01 5.468444121688994519e-01 5.332521093319615019e-02 5.354004614991914046e-01 -5.916051048553700592e-02 5.200138431229129887e-01 5.624069353960378104e-01 3.953530838343938258e-02 -1.283299417640794693e-01 6.315415302669449282e-01 4.283672207322269943e-01 5.141903109321731558e-01 5.948884105811711454e-01 4.755666144033236509e-01 6.061355271041554138e-01 5.361353940178638089e-01 5.918035685252978073e-01 5.219502342411233009e-01 7.404258980137213841e-01 9.888204670586971945e-01 2.832099147798821548e+00 4.488103984266079149e-01 4.945922215363710017e-01 5.788366326270414364e-01 1.904978439446098903e-01 5.261830218995917630e-01 7.306973399409687486e-01 5.527042404060454883e-01 1.304842839591987769e+00 6.435680928967756342e-01 -4.791599306683047566e-01 2.693892944768139577e-02 5.764629112721435522e-01 5.974581841552112360e-01 4.925774826275752249e-01 5.591831521421062323e-01 9.798843960833613850e-03 5.282790795531130401e-01 6.359124355392384853e-01 -2.766045728758997679e+00 5.194669700093622611e-01 5.081977566511378663e-01 1.054720521087807450e+00 5.089127353364423234e-01 4.552116646401782596e-01 7.354947271975498246e-01 -7.159789377321008619e-01 -5.047910928932636265e-01 7.929334463013434919e-02 4.570232163418687099e-01 5.330023819619009728e-01 3.679307747197676504e-01 4.890904742789214388e-01 -2.719597820376465913e-01 8.228143233577756011e-01 6.123907284588885336e-01 6.810843579386657298e-01 5.105765510196055290e-01 5.505178158865731142e-01 2.211691298879198408e-01 -5.774771352712876338e-01 3.424265032599511649e-01 5.339689078869069849e-01 2.017779823183369903e-01 5.360714981529999257e-01 5.089079824834035204e-01 5.358318077308477090e-01 5.948396628535849162e-01 5.309702431099406761e-01 4.974392407802988858e-01 4.781401427463705667e-01 1.452066253926432182e+00 4.362977784863391606e-01 5.577023645777128280e-01 -1.495937323007155879e-02 5.089273247962581292e-01 5.968684743802162851e-01 5.305541139856074784e-01 5.463221431905337377e-01 4.260209163966773294e-01 7.595826428641530015e-01 9.334723301652426697e-01 5.545957948253060765e-01 4.689242907911485569e-01 5.803424011260891469e-01 5.469992921741291259e-01 5.138966146419070569e-01 5.193440833275534407e-01 1.017976648262814532e+00 6.980479120614996313e-01 -3.919681966199849432e-01 3.922546555232303001e-01 9.174151327932679179e-01 4.997693908212236802e-01 9.753928513070954376e-02 5.092706217992566398e-01 3.718367647444825730e-01 -1.332345359030739085e-01 6.391779964844718220e-01 3.017554021809460973e-01 5.208070714303146831e-01 6.168093101207647866e-01 5.498330927483510155e-01 3.594888842226002801e-01 1.326229582602358903e+00 6.280443830929076654e-01 5.010066263449874935e-01 -3.335402216364447003e-01 5.471585730852397411e-01 1.052836746862531481e+00 4.770222893552057974e-01 4.187192969578532598e-01 7.285010480974729585e-01 -1.582308563877320717e-01 4.028734659570899490e-01 1.377340636586677824e+00 -7.878347895071339257e-01 5.208058706827602968e-01 5.280385739807322842e-01 -3.111577975580578359e-01 6.029796063028498576e-01 6.322106085701948430e-01 5.757752155519392234e-01 4.914278456921765126e-01 4.166672226286242675e-01 2.740202476352227579e-01 5.727223242345309551e-01 5.186089606028488896e-01 5.145566707611686219e-01 8.637952150884392610e-03 3.573785871809510017e-01 5.435380909601824628e-01 1.027750334184643455e+00 2.660174174398461377e-01 -4.939917211944891418e-01 4.930164458642241621e-01 5.300655985910717183e-01 3.599858064510180755e-01 8.292716117731399605e-03 4.527737340846161307e-01 5.454235217879997988e-01 5.339586531130159353e-01 4.967321164902571140e-01 8.800611902831798755e-03 4.838299362783922142e-01 4.303981700596158921e-01 4.923405138991707175e-01 1.938116156199412021e+00 1.703838202798977353e-01 3.619615403487373428e-01 5.019005093378313687e-01 1.674241807684026417e+00 3.137173974744745797e-01 4.681653623797741304e-01 9.579491042616541940e-02 4.417186203859599369e-01 5.346136076970861017e-01 4.501475242216675388e-01 5.490980284350672758e-01 5.025414764175453186e-01 5.061704675282514554e-01 6.233742322108425382e-01 -3.408904764464817938e-01 5.088263679039685128e-01 5.324664191138007707e-01 5.322267949960598488e-01 3.737739290924385616e-01 5.383984574751414787e-01 -1.925559375776731974e-01 7.996535823794789222e-01 -9.487894396743280501e-01 -3.904501061188069277e-01 4.838058785700856679e-01 5.323523533247769279e-01 6.249430595052727355e-01 4.985869489064879145e-01 2.611253625506888554e-01 6.689888152175336167e-01 4.417179444231556507e-01 5.436232855427998167e-01 4.967566563871284591e-01 4.155545908804760824e-01 5.365850669584558696e-01 4.453555937337141390e-01 5.017788764785781064e-01 5.219043792164350659e-01 2.574355721158071986e-01 5.285097432170298148e-01 4.900340587958186833e-01 5.241648358030972510e-01 5.073469925356380861e-01 5.242552269177227497e-01 4.219713078934898554e-01 4.156374094398618824e-01 5.175494115038582477e-01 5.672534739736460052e-01 1.728600901962186742e-01 6.275893863428850805e-01 2.051113195403786005e+00 5.122491558662258804e-01 3.882408791028221229e-01 6.729864721000148320e-01 4.743951091684951438e-01 1.063630893477977901e+00 4.892369911225069590e-01 7.634942158685847913e-01 5.297348369349890174e-01
7.990950016342549533e-01 4.134575103057129830e-01 2.800938560014104572e-01 3.688897471760572699e-01 2.937310723359959908e-01 1.408395278315548449e-01 4.594598286883216920e-01 5.257443278175214507e-01 4.169723354584271569e-01 2.873841880586187614e-01 1.866084172633151628e+00 1.583133324963790889e+00 -1.234236291935286500e+00 3.601210421771623427e-01 2.848559425621113861e-01 2.488483336911358201e-01 1.455584035616264982e-01 3.810465556227174422e-01 3.143375118362396470e-01 2.887870314517921311e-01 2.283362482621071055e-01 1.877101223736303393e+00 2.934208037248292045e-01 2.319452409535257831e-01 5.079778348989144598e-01 -4.426289288144035217e-01 4.922757242824444268e-01 2.178586482417053105e-01 2.753002507246469777e-01 -5.816644513534634520e-01 3.078509563855318931e-01 3.620261187451652707e-01 3.072410900155210234e-01 3.071491688150965738e-01 -4.061087851976076801e-01 2.151141004604667784e-01 3.822876546202076398e-01 -1.407154538520987153e-01 -2.803841385208792669e+00 2.821184865065383685e-01 8.547451852836219777e-01 1.249369829377105640e-01 -1.375392116265789777e-01 7.720867719650615912e-01 8.156066604082791160e-01 2.021451549779091916e-01 3.683065611813855500e-01 2.725120111134320400e-01 4.807524352432045456e-01 7.584221080045490115e-01 7.959770154673202480e-01 2.220103016288824671e-01 -5.163817739047134037e-01 4.382120630223422242e-01 3.635028748519707475e-01 7.592578561379456081e-01 3.638993984348337096e-01 4.777020185374721284e-01 3.575475113592306853e-01 2.827692330220589190e-01 3.912316229376580634e-01 4.286681499033447862e-01 2.750740787183234559e-01 2.934207995742473263e-01 -2.735263532122520491e-01 4.805612095314266696e-01 2.919657850046904479e-01 3.956419275452881523e-01 1.606209616862370460e-01 7.179026651671237547e-01 3.869779377399098497e-01 2.637060221780695435e-01 3.404058204423607847e-01 6.900371750348623934e-01 1.735669022348395263e+00 4.870080550291679411e-01 4.352775417029624561e-01 4.527228773634902614e-01 2.953514923978923234e-01 -1.186044813237756346e+00 2.960888580664055025e-01 8.320295182864145822e-01 1.839588207133149300e+00 5.140405022592609008e-01 2.408939470239839231e-01 -5.768938870188170531e-01 4.923583692193761463e-02 2.999508671038701446e-01 -5.159185567877695444e-01 -7.190998102264530845e-01 8.140834092380132558e-01 1.353269144934866830e+00 3.138080318985201345e-01 7.876488948100864862e-01 2.490718249813665686e-01 3.685113023802870091e-01 3.049032219505107832e-01 5.141280641449371691e-01 7.505646305788585826e-01 -4.349713623283701924e-01 -1.064318142575780279e-01 9.865015309496119600e-02 3.077018137304713963e-01 2.436318241559098374e-01 2.864382887341886952e-01 2.679310281411748207e+00 -2.279416222901752831e-01 -3.160468728243959191e-01 3.553988689664018819e-01 7.761514029557851080e-01 3.688198728266083304e-01 3.583869302076311825e-01 2.820748982038625563e-01 4.263481474656306003e-01 -5.366264285259734201e-01 2.930231202847455307e-01 5.547825396579142421e-01 3.304263140174301117e-01 2.379775210305932753e-01 2.753094094751983856e-01 -1.289930985573043865e+00 4.276066318092012208e-01 3.835542717297234505e-01 7.736252186649184015e-01 3.163099016343249859e-01 1.925947848713408295e+00 3.805974089187672549e-01 2.861716258200366347e-01 2.925477611507186215e-01 2.950117444411026191e-01 2.592367346366641345e-01 2.824088608120475796e-01 5.671929088401458374e-01 2.613755592820838358e-01 2.629087551067985640e-01 9.012264660074408296e-01 4.818866907287360224e-01 7.328188447505188385e-01 -2.903801815035614298e-01 2.442144210161925344e-01 2.841613634798727528e-01 3.192472314089004892e-01 1.782300483835940197e-01 3.143178803517421294e-01 2.826919756442633491e-01 7.747321656276042745e-01 2.655273613325602744e-01 2.346552048005520197e-01 7.322412225360887261e-02 3.709346265525431674e-01 -4.542509884968054523e-01 1.949154328279845833e-02 2.021577537303509142e-01 3.399633763649457796e-01 4.935872168790975678e-01 2.617366922347145741e-01 -1.497999544527084170e+00 3.807731108071190640e-01 -5.179216678836926491e-01 -4.345724162536565571e-01 2.807817762585750887e-01 2.469528988014049742e-01 3.233784993297202925e-01 2.804469759640845217e-01 5.637921998695274994e-02 -5.430637611871117626e-02 3.280698560441779321e-01 2.073968199024991688e-01 1.970078266753325369e-01 1.680498521541341217e-01 5.020408579700491591e-01 3.673907829706012929e-01 2.020475186972024995e-01 2.970061314040711165e-01 -2.233570585164873279e+00 6.715213012558475247e-01 7.514082184749517612e-01 1.051585869291821851e+00 -4.164585805533488339e-01 1.133965899257541432e+00 -1.901657886368234018e-02 4.208817362671101181e-01 1.151725929893335554e+00 4.092477922020646974e-01 3.128657982891849265e-01 2.709899745070146748e-01 2.885985636043913449e-01 3.103413456497390865e-01 -3.301515935754175679e-01 2.530321958194771681e-01 1.739399681247116858e-01 7.293923151926842152e-01 2.969324307249362471e-01 3.628460285644065642e-01 1.544352981378780132e-01 2.709685162963569871e-01 -1.354019064879375955e+00 2.820718031171350892e-01 2.898986309244072634e-02 2.616561686987445290e-01 4.615013588826519797e-01 2.990245032605146625e-01 3.076349784238675000e-01 7.714096472487351475e-02 -8.931260489321942719e-01 2.898983014659959473e-02 2.837406392701906088e-01 -4.392994547077921919e-01 3.655279030062454360e-01 2.792370425785673516e-01 2.902606536338154797e-01 -2.812416265148355965e+00 3.586708092798066572e-01 9.480966455299997264e-01 2.969743688865942310e-01 3.204883692321857658e-01 3.054431554445346531e-01 2.619625801380592867e-01 3.485335077597907505e-01 2.793392548068820425e-01 3.483980026546002473e-01 3.233757449388562355e-01 6.098674699505817198e-01 4.973847268723376458e-01 5.062664299090178233e-01 2.772317786692293784e-01 2.928505013958863645e-01 -4.039585928667200898e-01 1.945811821584111145e+00 9.378678582057774216e-02 1.153040185449055510e+00 -1.296700843258997482e+00 2.930136059535551341e-01 3.135733905682134837e-01 2.995048636977921119e-01 9.393681994125478996e-01 -5.276309648049723466e-02 6.674187522396757277e-01 2.499496572427253038e-01 6.505140080563706073e-01 5.632697404376018069e-01 3.683587639625542365e-01 -1.020444923193674969e+00 3.407707133591854620e-01 2.823922298138530906e-01 1.207325822788364034e-01 1.014683613146200258e+00 -1.493841320098498460e-01 2.635484341630016214e+00 2.325872712656383290e-01 9.358970826682635469e-01 3.015631304840020732e-01 2.941391122753598819e-01 2.934206465162295108e-01 2.773992017799206122e-01 3.415958896543799250e-01 1.972722347285467137e-01 3.965662399925649062e-01 4.200098683117479137e-01 5.506680606268627987e-01 3.942668157641299742e-01 1.494950066820296686e-01 1.870179347256293034e-01 1.986480011589182859e-01 3.912309010843570967e-01 3.451542762306523682e-01 2.751236158712975222e+00 2.490125437165698896e-01 6.660182203736926265e-01 2.180333096464928955e-01 3.280644247446005135e-01 3.965250539603606406e-01 2.756974521025565283e-01 3.307162486072589558e-01 2.937872285690766305e-01 -1.542544513683766216e-01 4.437979899903907732e-01 2.853762409336849104e-01 5.385626837894530450e-02 1.211900513307898608e-01 1.386096077395297721e+00 2.730689361873179233e-01 1.659221237855568465e-01 1.873284346739039208e+00 4.341069210595286942e-01 5.951836861085524344e-01 2.113755895603908197e-01 3.072549938878608167e-01 2.930231337833302252e-01 -1.912743816604655978e+00 3.039283845717219990e-01 1.097056640361313784e+00 3.747764347646794225e-01 -1.737359788234111857e-01 7.814049218028618071e-01 2.750242864886566774e-01 -6.413819146351134037e-01 3.177641801440849734e-01 2.935001288959533383e-01 7.315925892261931907e-02 -3.011937763597857254e-01 3.311695485091947777e-01 -1.437744402399768306e+00 3.677710144907428425e-01 2.858522818645414798e-01 6.299616542325988666e-01 2.983750000367318411e-01 2.838718023179028771e-01 2.090222647649295495e-01 4.242013356871057184e-01 -1.444268855936378104e-01 -6.764810342983705871e-01 3.487735543485931400e-02 5.523139051515216780e-01 2.609971960156844961e-01 3.316628814686058968e-01 2.953572176629921109e-01 3.671534621611294291e-01 2.975708169025521599e-01 2.165466223837278381e+00 7.856223331549107014e-01 2.445873395608293976e-01 -9.769843720948182542e-01 4.845423200491459359e-01 3.965132974171125646e+00 3.237142090296263319e-01 2.031176461428036428e-01 5.516130062853036309e-01 -4.810911308777854778e+00 4.080968068205886867e-01 1.330626078073139373e+00 2.766365798507468554e-01 5.764811268202828520e-01 -4.066446666436557278e-01 1.929284866626191086e-01 1.452720289569148782e-01 2.706527322054393947e-01 3.259596763051126889e-01 2.488362689867600785e+00 -3.022350123121519405e-01 4.082034307445176480e-01 -1.757675518607103360e+00 2.756572039671764118e-01 -1.407154625528233283e-01 6.725564516335371668e-01 5.312468682820302712e-01 4.700712776834024553e-01 3.584363113909041498e-01 1.329276048264284027e+00 1.572161453806962816e-01 2.898988282850359019e-02 3.407725509354210813e-01 7.714095559088543497e-02 1.383270435379128083e-01 4.147605103968541318e-01 -5.304096378214354646e-01 2.960345369638235913e-01 2.557729365066876426e-01 3.199542565457683674e-01 4.636031105110376416e-01 2.995684159466051599e-01 7.931422702670518077e-02 5.312474918432268378e-01 1.209818595716253414e-01 2.930842557400579196e-01 3.122427165140487793e-01 6.134306133379365811e-01 2.726618142172218207e+00 2.692049912261101907e-01 3.705727152360525078e-01 3.911974229368052614e-01 9.247815029008328302e-01 4.284474140793990693e-01 -8.841065142710929914e-02 7.746802888619248595e-01 3.345758212715930768e-01 1.128516087472806878e-01 2.976662605218264868e-01 4.393143347291799672e-01 8.081471272631933767e-01 7.012435085645970512e-01 7.608504328469046785e-01 3.158708967748795615e-01 7.714095240301309386e-02 7.714095902501516555e-02 3.393124698368236714e-01 2.500550772995451254e-01 1.116249902284857320e+00 1.385577246416769548e-01 3.222427501056807642e-01 4.786506226630869443e-01 3.105743636316949940e-01 8.597160143266789900e-01 2.898981927189794860e-02 3.015860186967248002e-01 3.655701159249906129e-01 5.132279083362463190e-01 -5.597212398180829718e-01 2.983498883368382870e-01 3.127804307952336549e-01 2.515107459544454471e-01 6.634481048037932371e-01 7.412478609149318887e-01 7.714095903729915882e-02 -1.603944280896792973e-01 2.975904579614444545e-01 5.567372977033926973e-03 -5.535436978206611514e-01 4.620123579335547181e-01 -3.041444037983513926e+00 1.548241682427544230e+00 1.974104449570455722e-01 -3.114295772127254613e-01 3.681609562996246976e-01 1.817679483475979296e+00 4.122100996227125447e-01 5.715258110276820736e-01 6.351730258624660452e-01 3.540639198137662258e-01 5.390537752242606784e-01 2.940033644041123995e-01 -4.590065028052266183e-03 3.560364900069551974e-01 1.823774534249269497e+00 4.081117801843338055e-01 -1.990985167839945669e-01 3.960608893065694081e-01 4.134288307507704707e-01 -1.319994888629364871e+00 3.243595056187407732e-01 3.162246429480269905e-02 3.993586269475085659e-01 4.039297359042561264e-01 2.984219873439663551e-01 4.049360817714977578e-01 2.758777116593051915e-01 -1.525387595930131901e-01 2.971324595730923668e-01 4.973108531773598462e-01 3.705071106618130772e-01 4.025415972493250338e-01 4.478051348420690747e-01 5.954816577061710081e-01 8.022862466589832930e-01 -1.146104726616966163e+00 6.396706469864568700e-02 -6.310835042370160908e-02 -1.572975788912986395e-01 5.223082310401858663e-01 3.887181745928600662e-01 3.502435042389138165e-01 6.938575160045012957e-01 3.398316683135433336e-01 2.189119298879633468e-01 3.841524326495349695e-01 9.054816060332697425e-02 -1.529999661532125688e-01 2.906218947883750237e-01 3.196626395419193689e-01 4.666607294065547862e-01 2.867384432240888681e-01 3.393270119937098483e-01 2.737333118910867391e-01 3.663255252035209075e-01 2.851429907350834236e-01 5.257436406777438176e-01 3.528163996628657095e-01 2.970316511322376729e-01 7.760477575697634078e-01 3.062778920556835094e-01 6.835688565431606856e-01 3.517444248053006040e-01 3.585292513375201717e-01 2.466150262243478608e-01 -1.295276547038426429e+00 3.689249955937745629e-01 3.069582479802429598e-01 4.807572615557130780e-01 4.121346184375365151e-01 3.101148622973496916e-01 5.766632713119105302e-01 7.547327113847269731e-01 2.728965991726723939e-01 1.921570381674602424e-01 3.132647843805724808e-01 9.532658469669991197e-02 3.324180301501058477e-01 5.100006038902465955e-01 3.332415928457825860e-01 4.867968683034587518e-01 3.964376493449522365e-01 1.762193710680121442e-02 1.431593515892507940e+00 5.528277112255163273e-01 3.293752074004657748e-01 3.281212882616467708e-01 -6.924344886652114006e-01 2.623515579664870701e-01 4.356195823015944213e-01 5.965795668280143849e-01 3.751904457128859560e-01 1.942610771371853229e-01 9.299662312359453509e-01 8.572945366149441471e-01 1.455628837128366826e-01 3.660059302210447174e-01 7.014146959964795425e-02 2.282477827385381852e-01 8.249844720001709986e-01 2.670268266635195342e+00 2.926847092802090655e-01 2.489141558239743868e-01 6.076502342868839168e-01 6.263106464293687059e-02 2.935628836378089690e-01 2.632650901055946790e-01 9.416377262613379040e-01 3.958701409283005845e-01 -1.972007710203503295e-01 3.125516336691408492e-01 6.430946875209950231e-02 6.542717453328729116e-01 1.192572243070305404e+00 3.621234378578308544e-01 2.285122272595445092e-01 1.549188897685707333e+00 4.650614595136098872e-01 2.654427792708408673e-01 1.651408282356330026e-01 4.810382838027666974e-01 3.682980577803801059e-01 1.264497546840769593e-01 2.097139135230908225e-01 6.923103395315962638e-01 3.930979776593039876e-01 2.917770147552566362e-01 3.021442530712159513e-01 1.264520726812101148e-01 3.634433328502869043e-01 2.322729682867340217e-01 9.864230097490115368e-01 4.557802998649311266e-01 3.233291234369873868e-01 4.268042138713138423e-01 2.831431432133157400e-01 3.863206365730046943e-01 5.566801321497655275e-01 6.952593481943496467e-01 2.323837040499633355e-01 3.467785032512248899e-01 2.346447331298094352e-01 2.809354950684215257e-01 7.276869070426980057e-01 3.523700665458458503e-01 3.079227061865407733e-01 -2.445636316743393102e-01 2.967949980633051710e-01 1.726284540565249381e-01 3.314258816972443511e-01 1.599932224673846493e-01 2.701377620120731238e-01 1.516059187658069352e+00 5.285099875630658861e-01 2.993101347591597405e-01 1.234337043518942412e-01 1.330920491147452145e+00 1.060789528750684108e+00 4.148096130879118104e-01 -4.428282925866811048e-01 -1.116332236245104470e-01 6.412274880090548801e-02 2.594996540450481004e-01 2.901903542219080867e-01 2.768976088701992633e-01 4.758112424857997569e-01 4.038864603952674881e-01 2.772248371396668354e-01 3.684094256781258458e-01 1.909229775050173550e-01 2.443365820032631364e-01 6.385380102235103106e-01 7.611944861681059493e-02 7.819877677327011778e-01 3.912313314522888885e-01 4.059487572237768793e-01 6.152783985416293566e-01 4.753280849562890320e-01 8.133471282139316250e-01 1.188467068854017900e-01 6.464294099083900402e-01 1.379270492949576044e+00 1.929564825134804928e-01 1.812353672229533030e+00 3.832250635636569314e-01 1.001001602155555392e-01 2.946694465167867261e-01 3.023270204543674344e-01 3.702996431348150597e-01 1.680640716184548800e-01 2.941774433573917102e-01 2.928746356655970717e-01 3.067726460616643225e-01 3.511793511169307713e-01 -7.280242519610859164e-02 3.551242879112592732e-01 1.272937853397957397e-01 4.152208905211959289e-01 7.308400593343881979e-02 3.912313271655609714e-01 1.714612781212612180e-01 4.666034995837224364e-01 -8.643034402413038997e-01 1.745941736935477051e+00 2.942349319676305641e-01 -4.775310160450453312e-01 3.017521513691261426e-01 3.302784430624862155e-01 2.932495622157925141e-01 -4.128046186158011110e+00 3.122254593878789120e+00 5.733111683237317457e-01 4.579413954236270512e-01 4.669962395745675954e-01 2.928510797687544076e-01 4.677451018951306327e-01 2.303876397863810599e+00 5.672222327447087320e-01 3.364333533512957608e-01 2.930231158751644971e-01 3.235838961931441493e-01 3.065160059032709938e-01 9.184544497504022464e-01 -3.800797455779408307e-01 -8.727029059392332755e-01 -1.006072352539512549e+00 3.858940108337765018e-01 2.936776730681380787e-01 6.030420666100340110e-01 3.774348321432162701e-01 6.033703565826036286e-01 3.797900932539685082e-01 3.023378800093505792e-01 2.225946575407014294e-01 3.351190014758405056e-01 2.602652980113808190e-01 4.076222860346379595e-01 6.286977397652362409e-01 2.811878553677114589e-01 2.310555386550684764e-01 1.670232720922100733e-01 7.843137130653092537e-02 4.069352897182209605e-01 2.471880327918520581e-01 3.148961266602027242e-01 2.702575464038615705e-01 7.682012522848649105e-01 5.312470031068613485e-01 5.364454166950970437e-01 2.821720254975657038e-01 3.448501767295304998e-01 2.143512715511186884e-01 9.299954708794652136e-01 1.496749668854480797e+00 4.057347456134089980e-01 3.605149341453156020e-01 2.707239557461507129e-01 4.836031150636511122e-01 3.062044935214938701e-01 3.268954347958934470e-01 3.061290679115872271e-01 3.119608253317097124e-01 7.255290942291003908e-01 7.709829311862432810e-01 5.275546276226578124e-01 1.661632124685043843e+00 1.366907482994415834e-01 2.907623168262830626e-01 -1.827868326677729860e-01 -3.665794080560316193e-01 3.160666663666703013e-01 3.011269322930008041e-01 7.214827185876774296e-01 2.971110467762372309e-01 2.631779019092875815e-01 2.909525252844273879e-01 3.506662159233577269e-01 3.131195253389562616e-01 4.659139930636788662e-01 9.719455044127618404e-01 2.163500468873962579e-01 6.014796026050501787e-01 2.961707436505139901e-01 -1.075874331758659708e-02 2.693345045260761017e-01 3.643633316448428028e-01 -2.137841848276158252e-01 2.282502615633017207e-01 3.588013811749087290e-01 3.691387278571804376e-01 3.912693423150336303e-01 1.161351490891799010e+00 8.586605838892935605e-01 -7.599397726163251710e-01 -1.407154535311561094e-01 4.064236496635298956e-01 -2.884926684570539468e+00 1.466591084055573813e+00 3.391899796276350854e-01 3.689649471135986736e-01 3.062754371209782667e-01 7.611347611933708679e-01 2.954117666526320241e-01 3.407727440411797426e-01 -3.812007872012980192e-01 7.254718320417679056e-01 3.390413983799944742e-01 9.186615917919007668e-01 1.890566321443340358e+00 -3.799123371841856556e-01 -1.310106975238825688e+00 3.506814370711026640e-01 1.354472276692569865e-01 8.549549614517353291e-01 3.363780815409873060e-01 7.754497059342269072e-01 4.642218678480584115e-01 1.773454406358158653e-01 2.786938909205506909e-01 2.682810865429701708e-01 3.589141424221436449e-01 4.517711936001227446e-01 1.202331187615706787e+00 1.340511750900841959e+00 3.242562821142891960e-01 3.076021610893168168e-01 -1.998726205836820757e-01 -1.663122435564611534e-01 2.032287468515080742e-01 3.604016039537640825e-01 3.204783195759249859e-01 7.146350857447146820e-01 -5.225752375798455029e-03 3.544745746916124762e-01 3.015242543988910229e-01 4.380708060519050151e-01 2.895516527394135786e-01 5.117031449630472517e-01 2.947915084666090091e-01 3.004325318338979534e-01 -9.377859538260370498e-02 4.249905303593957129e-01 4.622508273090270570e-01 1.004831048098502544e+00 1.051205499703091739e+00 9.206457310973094055e-01 3.076968860972052466e-01 5.536160340141469405e-01 3.019172774327354494e-02 3.162165526993081510e-01 -1.683935924339532431e+00 2.844112476436583270e-01 6.142117166956103658e-01 2.591771916597765957e-01 9.213552697887258391e-01 1.259210462187103863e+00 2.930231196067009103e-01 1.139417157490263954e-01 3.599654880648095467e-01 9.288976441515454929e-02 5.999613152885328038e-01 1.739025837936237773e-01 -5.263662881595566612e-01 4.504043340575533128e-01 4.299244480606383978e-01 2.981959336663067006e-01 3.503161229418121914e-01 5.832470580060111764e-01 2.915490710223607174e-01 3.229114512124467429e-01 2.756163259535557852e-01 2.465262350446476847e-01 8.566719656939729699e-01 3.763745919966934861e-01 -1.716218935971008941e-01 8.425308813125288454e-01 2.068651819482683341e-01 3.017842940454988354e-01 3.011430729710415921e-01 1.197700463477817223e+00 2.515712131540600027e-01 6.957344861084715504e-01 3.264361350525077365e-01 2.924978078111840074e-01 -2.568343032166518491e-01 2.487208678304418386e-01 6.893119227999269238e-01 2.985084809061284150e-01 7.465117836795641670e-01 3.173252752033917656e-01 2.780756427827080768e-01 7.337128716205272294e-01 3.200081629731334198e-02 -1.858629623994797919e+00 2.300403255758457777e-01 3.277943018530303232e-01 1.641490575538941954e-01 1.428367050214222611e-01 2.028047651058400569e-01 2.825002366951521737e-01 2.581504940292684291e-01 2.800099587227802833e-01 -5.012943794318560492e-02 -1.517385380798806249e+00 7.074325889517492083e-01 3.402288232200386675e-01 3.597239229429124996e-01 2.083604537899612363e-01 8.029983536224423180e-01 2.968407836098596042e-01 -7.795553968908776332e-03 2.633200553092867602e-01 1.071638391900093579e+00 4.037414615030361364e-01 4.090660793378086968e-01 1.077599296557343767e+00 3.925622442632553111e-01 2.297481716008896502e+00 3.639165725211223612e-01 2.899031624162610177e-01 8.183523511083271584e-01 2.959913176246901090e-01 2.723970444070210051e-01 -1.561804803144934972e+00 3.387197102516319447e-01 3.299831711374454080e-01 4.896811274352378396e-01 3.015670781133796829e-01 5.163531784204122843e-01 -4.352963597991508782e-01 1.824560712464240231e+00 -5.080620769935256797e-01 7.270660566745478226e-01 2.694628557776461708e-01 3.291963604363485341e-01 3.890590904782830206e-01 3.716381672792912205e-01 1.202942766260639118e+00 6.691252799350023636e-03 1.447351502466872053e-01 -8.152557013350554271e-01 9.949845182106564767e-02 4.623658518140373319e-01 -3.087817371872509487e+00 2.565201898739406072e+00 4.159658754158858662e-01 2.996463364257755391e-01 -1.322591193590619829e+00 2.983763980700944729e-01 -2.996410817184752551e-02 2.982046890641812942e-01 9.837573098441662611e-02 6.173904528679178272e-01 5.383642242275186174e-01 6.188395034568792141e-01 -1.407154515960130636e-01 -1.181411019757388492e-01 2.593159254483596299e-01 -1.075902107370659833e+00 3.415527274556177106e-01 -5.762316190511509451e-01 2.956043076834328209e-01 5.231243539097840678e-01 3.766354877737106144e-02 3.259173487847713546e-01 2.992641808716495766e-01 -1.686915696253398489e-01 3.989685131927310779e-01 3.532008041452570635e-01 2.218596559369484522e-01 3.005419678391175187e-01 2.959682516092442262e-01 -7.600448319173452871e-01 6.605610689873102626e-01 1.447274418570222210e+00 1.298571346581394240e-02 2.594760135896692632e-01 3.581860895112483067e-01 1.230533505318009535e+00 3.286924571525098870e-01 3.012340116923086786e-01 9.096332260892887600e-01 2.237339558747982182e-01 1.631727652856346023e+00 2.842372597025416003e-01 6.008253167858428334e-01 2.761246146083763953e-01 7.103703137670099865e-01 1.287710452342950784e+00 3.498404551029236087e-01 1.343560278814580899e-01 7.673040969166227132e-01 -2.847246418191860806e-03 2.795198405126967170e-03 -7.509931932694534351e-02 2.865912968977842312e-01 2.774118700256318348e-01 1.417683376043597232e-01 4.989933617905666363e-01 -2.278257706786500358e-01 1.284669560749810202e+00 3.068631486245649853e-01 3.065491671211119096e-01 -2.596664496276858358e+00 2.014889583100495096e-01 2.230095940461875592e-01 2.573208881881460797e-01 1.933156669892457588e-02 4.057326040821501723e-01 -7.638107087545485951e-01 2.618516943163395339e-01 3.106760415818605181e-01 3.231232653506254104e-01 1.116909913745694150e+00 3.434698907016762170e-01 2.964296048113072013e-01 -1.262847903926717530e+00 5.282934594807333628e-01 8.566853836118746290e-01 2.577474522944058766e-01 2.964595452459324876e-01 -8.207227127154017449e-03 7.729725923897389217e-01 -8.545682862263699608e-02 2.843463210566340438e-01 3.008744114010897808e-01 1.002850104039090251e-01 7.456936184821268965e-01 3.268288079370946231e-01 7.756969599825520589e-01 3.952917801112327822e-01 6.567843883471922162e-01 -4.078520025473691968e-02 -1.448113875065482947e+00 3.599584101088292298e-01 5.528616027419842524e-03 3.445486916237247010e-01 3.868931166785391507e-01 1.185875164894922701e-01 5.312466552276615683e-01 2.939033006894716804e-01 1.641680690232029671e-01 2.737448932372013033e-01 3.276999736088814230e-01 2.365898382426943058e-01 2.426913500373314991e-01 -6.161730783226144759e-01 3.317637856327304569e-01 2.764807860229093750e-01 2.842069516441379506e-01 3.924278160295946449e-01 2.864496507205707143e-01 6.535653142865501808e-01 -9.644412611798072743e-02 9.449792023410091835e-01 5.462518437284736850e-01 3.754466244923523877e-01 2.946460521147700184e-01 -1.846610126871013113e+00 3.381147765620662882e-01 2.337170152570214321e-01 1.973257236494963263e-01 5.312470908912502177e-01 2.770318016593737442e-01 4.582896982171418832e-01 4.318205413490097122e-01 2.888022939932703426e-01 3.296949714638722218e-01 3.060071421236479905e-01 3.132810959375974535e-01 3.671647791922381665e-01 2.955424162298416757e-01 3.053461437182796168e-01 2.993973766875319686e-01 -7.895803228615125291e-02 2.987415353663899764e-01 1.993874040935445513e-01 4.005852185209303751e-01 3.108208338836973561e-01 -9.119641112092118085e-03 -2.980507031321744972e-03 -1.030554975727113048e-01 3.640141178490738039e+00 3.239861226660558646e-01 4.295423640560423473e-01 1.766750224620252940e-01 4.550244641311643745e-01 1.402198114801280759e+00 2.912823191960523528e-01 7.191479738466624028e-01 2.950727028538833174e-01
