# 
#                 ----------------------------------------------------
#                 Data from a 3D direct N-body simulation. 
# 
#                 rows are i-particle; 
#                 coumns are :mass, tag, x ,y, z, vx, vy, vz, ax, ay, az
# 
#                 NTHU, Computational Physics 
# 
#                 ----------------------------------------------------
#                 Time = 0.0
0.000000000000000000e+00 1.000000000000000000e+00 2.000000000000000000e+00 3.000000000000000000e+00 4.000000000000000000e+00 5.000000000000000000e+00 6.000000000000000000e+00 7.000000000000000000e+00 8.000000000000000000e+00 9.000000000000000000e+00 1.000000000000000000e+01 1.100000000000000000e+01 1.200000000000000000e+01 1.300000000000000000e+01 1.400000000000000000e+01 1.500000000000000000e+01 1.600000000000000000e+01 1.700000000000000000e+01 1.800000000000000000e+01 1.900000000000000000e+01 2.000000000000000000e+01 2.100000000000000000e+01 2.200000000000000000e+01 2.300000000000000000e+01 2.400000000000000000e+01 2.500000000000000000e+01 2.600000000000000000e+01 2.700000000000000000e+01 2.800000000000000000e+01 2.900000000000000000e+01 3.000000000000000000e+01 3.100000000000000000e+01 3.200000000000000000e+01 3.300000000000000000e+01 3.400000000000000000e+01 3.500000000000000000e+01 3.600000000000000000e+01 3.700000000000000000e+01 3.800000000000000000e+01 3.900000000000000000e+01 4.000000000000000000e+01 4.100000000000000000e+01 4.200000000000000000e+01 4.300000000000000000e+01 4.400000000000000000e+01 4.500000000000000000e+01 4.600000000000000000e+01 4.700000000000000000e+01 4.800000000000000000e+01 4.900000000000000000e+01 5.000000000000000000e+01 5.100000000000000000e+01 5.200000000000000000e+01 5.300000000000000000e+01 5.400000000000000000e+01 5.500000000000000000e+01 5.600000000000000000e+01 5.700000000000000000e+01 5.800000000000000000e+01 5.900000000000000000e+01 6.000000000000000000e+01 6.100000000000000000e+01 6.200000000000000000e+01 6.300000000000000000e+01 6.400000000000000000e+01 6.500000000000000000e+01 6.600000000000000000e+01 6.700000000000000000e+01 6.800000000000000000e+01 6.900000000000000000e+01 7.000000000000000000e+01 7.100000000000000000e+01 7.200000000000000000e+01 7.300000000000000000e+01 7.400000000000000000e+01 7.500000000000000000e+01 7.600000000000000000e+01 7.700000000000000000e+01 7.800000000000000000e+01 7.900000000000000000e+01 8.000000000000000000e+01 8.100000000000000000e+01 8.200000000000000000e+01 8.300000000000000000e+01 8.400000000000000000e+01 8.500000000000000000e+01 8.600000000000000000e+01 8.700000000000000000e+01 8.800000000000000000e+01 8.900000000000000000e+01 9.000000000000000000e+01 9.100000000000000000e+01 9.200000000000000000e+01 9.300000000000000000e+01 9.400000000000000000e+01 9.500000000000000000e+01 9.600000000000000000e+01 9.700000000000000000e+01 9.800000000000000000e+01 9.900000000000000000e+01 1.000000000000000000e+02 1.010000000000000000e+02 1.020000000000000000e+02 1.030000000000000000e+02 1.040000000000000000e+02 1.050000000000000000e+02 1.060000000000000000e+02 1.070000000000000000e+02 1.080000000000000000e+02 1.090000000000000000e+02 1.100000000000000000e+02 1.110000000000000000e+02 1.120000000000000000e+02 1.130000000000000000e+02 1.140000000000000000e+02 1.150000000000000000e+02 1.160000000000000000e+02 1.170000000000000000e+02 1.180000000000000000e+02 1.190000000000000000e+02 1.200000000000000000e+02 1.210000000000000000e+02 1.220000000000000000e+02 1.230000000000000000e+02 1.240000000000000000e+02 1.250000000000000000e+02 1.260000000000000000e+02 1.270000000000000000e+02 1.280000000000000000e+02 1.290000000000000000e+02 1.300000000000000000e+02 1.310000000000000000e+02 1.320000000000000000e+02 1.330000000000000000e+02 1.340000000000000000e+02 1.350000000000000000e+02 1.360000000000000000e+02 1.370000000000000000e+02 1.380000000000000000e+02 1.390000000000000000e+02 1.400000000000000000e+02 1.410000000000000000e+02 1.420000000000000000e+02 1.430000000000000000e+02 1.440000000000000000e+02 1.450000000000000000e+02 1.460000000000000000e+02 1.470000000000000000e+02 1.480000000000000000e+02 1.490000000000000000e+02 1.500000000000000000e+02 1.510000000000000000e+02 1.520000000000000000e+02 1.530000000000000000e+02 1.540000000000000000e+02 1.550000000000000000e+02 1.560000000000000000e+02 1.570000000000000000e+02 1.580000000000000000e+02 1.590000000000000000e+02 1.600000000000000000e+02 1.610000000000000000e+02 1.620000000000000000e+02 1.630000000000000000e+02 1.640000000000000000e+02 1.650000000000000000e+02 1.660000000000000000e+02 1.670000000000000000e+02 1.680000000000000000e+02 1.690000000000000000e+02 1.700000000000000000e+02 1.710000000000000000e+02 1.720000000000000000e+02 1.730000000000000000e+02 1.740000000000000000e+02 1.750000000000000000e+02 1.760000000000000000e+02 1.770000000000000000e+02 1.780000000000000000e+02 1.790000000000000000e+02 1.800000000000000000e+02 1.810000000000000000e+02 1.820000000000000000e+02 1.830000000000000000e+02 1.840000000000000000e+02 1.850000000000000000e+02 1.860000000000000000e+02 1.870000000000000000e+02 1.880000000000000000e+02 1.890000000000000000e+02 1.900000000000000000e+02 1.910000000000000000e+02 1.920000000000000000e+02 1.930000000000000000e+02 1.940000000000000000e+02 1.950000000000000000e+02 1.960000000000000000e+02 1.970000000000000000e+02 1.980000000000000000e+02 1.990000000000000000e+02 2.000000000000000000e+02 2.010000000000000000e+02 2.020000000000000000e+02 2.030000000000000000e+02 2.040000000000000000e+02 2.050000000000000000e+02 2.060000000000000000e+02 2.070000000000000000e+02 2.080000000000000000e+02 2.090000000000000000e+02 2.100000000000000000e+02 2.110000000000000000e+02 2.120000000000000000e+02 2.130000000000000000e+02 2.140000000000000000e+02 2.150000000000000000e+02 2.160000000000000000e+02 2.170000000000000000e+02 2.180000000000000000e+02 2.190000000000000000e+02 2.200000000000000000e+02 2.210000000000000000e+02 2.220000000000000000e+02 2.230000000000000000e+02 2.240000000000000000e+02 2.250000000000000000e+02 2.260000000000000000e+02 2.270000000000000000e+02 2.280000000000000000e+02 2.290000000000000000e+02 2.300000000000000000e+02 2.310000000000000000e+02 2.320000000000000000e+02 2.330000000000000000e+02 2.340000000000000000e+02 2.350000000000000000e+02 2.360000000000000000e+02 2.370000000000000000e+02 2.380000000000000000e+02 2.390000000000000000e+02 2.400000000000000000e+02 2.410000000000000000e+02 2.420000000000000000e+02 2.430000000000000000e+02 2.440000000000000000e+02 2.450000000000000000e+02 2.460000000000000000e+02 2.470000000000000000e+02 2.480000000000000000e+02 2.490000000000000000e+02 2.500000000000000000e+02 2.510000000000000000e+02 2.520000000000000000e+02 2.530000000000000000e+02 2.540000000000000000e+02 2.550000000000000000e+02 2.560000000000000000e+02 2.570000000000000000e+02 2.580000000000000000e+02 2.590000000000000000e+02 2.600000000000000000e+02 2.610000000000000000e+02 2.620000000000000000e+02 2.630000000000000000e+02 2.640000000000000000e+02 2.650000000000000000e+02 2.660000000000000000e+02 2.670000000000000000e+02 2.680000000000000000e+02 2.690000000000000000e+02 2.700000000000000000e+02 2.710000000000000000e+02 2.720000000000000000e+02 2.730000000000000000e+02 2.740000000000000000e+02 2.750000000000000000e+02 2.760000000000000000e+02 2.770000000000000000e+02 2.780000000000000000e+02 2.790000000000000000e+02 2.800000000000000000e+02 2.810000000000000000e+02 2.820000000000000000e+02 2.830000000000000000e+02 2.840000000000000000e+02 2.850000000000000000e+02 2.860000000000000000e+02 2.870000000000000000e+02 2.880000000000000000e+02 2.890000000000000000e+02 2.900000000000000000e+02 2.910000000000000000e+02 2.920000000000000000e+02 2.930000000000000000e+02 2.940000000000000000e+02 2.950000000000000000e+02 2.960000000000000000e+02 2.970000000000000000e+02 2.980000000000000000e+02 2.990000000000000000e+02 3.000000000000000000e+02 3.010000000000000000e+02 3.020000000000000000e+02 3.030000000000000000e+02 3.040000000000000000e+02 3.050000000000000000e+02 3.060000000000000000e+02 3.070000000000000000e+02 3.080000000000000000e+02 3.090000000000000000e+02 3.100000000000000000e+02 3.110000000000000000e+02 3.120000000000000000e+02 3.130000000000000000e+02 3.140000000000000000e+02 3.150000000000000000e+02 3.160000000000000000e+02 3.170000000000000000e+02 3.180000000000000000e+02 3.190000000000000000e+02 3.200000000000000000e+02 3.210000000000000000e+02 3.220000000000000000e+02 3.230000000000000000e+02 3.240000000000000000e+02 3.250000000000000000e+02 3.260000000000000000e+02 3.270000000000000000e+02 3.280000000000000000e+02 3.290000000000000000e+02 3.300000000000000000e+02 3.310000000000000000e+02 3.320000000000000000e+02 3.330000000000000000e+02 3.340000000000000000e+02 3.350000000000000000e+02 3.360000000000000000e+02 3.370000000000000000e+02 3.380000000000000000e+02 3.390000000000000000e+02 3.400000000000000000e+02 3.410000000000000000e+02 3.420000000000000000e+02 3.430000000000000000e+02 3.440000000000000000e+02 3.450000000000000000e+02 3.460000000000000000e+02 3.470000000000000000e+02 3.480000000000000000e+02 3.490000000000000000e+02 3.500000000000000000e+02 3.510000000000000000e+02 3.520000000000000000e+02 3.530000000000000000e+02 3.540000000000000000e+02 3.550000000000000000e+02 3.560000000000000000e+02 3.570000000000000000e+02 3.580000000000000000e+02 3.590000000000000000e+02 3.600000000000000000e+02 3.610000000000000000e+02 3.620000000000000000e+02 3.630000000000000000e+02 3.640000000000000000e+02 3.650000000000000000e+02 3.660000000000000000e+02 3.670000000000000000e+02 3.680000000000000000e+02 3.690000000000000000e+02 3.700000000000000000e+02 3.710000000000000000e+02 3.720000000000000000e+02 3.730000000000000000e+02 3.740000000000000000e+02 3.750000000000000000e+02 3.760000000000000000e+02 3.770000000000000000e+02 3.780000000000000000e+02 3.790000000000000000e+02 3.800000000000000000e+02 3.810000000000000000e+02 3.820000000000000000e+02 3.830000000000000000e+02 3.840000000000000000e+02 3.850000000000000000e+02 3.860000000000000000e+02 3.870000000000000000e+02 3.880000000000000000e+02 3.890000000000000000e+02 3.900000000000000000e+02 3.910000000000000000e+02 3.920000000000000000e+02 3.930000000000000000e+02 3.940000000000000000e+02 3.950000000000000000e+02 3.960000000000000000e+02 3.970000000000000000e+02 3.980000000000000000e+02 3.990000000000000000e+02 4.000000000000000000e+02 4.010000000000000000e+02 4.020000000000000000e+02 4.030000000000000000e+02 4.040000000000000000e+02 4.050000000000000000e+02 4.060000000000000000e+02 4.070000000000000000e+02 4.080000000000000000e+02 4.090000000000000000e+02 4.100000000000000000e+02 4.110000000000000000e+02 4.120000000000000000e+02 4.130000000000000000e+02 4.140000000000000000e+02 4.150000000000000000e+02 4.160000000000000000e+02 4.170000000000000000e+02 4.180000000000000000e+02 4.190000000000000000e+02 4.200000000000000000e+02 4.210000000000000000e+02 4.220000000000000000e+02 4.230000000000000000e+02 4.240000000000000000e+02 4.250000000000000000e+02 4.260000000000000000e+02 4.270000000000000000e+02 4.280000000000000000e+02 4.290000000000000000e+02 4.300000000000000000e+02 4.310000000000000000e+02 4.320000000000000000e+02 4.330000000000000000e+02 4.340000000000000000e+02 4.350000000000000000e+02 4.360000000000000000e+02 4.370000000000000000e+02 4.380000000000000000e+02 4.390000000000000000e+02 4.400000000000000000e+02 4.410000000000000000e+02 4.420000000000000000e+02 4.430000000000000000e+02 4.440000000000000000e+02 4.450000000000000000e+02 4.460000000000000000e+02 4.470000000000000000e+02 4.480000000000000000e+02 4.490000000000000000e+02 4.500000000000000000e+02 4.510000000000000000e+02 4.520000000000000000e+02 4.530000000000000000e+02 4.540000000000000000e+02 4.550000000000000000e+02 4.560000000000000000e+02 4.570000000000000000e+02 4.580000000000000000e+02 4.590000000000000000e+02 4.600000000000000000e+02 4.610000000000000000e+02 4.620000000000000000e+02 4.630000000000000000e+02 4.640000000000000000e+02 4.650000000000000000e+02 4.660000000000000000e+02 4.670000000000000000e+02 4.680000000000000000e+02 4.690000000000000000e+02 4.700000000000000000e+02 4.710000000000000000e+02 4.720000000000000000e+02 4.730000000000000000e+02 4.740000000000000000e+02 4.750000000000000000e+02 4.760000000000000000e+02 4.770000000000000000e+02 4.780000000000000000e+02 4.790000000000000000e+02 4.800000000000000000e+02 4.810000000000000000e+02 4.820000000000000000e+02 4.830000000000000000e+02 4.840000000000000000e+02 4.850000000000000000e+02 4.860000000000000000e+02 4.870000000000000000e+02 4.880000000000000000e+02 4.890000000000000000e+02 4.900000000000000000e+02 4.910000000000000000e+02 4.920000000000000000e+02 4.930000000000000000e+02 4.940000000000000000e+02 4.950000000000000000e+02 4.960000000000000000e+02 4.970000000000000000e+02 4.980000000000000000e+02 4.990000000000000000e+02 5.000000000000000000e+02 5.010000000000000000e+02 5.020000000000000000e+02 5.030000000000000000e+02 5.040000000000000000e+02 5.050000000000000000e+02 5.060000000000000000e+02 5.070000000000000000e+02 5.080000000000000000e+02 5.090000000000000000e+02 5.100000000000000000e+02 5.110000000000000000e+02 5.120000000000000000e+02 5.130000000000000000e+02 5.140000000000000000e+02 5.150000000000000000e+02 5.160000000000000000e+02 5.170000000000000000e+02 5.180000000000000000e+02 5.190000000000000000e+02 5.200000000000000000e+02 5.210000000000000000e+02 5.220000000000000000e+02 5.230000000000000000e+02 5.240000000000000000e+02 5.250000000000000000e+02 5.260000000000000000e+02 5.270000000000000000e+02 5.280000000000000000e+02 5.290000000000000000e+02 5.300000000000000000e+02 5.310000000000000000e+02 5.320000000000000000e+02 5.330000000000000000e+02 5.340000000000000000e+02 5.350000000000000000e+02 5.360000000000000000e+02 5.370000000000000000e+02 5.380000000000000000e+02 5.390000000000000000e+02 5.400000000000000000e+02 5.410000000000000000e+02 5.420000000000000000e+02 5.430000000000000000e+02 5.440000000000000000e+02 5.450000000000000000e+02 5.460000000000000000e+02 5.470000000000000000e+02 5.480000000000000000e+02 5.490000000000000000e+02 5.500000000000000000e+02 5.510000000000000000e+02 5.520000000000000000e+02 5.530000000000000000e+02 5.540000000000000000e+02 5.550000000000000000e+02 5.560000000000000000e+02 5.570000000000000000e+02 5.580000000000000000e+02 5.590000000000000000e+02 5.600000000000000000e+02 5.610000000000000000e+02 5.620000000000000000e+02 5.630000000000000000e+02 5.640000000000000000e+02 5.650000000000000000e+02 5.660000000000000000e+02 5.670000000000000000e+02 5.680000000000000000e+02 5.690000000000000000e+02 5.700000000000000000e+02 5.710000000000000000e+02 5.720000000000000000e+02 5.730000000000000000e+02 5.740000000000000000e+02 5.750000000000000000e+02 5.760000000000000000e+02 5.770000000000000000e+02 5.780000000000000000e+02 5.790000000000000000e+02 5.800000000000000000e+02 5.810000000000000000e+02 5.820000000000000000e+02 5.830000000000000000e+02 5.840000000000000000e+02 5.850000000000000000e+02 5.860000000000000000e+02 5.870000000000000000e+02 5.880000000000000000e+02 5.890000000000000000e+02 5.900000000000000000e+02 5.910000000000000000e+02 5.920000000000000000e+02 5.930000000000000000e+02 5.940000000000000000e+02 5.950000000000000000e+02 5.960000000000000000e+02 5.970000000000000000e+02 5.980000000000000000e+02 5.990000000000000000e+02 6.000000000000000000e+02 6.010000000000000000e+02 6.020000000000000000e+02 6.030000000000000000e+02 6.040000000000000000e+02 6.050000000000000000e+02 6.060000000000000000e+02 6.070000000000000000e+02 6.080000000000000000e+02 6.090000000000000000e+02 6.100000000000000000e+02 6.110000000000000000e+02 6.120000000000000000e+02 6.130000000000000000e+02 6.140000000000000000e+02 6.150000000000000000e+02 6.160000000000000000e+02 6.170000000000000000e+02 6.180000000000000000e+02 6.190000000000000000e+02 6.200000000000000000e+02 6.210000000000000000e+02 6.220000000000000000e+02 6.230000000000000000e+02 6.240000000000000000e+02 6.250000000000000000e+02 6.260000000000000000e+02 6.270000000000000000e+02 6.280000000000000000e+02 6.290000000000000000e+02 6.300000000000000000e+02 6.310000000000000000e+02 6.320000000000000000e+02 6.330000000000000000e+02 6.340000000000000000e+02 6.350000000000000000e+02 6.360000000000000000e+02 6.370000000000000000e+02 6.380000000000000000e+02 6.390000000000000000e+02 6.400000000000000000e+02 6.410000000000000000e+02 6.420000000000000000e+02 6.430000000000000000e+02 6.440000000000000000e+02 6.450000000000000000e+02 6.460000000000000000e+02 6.470000000000000000e+02 6.480000000000000000e+02 6.490000000000000000e+02 6.500000000000000000e+02 6.510000000000000000e+02 6.520000000000000000e+02 6.530000000000000000e+02 6.540000000000000000e+02 6.550000000000000000e+02 6.560000000000000000e+02 6.570000000000000000e+02 6.580000000000000000e+02 6.590000000000000000e+02 6.600000000000000000e+02 6.610000000000000000e+02 6.620000000000000000e+02 6.630000000000000000e+02 6.640000000000000000e+02 6.650000000000000000e+02 6.660000000000000000e+02 6.670000000000000000e+02 6.680000000000000000e+02 6.690000000000000000e+02 6.700000000000000000e+02 6.710000000000000000e+02 6.720000000000000000e+02 6.730000000000000000e+02 6.740000000000000000e+02 6.750000000000000000e+02 6.760000000000000000e+02 6.770000000000000000e+02 6.780000000000000000e+02 6.790000000000000000e+02 6.800000000000000000e+02 6.810000000000000000e+02 6.820000000000000000e+02 6.830000000000000000e+02 6.840000000000000000e+02 6.850000000000000000e+02 6.860000000000000000e+02 6.870000000000000000e+02 6.880000000000000000e+02 6.890000000000000000e+02 6.900000000000000000e+02 6.910000000000000000e+02 6.920000000000000000e+02 6.930000000000000000e+02 6.940000000000000000e+02 6.950000000000000000e+02 6.960000000000000000e+02 6.970000000000000000e+02 6.980000000000000000e+02 6.990000000000000000e+02 7.000000000000000000e+02 7.010000000000000000e+02 7.020000000000000000e+02 7.030000000000000000e+02 7.040000000000000000e+02 7.050000000000000000e+02 7.060000000000000000e+02 7.070000000000000000e+02 7.080000000000000000e+02 7.090000000000000000e+02 7.100000000000000000e+02 7.110000000000000000e+02 7.120000000000000000e+02 7.130000000000000000e+02 7.140000000000000000e+02 7.150000000000000000e+02 7.160000000000000000e+02 7.170000000000000000e+02 7.180000000000000000e+02 7.190000000000000000e+02 7.200000000000000000e+02 7.210000000000000000e+02 7.220000000000000000e+02 7.230000000000000000e+02 7.240000000000000000e+02 7.250000000000000000e+02 7.260000000000000000e+02 7.270000000000000000e+02 7.280000000000000000e+02 7.290000000000000000e+02 7.300000000000000000e+02 7.310000000000000000e+02 7.320000000000000000e+02 7.330000000000000000e+02 7.340000000000000000e+02 7.350000000000000000e+02 7.360000000000000000e+02 7.370000000000000000e+02 7.380000000000000000e+02 7.390000000000000000e+02 7.400000000000000000e+02 7.410000000000000000e+02 7.420000000000000000e+02 7.430000000000000000e+02 7.440000000000000000e+02 7.450000000000000000e+02 7.460000000000000000e+02 7.470000000000000000e+02 7.480000000000000000e+02 7.490000000000000000e+02 7.500000000000000000e+02 7.510000000000000000e+02 7.520000000000000000e+02 7.530000000000000000e+02 7.540000000000000000e+02 7.550000000000000000e+02 7.560000000000000000e+02 7.570000000000000000e+02 7.580000000000000000e+02 7.590000000000000000e+02 7.600000000000000000e+02 7.610000000000000000e+02 7.620000000000000000e+02 7.630000000000000000e+02 7.640000000000000000e+02 7.650000000000000000e+02 7.660000000000000000e+02 7.670000000000000000e+02 7.680000000000000000e+02 7.690000000000000000e+02 7.700000000000000000e+02 7.710000000000000000e+02 7.720000000000000000e+02 7.730000000000000000e+02 7.740000000000000000e+02 7.750000000000000000e+02 7.760000000000000000e+02 7.770000000000000000e+02 7.780000000000000000e+02 7.790000000000000000e+02 7.800000000000000000e+02 7.810000000000000000e+02 7.820000000000000000e+02 7.830000000000000000e+02 7.840000000000000000e+02 7.850000000000000000e+02 7.860000000000000000e+02 7.870000000000000000e+02 7.880000000000000000e+02 7.890000000000000000e+02 7.900000000000000000e+02 7.910000000000000000e+02 7.920000000000000000e+02 7.930000000000000000e+02 7.940000000000000000e+02 7.950000000000000000e+02 7.960000000000000000e+02 7.970000000000000000e+02 7.980000000000000000e+02 7.990000000000000000e+02 8.000000000000000000e+02 8.010000000000000000e+02 8.020000000000000000e+02 8.030000000000000000e+02 8.040000000000000000e+02 8.050000000000000000e+02 8.060000000000000000e+02 8.070000000000000000e+02 8.080000000000000000e+02 8.090000000000000000e+02 8.100000000000000000e+02 8.110000000000000000e+02 8.120000000000000000e+02 8.130000000000000000e+02 8.140000000000000000e+02 8.150000000000000000e+02 8.160000000000000000e+02 8.170000000000000000e+02 8.180000000000000000e+02 8.190000000000000000e+02 8.200000000000000000e+02 8.210000000000000000e+02 8.220000000000000000e+02 8.230000000000000000e+02 8.240000000000000000e+02 8.250000000000000000e+02 8.260000000000000000e+02 8.270000000000000000e+02 8.280000000000000000e+02 8.290000000000000000e+02 8.300000000000000000e+02 8.310000000000000000e+02 8.320000000000000000e+02 8.330000000000000000e+02 8.340000000000000000e+02 8.350000000000000000e+02 8.360000000000000000e+02 8.370000000000000000e+02 8.380000000000000000e+02 8.390000000000000000e+02 8.400000000000000000e+02 8.410000000000000000e+02 8.420000000000000000e+02 8.430000000000000000e+02 8.440000000000000000e+02 8.450000000000000000e+02 8.460000000000000000e+02 8.470000000000000000e+02 8.480000000000000000e+02 8.490000000000000000e+02 8.500000000000000000e+02 8.510000000000000000e+02 8.520000000000000000e+02 8.530000000000000000e+02 8.540000000000000000e+02 8.550000000000000000e+02 8.560000000000000000e+02 8.570000000000000000e+02 8.580000000000000000e+02 8.590000000000000000e+02 8.600000000000000000e+02 8.610000000000000000e+02 8.620000000000000000e+02 8.630000000000000000e+02 8.640000000000000000e+02 8.650000000000000000e+02 8.660000000000000000e+02 8.670000000000000000e+02 8.680000000000000000e+02 8.690000000000000000e+02 8.700000000000000000e+02 8.710000000000000000e+02 8.720000000000000000e+02 8.730000000000000000e+02 8.740000000000000000e+02 8.750000000000000000e+02 8.760000000000000000e+02 8.770000000000000000e+02 8.780000000000000000e+02 8.790000000000000000e+02 8.800000000000000000e+02 8.810000000000000000e+02 8.820000000000000000e+02 8.830000000000000000e+02 8.840000000000000000e+02 8.850000000000000000e+02 8.860000000000000000e+02 8.870000000000000000e+02 8.880000000000000000e+02 8.890000000000000000e+02 8.900000000000000000e+02 8.910000000000000000e+02 8.920000000000000000e+02 8.930000000000000000e+02 8.940000000000000000e+02 8.950000000000000000e+02 8.960000000000000000e+02 8.970000000000000000e+02 8.980000000000000000e+02 8.990000000000000000e+02 9.000000000000000000e+02 9.010000000000000000e+02 9.020000000000000000e+02 9.030000000000000000e+02 9.040000000000000000e+02 9.050000000000000000e+02 9.060000000000000000e+02 9.070000000000000000e+02 9.080000000000000000e+02 9.090000000000000000e+02 9.100000000000000000e+02 9.110000000000000000e+02 9.120000000000000000e+02 9.130000000000000000e+02 9.140000000000000000e+02 9.150000000000000000e+02 9.160000000000000000e+02 9.170000000000000000e+02 9.180000000000000000e+02 9.190000000000000000e+02 9.200000000000000000e+02 9.210000000000000000e+02 9.220000000000000000e+02 9.230000000000000000e+02 9.240000000000000000e+02 9.250000000000000000e+02 9.260000000000000000e+02 9.270000000000000000e+02 9.280000000000000000e+02 9.290000000000000000e+02 9.300000000000000000e+02 9.310000000000000000e+02 9.320000000000000000e+02 9.330000000000000000e+02 9.340000000000000000e+02 9.350000000000000000e+02 9.360000000000000000e+02 9.370000000000000000e+02 9.380000000000000000e+02 9.390000000000000000e+02 9.400000000000000000e+02 9.410000000000000000e+02 9.420000000000000000e+02 9.430000000000000000e+02 9.440000000000000000e+02 9.450000000000000000e+02 9.460000000000000000e+02 9.470000000000000000e+02 9.480000000000000000e+02 9.490000000000000000e+02 9.500000000000000000e+02 9.510000000000000000e+02 9.520000000000000000e+02 9.530000000000000000e+02 9.540000000000000000e+02 9.550000000000000000e+02 9.560000000000000000e+02 9.570000000000000000e+02 9.580000000000000000e+02 9.590000000000000000e+02 9.600000000000000000e+02 9.610000000000000000e+02 9.620000000000000000e+02 9.630000000000000000e+02 9.640000000000000000e+02 9.650000000000000000e+02 9.660000000000000000e+02 9.670000000000000000e+02 9.680000000000000000e+02 9.690000000000000000e+02 9.700000000000000000e+02 9.710000000000000000e+02 9.720000000000000000e+02 9.730000000000000000e+02 9.740000000000000000e+02 9.750000000000000000e+02 9.760000000000000000e+02 9.770000000000000000e+02 9.780000000000000000e+02 9.790000000000000000e+02 9.800000000000000000e+02 9.810000000000000000e+02 9.820000000000000000e+02 9.830000000000000000e+02 9.840000000000000000e+02 9.850000000000000000e+02 9.860000000000000000e+02 9.870000000000000000e+02 9.880000000000000000e+02 9.890000000000000000e+02 9.900000000000000000e+02 9.910000000000000000e+02 9.920000000000000000e+02 9.930000000000000000e+02 9.940000000000000000e+02 9.950000000000000000e+02 9.960000000000000000e+02 9.970000000000000000e+02 9.980000000000000000e+02 9.990000000000000000e+02
1.000000000000000000e+00 1.000000000000000000e+00 1.000000000000000000e+00 1.000000000000000000e+00 1.000000000000000000e+00 1.000000000000000000e+00 1.000000000000000000e+00 1.000000000000000000e+00 1.000000000000000000e+00 1.000000000000000000e+00 1.000000000000000000e+00 1.000000000000000000e+00 1.000000000000000000e+00 1.000000000000000000e+00 1.000000000000000000e+00 1.000000000000000000e+00 1.000000000000000000e+00 1.000000000000000000e+00 1.000000000000000000e+00 1.000000000000000000e+00 1.000000000000000000e+00 1.000000000000000000e+00 1.000000000000000000e+00 1.000000000000000000e+00 1.000000000000000000e+00 1.000000000000000000e+00 1.000000000000000000e+00 1.000000000000000000e+00 1.000000000000000000e+00 1.000000000000000000e+00 1.000000000000000000e+00 1.000000000000000000e+00 1.000000000000000000e+00 1.000000000000000000e+00 1.000000000000000000e+00 1.000000000000000000e+00 1.000000000000000000e+00 1.000000000000000000e+00 1.000000000000000000e+00 1.000000000000000000e+00 1.000000000000000000e+00 1.000000000000000000e+00 1.000000000000000000e+00 1.000000000000000000e+00 1.000000000000000000e+00 1.000000000000000000e+00 1.000000000000000000e+00 1.000000000000000000e+00 1.000000000000000000e+00 1.000000000000000000e+00 1.000000000000000000e+00 1.000000000000000000e+00 1.000000000000000000e+00 1.000000000000000000e+00 1.000000000000000000e+00 1.000000000000000000e+00 1.000000000000000000e+00 1.000000000000000000e+00 1.000000000000000000e+00 1.000000000000000000e+00 1.000000000000000000e+00 1.000000000000000000e+00 1.000000000000000000e+00 1.000000000000000000e+00 1.000000000000000000e+00 1.000000000000000000e+00 1.000000000000000000e+00 1.000000000000000000e+00 1.000000000000000000e+00 1.000000000000000000e+00 1.000000000000000000e+00 1.000000000000000000e+00 1.000000000000000000e+00 1.000000000000000000e+00 1.000000000000000000e+00 1.000000000000000000e+00 1.000000000000000000e+00 1.000000000000000000e+00 1.000000000000000000e+00 1.000000000000000000e+00 1.000000000000000000e+00 1.000000000000000000e+00 1.000000000000000000e+00 1.000000000000000000e+00 1.000000000000000000e+00 1.000000000000000000e+00 1.000000000000000000e+00 1.000000000000000000e+00 1.000000000000000000e+00 1.000000000000000000e+00 1.000000000000000000e+00 1.000000000000000000e+00 1.000000000000000000e+00 1.000000000000000000e+00 1.000000000000000000e+00 1.000000000000000000e+00 1.000000000000000000e+00 1.000000000000000000e+00 1.000000000000000000e+00 1.000000000000000000e+00 1.000000000000000000e+00 1.000000000000000000e+00 1.000000000000000000e+00 1.000000000000000000e+00 1.000000000000000000e+00 1.000000000000000000e+00 1.000000000000000000e+00 1.000000000000000000e+00 1.000000000000000000e+00 1.000000000000000000e+00 1.000000000000000000e+00 1.000000000000000000e+00 1.000000000000000000e+00 1.000000000000000000e+00 1.000000000000000000e+00 1.000000000000000000e+00 1.000000000000000000e+00 1.000000000000000000e+00 1.000000000000000000e+00 1.000000000000000000e+00 1.000000000000000000e+00 1.000000000000000000e+00 1.000000000000000000e+00 1.000000000000000000e+00 1.000000000000000000e+00 1.000000000000000000e+00 1.000000000000000000e+00 1.000000000000000000e+00 1.000000000000000000e+00 1.000000000000000000e+00 1.000000000000000000e+00 1.000000000000000000e+00 1.000000000000000000e+00 1.000000000000000000e+00 1.000000000000000000e+00 1.000000000000000000e+00 1.000000000000000000e+00 1.000000000000000000e+00 1.000000000000000000e+00 1.000000000000000000e+00 1.000000000000000000e+00 1.000000000000000000e+00 1.000000000000000000e+00 1.000000000000000000e+00 1.000000000000000000e+00 1.000000000000000000e+00 1.000000000000000000e+00 1.000000000000000000e+00 1.000000000000000000e+00 1.000000000000000000e+00 1.000000000000000000e+00 1.000000000000000000e+00 1.000000000000000000e+00 1.000000000000000000e+00 1.000000000000000000e+00 1.000000000000000000e+00 1.000000000000000000e+00 1.000000000000000000e+00 1.000000000000000000e+00 1.000000000000000000e+00 1.000000000000000000e+00 1.000000000000000000e+00 1.000000000000000000e+00 1.000000000000000000e+00 1.000000000000000000e+00 1.000000000000000000e+00 1.000000000000000000e+00 1.000000000000000000e+00 1.000000000000000000e+00 1.000000000000000000e+00 1.000000000000000000e+00 1.000000000000000000e+00 1.000000000000000000e+00 1.000000000000000000e+00 1.000000000000000000e+00 1.000000000000000000e+00 1.000000000000000000e+00 1.000000000000000000e+00 1.000000000000000000e+00 1.000000000000000000e+00 1.000000000000000000e+00 1.000000000000000000e+00 1.000000000000000000e+00 1.000000000000000000e+00 1.000000000000000000e+00 1.000000000000000000e+00 1.000000000000000000e+00 1.000000000000000000e+00 1.000000000000000000e+00 1.000000000000000000e+00 1.000000000000000000e+00 1.000000000000000000e+00 1.000000000000000000e+00 1.000000000000000000e+00 1.000000000000000000e+00 1.000000000000000000e+00 1.000000000000000000e+00 1.000000000000000000e+00 1.000000000000000000e+00 1.000000000000000000e+00 1.000000000000000000e+00 1.000000000000000000e+00 1.000000000000000000e+00 1.000000000000000000e+00 1.000000000000000000e+00 1.000000000000000000e+00 1.000000000000000000e+00 1.000000000000000000e+00 1.000000000000000000e+00 1.000000000000000000e+00 1.000000000000000000e+00 1.000000000000000000e+00 1.000000000000000000e+00 1.000000000000000000e+00 1.000000000000000000e+00 1.000000000000000000e+00 1.000000000000000000e+00 1.000000000000000000e+00 1.000000000000000000e+00 1.000000000000000000e+00 1.000000000000000000e+00 1.000000000000000000e+00 1.000000000000000000e+00 1.000000000000000000e+00 1.000000000000000000e+00 1.000000000000000000e+00 1.000000000000000000e+00 1.000000000000000000e+00 1.000000000000000000e+00 1.000000000000000000e+00 1.000000000000000000e+00 1.000000000000000000e+00 1.000000000000000000e+00 1.000000000000000000e+00 1.000000000000000000e+00 1.000000000000000000e+00 1.000000000000000000e+00 1.000000000000000000e+00 1.000000000000000000e+00 1.000000000000000000e+00 1.000000000000000000e+00 1.000000000000000000e+00 1.000000000000000000e+00 1.000000000000000000e+00 1.000000000000000000e+00 1.000000000000000000e+00 1.000000000000000000e+00 1.000000000000000000e+00 1.000000000000000000e+00 1.000000000000000000e+00 1.000000000000000000e+00 1.000000000000000000e+00 1.000000000000000000e+00 1.000000000000000000e+00 1.000000000000000000e+00 1.000000000000000000e+00 1.000000000000000000e+00 1.000000000000000000e+00 1.000000000000000000e+00 1.000000000000000000e+00 1.000000000000000000e+00 1.000000000000000000e+00 1.000000000000000000e+00 1.000000000000000000e+00 1.000000000000000000e+00 1.000000000000000000e+00 1.000000000000000000e+00 1.000000000000000000e+00 1.000000000000000000e+00 1.000000000000000000e+00 1.000000000000000000e+00 1.000000000000000000e+00 1.000000000000000000e+00 1.000000000000000000e+00 1.000000000000000000e+00 1.000000000000000000e+00 1.000000000000000000e+00 1.000000000000000000e+00 1.000000000000000000e+00 1.000000000000000000e+00 1.000000000000000000e+00 1.000000000000000000e+00 1.000000000000000000e+00 1.000000000000000000e+00 1.000000000000000000e+00 1.000000000000000000e+00 1.000000000000000000e+00 1.000000000000000000e+00 1.000000000000000000e+00 1.000000000000000000e+00 1.000000000000000000e+00 1.000000000000000000e+00 1.000000000000000000e+00 1.000000000000000000e+00 1.000000000000000000e+00 1.000000000000000000e+00 1.000000000000000000e+00 1.000000000000000000e+00 1.000000000000000000e+00 1.000000000000000000e+00 1.000000000000000000e+00 1.000000000000000000e+00 1.000000000000000000e+00 1.000000000000000000e+00 1.000000000000000000e+00 1.000000000000000000e+00 1.000000000000000000e+00 1.000000000000000000e+00 1.000000000000000000e+00 1.000000000000000000e+00 1.000000000000000000e+00 1.000000000000000000e+00 1.000000000000000000e+00 1.000000000000000000e+00 1.000000000000000000e+00 1.000000000000000000e+00 1.000000000000000000e+00 1.000000000000000000e+00 1.000000000000000000e+00 1.000000000000000000e+00 1.000000000000000000e+00 1.000000000000000000e+00 1.000000000000000000e+00 1.000000000000000000e+00 1.000000000000000000e+00 1.000000000000000000e+00 1.000000000000000000e+00 1.000000000000000000e+00 1.000000000000000000e+00 1.000000000000000000e+00 1.000000000000000000e+00 1.000000000000000000e+00 1.000000000000000000e+00 1.000000000000000000e+00 1.000000000000000000e+00 1.000000000000000000e+00 1.000000000000000000e+00 1.000000000000000000e+00 1.000000000000000000e+00 1.000000000000000000e+00 1.000000000000000000e+00 1.000000000000000000e+00 1.000000000000000000e+00 1.000000000000000000e+00 1.000000000000000000e+00 1.000000000000000000e+00 1.000000000000000000e+00 1.000000000000000000e+00 1.000000000000000000e+00 1.000000000000000000e+00 1.000000000000000000e+00 1.000000000000000000e+00 1.000000000000000000e+00 1.000000000000000000e+00 1.000000000000000000e+00 1.000000000000000000e+00 1.000000000000000000e+00 1.000000000000000000e+00 1.000000000000000000e+00 1.000000000000000000e+00 1.000000000000000000e+00 1.000000000000000000e+00 1.000000000000000000e+00 1.000000000000000000e+00 1.000000000000000000e+00 1.000000000000000000e+00 1.000000000000000000e+00 1.000000000000000000e+00 1.000000000000000000e+00 1.000000000000000000e+00 1.000000000000000000e+00 1.000000000000000000e+00 1.000000000000000000e+00 1.000000000000000000e+00 1.000000000000000000e+00 1.000000000000000000e+00 1.000000000000000000e+00 1.000000000000000000e+00 1.000000000000000000e+00 1.000000000000000000e+00 1.000000000000000000e+00 1.000000000000000000e+00 1.000000000000000000e+00 1.000000000000000000e+00 1.000000000000000000e+00 1.000000000000000000e+00 1.000000000000000000e+00 1.000000000000000000e+00 1.000000000000000000e+00 1.000000000000000000e+00 1.000000000000000000e+00 1.000000000000000000e+00 1.000000000000000000e+00 1.000000000000000000e+00 1.000000000000000000e+00 1.000000000000000000e+00 1.000000000000000000e+00 1.000000000000000000e+00 1.000000000000000000e+00 1.000000000000000000e+00 1.000000000000000000e+00 1.000000000000000000e+00 1.000000000000000000e+00 1.000000000000000000e+00 1.000000000000000000e+00 1.000000000000000000e+00 1.000000000000000000e+00 1.000000000000000000e+00 1.000000000000000000e+00 1.000000000000000000e+00 1.000000000000000000e+00 1.000000000000000000e+00 1.000000000000000000e+00 1.000000000000000000e+00 1.000000000000000000e+00 1.000000000000000000e+00 1.000000000000000000e+00 1.000000000000000000e+00 1.000000000000000000e+00 1.000000000000000000e+00 1.000000000000000000e+00 1.000000000000000000e+00 1.000000000000000000e+00 1.000000000000000000e+00 1.000000000000000000e+00 1.000000000000000000e+00 1.000000000000000000e+00 1.000000000000000000e+00 1.000000000000000000e+00 1.000000000000000000e+00 1.000000000000000000e+00 1.000000000000000000e+00 1.000000000000000000e+00 1.000000000000000000e+00 1.000000000000000000e+00 1.000000000000000000e+00 1.000000000000000000e+00 1.000000000000000000e+00 1.000000000000000000e+00 1.000000000000000000e+00 1.000000000000000000e+00 1.000000000000000000e+00 1.000000000000000000e+00 1.000000000000000000e+00 1.000000000000000000e+00 1.000000000000000000e+00 1.000000000000000000e+00 1.000000000000000000e+00 1.000000000000000000e+00 1.000000000000000000e+00 1.000000000000000000e+00 1.000000000000000000e+00 1.000000000000000000e+00 1.000000000000000000e+00 1.000000000000000000e+00 1.000000000000000000e+00 1.000000000000000000e+00 1.000000000000000000e+00 1.000000000000000000e+00 1.000000000000000000e+00 1.000000000000000000e+00 1.000000000000000000e+00 1.000000000000000000e+00 1.000000000000000000e+00 1.000000000000000000e+00 1.000000000000000000e+00 1.000000000000000000e+00 1.000000000000000000e+00 1.000000000000000000e+00 1.000000000000000000e+00 1.000000000000000000e+00 1.000000000000000000e+00 1.000000000000000000e+00 1.000000000000000000e+00 1.000000000000000000e+00 1.000000000000000000e+00 1.000000000000000000e+00 1.000000000000000000e+00 1.000000000000000000e+00 1.000000000000000000e+00 1.000000000000000000e+00 1.000000000000000000e+00 1.000000000000000000e+00 1.000000000000000000e+00 1.000000000000000000e+00 1.000000000000000000e+00 1.000000000000000000e+00 1.000000000000000000e+00 1.000000000000000000e+00 1.000000000000000000e+00 1.000000000000000000e+00 1.000000000000000000e+00 1.000000000000000000e+00 1.000000000000000000e+00 1.000000000000000000e+00 1.000000000000000000e+00 1.000000000000000000e+00 1.000000000000000000e+00 1.000000000000000000e+00 1.000000000000000000e+00 1.000000000000000000e+00 1.000000000000000000e+00 1.000000000000000000e+00 1.000000000000000000e+00 1.000000000000000000e+00 1.000000000000000000e+00 1.000000000000000000e+00 1.000000000000000000e+00 1.000000000000000000e+00 1.000000000000000000e+00 1.000000000000000000e+00 1.000000000000000000e+00 1.000000000000000000e+00 1.000000000000000000e+00 1.000000000000000000e+00 1.000000000000000000e+00 1.000000000000000000e+00 1.000000000000000000e+00 1.000000000000000000e+00 1.000000000000000000e+00 1.000000000000000000e+00 1.000000000000000000e+00 1.000000000000000000e+00 1.000000000000000000e+00 1.000000000000000000e+00 1.000000000000000000e+00 1.000000000000000000e+00 1.000000000000000000e+00 1.000000000000000000e+00 1.000000000000000000e+00 1.000000000000000000e+00 1.000000000000000000e+00 1.000000000000000000e+00 1.000000000000000000e+00 1.000000000000000000e+00 1.000000000000000000e+00 1.000000000000000000e+00 1.000000000000000000e+00 1.000000000000000000e+00 1.000000000000000000e+00 1.000000000000000000e+00 1.000000000000000000e+00 1.000000000000000000e+00 1.000000000000000000e+00 1.000000000000000000e+00 1.000000000000000000e+00 1.000000000000000000e+00 1.000000000000000000e+00 1.000000000000000000e+00 1.000000000000000000e+00 1.000000000000000000e+00 1.000000000000000000e+00 1.000000000000000000e+00 1.000000000000000000e+00 1.000000000000000000e+00 1.000000000000000000e+00 1.000000000000000000e+00 1.000000000000000000e+00 1.000000000000000000e+00 1.000000000000000000e+00 1.000000000000000000e+00 1.000000000000000000e+00 1.000000000000000000e+00 1.000000000000000000e+00 1.000000000000000000e+00 1.000000000000000000e+00 1.000000000000000000e+00 1.000000000000000000e+00 1.000000000000000000e+00 1.000000000000000000e+00 1.000000000000000000e+00 1.000000000000000000e+00 1.000000000000000000e+00 1.000000000000000000e+00 1.000000000000000000e+00 1.000000000000000000e+00 1.000000000000000000e+00 1.000000000000000000e+00 1.000000000000000000e+00 1.000000000000000000e+00 1.000000000000000000e+00 1.000000000000000000e+00 1.000000000000000000e+00 1.000000000000000000e+00 1.000000000000000000e+00 1.000000000000000000e+00 1.000000000000000000e+00 1.000000000000000000e+00 1.000000000000000000e+00 1.000000000000000000e+00 1.000000000000000000e+00 1.000000000000000000e+00 1.000000000000000000e+00 1.000000000000000000e+00 1.000000000000000000e+00 1.000000000000000000e+00 1.000000000000000000e+00 1.000000000000000000e+00 1.000000000000000000e+00 1.000000000000000000e+00 1.000000000000000000e+00 1.000000000000000000e+00 1.000000000000000000e+00 1.000000000000000000e+00 1.000000000000000000e+00 1.000000000000000000e+00 1.000000000000000000e+00 1.000000000000000000e+00 1.000000000000000000e+00 1.000000000000000000e+00 1.000000000000000000e+00 1.000000000000000000e+00 1.000000000000000000e+00 1.000000000000000000e+00 1.000000000000000000e+00 1.000000000000000000e+00 1.000000000000000000e+00 1.000000000000000000e+00 1.000000000000000000e+00 1.000000000000000000e+00 1.000000000000000000e+00 1.000000000000000000e+00 1.000000000000000000e+00 1.000000000000000000e+00 1.000000000000000000e+00 1.000000000000000000e+00 1.000000000000000000e+00 1.000000000000000000e+00 1.000000000000000000e+00 1.000000000000000000e+00 1.000000000000000000e+00 1.000000000000000000e+00 1.000000000000000000e+00 1.000000000000000000e+00 1.000000000000000000e+00 1.000000000000000000e+00 1.000000000000000000e+00 1.000000000000000000e+00 1.000000000000000000e+00 1.000000000000000000e+00 1.000000000000000000e+00 1.000000000000000000e+00 1.000000000000000000e+00 1.000000000000000000e+00 1.000000000000000000e+00 1.000000000000000000e+00 1.000000000000000000e+00 1.000000000000000000e+00 1.000000000000000000e+00 1.000000000000000000e+00 1.000000000000000000e+00 1.000000000000000000e+00 1.000000000000000000e+00 1.000000000000000000e+00 1.000000000000000000e+00 1.000000000000000000e+00 1.000000000000000000e+00 1.000000000000000000e+00 1.000000000000000000e+00 1.000000000000000000e+00 1.000000000000000000e+00 1.000000000000000000e+00 1.000000000000000000e+00 1.000000000000000000e+00 1.000000000000000000e+00 1.000000000000000000e+00 1.000000000000000000e+00 1.000000000000000000e+00 1.000000000000000000e+00 1.000000000000000000e+00 1.000000000000000000e+00 1.000000000000000000e+00 1.000000000000000000e+00 1.000000000000000000e+00 1.000000000000000000e+00 1.000000000000000000e+00 1.000000000000000000e+00 1.000000000000000000e+00 1.000000000000000000e+00 1.000000000000000000e+00 1.000000000000000000e+00 1.000000000000000000e+00 1.000000000000000000e+00 1.000000000000000000e+00 1.000000000000000000e+00 1.000000000000000000e+00 1.000000000000000000e+00 1.000000000000000000e+00 1.000000000000000000e+00 1.000000000000000000e+00 1.000000000000000000e+00 1.000000000000000000e+00 1.000000000000000000e+00 1.000000000000000000e+00 1.000000000000000000e+00 1.000000000000000000e+00 1.000000000000000000e+00 1.000000000000000000e+00 1.000000000000000000e+00 1.000000000000000000e+00 1.000000000000000000e+00 1.000000000000000000e+00 1.000000000000000000e+00 1.000000000000000000e+00 1.000000000000000000e+00 1.000000000000000000e+00 1.000000000000000000e+00 1.000000000000000000e+00 1.000000000000000000e+00 1.000000000000000000e+00 1.000000000000000000e+00 1.000000000000000000e+00 1.000000000000000000e+00 1.000000000000000000e+00 1.000000000000000000e+00 1.000000000000000000e+00 1.000000000000000000e+00 1.000000000000000000e+00 1.000000000000000000e+00 1.000000000000000000e+00 1.000000000000000000e+00 1.000000000000000000e+00 1.000000000000000000e+00 1.000000000000000000e+00 1.000000000000000000e+00 1.000000000000000000e+00 1.000000000000000000e+00 1.000000000000000000e+00 1.000000000000000000e+00 1.000000000000000000e+00 1.000000000000000000e+00 1.000000000000000000e+00 1.000000000000000000e+00 1.000000000000000000e+00 1.000000000000000000e+00 1.000000000000000000e+00 1.000000000000000000e+00 1.000000000000000000e+00 1.000000000000000000e+00 1.000000000000000000e+00 1.000000000000000000e+00 1.000000000000000000e+00 1.000000000000000000e+00 1.000000000000000000e+00 1.000000000000000000e+00 1.000000000000000000e+00 1.000000000000000000e+00 1.000000000000000000e+00 1.000000000000000000e+00 1.000000000000000000e+00 1.000000000000000000e+00 1.000000000000000000e+00 1.000000000000000000e+00 1.000000000000000000e+00 1.000000000000000000e+00 1.000000000000000000e+00 1.000000000000000000e+00 1.000000000000000000e+00 1.000000000000000000e+00 1.000000000000000000e+00 1.000000000000000000e+00 1.000000000000000000e+00 1.000000000000000000e+00 1.000000000000000000e+00 1.000000000000000000e+00 1.000000000000000000e+00 1.000000000000000000e+00 1.000000000000000000e+00 1.000000000000000000e+00 1.000000000000000000e+00 1.000000000000000000e+00 1.000000000000000000e+00 1.000000000000000000e+00 1.000000000000000000e+00 1.000000000000000000e+00 1.000000000000000000e+00 1.000000000000000000e+00 1.000000000000000000e+00 1.000000000000000000e+00 1.000000000000000000e+00 1.000000000000000000e+00 1.000000000000000000e+00 1.000000000000000000e+00 1.000000000000000000e+00 1.000000000000000000e+00 1.000000000000000000e+00 1.000000000000000000e+00 1.000000000000000000e+00 1.000000000000000000e+00 1.000000000000000000e+00 1.000000000000000000e+00 1.000000000000000000e+00 1.000000000000000000e+00 1.000000000000000000e+00 1.000000000000000000e+00 1.000000000000000000e+00 1.000000000000000000e+00 1.000000000000000000e+00 1.000000000000000000e+00 1.000000000000000000e+00 1.000000000000000000e+00 1.000000000000000000e+00 1.000000000000000000e+00 1.000000000000000000e+00 1.000000000000000000e+00 1.000000000000000000e+00 1.000000000000000000e+00 1.000000000000000000e+00 1.000000000000000000e+00 1.000000000000000000e+00 1.000000000000000000e+00 1.000000000000000000e+00 1.000000000000000000e+00 1.000000000000000000e+00 1.000000000000000000e+00 1.000000000000000000e+00 1.000000000000000000e+00 1.000000000000000000e+00 1.000000000000000000e+00 1.000000000000000000e+00 1.000000000000000000e+00 1.000000000000000000e+00 1.000000000000000000e+00 1.000000000000000000e+00 1.000000000000000000e+00 1.000000000000000000e+00 1.000000000000000000e+00 1.000000000000000000e+00 1.000000000000000000e+00 1.000000000000000000e+00 1.000000000000000000e+00 1.000000000000000000e+00 1.000000000000000000e+00 1.000000000000000000e+00 1.000000000000000000e+00 1.000000000000000000e+00 1.000000000000000000e+00 1.000000000000000000e+00 1.000000000000000000e+00 1.000000000000000000e+00 1.000000000000000000e+00 1.000000000000000000e+00 1.000000000000000000e+00 1.000000000000000000e+00 1.000000000000000000e+00 1.000000000000000000e+00 1.000000000000000000e+00 1.000000000000000000e+00 1.000000000000000000e+00 1.000000000000000000e+00 1.000000000000000000e+00 1.000000000000000000e+00 1.000000000000000000e+00 1.000000000000000000e+00 1.000000000000000000e+00 1.000000000000000000e+00 1.000000000000000000e+00 1.000000000000000000e+00 1.000000000000000000e+00 1.000000000000000000e+00 1.000000000000000000e+00 1.000000000000000000e+00 1.000000000000000000e+00 1.000000000000000000e+00 1.000000000000000000e+00 1.000000000000000000e+00 1.000000000000000000e+00 1.000000000000000000e+00 1.000000000000000000e+00 1.000000000000000000e+00 1.000000000000000000e+00 1.000000000000000000e+00 1.000000000000000000e+00 1.000000000000000000e+00 1.000000000000000000e+00 1.000000000000000000e+00 1.000000000000000000e+00 1.000000000000000000e+00 1.000000000000000000e+00 1.000000000000000000e+00 1.000000000000000000e+00 1.000000000000000000e+00 1.000000000000000000e+00 1.000000000000000000e+00 1.000000000000000000e+00 1.000000000000000000e+00 1.000000000000000000e+00 1.000000000000000000e+00 1.000000000000000000e+00 1.000000000000000000e+00 1.000000000000000000e+00 1.000000000000000000e+00 1.000000000000000000e+00 1.000000000000000000e+00 1.000000000000000000e+00 1.000000000000000000e+00 1.000000000000000000e+00 1.000000000000000000e+00 1.000000000000000000e+00 1.000000000000000000e+00 1.000000000000000000e+00 1.000000000000000000e+00 1.000000000000000000e+00 1.000000000000000000e+00 1.000000000000000000e+00 1.000000000000000000e+00 1.000000000000000000e+00 1.000000000000000000e+00 1.000000000000000000e+00 1.000000000000000000e+00 1.000000000000000000e+00 1.000000000000000000e+00 1.000000000000000000e+00 1.000000000000000000e+00 1.000000000000000000e+00 1.000000000000000000e+00 1.000000000000000000e+00 1.000000000000000000e+00 1.000000000000000000e+00 1.000000000000000000e+00 1.000000000000000000e+00 1.000000000000000000e+00 1.000000000000000000e+00 1.000000000000000000e+00 1.000000000000000000e+00 1.000000000000000000e+00 1.000000000000000000e+00 1.000000000000000000e+00 1.000000000000000000e+00 1.000000000000000000e+00 1.000000000000000000e+00 1.000000000000000000e+00 1.000000000000000000e+00 1.000000000000000000e+00 1.000000000000000000e+00 1.000000000000000000e+00 1.000000000000000000e+00 1.000000000000000000e+00 1.000000000000000000e+00 1.000000000000000000e+00 1.000000000000000000e+00 1.000000000000000000e+00 1.000000000000000000e+00 1.000000000000000000e+00 1.000000000000000000e+00 1.000000000000000000e+00 1.000000000000000000e+00 1.000000000000000000e+00 1.000000000000000000e+00 1.000000000000000000e+00 1.000000000000000000e+00 1.000000000000000000e+00 1.000000000000000000e+00 1.000000000000000000e+00 1.000000000000000000e+00 1.000000000000000000e+00 1.000000000000000000e+00 1.000000000000000000e+00 1.000000000000000000e+00 1.000000000000000000e+00 1.000000000000000000e+00 1.000000000000000000e+00 1.000000000000000000e+00 1.000000000000000000e+00 1.000000000000000000e+00 1.000000000000000000e+00 1.000000000000000000e+00 1.000000000000000000e+00 1.000000000000000000e+00 1.000000000000000000e+00 1.000000000000000000e+00 1.000000000000000000e+00 1.000000000000000000e+00 1.000000000000000000e+00 1.000000000000000000e+00 1.000000000000000000e+00 1.000000000000000000e+00 1.000000000000000000e+00 1.000000000000000000e+00 1.000000000000000000e+00 1.000000000000000000e+00 1.000000000000000000e+00 1.000000000000000000e+00 1.000000000000000000e+00 1.000000000000000000e+00 1.000000000000000000e+00 1.000000000000000000e+00 1.000000000000000000e+00 1.000000000000000000e+00 1.000000000000000000e+00 1.000000000000000000e+00 1.000000000000000000e+00 1.000000000000000000e+00 1.000000000000000000e+00 1.000000000000000000e+00 1.000000000000000000e+00 1.000000000000000000e+00 1.000000000000000000e+00 1.000000000000000000e+00 1.000000000000000000e+00
-3.194717178523999099e-03 5.066016766870178323e-01 4.547085143823078046e-01 4.619370294208506311e-01 4.963586696816949528e-01 4.806359330102335514e-01 7.743185164055712555e-01 1.934064069095267901e-01 5.402343758669454488e-01 5.043109820422344569e-01 1.037473196710486212e+00 -4.383789154130479648e-01 1.253411553279513146e+00 4.966747299040483177e-01 5.659349358231161586e-01 7.725688784436071099e-01 1.008896081995204641e+00 7.428117286285247367e-01 1.824707434811128903e-01 5.024258414699326325e-01 4.126876419304764121e-01 9.076055391945749840e-01 5.666645686798403858e-01 4.594726946811269475e-01 5.496658198782600202e-01 7.674419641562453265e-01 3.953089991819785931e-01 6.482175676660786312e-01 4.895521046329441850e-01 1.173267377520358590e+00 5.129831513684428579e-01 3.171713126451535802e-01 7.764703561944836796e-01 5.042436201429134623e-01 7.566318208914341037e-01 4.871111572108693388e-01 5.441070036179698199e-01 1.263467500507551300e+00 4.506574696898510424e-02 4.985027872988505582e-01 2.176607325751939714e-01 -4.818284519117349562e-01 7.565799174149647754e-01 1.940565914966869421e-01 2.270273812750072118e-01 5.926002287017855252e-01 4.629944807755005942e-01 4.939137061993528199e-01 5.037386249641372382e-01 4.489209671340364458e-03 1.056988671586338475e-02 5.397322277649515554e-01 5.792709721699568215e-01 5.087476906093671980e-01 4.946946731574593525e-01 -2.059662155501683009e-02 5.591332432143510944e-01 4.700534885826126441e-01 1.555540287753031936e-01 5.040846347635663527e-01 8.235006448826853731e-01 4.880846575052439906e-01 4.773736259767210055e-01 5.666652007040114958e-01 6.576389361908610010e-01 5.591760371602695345e-01 4.976802747016672579e-01 6.632487433661748977e-01 5.770101487107214266e-01 -1.069793030264833134e-02 5.698393449589059800e-01 5.246274176290908198e-01 5.053733556888307943e-01 8.196731194816286870e-03 1.358749448094920709e+00 5.687413056424449609e-01 6.075934265966036474e-01 7.889667744705151087e-01 5.023274707596424582e-01 1.323511393238260503e+00 5.467367014292870975e-01 1.555952167842226952e-01 1.063135432643747436e+00 4.654309186770910212e-01 4.107510492152424697e-01 7.501461779284281928e-01 8.490875673028985826e-01 5.068142591789243090e-01 3.348351472339400892e-01 5.694813596187614513e-01 2.318438567953199914e-01 1.749838811970059638e+00 4.649907178612978087e-01 -4.725445980207541863e-02 4.218910122043459388e-01 5.595486597386788441e-01 4.987214440672754212e-01 4.494013492300293899e-01 2.093219869332633432e-01 7.629641492161829408e-01 1.234963135401468293e+00 5.955426159748160586e-01 5.043540287034088410e-01 1.065404235809752853e+00 3.139547295806523475e-01 -1.488746609693803347e+00 -9.691110857880663731e-01 5.641470308569491721e-01 5.183010022792199356e-01 9.551777220494539478e-01 5.300194723398391483e-01 4.739772488070284062e-01 6.123319463706873300e-01 5.463443043162139467e-01 4.757876603660312620e-01 7.006914607029863795e-01 3.747545788123789468e-01 6.411411323497054893e-01 4.924713841356884725e-01 4.998597171226548119e-01 1.183295792509225119e+00 3.734728385621829405e-01 4.628200503680700573e-01 4.180198006434764357e-01 4.934987984494576541e-01 1.710447819808185832e+00 5.222257774087565307e-01 4.779135214289177425e-01 5.907632827105813167e-01 5.069430056907551219e-01 5.025204759041783653e-01 5.128387723188176928e-01 4.025777244746956418e-01 9.791192656937308669e-02 5.753462828463632439e-01 -8.579508392031059971e-02 5.765332695703702104e-01 3.070555927029949839e-02 9.182333766723258517e-01 5.044526243319830128e-01 5.021589833474033870e-01 7.658615264052747174e-01 5.283593025052337744e-01 4.040725874393834016e-01 5.083669229273750645e-01 4.286308803039981519e-02 4.692823364794079799e-01 5.062451760246181598e-01 5.241904257929049793e-01 -6.128831798704147404e-01 7.322661847704453608e-01 -2.308825950727581566e-01 5.925463033197426732e-01 5.092068886610364720e-01 7.969535717491479376e-01 4.949909536563361079e-01 1.242965538359510402e+00 3.703863751968614615e-01 8.131667078539147608e-01 7.822049919995079925e-01 5.118282046720414868e-01 5.575847431053039260e-01 5.099687179951847282e-01 4.996639828452101306e-01 1.140251085375295848e+00 -8.127981905437253740e-02 7.626521559809821271e-01 5.202788020133815028e-01 5.073003528307346022e-01 5.715066435480469220e-01 4.376739527009117503e-01 4.624984582634884545e-01 5.926636242481917449e-01 4.965064952694362987e-01 4.206297180183628526e-01 6.268306362907716256e-02 1.316387658155025453e-01 3.356405494617657748e-02 6.579370936399434600e-01 1.095823899438434834e+00 6.415062585014323915e-01 4.931246252020169418e-01 -2.342539773087293498e-01 3.427684056808241175e-01 5.751567594988105103e-01 4.593409288055139705e-01 4.922003765910770712e-01 5.022008996355388222e-01 2.178684319598896302e+00 8.126671803639922143e-01 5.797418614991103336e-01 -5.668483303141556018e-01 5.072308048957856474e-01 5.553848547711377481e-01 1.206533602132971728e-01 5.164478444340564467e-01 8.427252264168245688e-01 4.921415854723524830e-01 6.429789180309458674e-01 5.244827804566656315e-01 3.775765922191491319e-01 5.407622226156755252e-01 1.080090429719922751e+00 5.807662921845061499e-01 5.425689636931574356e-01 6.429789502833709314e-01 5.095711356294001515e-01 1.179016342930323757e+00 4.895795601488090454e-01 5.824588800170757974e-01 4.121294819502215878e-01 5.458685367105606950e-02 5.032626923943862574e-01 2.610177790513726892e-01 5.036497463510886119e-01 4.983734101346742884e-01 5.040252645895375583e-01 5.194197217871198147e-01 5.245871260263657021e-01 5.034193526448916822e-01 5.205903263020061900e-01 3.364197770172852597e-01 -5.353399728823012849e-01 4.351034981961006687e-01 2.699276035882825497e-01 5.656116697280983985e-01 5.575040905565510352e-01 9.664847782103369589e-01 8.548258114711180244e-01 7.456478182845700520e-01 -1.113149663375058995e-01 9.577697456011898813e-01 4.989425700877309078e-01 6.621967167177058577e-01 -1.433123438693716112e-02 4.679551094696575708e-01 4.763696547111477275e-01 3.371955100807143002e-01 -6.379820415940723466e-02 -1.964997632589599585e-01 3.159290991220883860e-01 4.917603455721044070e-01 -1.039949791174831807e-02 4.866518861653034156e-01 5.139476858762804801e-01 9.628557861674601481e-01 -1.215196517736484155e-01 5.714211690565265123e-01 -1.529376485794251783e+00 5.733519661920835064e-01 -2.181282525926519361e-02 5.518361249233312282e-01 5.291935874366613390e-01 5.666664065659006155e-01 4.961833605247354950e-01 4.985358124493425858e-01 5.370607835410878828e-01 5.100209280288123814e-01 6.179298021175485545e-01 1.561846020110206679e+00 5.152739193488518055e-01 5.679230816527420789e-01 5.733522190526537665e-01 8.060752239544060060e-01 8.236016726052685089e-01 4.207885053317857449e-01 2.155639671824565617e+00 4.492404673541339766e-01 3.295889009089657540e-01 6.569252948471996367e-01 5.116021480086302420e-01 8.274846987727938474e-01 4.894785164365725860e-01 5.066029708872673565e-01 5.010103960835946557e-01 6.540098835099708019e-01 3.059938951806794871e-01 8.876139916376274419e-01 8.453158358489214486e-01 -4.530651783812915390e-02 6.317900717228357443e-01 5.382960083735340850e-01 5.106850831470798324e-01 -4.966180554549798343e-01 3.545747476081964056e-01 8.746851009460310244e-01 5.964375008196362016e-01 4.944016249266882101e-01 7.006914407733292327e-01 6.264853586908436522e-01 5.064015428791144302e-01 -1.203381570415628099e-01 4.342123588283841595e-01 5.193755174642281647e-01 2.005836700552749916e-02 5.001595794255236926e-01 1.727058584149537612e+00 6.980477138967822182e-01 5.047574666347165451e-01 5.240968926654741011e-01 -2.668614523455105747e+00 5.391994758676872390e-01 1.748425151513676612e+00 4.613983879648184128e-01 4.648295200795353188e-01 -5.847345947851685377e-01 5.013870061139720224e-01 5.143781458589054001e-01 7.982567888496627795e-01 5.154592595018088197e-01 6.224932058312737659e-01 5.793361107492986939e-01 3.235536830791188034e-01 5.128024944513627226e-01 4.952306438597341431e-01 4.837772290464185110e-01 4.951081632122851794e-01 4.624620414713278005e-01 5.017534029574284293e-01 1.082168333143353145e+00 1.724037393603329582e-02 2.024727157018951118e+00 2.243508020497090527e+00 3.663770947803306477e-01 -3.432444152661380532e-02 5.106453867219061804e-01 5.334749823357725074e-01 6.122594060462471788e-01 1.208184019675375032e+00 5.622181039680996806e-01 1.036751628214707122e+00 4.962066752631463795e-01 2.360086466731544097e-01 1.193220384021209890e+00 6.443462683580433170e-01 5.171532963870585364e-01 5.069506456328622956e-01 3.829867442156269508e-01 -2.673573714573909577e+00 1.411415937686796962e+00 4.984218857795840729e-01 6.538156128522146782e-01 5.383835495898434687e-01 1.263467513541552067e+00 3.798738148066280185e-01 5.256268585546279848e-01 2.544526810046653931e-01 5.784546973585227292e-01 1.392030080878024823e+00 6.157786319355420535e-01 6.429788936008736799e-01 4.866480629586878992e-01 5.807663017537164629e-01 6.025942600950756622e-01 4.841980113682534115e-01 7.769924476745007080e-01 5.052354273493347980e-01 4.662998375541281826e-01 5.234550740151358017e-01 4.632743937316354255e-01 5.008521830982045620e-01 4.327464405220465826e-01 5.256267692323172147e-01 4.211738833011405836e-01 4.984634683440503644e-01 4.105926379352327071e-01 1.093767337150250096e+00 9.496136777117657468e-01 4.898247043297602188e-01 5.714246656415287173e-01 8.217579888880662820e-01 -9.217490368446672189e-02 8.895558919369630502e-01 5.596882810463854607e-01 1.417434290921223798e-02 5.783210301369919870e-01 1.143522239186684164e+00 5.231113903059084747e-01 5.575496252140486053e-01 2.404042060451190288e-01 -2.693033136750999090e-01 -1.954407482455135403e+00 5.120960273398593721e-01 5.807662921850204052e-01 5.807662921845064830e-01 5.005385626844702784e-01 5.609631829858048313e-01 -6.242956316048611787e-02 5.043679605876180139e-01 4.952877715007202308e-01 1.655425443082618742e-01 5.002787331743748789e-01 1.149785546451397078e+00 6.429789610355002294e-01 4.860154357571169204e-01 4.977504735859321627e-01 5.725154274026715839e-01 5.657194675148567997e-01 5.209301014042631017e-01 5.127874341089898591e-01 4.370332446038274199e-01 3.084425252265478590e-01 1.385641644213496566e-02 5.807662922260914407e-01 6.018591188797285385e-01 4.989206708956725467e-01 8.175706676281627727e-01 8.108864364887834464e-01 5.563657771463408341e-01 5.555507681875405668e-01 1.341718731873254855e+00 5.100411138238730713e-01 -2.041841449228677607e+00 4.627953339063450300e-01 1.323679851831824905e+00 5.443954357769125174e-01 -7.062509798677351069e-01 4.773507696299882364e-01 3.989085805932738316e-01 4.360131002494614938e-01 4.895434536185317986e-01 5.621409842757346675e-01 5.081761396555227739e-01 1.003705826863843020e+00 5.642091194532085074e-01 7.062458339412723551e-02 5.454273161956849636e-01 5.196278884443555901e-01 7.167117540204496207e-01 5.046180456981803619e-01 7.796060867001610717e-01 -2.347707721798822367e-01 4.847668320424508015e-01 5.010035450802952095e-01 3.595955891905583401e-01 5.017304989387044722e-01 7.368661005909924455e-01 5.000081086195268254e-01 4.350276459192171652e-01 9.452305723162092166e-01 5.057725783360083049e-01 4.341743563182977605e-01 1.013256334742759918e-01 1.321558759491056334e-01 8.699248175485683188e-01 5.002105928430568005e-01 2.702206466638937155e+00 6.284404537762657839e-01 3.653490183835635952e-01 5.938600366819166698e-01 7.823788665657711583e-01 2.329328423932170572e-02 5.466069740752319550e-01 4.422336045809643346e-01 5.418281974952694480e-01 1.132673128413380637e+00 7.362500772628685075e-01 5.017739477321669916e-01 5.367079801001580774e-01 1.023255018461549426e+00 5.114189259537196275e-01 5.118332846809021675e-01 4.993518323703316497e-01 5.439821369120581007e-01 4.977620393281501632e-01 7.882287591735672727e-01 5.018804394300137028e-01 4.995172772878216927e-01 8.536265216577494999e-03 4.971351372454893003e-01 4.403884756120199709e-03 5.362372977973873800e-01 5.004483969812263400e-01 4.915767571346256748e-01 7.103940007846744065e-01 5.044387124396165767e-01 5.875421812617571682e-01 9.965020134818860717e-03 4.750434172395241461e-01 4.971542469329679470e-01 3.815814920977299018e-01 5.339708016295905899e-03 5.021069904634468672e-01 6.330054135118956538e-01 5.007575887721569252e-01 6.170079803585288847e-01 1.035294184677486573e+00 4.922894707050373686e-01 5.265081654579649717e-01 5.833176375571983430e-01 3.908756911099715570e-01 4.683852455715206697e-01 9.102008309532582109e-01 3.311012983708719881e-01 6.701378908659894051e-01 6.042075811629142867e-01 1.693208225005974121e+00 5.629924655456505223e-01 6.004601672178064842e-01 4.810575124907527367e-01 4.348203297344088725e-01 5.461149450014098905e-01 5.833965513963859095e-01 -4.480184226975800210e-01 6.416537828840735980e-01 6.470630737536107180e-01 5.702698733758483352e-01 4.992184330991429331e-01 -3.686512908266325605e-01 4.129639468517760093e-01 5.016251060186029953e-01 5.423537799967014239e-01 6.206083878088626271e-01 6.874833254308726493e-01 4.979346115909112358e-01 5.198882024313975503e-01 -4.013454409150190583e-01 5.667132169020893118e-01 9.893264980934184383e-01 5.322215424262027872e-01 1.232687440159230263e-01 5.621969307999219456e-01 -3.775245508336677047e-01 5.633147146227805990e-01 6.981460925657749783e-01 1.007378421711071725e+00 8.296772676319350559e-01 5.262376507576610463e-01 4.697512287202091907e-01 1.765506049980627712e-01 4.631494226635163858e-01 4.254865440880039040e-01 6.373569358882793523e-01 3.448658797267148413e-02 5.885785764205941906e-01 4.283616245355777452e-01 6.285840970869190913e-01 5.647379122649804906e-01 4.854223312674930124e-01 6.687446952139817213e-01 -1.320039527525517786e-01 -1.404478833170768604e-01 5.127815292170398997e-01 5.025542558018082362e-01 6.181044794005287057e-01 4.858607146794292064e-01 -5.871534076342722619e-01 2.652000835685455638e+00 2.382749364877694565e-01 4.093621112742531487e-01 9.089891613467994125e-01 5.046057277609191649e-01 5.315229250156215945e-01 5.426106371057909383e-01 5.392141421214762254e-01 4.432161150788816451e-01 5.005696978670641784e-01 5.844781078871875701e-01 4.941644458715554467e-01 4.657610600662548395e-01 4.849249152573160693e-01 4.118486094345645276e-01 5.526470943183862117e-01 4.994781586602787815e-01 4.703809816237685126e-01 8.632761168514269112e-01 2.024068709949228939e+00 3.870705122308732427e-01 4.807245351640512809e-01 5.706717099169479335e-01 5.235555570202470310e-01 5.851774601016922484e-01 5.065033347634102512e-01 4.860296759286313883e-01 2.589189392690846026e-01 5.557276790634974040e-01 5.220094301538336090e-01 4.634268782919741536e-01 4.784288611215667397e-01 4.434391993498040252e-01 9.171870633355810876e-01 8.685205641523980891e-01 2.147813295228571118e-01 8.236365668754633829e-01 5.066964448119024578e-01 5.302161629956607669e-01 1.820534675367086574e+00 2.337280820294631023e-01 4.800469275991354201e-01 5.322583820511415098e-01 4.074702771346398744e-02 4.729734239462066725e-01 1.325372372993529391e+00 5.318936155168980662e-01 9.468748753432568721e-01 4.944158763920666333e-01 5.047766944529264999e-01 5.736546910587503323e-01 5.715580213111332020e-01 5.234293418109386975e-01 5.054317884121096727e-01 6.094356256412647443e-01 2.955517019237894338e-01 -3.641420674090732335e-01 5.139661589080215531e-01 5.499052455505700765e-01 4.994064651643533859e-01 5.240629132612016905e-01 8.236401435076862176e-01 5.222882064034538585e-01 4.543924732327389027e-01 1.019958954428407116e+00 -3.155747486600411489e-01 5.002602962515177998e-01 8.980931475988438439e-01 1.079617280078209562e+00 5.609242710049900937e-01 5.015770239986787615e-01 4.671233548720825357e-02 -1.276174960751194076e+00 3.494948778145348101e-01 5.091379088730805247e-01 4.745510134587549445e-01 4.990212597021532748e-01 5.006412088604283994e-01 5.221450940671826801e-01 -2.199489925207163132e-01 7.680979018124611812e-01 7.006915052263679167e-01 6.821514655824225670e-01 5.068832524872723955e-01 -1.179238482364376173e-01 -1.886135143262401281e-01 1.385243130633711184e+00 4.491042663605738228e-01 4.911328111881181901e-01 4.956515367905078850e-01 3.844408825802733687e-01 5.448705272499815289e-01 6.161029806889876115e-01 5.557099938840777131e-01 4.981687598169319275e-01 5.697593753843142039e-01 4.341817702865907735e-01 4.942378279896676996e-01 4.994412629066637410e-01 4.690400827065455691e-01 4.871784215833804277e-01 4.731836707619296867e-01 9.340633412619020470e-01 4.564963958818174516e-01 4.982082682739458201e-01 5.601917670409038985e-01 4.625347931321429629e-01 4.450341603441053673e-01 -1.426329124295149312e-02 5.256268627354622192e-01 7.450652822686586463e-01 5.116934246964525146e-01 5.012204436110874184e-01 1.198686378914555428e+00 5.833887291590534874e-01 -1.252209017704915550e-01 5.057776436048313506e-01 5.592383478174635103e-01 4.952888374332847232e-01 5.877988470378673336e-01 5.289146718077485376e-01 4.981457707431080073e-01 5.078322138614936865e-01 6.061403783082477403e-01 -5.687558571584634404e-01 1.808776726735017437e+00 4.524672917136906558e-01 8.092779131385512414e-01 6.882733673149540321e-01 4.736882572306579386e-01 2.802222471332852516e-01 1.506414768911321367e-01 5.083359805949678734e-01 5.052180645091866040e-01 1.327499970926713374e-03 5.075265416775019967e-01 5.728557226366183253e-01 5.051559147628584823e-01 1.050424751262321488e+00 4.996705011894452264e-01 3.991427100171914266e-01 2.545924490924367234e-01 5.013504678576952145e-01 1.474989245619035827e-01 5.082975914410331475e-01 6.457886901510409006e-01 4.986684498833731660e-01 -4.265366687108761434e-01 4.632508988532517691e-01 6.070679158899447980e-01 5.077689666771452170e-01 4.635309433803538881e-01 8.256579817414257949e-01 7.566347203124762499e-01 -4.175518921965427621e-01 1.022712598831477582e+00 1.263467502752342764e+00 5.866292060745055270e-01 4.644752197334753308e-01 9.782819367279546041e-01 4.996787303855347862e-01 4.623348681188954035e-01 4.982111691297747003e-01 1.323403774451184844e+00 5.028856616747007235e-01 4.866501380103698260e-01 1.181029894313031514e+00 -2.639456067817242194e-02 6.891162113621961405e-01 -7.220623785183750976e-02 -6.943269455917697730e-01 -1.880890967478636433e-01 7.172261935849241210e-01 5.140021479764615986e-01 4.954366548573309048e-01 -3.451969058141434177e-01 4.945803799302904702e-01 2.057854505814571411e-02 2.747468230390629623e-02 5.862299683334608602e-01 5.019304086558979971e-01 5.028310677773160098e-01 4.925898767699380398e-01 4.830951572661397186e-01 8.228556843048155933e-01 -9.236736667620373820e-02 4.976626307604785637e-01 5.306319296290803456e-01 6.411293735761844914e-01 1.076160421524451127e+00 3.889715712677698778e-01 5.781893084840270536e-01 5.082481231123284759e-01 4.569188826718724450e-02 5.612415114621994716e-01 5.096784300897864162e-01 5.151294847014060707e-01 5.363200032641814996e-01 5.800078866237193820e-01 5.323351784871631631e-01 5.009152320346579312e-01 4.980224576876968734e-01 2.457538556004952024e-01 2.977196175603031847e-01 8.064643041452761452e-01 2.156613891252729509e+00 -1.600103141054048106e-01 6.561413502207911197e-01 4.921628096468892433e-01 5.445189627389692699e-01 7.382446077505372406e-01 7.035271478853881433e-02 -9.939719668932950336e-01 5.067979206521319169e-01 2.217126644161934834e+00 4.961890291666458119e-01 1.396936894641604143e-01 2.981937364434145143e-01 7.006914547901313961e-01 6.293896197958208649e-01 1.294472186691165483e+00 5.604864650127717729e-01 1.029589389661587917e-01 6.726612681550220296e-01 1.274754199072531291e+00 4.960685967013366837e-01 5.324421392924038043e-01 5.002100784905070263e-01 8.142033560482945242e-01 5.750238388035776582e-01 4.726627480172299611e-01 -2.189034264442016320e-02 4.981503348679721110e-01 4.851961548616188780e-01 -4.452108561084831551e-01 5.403803886709935833e-01 1.077428277622895614e+00 2.331194053994696536e-01 3.399082522716981858e-01 7.280902270124698372e-01 5.060844866278155774e-01 1.809901323961256248e+00 5.623473074330156418e-01 2.810950976796933870e-02 6.013168752345127155e-01 5.017266016868550116e-01 7.985654778013104860e-01 4.813787805594480496e-01 7.233816899370761055e-02 4.996500563885487578e-01 -7.370048747196972228e-02 5.014195191654913231e-01 4.809318228533081552e-01 -3.227837953364677548e-02 -1.197377036982509302e-01 5.994777063820490026e-01 6.423552946146140474e-01 4.888899915522506023e-01 5.732227812964943992e-01 5.769427120818662047e-01 4.851110110467214409e-01 4.865372400372784956e-01 6.524136536368256856e-01 5.248409110976188785e-01 7.457907929380471757e-01 9.727399557757484549e-01 2.665500860544177453e+00 3.250176137301583057e-01 4.958935826391373536e-01 4.902338710567532010e-01 1.729197528306613829e-01 4.989619504508619463e-01 6.378328068805995121e-01 5.313941550997463015e-01 1.292697429036367751e+00 5.648736685573846339e-01 -4.265681819144083176e-01 4.461938777415266205e-02 3.936659804234265425e-01 5.893402119221086144e-01 4.935795783144331650e-01 5.138504504255200223e-01 -4.853930816979627402e-03 4.996516724582549807e-01 3.975728451521852169e-01 -2.293126524531352128e+00 4.744156336213578573e-01 5.138547160500698263e-01 1.015611972899956195e+00 5.021128051679755178e-01 3.907710979261009854e-01 7.742905254455065833e-01 -6.284347727345610535e-01 -4.873241894600525148e-01 4.184957571861620818e-02 4.766210762612994589e-01 5.136752017369783374e-01 7.641106794966248117e-01 4.948116970764036004e-01 -2.255582503833085117e-01 8.774471240606019906e-01 4.922315963057269372e-01 6.713928931487299634e-01 5.250104258358374576e-01 4.594395512749922528e-01 2.548451853253652644e-01 -4.843467029603240603e-01 2.990691912027174659e-01 4.945314114659501992e-01 2.267373225746428522e-01 5.075720940954224769e-01 4.542479891222102606e-01 4.943267345218022579e-01 5.188560552457452957e-01 5.120685038171643999e-01 4.726323410587016660e-01 5.131596364056817405e-01 1.263467472194892194e+00 4.808304706605732726e-01 5.226932369040402371e-01 3.606044396403153274e-02 5.011234148784265985e-01 5.558819226475320008e-01 4.939603473781236653e-01 5.461359076883260943e-01 5.577649680312335434e-01 7.090243004377176916e-01 6.287123327153598673e-01 5.545188535979453937e-01 5.042027931823183096e-01 5.623675642172897282e-01 4.663862129537313939e-01 5.154972918275766425e-01 5.002203425275481008e-01 1.022670862652342860e+00 5.945375431372772468e-01 -3.510523574262595092e-01 3.670859913395717600e-01 8.822538739838962085e-01 5.264226202069314242e-01 1.579157144849074323e-01 4.956040769144159364e-01 2.343613635842798915e-01 -6.217509734965309676e-02 7.447120901950293748e-01 3.329996682750026027e-01 4.919547024764699406e-01 4.545906309067838658e-01 4.887423230357954562e-01 3.654221082119634145e-01 1.285457817970010685e+00 5.986489419470595319e-01 5.569587364669820184e-01 -1.436986987488327039e-01 5.248161326609012134e-01 1.054491821275119978e+00 4.220043502953425563e-01 6.266026180131919476e-01 4.471224255830538730e-01 -1.977578304547750188e-01 4.840680707852603737e-01 1.240604521371944102e+00 -7.425044326132568262e-01 5.195252701561027253e-01 5.065244646917743676e-01 -2.354265882723006742e-01 5.118548854501941969e-01 5.291691641825060355e-01 5.003535049430104520e-01 4.982364314248211579e-01 6.168251364023799033e-01 2.865770294183607181e-01 5.591061335463137771e-01 5.098476978575648966e-01 4.954643385411699463e-01 3.640777226069267375e-02 7.991350781847290641e-01 4.905607055647783765e-01 1.007349487106288244e+00 3.561166446400673147e-01 -4.468249639348013114e-01 6.765917924636958292e-01 4.971442732684914212e-01 3.308900375801755445e-01 2.272683278278442645e-02 5.492267443701138729e-01 4.909215380025151454e-01 4.934815712182761271e-01 5.207502385187796623e-01 1.652056407026436871e-02 5.100895936524858509e-01 3.925763565809249345e-01 4.681595728497663922e-01 1.858741913896786668e+00 3.128405458301856124e-01 3.512997310101387827e-01 4.991156113081304246e-01 1.589184753115735926e+00 2.155215591161506739e-01 5.057570071663757272e-01 2.547914394748279632e-01 5.256257463431301957e-01 4.958191443538984555e-01 4.907370887919811908e-01 5.395114221560520784e-01 5.063342812057913811e-01 4.971612531693380133e-01 4.098061358285921552e-01 -2.306993640162949555e-01 5.002213125002124006e-01 3.926535528261712038e-01 5.174667025986218194e-01 3.798680349594746319e-01 4.828227917937062963e-01 -1.462830133507795616e-01 6.180135124077551501e-01 -7.839122647921743514e-01 -3.223610192781076744e-01 5.117977511529859802e-01 4.971089443743100800e-01 6.170832604803258015e-01 5.014135606206540086e-01 3.042967933229362432e-01 5.863438010012520518e-01 5.256268575757444550e-01 4.862596256319221544e-01 4.873047018953344245e-01 4.501331828608575170e-01 5.048067858733945590e-01 7.039795959018942950e-01 4.807794658166528179e-01 4.888288543917068130e-01 2.059008924521645856e-01 4.989757707837364498e-01 4.967911956450613009e-01 5.043977091137500368e-01 4.322221875436794702e-01 5.065932613507941884e-01 5.761673325666158973e-01 5.694188120809762221e-01 4.881872426816195043e-01 5.738773429593380104e-01 1.325035962522375099e-01 6.667279393785048303e-01 1.863901241073573800e+00 5.153695891066967238e-01 3.088396305197599334e-01 6.952890013146892922e-01 5.497950652365688473e-01 1.039094661501127170e+00 5.271512737994265008e-01 7.831515187430773128e-01 4.973064294196550827e-01
7.655581799163299062e-01 2.610543666342756142e-01 2.304051523006856728e-01 4.466551764804945757e-01 3.284138157465767427e-01 3.676925982308812957e-01 3.918773832490712317e-01 5.369238997623421161e-01 2.493815596833138803e-01 3.324476673850285668e-01 1.769125969158084954e+00 1.513972037274485816e+00 -1.117257733995096203e+00 3.384663954863004198e-01 3.308888649044035568e-01 2.517337394289380081e-01 1.723772587483061447e-01 3.785751215544275738e-01 2.211950006845096461e-01 3.356258070796247495e-01 3.137762525696627391e-01 1.754792253191878704e+00 1.890161217469300270e-01 3.966731070495361777e-01 3.269974319760440284e-01 -5.259786478531983667e-01 4.333996217094468473e-01 1.802105715419643761e-01 3.727088442632170429e-01 -4.237271288134217273e-01 3.101010057295692235e-01 4.593768464366526638e-01 3.411243297756582082e-01 3.180222080253360395e-01 -3.506200194965814476e-01 3.704620482286044014e-01 4.135641647645135754e-01 -2.533925769056088323e-02 -2.590898057937264021e+00 3.347396737084362695e-01 6.823637765437448044e-01 1.213127995573062556e-01 -1.140199300258383508e-01 7.337668244234674120e-01 8.641181766652575869e-01 2.008725954084210064e-01 4.459141914132041529e-01 3.492205632240718005e-01 3.490969287469264937e-01 7.307054282987824889e-01 7.329767690844994910e-01 1.288669973627657173e-01 -6.119329473436286859e-01 3.134627734768412055e-01 3.316712070955362135e-01 6.933760299693541018e-01 2.312851733460366821e-01 4.718951318130304995e-01 3.643642830097891250e-01 3.290982483232277045e-01 3.688278615068957267e-01 2.343724092166585837e-01 3.445832673682329705e-01 1.890162837737933699e-01 -1.659604635249224414e-01 3.695136072783977710e-01 3.254643729598983848e-01 2.802633112939601490e-01 2.519172592180884407e-01 7.891310273489930971e-01 2.814016318521146420e-01 3.207165170170946933e-01 2.929831555004585586e-01 8.076252238876350242e-01 1.641215174170469915e+00 2.593101893124181156e-01 4.163635935746680117e-01 4.270683218920651725e-01 3.131533730723932707e-01 -1.097636859943392329e+00 2.586832691080703794e-01 8.971482032253379479e-01 1.584990004496688254e+00 4.187725078501690623e-01 4.014788222110902138e-01 -6.362213182715069637e-01 1.689986988944771479e-02 2.967125954225696693e-01 -4.749176204077399377e-01 -6.221483021977346484e-01 8.652629212644336043e-01 1.236066399089559287e+00 3.095402871797598432e-01 8.141999909541132174e-01 4.118418804078794460e-01 2.513225842983096703e-01 3.290470174908595169e-01 3.591249750768324978e-01 7.735291325927970973e-01 -5.275329766354196481e-01 -5.816982755109375430e-02 1.444527166501163307e-01 3.184735973681105392e-01 2.640458275668063903e-01 3.608771636471848065e-01 2.461799242155481515e+00 -1.975776224026047079e-01 -4.569160004517331952e-01 2.540196401249228964e-01 7.460519972619464868e-01 1.736668205537599541e-01 4.008172353881218064e-01 3.802673882644803105e-01 2.359998358224786041e-01 -5.523289390103166552e-01 1.956340751552351209e-01 5.860597958669750973e-01 1.311783362911834450e-01 -5.979495358675721017e-02 2.930968696564221210e-01 -1.204036344360730260e+00 3.258689672284295069e-01 3.586804420343570610e-01 4.239936238308257277e-01 3.444825245419949611e-01 1.802491835791634855e+00 3.152176197876421782e-01 2.994222222706703906e-01 2.851803329953518928e-01 3.206609911504902377e-01 3.057459848868027685e-01 2.846683037421463558e-01 4.599218890758695610e-01 1.912716466660645820e-01 3.164014591478307992e-01 9.184744281656641585e-01 1.807611893639132217e-01 7.485822962306322159e-01 -2.654032055165663206e-01 3.031938430770886872e-01 3.203559035532183019e-01 3.184265882682545956e-01 4.060458391124127098e-01 3.173357100380736484e-01 3.503292986426493894e-01 7.488741269237507714e-01 5.822194768013337907e-01 3.534764101309986750e-01 1.369366621733888179e-01 3.567748736348576033e-01 -4.891117610936393523e-01 3.317177999365398394e-02 2.008497015315955370e-01 2.884731190447537008e-01 5.077623301840176184e-01 3.263263326373097017e-01 -1.051159687122076525e+00 3.450080531595427491e-01 -5.081064113268333182e-01 -5.185182302405175747e-01 3.642323754242408063e-01 4.372318503741197127e-01 2.915477150403127937e-01 3.203781550338722917e-01 3.208278130699205449e-02 -9.481086171242227023e-02 3.735122017403357253e-01 3.414977724515426138e-01 3.005626495066153758e-01 3.889889015387627547e-01 6.578319638387191137e-01 4.452785711114000677e-01 2.009264891859718072e-01 3.270557976714128512e-01 -2.091871448493819230e+00 6.904593533165299668e-01 7.960308444690271656e-01 1.056445417961967781e+00 -3.853220742695661616e-01 1.101917879497751329e+00 1.031723500321639897e-01 3.297010253469961905e-01 1.093968014119605758e+00 3.973211069556578656e-01 3.452993657371793979e-01 4.074109472961561229e-01 3.575878186824564264e-01 3.210549237935368394e-01 -2.524256802304330471e-01 1.678819392791596476e-01 4.341700237422631004e-01 6.801880598673666345e-01 2.845698480866032942e-01 2.740455980296169769e-01 1.193450680334953301e-01 2.866761035223047149e-01 -1.189590868794847323e+00 3.448306881351885789e-01 9.316515432146404985e-02 2.845141301437867365e-01 4.413812489926121074e-01 3.132375938869324528e-01 2.619424738267900343e-01 5.841805672297679941e-02 -9.236162610268584539e-01 9.316494850941159367e-02 3.024034811268403455e-01 -4.000386072926189196e-01 3.443283173512406981e-01 4.372692242041219535e-01 3.710632299061019657e-01 -2.584255606153862850e+00 3.002588688345752543e-01 9.152253586139262875e-01 3.302093891519152224e-01 2.939290598908415597e-01 3.052059419304977150e-01 2.800977882254250262e-01 2.555538827103683852e-01 3.237076753889978065e-01 2.767281449601181609e-01 2.497276446855071219e-01 5.785148161698208114e-01 5.035242695085260234e-01 4.099385073456021100e-01 2.304408431578705008e-01 2.869438552883797344e-01 -2.404569436558274265e-01 1.771734320864900125e+00 -2.047826460388083719e-02 1.107534617668541443e+00 -1.243723506462507622e+00 3.238904226429680788e-01 2.687866557359223085e-01 2.794256355008596371e-01 7.526715937026989822e-01 -1.795546623909489437e-01 5.930466626871525593e-01 2.342451889276301880e-01 6.197583339381907974e-01 6.048628378295604069e-01 3.148759203662886974e-01 -9.531839478272876587e-01 3.128015929561355213e-01 2.860252752386495678e-01 6.038567483997119012e-02 1.046509091656839363e+00 4.117594402283980548e-02 2.374492627387731591e+00 3.872224331929233210e-01 7.531125118585966227e-01 2.527594835578979016e-01 3.302472336795180818e-01 1.890157798826916646e-01 3.310783939009784849e-01 2.885545356960136920e-01 3.339458237035586863e-01 3.551724728328418124e-01 4.061340919153069717e-01 5.416360661333365911e-01 3.911108667659576876e-01 2.428921028513646718e-01 1.859788005641890563e-01 3.616790634384058900e-01 3.687786391624304771e-01 3.774093930693817045e-01 2.507741727248346209e+00 2.825375118677916908e-01 6.695007335608140764e-01 2.755826314079658917e-02 3.130208245229849640e-01 3.661607104100196852e-01 3.715678189908953044e-01 2.891160563458455290e-01 3.169776926090876468e-01 8.458166565759675515e-02 3.213681651736784439e-01 2.844364573417348385e-01 1.438621825411243692e-02 9.414002772973653621e-02 1.310446079660969376e+00 3.097839745707349213e-01 1.019005551394086551e-01 1.807071237518264928e+00 4.005172684913943515e-01 6.779737454338902181e-01 1.396016322423813960e-01 3.159233543181057535e-01 1.956342002677875225e-01 -1.805362126616963048e+00 3.011550830014846358e-01 8.634580556212325675e-01 4.260135342430000360e-01 -3.194278863831068738e-01 7.851622081771012507e-01 3.301677400518792105e-01 -5.915509877983652354e-01 1.812732671877578250e-01 3.322885517322805571e-01 1.368713381816383245e-01 -2.557656680461934395e-01 2.722800517103262097e-01 -1.033048459503093097e+00 4.455581067914796134e-01 4.148083803224002497e-01 6.407327456859631676e-01 3.298957608203058056e-01 2.770525397655680955e-01 2.243682762878874692e-01 2.646146717419942673e-01 -9.470851697043704276e-02 -6.287258905411184928e-01 5.373038684219891281e-02 3.035090888972962198e-01 2.986369516084095843e-01 3.405392668860387495e-01 3.235575462339648767e-01 4.452284890252616867e-01 3.330551599924903572e-01 2.026976868412201149e+00 7.593905531622010541e-01 2.434931816277629002e-01 -8.824133703135369489e-01 4.326613788459953702e-01 3.604608365010624205e+00 3.004176654464658092e-01 3.759500085857456209e-01 5.384272973158887865e-01 -4.426719943238455635e+00 3.497574619966362652e-01 1.225919249203143657e+00 3.317485822588830402e-01 5.845112177249490726e-01 -3.839619999706493370e-01 4.069695024776704972e-01 3.212007965435695334e-01 3.324317229058685319e-01 2.894609545375166348e-01 2.267590275869353800e+00 -2.667178032618418571e-01 3.098533078824882159e-01 -1.681229986012144462e+00 2.689101902851465109e-01 -2.533926570213505813e-02 6.218754777778714438e-01 3.018990779532356172e-01 4.614499390133953161e-01 2.456081555172936193e-01 1.341298909202647049e+00 2.732702790491254308e-01 9.316530158839271547e-02 3.128038796529816201e-01 5.841814728228140324e-02 1.282117978033391614e-01 4.186989649348359932e-01 -4.900709019217885931e-01 3.179983710451818602e-01 3.343696161212873497e-01 3.193209387227809448e-01 4.861397345763892597e-01 3.282230456365546889e-01 7.613963251711096392e-02 3.018991882196737087e-01 3.190513107395346326e-01 3.276917579235730793e-01 3.234688613818862413e-01 6.819614800962873202e-01 2.377010848389023323e+00 3.400129182468607514e-01 4.684107439552964713e-01 3.675668602890908021e-01 9.508053922180961237e-01 4.000730849659565602e-01 6.257151882722816749e-02 7.500572485308593107e-01 1.610278153043651628e-01 1.320570269956488074e-01 3.241450679482360542e-01 2.100733617539768949e-01 8.718518456478707712e-01 6.583797122355278253e-01 7.336353041248205864e-01 3.510422886203672932e-01 5.841805671718206666e-02 5.841805672299405644e-02 2.942218992040869230e-01 4.793567753952197030e-01 1.110167774719734046e+00 -6.996295209046139718e-02 3.121548131684445671e-01 4.622423288614448400e-01 3.146244284888142784e-01 8.871707357139082539e-01 9.316488323922171577e-02 3.114369205288338716e-01 3.289119394006133068e-01 4.419004950489034966e-01 -5.176312637262190375e-01 4.661885540865070010e-01 3.399790676894107744e-01 3.134278260447081466e-01 5.346453069887390219e-01 7.885583217998918260e-01 5.841805660908658271e-02 -2.484342463733910378e-01 3.240613549627797130e-01 -4.148392180333746598e-02 -4.989338497065396449e-01 4.139966745154088357e-01 -2.806438543731987867e+00 1.337434036222616918e+00 3.002052060946160394e-01 -2.361493398534433852e-01 4.461601807347714277e-01 1.683117883443204343e+00 2.644409430201748457e-01 5.366525247333788773e-01 7.764166396610288068e-01 5.262389058268016617e-01 3.327214104994573041e-01 3.144147935259938298e-01 3.431010780545343808e-01 3.000030250356640060e-01 1.706735001319769962e+00 3.386603102374888818e-01 -7.032473008392969849e-02 2.731928677857128895e-01 2.749374897118625483e-01 -1.220966698879933254e+00 3.033997180212205103e-01 1.543316238429146871e-02 3.958059147692010171e-01 1.900491522604507155e-01 3.309581622264538003e-01 3.885935106342737200e-01 3.081093068258115575e-01 -1.458579001817398857e-01 3.241120150693603263e-01 5.035952466021608176e-01 3.550383281225671372e-01 3.084722114232556489e-01 6.523139938627167123e-01 6.629774315717504862e-01 8.364326310125108632e-01 -1.024951623453965510e+00 4.523496599616101954e-01 -3.852861551641246357e-02 -2.571601947708675451e-01 4.087157992437677190e-01 3.687395510406205612e-01 3.394921870960667110e-01 7.988596900856299587e-01 3.033188071111456163e-01 2.014811845338335683e-01 2.362736145003452304e-01 9.649325031071344372e-02 -1.453461932882419427e-01 3.240463636991228746e-01 2.896403541924587599e-01 4.525358301410087880e-01 3.055858911134914924e-01 2.922375356316162520e-01 3.269632289902895117e-01 4.782826135478053242e-01 3.305980653905504774e-01 5.029808226816282479e-01 3.054357720410135757e-01 3.316480658978888107e-01 7.505741773510511416e-01 3.201870889917534657e-01 8.019695775137788418e-01 2.134866295323600838e-01 3.332980016521315814e-01 3.251389363328598958e-01 -1.244588504530463435e+00 3.114305416516228719e-01 1.392431190416813791e-01 5.162417594976527191e-01 4.388532847649302404e-01 3.177179526352864603e-01 5.749744161416283639e-01 7.647001088833089710e-01 3.055620058968864794e-01 1.665126737032885940e-01 3.135192224582831755e-01 -4.789556766293612267e-03 3.929305950833246186e-01 3.257901270515870529e-01 3.074557561005807904e-01 3.282231957715010529e-01 3.716007604926981900e-01 6.201420967939192536e-02 1.325077914481072261e+00 4.714836499750952314e-01 2.711109272813024273e-01 3.038605675027116759e-01 -6.169869368490762396e-01 3.070592647714119883e-01 1.761914948166541650e-01 3.395708038878900714e-01 4.257512513871636872e-01 1.634128686319440693e-01 5.264800806002547517e-01 8.370507878632977850e-01 2.369143472093264979e-01 1.776950715093282007e-01 9.988889577088787275e-02 3.158985812604761523e-01 7.676569045167426220e-01 2.487720061138064764e+00 3.104998830087041806e-01 3.658303547107925602e-01 6.040720028224577653e-01 2.322555485323242463e-01 3.299135465960061908e-01 2.632389030446886657e-01 8.646354241598612766e-01 2.366925080897805400e-01 -1.308504439257950624e-01 3.268265644901224842e-01 4.596102197731456729e-02 4.605253244428099135e-01 8.974967863838007043e-01 2.576577866140178363e-01 3.873434733775629191e-01 1.487622831248831323e+00 4.752131607183134321e-01 2.779107288663990594e-01 1.216253473271242391e-01 4.212358706561296073e-01 4.459363980105859326e-01 3.503647111479988308e-01 2.052128099306876341e-01 7.988449682970378829e-01 1.270683568374785799e-01 2.476473118488823899e-01 3.148133037190737338e-01 2.737701053148346442e-01 3.726029936214945160e-01 2.435375439955802246e-01 9.849414864116082802e-01 4.284545457862449225e-01 3.609666162593269112e-01 2.838756187278037024e-01 2.498210989790558556e-01 2.994875019441615160e-01 5.420758000608658644e-01 6.496483420890172278e-01 2.973655285437267204e-01 3.308453126270815003e-01 3.254728508389950203e-01 3.288973818151706974e-01 6.016784541325059799e-01 2.478913936078877556e-01 2.548167332576427579e-01 -1.084911501309662463e-01 3.317929406850535501e-01 4.434725369102214820e-01 5.038504801408419942e-01 4.179767313114931548e-01 3.586090167499048076e-01 1.380019869251732256e+00 4.934086052601009964e-01 2.947985100475297715e-01 3.951377346547517710e-01 1.153304415363844315e+00 1.012890152484381190e+00 2.764013207010151407e-01 -3.731943712503220656e-01 -1.778774549967528651e-01 3.364997293056234406e-01 3.517639829077141012e-01 3.245899437620688999e-01 3.716091902293465199e-01 4.390726601866049017e-01 2.679453347252033768e-01 2.730739951837793944e-01 4.458748594602476856e-01 3.392283002425756644e-01 2.532531914372087578e-01 7.311065700602941142e-01 2.600546232009186970e-02 7.368821601703330337e-01 3.687696674013765663e-01 2.984353481312113088e-01 2.435924829442343564e-01 4.721524453129571919e-01 8.662526678355483289e-01 2.326587474194418415e-01 6.237132550952408927e-01 1.328967677325966212e+00 4.082745741654527083e-01 1.695797559366750251e+00 5.719866550827502616e-01 1.017605789190083598e-01 3.172154383823231893e-01 3.035465089039771636e-01 2.257397865018092031e-01 3.889815638348882998e-01 3.279668918686857171e-01 3.114158356678446982e-01 2.785203835888040436e-01 3.772087829949421489e-01 5.070576298838204432e-02 2.805249736016528495e-01 4.594438039693450881e-01 3.034713464962364160e-01 1.366862634383920194e-01 3.687681713206775180e-01 1.966205249791195542e-01 2.825714225290704706e-01 -6.578977419264793181e-01 1.640637720941248157e+00 3.376685537756306532e-01 -3.242122906454324993e-01 3.038244465950843409e-01 2.399167517815845585e-01 3.330742549120980778e-01 -3.811292008610573490e+00 2.919294164236258204e+00 5.465110779342051694e-01 3.341841904188538881e-01 4.006480105538839931e-01 3.233338790157367360e-01 3.502038856823344037e-01 2.150614657464930080e+00 5.394206856085568269e-01 3.561784332454572266e-01 1.956340693333971925e-01 6.041068762268980707e-01 3.029643893101021668e-01 9.348300912645174376e-01 -3.695275540598633723e-01 -7.097101493677911987e-01 -8.836149932425144682e-01 1.059113556045397780e-01 3.250592837427290771e-01 5.411181785501540942e-01 3.649861017494854254e-01 1.982282423547889194e-01 3.128682051306554968e-01 3.420364881376417032e-01 2.034198033015576224e-01 2.864232031126014433e-01 4.129658785527323683e-01 3.088587717224469675e-01 5.652250867400874235e-01 3.599004792588816337e-01 1.433454174061514763e-01 1.415513945679451047e-01 3.989227203498542651e-01 3.045841401686071315e-01 2.069858225373178151e-01 3.431836097653696571e-01 2.864459216656499163e-01 7.288651183583045867e-01 3.018990771012214913e-01 4.272280910819701294e-01 2.900954332612496467e-01 3.333033972443463222e-01 2.008506279118204840e-01 5.264369348421118477e-01 1.303455974257003103e+00 3.051627571249567739e-01 2.723753740135480550e-01 3.083046788494166468e-01 2.314431537151706020e-01 3.437647359126138058e-01 2.824841802973592775e-01 3.162156743297647732e-01 3.061169873008144360e-01 6.879961325329941868e-01 7.131964103634542695e-01 5.071996969739913652e-01 1.561388492815859452e+00 3.007325884116393566e-01 3.749585687745128904e-01 -5.785162076503758133e-02 -3.836827823217591749e-01 3.192114258348640043e-01 3.007877500687585193e-01 7.807978634139505214e-01 3.220559946881909608e-01 2.297538787991227627e-01 3.175905715085759473e-01 3.144728235103230185e-01 3.093090641821767961e-01 6.057558067399930746e-01 8.807486558666381971e-01 3.720005230885762293e-01 5.765058505672092659e-01 3.168999593576009577e-01 -3.415039200920881590e-02 3.029216449236893371e-01 3.547370390226881609e-01 -2.591632759089068649e-01 2.237393792185982111e-01 3.204778406107550714e-01 4.469097309006832552e-01 3.689285913017903429e-01 1.170102232840194434e+00 8.092624806040117358e-01 -7.527692376612692415e-01 -2.533925648647334175e-02 2.680674130425944046e-01 -2.670689646309758025e+00 1.415669762801661458e+00 2.902458075304305551e-01 4.468910196569815807e-01 3.215386389437371872e-01 6.942927208717246668e-01 3.290494668568590408e-01 3.128017275162873756e-01 -3.511464716225304317e-01 6.648531880931903837e-01 6.201206854698025628e-02 9.127515882644274825e-01 1.792111755308856580e+00 -3.693619641599203418e-01 -1.229240643562269586e+00 2.853416619722675684e-01 3.157860256450836234e-01 8.944375216541253781e-01 3.302620842316709160e-01 7.864255793906740344e-01 4.549952244263561485e-01 4.046966240870391029e-01 3.314955098368892461e-01 3.041983193726225942e-01 3.228460003280018698e-01 3.768470682458606169e-01 1.100041264012894704e+00 1.192151019592110117e+00 3.200744515698757398e-01 2.682067391668611078e-01 -2.144540258915548780e-01 -1.214399959874035151e-01 4.341196030210255907e-01 3.603378745983663034e-01 3.398634741414059968e-01 7.121606739705982347e-01 3.440907700962358984e-01 2.918986516412936938e-01 3.284753908354453023e-01 2.609736314532175583e-01 3.462390237467563581e-01 5.319918829455727582e-01 3.241831708381434085e-01 3.102648199305301224e-01 -4.661204143742026657e-02 4.450422670303428307e-01 4.711494080679500818e-01 9.470589916365703687e-01 1.020951261595660409e+00 8.438613458687895807e-01 3.185477490963157798e-01 2.250144199715134463e-01 -1.005459402814583986e-02 2.381429621660016982e-01 -1.465344974798289845e+00 3.270048663552280188e-01 5.932415807520283746e-01 3.510056843880078326e-01 8.487889455690184048e-01 1.193869689891937202e+00 1.956340714631129851e-01 4.109970895238096444e-02 3.523198366262900727e-01 3.533803620140446022e-01 6.379285697037977432e-01 1.615980501224012211e-01 -3.848998138104656741e-01 5.197520472357293198e-01 4.531223673228000348e-01 3.054597848848770725e-01 3.350577654025413965e-01 2.416844049923394522e-01 3.681400018407809394e-01 2.868318815125993626e-01 3.100693904373741372e-01 3.629986857660159050e-01 8.376004106368196700e-01 3.087864130352821479e-01 -1.534118366252504029e-01 8.170580203016728493e-01 4.328125618131702379e-01 1.982076698324452269e-01 3.021546069435561699e-01 1.152241116916710828e+00 8.305966831509262183e-02 7.960444068834374720e-01 2.893614362665919426e-01 2.818337760112922807e-01 -6.209190030960081569e-02 1.522194435740261698e-01 6.576868341463105727e-01 3.279353519716328158e-01 8.067729016489698646e-01 3.077080841246048193e-01 3.732899725949547221e-01 7.810562559419207407e-01 -2.446877392812084155e-03 -1.747984908190102882e+00 3.267727714858383870e-01 3.746775691145161069e-01 2.072670514867228642e-01 4.673862783729932913e-01 3.659100977155938517e-01 3.333405765391302955e-01 2.082116929274691330e-01 3.107663436247265487e-01 -8.546300560778196179e-03 -1.458627994624628332e+00 6.912327090479566394e-01 3.552408958294445696e-01 3.334089740402457203e-01 3.690896495558828039e-01 7.704594106358596539e-01 3.311706755368289401e-01 1.059954247252085369e-01 2.874066321176367289e-01 1.041637590278451375e+00 2.824854579251296904e-01 4.060112557623971608e-01 1.083522301010763078e+00 3.138059993571565287e-01 2.057247598024688262e+00 3.416811435044259659e-01 2.837299083907477981e-01 7.504629864715209875e-01 3.241947844387235156e-01 3.539034021796406138e-01 -1.296032896973477566e+00 3.309179333085026098e-01 2.860680551904026814e-01 4.760589255028943034e-01 3.583674818765184567e-01 3.099378599901663200e-01 -5.054508078488573197e-01 1.711925098972469250e+00 -4.876159938682912975e-01 6.335665740640692434e-01 3.328693436750013723e-01 8.472587759005154040e-02 2.952586738593596105e-01 3.340082158456901262e-01 1.124167584830075173e+00 -4.731289651390314238e-02 3.597024411707926972e-01 -7.539787671518961565e-01 4.933893102580103607e-01 4.560076013526250804e-01 -2.662671296514061314e+00 2.371349768567947880e+00 3.656585560912921640e-01 3.183084300518030929e-01 -1.159135239287309549e+00 2.771652763144906162e-01 -4.164916712883764277e-02 3.274310053965989176e-01 1.929548116479022635e-01 6.021160010964680120e-01 4.899420911520047106e-01 3.000494672659059781e-01 -2.533924912456582759e-02 -3.215104568786086858e-02 2.886141633657880456e-01 -1.007813231749068450e+00 3.048742323686144395e-01 -5.428826702389423220e-01 3.142374488067861127e-01 4.249812080364807620e-01 2.121616021881839731e-01 2.916944097487503273e-01 2.998757135944518093e-01 -8.697075029694974202e-02 3.043423437741240578e-01 3.685015705009737075e-01 3.545343005384858359e-01 3.283993860093485928e-01 3.188629171542203267e-01 -7.530876372443195965e-01 5.720635528983141205e-01 1.391304983666185047e+00 6.374935128431080851e-04 2.682137009716389353e-01 2.590997543701192840e-01 1.229187528500893301e+00 2.938739583169690528e-01 2.730563450670651093e-01 9.120959953333492853e-01 1.758497853903221997e-01 1.500624804729369544e+00 2.667512989467913931e-01 2.116216399546473892e-01 3.738697791260010561e-01 6.638787420307247222e-01 1.254040660625219461e+00 3.095973569622030852e-01 3.000874623182265277e-01 6.760159544143051757e-01 3.610093760865705770e-01 3.176012272325276498e-02 -1.754982430636846669e-01 3.114309533334577718e-01 3.291386325976179972e-01 1.494518334442213603e-01 5.061600681047044858e-01 -1.502656605777024645e-01 1.273794296094255207e+00 2.751469287118670781e-01 2.988069646711966620e-01 -2.305300381975458723e+00 1.981934121226162360e-01 3.410665231672307951e-01 3.668070183290855768e-01 -1.131233333746061720e-01 3.096725565911220834e-01 -5.820794574400327548e-01 1.922727120686906488e-01 3.041838103103728375e-01 3.133341064820184818e-01 1.125160915477126045e+00 2.623771512942034700e-01 3.122623075860079256e-01 -1.189531332302850686e+00 4.295664152153816917e-01 8.376693065640403724e-01 5.637887872084905716e-01 3.307268987123821447e-01 -1.194739518802598599e-01 7.845153789702565827e-01 1.091684794228716532e-03 3.229160818550366741e-01 3.281987400131709531e-01 3.181093998377491072e-01 7.528866258291544433e-01 2.607766440382393580e-01 7.287438057753995446e-01 4.406229468588269138e-01 6.396729789581908632e-01 1.181774177349286803e-01 -1.404923167108405035e+00 3.174381687114889994e-01 1.850581047259819423e-02 4.094673908159210396e-01 3.031830978130580778e-01 2.087235496788266975e-01 3.019008798678423089e-01 3.229552947904165139e-01 3.128628033277255915e-01 2.605296535779482170e-01 3.197276589840877259e-01 3.023101085366192153e-01 4.021626479892407846e-01 -4.940973035716737516e-01 2.969345854634620752e-01 3.261267058888862036e-01 3.245254566809254726e-01 3.931400696269274353e-01 3.229121141891286295e-01 5.646858332040681772e-01 1.794593823058296123e-01 8.606422046972421747e-01 5.141224249351163955e-01 2.724220525789305958e-01 3.212041734086690248e-01 -1.763646380181908002e+00 2.900173508230269315e-01 3.154592175628584960e-01 2.681920012131083220e-01 3.018990787941427945e-01 3.396347844047496456e-01 4.039172116642346100e-01 4.219853753250039086e-01 3.223136654462393502e-01 2.629924990115208860e-01 4.183921498497327196e-01 3.433853703317748529e-01 4.058400334394215436e-01 3.309634941094672933e-01 3.363957192845883348e-01 2.948132333927618864e-01 6.936264572859108385e-03 2.965723084310671331e-01 1.534983979792407804e-01 2.942746305402413332e-01 3.256046543938030946e-01 8.633749359197148698e-02 -2.787469147909206121e-02 -2.551286262804188243e-01 3.234704247160527846e+00 2.853073850708679471e-01 5.751084288032942693e-01 1.456659156309254022e-01 2.590571665953123603e-01 1.324450592613986455e+00 2.957877649177151347e-01 7.406081660054072424e-01 3.230342880324728050e-01
