# 
#                 ----------------------------------------------------
#                 Data from a 3D direct N-body simulation. 
# 
#                 rows are i-particle; 
#                 coumns are :mass, tag, x ,y, z, vx, vy, vz, ax, ay, az
# 
#                 NTHU, Computational Physics 
# 
#                 ----------------------------------------------------
#                 Time = 0.0
0.000000000000000000e+00 1.000000000000000000e+00 2.000000000000000000e+00 3.000000000000000000e+00 4.000000000000000000e+00 5.000000000000000000e+00 6.000000000000000000e+00 7.000000000000000000e+00 8.000000000000000000e+00 9.000000000000000000e+00 1.000000000000000000e+01 1.100000000000000000e+01 1.200000000000000000e+01 1.300000000000000000e+01 1.400000000000000000e+01 1.500000000000000000e+01 1.600000000000000000e+01 1.700000000000000000e+01 1.800000000000000000e+01 1.900000000000000000e+01 2.000000000000000000e+01 2.100000000000000000e+01 2.200000000000000000e+01 2.300000000000000000e+01 2.400000000000000000e+01 2.500000000000000000e+01 2.600000000000000000e+01 2.700000000000000000e+01 2.800000000000000000e+01 2.900000000000000000e+01 3.000000000000000000e+01 3.100000000000000000e+01 3.200000000000000000e+01 3.300000000000000000e+01 3.400000000000000000e+01 3.500000000000000000e+01 3.600000000000000000e+01 3.700000000000000000e+01 3.800000000000000000e+01 3.900000000000000000e+01 4.000000000000000000e+01 4.100000000000000000e+01 4.200000000000000000e+01 4.300000000000000000e+01 4.400000000000000000e+01 4.500000000000000000e+01 4.600000000000000000e+01 4.700000000000000000e+01 4.800000000000000000e+01 4.900000000000000000e+01 5.000000000000000000e+01 5.100000000000000000e+01 5.200000000000000000e+01 5.300000000000000000e+01 5.400000000000000000e+01 5.500000000000000000e+01 5.600000000000000000e+01 5.700000000000000000e+01 5.800000000000000000e+01 5.900000000000000000e+01 6.000000000000000000e+01 6.100000000000000000e+01 6.200000000000000000e+01 6.300000000000000000e+01 6.400000000000000000e+01 6.500000000000000000e+01 6.600000000000000000e+01 6.700000000000000000e+01 6.800000000000000000e+01 6.900000000000000000e+01 7.000000000000000000e+01 7.100000000000000000e+01 7.200000000000000000e+01 7.300000000000000000e+01 7.400000000000000000e+01 7.500000000000000000e+01 7.600000000000000000e+01 7.700000000000000000e+01 7.800000000000000000e+01 7.900000000000000000e+01 8.000000000000000000e+01 8.100000000000000000e+01 8.200000000000000000e+01 8.300000000000000000e+01 8.400000000000000000e+01 8.500000000000000000e+01 8.600000000000000000e+01 8.700000000000000000e+01 8.800000000000000000e+01 8.900000000000000000e+01 9.000000000000000000e+01 9.100000000000000000e+01 9.200000000000000000e+01 9.300000000000000000e+01 9.400000000000000000e+01 9.500000000000000000e+01 9.600000000000000000e+01 9.700000000000000000e+01 9.800000000000000000e+01 9.900000000000000000e+01 1.000000000000000000e+02 1.010000000000000000e+02 1.020000000000000000e+02 1.030000000000000000e+02 1.040000000000000000e+02 1.050000000000000000e+02 1.060000000000000000e+02 1.070000000000000000e+02 1.080000000000000000e+02 1.090000000000000000e+02 1.100000000000000000e+02 1.110000000000000000e+02 1.120000000000000000e+02 1.130000000000000000e+02 1.140000000000000000e+02 1.150000000000000000e+02 1.160000000000000000e+02 1.170000000000000000e+02 1.180000000000000000e+02 1.190000000000000000e+02 1.200000000000000000e+02 1.210000000000000000e+02 1.220000000000000000e+02 1.230000000000000000e+02 1.240000000000000000e+02 1.250000000000000000e+02 1.260000000000000000e+02 1.270000000000000000e+02 1.280000000000000000e+02 1.290000000000000000e+02 1.300000000000000000e+02 1.310000000000000000e+02 1.320000000000000000e+02 1.330000000000000000e+02 1.340000000000000000e+02 1.350000000000000000e+02 1.360000000000000000e+02 1.370000000000000000e+02 1.380000000000000000e+02 1.390000000000000000e+02 1.400000000000000000e+02 1.410000000000000000e+02 1.420000000000000000e+02 1.430000000000000000e+02 1.440000000000000000e+02 1.450000000000000000e+02 1.460000000000000000e+02 1.470000000000000000e+02 1.480000000000000000e+02 1.490000000000000000e+02 1.500000000000000000e+02 1.510000000000000000e+02 1.520000000000000000e+02 1.530000000000000000e+02 1.540000000000000000e+02 1.550000000000000000e+02 1.560000000000000000e+02 1.570000000000000000e+02 1.580000000000000000e+02 1.590000000000000000e+02 1.600000000000000000e+02 1.610000000000000000e+02 1.620000000000000000e+02 1.630000000000000000e+02 1.640000000000000000e+02 1.650000000000000000e+02 1.660000000000000000e+02 1.670000000000000000e+02 1.680000000000000000e+02 1.690000000000000000e+02 1.700000000000000000e+02 1.710000000000000000e+02 1.720000000000000000e+02 1.730000000000000000e+02 1.740000000000000000e+02 1.750000000000000000e+02 1.760000000000000000e+02 1.770000000000000000e+02 1.780000000000000000e+02 1.790000000000000000e+02 1.800000000000000000e+02 1.810000000000000000e+02 1.820000000000000000e+02 1.830000000000000000e+02 1.840000000000000000e+02 1.850000000000000000e+02 1.860000000000000000e+02 1.870000000000000000e+02 1.880000000000000000e+02 1.890000000000000000e+02 1.900000000000000000e+02 1.910000000000000000e+02 1.920000000000000000e+02 1.930000000000000000e+02 1.940000000000000000e+02 1.950000000000000000e+02 1.960000000000000000e+02 1.970000000000000000e+02 1.980000000000000000e+02 1.990000000000000000e+02 2.000000000000000000e+02 2.010000000000000000e+02 2.020000000000000000e+02 2.030000000000000000e+02 2.040000000000000000e+02 2.050000000000000000e+02 2.060000000000000000e+02 2.070000000000000000e+02 2.080000000000000000e+02 2.090000000000000000e+02 2.100000000000000000e+02 2.110000000000000000e+02 2.120000000000000000e+02 2.130000000000000000e+02 2.140000000000000000e+02 2.150000000000000000e+02 2.160000000000000000e+02 2.170000000000000000e+02 2.180000000000000000e+02 2.190000000000000000e+02 2.200000000000000000e+02 2.210000000000000000e+02 2.220000000000000000e+02 2.230000000000000000e+02 2.240000000000000000e+02 2.250000000000000000e+02 2.260000000000000000e+02 2.270000000000000000e+02 2.280000000000000000e+02 2.290000000000000000e+02 2.300000000000000000e+02 2.310000000000000000e+02 2.320000000000000000e+02 2.330000000000000000e+02 2.340000000000000000e+02 2.350000000000000000e+02 2.360000000000000000e+02 2.370000000000000000e+02 2.380000000000000000e+02 2.390000000000000000e+02 2.400000000000000000e+02 2.410000000000000000e+02 2.420000000000000000e+02 2.430000000000000000e+02 2.440000000000000000e+02 2.450000000000000000e+02 2.460000000000000000e+02 2.470000000000000000e+02 2.480000000000000000e+02 2.490000000000000000e+02 2.500000000000000000e+02 2.510000000000000000e+02 2.520000000000000000e+02 2.530000000000000000e+02 2.540000000000000000e+02 2.550000000000000000e+02 2.560000000000000000e+02 2.570000000000000000e+02 2.580000000000000000e+02 2.590000000000000000e+02 2.600000000000000000e+02 2.610000000000000000e+02 2.620000000000000000e+02 2.630000000000000000e+02 2.640000000000000000e+02 2.650000000000000000e+02 2.660000000000000000e+02 2.670000000000000000e+02 2.680000000000000000e+02 2.690000000000000000e+02 2.700000000000000000e+02 2.710000000000000000e+02 2.720000000000000000e+02 2.730000000000000000e+02 2.740000000000000000e+02 2.750000000000000000e+02 2.760000000000000000e+02 2.770000000000000000e+02 2.780000000000000000e+02 2.790000000000000000e+02 2.800000000000000000e+02 2.810000000000000000e+02 2.820000000000000000e+02 2.830000000000000000e+02 2.840000000000000000e+02 2.850000000000000000e+02 2.860000000000000000e+02 2.870000000000000000e+02 2.880000000000000000e+02 2.890000000000000000e+02 2.900000000000000000e+02 2.910000000000000000e+02 2.920000000000000000e+02 2.930000000000000000e+02 2.940000000000000000e+02 2.950000000000000000e+02 2.960000000000000000e+02 2.970000000000000000e+02 2.980000000000000000e+02 2.990000000000000000e+02 3.000000000000000000e+02 3.010000000000000000e+02 3.020000000000000000e+02 3.030000000000000000e+02 3.040000000000000000e+02 3.050000000000000000e+02 3.060000000000000000e+02 3.070000000000000000e+02 3.080000000000000000e+02 3.090000000000000000e+02 3.100000000000000000e+02 3.110000000000000000e+02 3.120000000000000000e+02 3.130000000000000000e+02 3.140000000000000000e+02 3.150000000000000000e+02 3.160000000000000000e+02 3.170000000000000000e+02 3.180000000000000000e+02 3.190000000000000000e+02 3.200000000000000000e+02 3.210000000000000000e+02 3.220000000000000000e+02 3.230000000000000000e+02 3.240000000000000000e+02 3.250000000000000000e+02 3.260000000000000000e+02 3.270000000000000000e+02 3.280000000000000000e+02 3.290000000000000000e+02 3.300000000000000000e+02 3.310000000000000000e+02 3.320000000000000000e+02 3.330000000000000000e+02 3.340000000000000000e+02 3.350000000000000000e+02 3.360000000000000000e+02 3.370000000000000000e+02 3.380000000000000000e+02 3.390000000000000000e+02 3.400000000000000000e+02 3.410000000000000000e+02 3.420000000000000000e+02 3.430000000000000000e+02 3.440000000000000000e+02 3.450000000000000000e+02 3.460000000000000000e+02 3.470000000000000000e+02 3.480000000000000000e+02 3.490000000000000000e+02 3.500000000000000000e+02 3.510000000000000000e+02 3.520000000000000000e+02 3.530000000000000000e+02 3.540000000000000000e+02 3.550000000000000000e+02 3.560000000000000000e+02 3.570000000000000000e+02 3.580000000000000000e+02 3.590000000000000000e+02 3.600000000000000000e+02 3.610000000000000000e+02 3.620000000000000000e+02 3.630000000000000000e+02 3.640000000000000000e+02 3.650000000000000000e+02 3.660000000000000000e+02 3.670000000000000000e+02 3.680000000000000000e+02 3.690000000000000000e+02 3.700000000000000000e+02 3.710000000000000000e+02 3.720000000000000000e+02 3.730000000000000000e+02 3.740000000000000000e+02 3.750000000000000000e+02 3.760000000000000000e+02 3.770000000000000000e+02 3.780000000000000000e+02 3.790000000000000000e+02 3.800000000000000000e+02 3.810000000000000000e+02 3.820000000000000000e+02 3.830000000000000000e+02 3.840000000000000000e+02 3.850000000000000000e+02 3.860000000000000000e+02 3.870000000000000000e+02 3.880000000000000000e+02 3.890000000000000000e+02 3.900000000000000000e+02 3.910000000000000000e+02 3.920000000000000000e+02 3.930000000000000000e+02 3.940000000000000000e+02 3.950000000000000000e+02 3.960000000000000000e+02 3.970000000000000000e+02 3.980000000000000000e+02 3.990000000000000000e+02 4.000000000000000000e+02 4.010000000000000000e+02 4.020000000000000000e+02 4.030000000000000000e+02 4.040000000000000000e+02 4.050000000000000000e+02 4.060000000000000000e+02 4.070000000000000000e+02 4.080000000000000000e+02 4.090000000000000000e+02 4.100000000000000000e+02 4.110000000000000000e+02 4.120000000000000000e+02 4.130000000000000000e+02 4.140000000000000000e+02 4.150000000000000000e+02 4.160000000000000000e+02 4.170000000000000000e+02 4.180000000000000000e+02 4.190000000000000000e+02 4.200000000000000000e+02 4.210000000000000000e+02 4.220000000000000000e+02 4.230000000000000000e+02 4.240000000000000000e+02 4.250000000000000000e+02 4.260000000000000000e+02 4.270000000000000000e+02 4.280000000000000000e+02 4.290000000000000000e+02 4.300000000000000000e+02 4.310000000000000000e+02 4.320000000000000000e+02 4.330000000000000000e+02 4.340000000000000000e+02 4.350000000000000000e+02 4.360000000000000000e+02 4.370000000000000000e+02 4.380000000000000000e+02 4.390000000000000000e+02 4.400000000000000000e+02 4.410000000000000000e+02 4.420000000000000000e+02 4.430000000000000000e+02 4.440000000000000000e+02 4.450000000000000000e+02 4.460000000000000000e+02 4.470000000000000000e+02 4.480000000000000000e+02 4.490000000000000000e+02 4.500000000000000000e+02 4.510000000000000000e+02 4.520000000000000000e+02 4.530000000000000000e+02 4.540000000000000000e+02 4.550000000000000000e+02 4.560000000000000000e+02 4.570000000000000000e+02 4.580000000000000000e+02 4.590000000000000000e+02 4.600000000000000000e+02 4.610000000000000000e+02 4.620000000000000000e+02 4.630000000000000000e+02 4.640000000000000000e+02 4.650000000000000000e+02 4.660000000000000000e+02 4.670000000000000000e+02 4.680000000000000000e+02 4.690000000000000000e+02 4.700000000000000000e+02 4.710000000000000000e+02 4.720000000000000000e+02 4.730000000000000000e+02 4.740000000000000000e+02 4.750000000000000000e+02 4.760000000000000000e+02 4.770000000000000000e+02 4.780000000000000000e+02 4.790000000000000000e+02 4.800000000000000000e+02 4.810000000000000000e+02 4.820000000000000000e+02 4.830000000000000000e+02 4.840000000000000000e+02 4.850000000000000000e+02 4.860000000000000000e+02 4.870000000000000000e+02 4.880000000000000000e+02 4.890000000000000000e+02 4.900000000000000000e+02 4.910000000000000000e+02 4.920000000000000000e+02 4.930000000000000000e+02 4.940000000000000000e+02 4.950000000000000000e+02 4.960000000000000000e+02 4.970000000000000000e+02 4.980000000000000000e+02 4.990000000000000000e+02 5.000000000000000000e+02 5.010000000000000000e+02 5.020000000000000000e+02 5.030000000000000000e+02 5.040000000000000000e+02 5.050000000000000000e+02 5.060000000000000000e+02 5.070000000000000000e+02 5.080000000000000000e+02 5.090000000000000000e+02 5.100000000000000000e+02 5.110000000000000000e+02 5.120000000000000000e+02 5.130000000000000000e+02 5.140000000000000000e+02 5.150000000000000000e+02 5.160000000000000000e+02 5.170000000000000000e+02 5.180000000000000000e+02 5.190000000000000000e+02 5.200000000000000000e+02 5.210000000000000000e+02 5.220000000000000000e+02 5.230000000000000000e+02 5.240000000000000000e+02 5.250000000000000000e+02 5.260000000000000000e+02 5.270000000000000000e+02 5.280000000000000000e+02 5.290000000000000000e+02 5.300000000000000000e+02 5.310000000000000000e+02 5.320000000000000000e+02 5.330000000000000000e+02 5.340000000000000000e+02 5.350000000000000000e+02 5.360000000000000000e+02 5.370000000000000000e+02 5.380000000000000000e+02 5.390000000000000000e+02 5.400000000000000000e+02 5.410000000000000000e+02 5.420000000000000000e+02 5.430000000000000000e+02 5.440000000000000000e+02 5.450000000000000000e+02 5.460000000000000000e+02 5.470000000000000000e+02 5.480000000000000000e+02 5.490000000000000000e+02 5.500000000000000000e+02 5.510000000000000000e+02 5.520000000000000000e+02 5.530000000000000000e+02 5.540000000000000000e+02 5.550000000000000000e+02 5.560000000000000000e+02 5.570000000000000000e+02 5.580000000000000000e+02 5.590000000000000000e+02 5.600000000000000000e+02 5.610000000000000000e+02 5.620000000000000000e+02 5.630000000000000000e+02 5.640000000000000000e+02 5.650000000000000000e+02 5.660000000000000000e+02 5.670000000000000000e+02 5.680000000000000000e+02 5.690000000000000000e+02 5.700000000000000000e+02 5.710000000000000000e+02 5.720000000000000000e+02 5.730000000000000000e+02 5.740000000000000000e+02 5.750000000000000000e+02 5.760000000000000000e+02 5.770000000000000000e+02 5.780000000000000000e+02 5.790000000000000000e+02 5.800000000000000000e+02 5.810000000000000000e+02 5.820000000000000000e+02 5.830000000000000000e+02 5.840000000000000000e+02 5.850000000000000000e+02 5.860000000000000000e+02 5.870000000000000000e+02 5.880000000000000000e+02 5.890000000000000000e+02 5.900000000000000000e+02 5.910000000000000000e+02 5.920000000000000000e+02 5.930000000000000000e+02 5.940000000000000000e+02 5.950000000000000000e+02 5.960000000000000000e+02 5.970000000000000000e+02 5.980000000000000000e+02 5.990000000000000000e+02 6.000000000000000000e+02 6.010000000000000000e+02 6.020000000000000000e+02 6.030000000000000000e+02 6.040000000000000000e+02 6.050000000000000000e+02 6.060000000000000000e+02 6.070000000000000000e+02 6.080000000000000000e+02 6.090000000000000000e+02 6.100000000000000000e+02 6.110000000000000000e+02 6.120000000000000000e+02 6.130000000000000000e+02 6.140000000000000000e+02 6.150000000000000000e+02 6.160000000000000000e+02 6.170000000000000000e+02 6.180000000000000000e+02 6.190000000000000000e+02 6.200000000000000000e+02 6.210000000000000000e+02 6.220000000000000000e+02 6.230000000000000000e+02 6.240000000000000000e+02 6.250000000000000000e+02 6.260000000000000000e+02 6.270000000000000000e+02 6.280000000000000000e+02 6.290000000000000000e+02 6.300000000000000000e+02 6.310000000000000000e+02 6.320000000000000000e+02 6.330000000000000000e+02 6.340000000000000000e+02 6.350000000000000000e+02 6.360000000000000000e+02 6.370000000000000000e+02 6.380000000000000000e+02 6.390000000000000000e+02 6.400000000000000000e+02 6.410000000000000000e+02 6.420000000000000000e+02 6.430000000000000000e+02 6.440000000000000000e+02 6.450000000000000000e+02 6.460000000000000000e+02 6.470000000000000000e+02 6.480000000000000000e+02 6.490000000000000000e+02 6.500000000000000000e+02 6.510000000000000000e+02 6.520000000000000000e+02 6.530000000000000000e+02 6.540000000000000000e+02 6.550000000000000000e+02 6.560000000000000000e+02 6.570000000000000000e+02 6.580000000000000000e+02 6.590000000000000000e+02 6.600000000000000000e+02 6.610000000000000000e+02 6.620000000000000000e+02 6.630000000000000000e+02 6.640000000000000000e+02 6.650000000000000000e+02 6.660000000000000000e+02 6.670000000000000000e+02 6.680000000000000000e+02 6.690000000000000000e+02 6.700000000000000000e+02 6.710000000000000000e+02 6.720000000000000000e+02 6.730000000000000000e+02 6.740000000000000000e+02 6.750000000000000000e+02 6.760000000000000000e+02 6.770000000000000000e+02 6.780000000000000000e+02 6.790000000000000000e+02 6.800000000000000000e+02 6.810000000000000000e+02 6.820000000000000000e+02 6.830000000000000000e+02 6.840000000000000000e+02 6.850000000000000000e+02 6.860000000000000000e+02 6.870000000000000000e+02 6.880000000000000000e+02 6.890000000000000000e+02 6.900000000000000000e+02 6.910000000000000000e+02 6.920000000000000000e+02 6.930000000000000000e+02 6.940000000000000000e+02 6.950000000000000000e+02 6.960000000000000000e+02 6.970000000000000000e+02 6.980000000000000000e+02 6.990000000000000000e+02 7.000000000000000000e+02 7.010000000000000000e+02 7.020000000000000000e+02 7.030000000000000000e+02 7.040000000000000000e+02 7.050000000000000000e+02 7.060000000000000000e+02 7.070000000000000000e+02 7.080000000000000000e+02 7.090000000000000000e+02 7.100000000000000000e+02 7.110000000000000000e+02 7.120000000000000000e+02 7.130000000000000000e+02 7.140000000000000000e+02 7.150000000000000000e+02 7.160000000000000000e+02 7.170000000000000000e+02 7.180000000000000000e+02 7.190000000000000000e+02 7.200000000000000000e+02 7.210000000000000000e+02 7.220000000000000000e+02 7.230000000000000000e+02 7.240000000000000000e+02 7.250000000000000000e+02 7.260000000000000000e+02 7.270000000000000000e+02 7.280000000000000000e+02 7.290000000000000000e+02 7.300000000000000000e+02 7.310000000000000000e+02 7.320000000000000000e+02 7.330000000000000000e+02 7.340000000000000000e+02 7.350000000000000000e+02 7.360000000000000000e+02 7.370000000000000000e+02 7.380000000000000000e+02 7.390000000000000000e+02 7.400000000000000000e+02 7.410000000000000000e+02 7.420000000000000000e+02 7.430000000000000000e+02 7.440000000000000000e+02 7.450000000000000000e+02 7.460000000000000000e+02 7.470000000000000000e+02 7.480000000000000000e+02 7.490000000000000000e+02 7.500000000000000000e+02 7.510000000000000000e+02 7.520000000000000000e+02 7.530000000000000000e+02 7.540000000000000000e+02 7.550000000000000000e+02 7.560000000000000000e+02 7.570000000000000000e+02 7.580000000000000000e+02 7.590000000000000000e+02 7.600000000000000000e+02 7.610000000000000000e+02 7.620000000000000000e+02 7.630000000000000000e+02 7.640000000000000000e+02 7.650000000000000000e+02 7.660000000000000000e+02 7.670000000000000000e+02 7.680000000000000000e+02 7.690000000000000000e+02 7.700000000000000000e+02 7.710000000000000000e+02 7.720000000000000000e+02 7.730000000000000000e+02 7.740000000000000000e+02 7.750000000000000000e+02 7.760000000000000000e+02 7.770000000000000000e+02 7.780000000000000000e+02 7.790000000000000000e+02 7.800000000000000000e+02 7.810000000000000000e+02 7.820000000000000000e+02 7.830000000000000000e+02 7.840000000000000000e+02 7.850000000000000000e+02 7.860000000000000000e+02 7.870000000000000000e+02 7.880000000000000000e+02 7.890000000000000000e+02 7.900000000000000000e+02 7.910000000000000000e+02 7.920000000000000000e+02 7.930000000000000000e+02 7.940000000000000000e+02 7.950000000000000000e+02 7.960000000000000000e+02 7.970000000000000000e+02 7.980000000000000000e+02 7.990000000000000000e+02 8.000000000000000000e+02 8.010000000000000000e+02 8.020000000000000000e+02 8.030000000000000000e+02 8.040000000000000000e+02 8.050000000000000000e+02 8.060000000000000000e+02 8.070000000000000000e+02 8.080000000000000000e+02 8.090000000000000000e+02 8.100000000000000000e+02 8.110000000000000000e+02 8.120000000000000000e+02 8.130000000000000000e+02 8.140000000000000000e+02 8.150000000000000000e+02 8.160000000000000000e+02 8.170000000000000000e+02 8.180000000000000000e+02 8.190000000000000000e+02 8.200000000000000000e+02 8.210000000000000000e+02 8.220000000000000000e+02 8.230000000000000000e+02 8.240000000000000000e+02 8.250000000000000000e+02 8.260000000000000000e+02 8.270000000000000000e+02 8.280000000000000000e+02 8.290000000000000000e+02 8.300000000000000000e+02 8.310000000000000000e+02 8.320000000000000000e+02 8.330000000000000000e+02 8.340000000000000000e+02 8.350000000000000000e+02 8.360000000000000000e+02 8.370000000000000000e+02 8.380000000000000000e+02 8.390000000000000000e+02 8.400000000000000000e+02 8.410000000000000000e+02 8.420000000000000000e+02 8.430000000000000000e+02 8.440000000000000000e+02 8.450000000000000000e+02 8.460000000000000000e+02 8.470000000000000000e+02 8.480000000000000000e+02 8.490000000000000000e+02 8.500000000000000000e+02 8.510000000000000000e+02 8.520000000000000000e+02 8.530000000000000000e+02 8.540000000000000000e+02 8.550000000000000000e+02 8.560000000000000000e+02 8.570000000000000000e+02 8.580000000000000000e+02 8.590000000000000000e+02 8.600000000000000000e+02 8.610000000000000000e+02 8.620000000000000000e+02 8.630000000000000000e+02 8.640000000000000000e+02 8.650000000000000000e+02 8.660000000000000000e+02 8.670000000000000000e+02 8.680000000000000000e+02 8.690000000000000000e+02 8.700000000000000000e+02 8.710000000000000000e+02 8.720000000000000000e+02 8.730000000000000000e+02 8.740000000000000000e+02 8.750000000000000000e+02 8.760000000000000000e+02 8.770000000000000000e+02 8.780000000000000000e+02 8.790000000000000000e+02 8.800000000000000000e+02 8.810000000000000000e+02 8.820000000000000000e+02 8.830000000000000000e+02 8.840000000000000000e+02 8.850000000000000000e+02 8.860000000000000000e+02 8.870000000000000000e+02 8.880000000000000000e+02 8.890000000000000000e+02 8.900000000000000000e+02 8.910000000000000000e+02 8.920000000000000000e+02 8.930000000000000000e+02 8.940000000000000000e+02 8.950000000000000000e+02 8.960000000000000000e+02 8.970000000000000000e+02 8.980000000000000000e+02 8.990000000000000000e+02 9.000000000000000000e+02 9.010000000000000000e+02 9.020000000000000000e+02 9.030000000000000000e+02 9.040000000000000000e+02 9.050000000000000000e+02 9.060000000000000000e+02 9.070000000000000000e+02 9.080000000000000000e+02 9.090000000000000000e+02 9.100000000000000000e+02 9.110000000000000000e+02 9.120000000000000000e+02 9.130000000000000000e+02 9.140000000000000000e+02 9.150000000000000000e+02 9.160000000000000000e+02 9.170000000000000000e+02 9.180000000000000000e+02 9.190000000000000000e+02 9.200000000000000000e+02 9.210000000000000000e+02 9.220000000000000000e+02 9.230000000000000000e+02 9.240000000000000000e+02 9.250000000000000000e+02 9.260000000000000000e+02 9.270000000000000000e+02 9.280000000000000000e+02 9.290000000000000000e+02 9.300000000000000000e+02 9.310000000000000000e+02 9.320000000000000000e+02 9.330000000000000000e+02 9.340000000000000000e+02 9.350000000000000000e+02 9.360000000000000000e+02 9.370000000000000000e+02 9.380000000000000000e+02 9.390000000000000000e+02 9.400000000000000000e+02 9.410000000000000000e+02 9.420000000000000000e+02 9.430000000000000000e+02 9.440000000000000000e+02 9.450000000000000000e+02 9.460000000000000000e+02 9.470000000000000000e+02 9.480000000000000000e+02 9.490000000000000000e+02 9.500000000000000000e+02 9.510000000000000000e+02 9.520000000000000000e+02 9.530000000000000000e+02 9.540000000000000000e+02 9.550000000000000000e+02 9.560000000000000000e+02 9.570000000000000000e+02 9.580000000000000000e+02 9.590000000000000000e+02 9.600000000000000000e+02 9.610000000000000000e+02 9.620000000000000000e+02 9.630000000000000000e+02 9.640000000000000000e+02 9.650000000000000000e+02 9.660000000000000000e+02 9.670000000000000000e+02 9.680000000000000000e+02 9.690000000000000000e+02 9.700000000000000000e+02 9.710000000000000000e+02 9.720000000000000000e+02 9.730000000000000000e+02 9.740000000000000000e+02 9.750000000000000000e+02 9.760000000000000000e+02 9.770000000000000000e+02 9.780000000000000000e+02 9.790000000000000000e+02 9.800000000000000000e+02 9.810000000000000000e+02 9.820000000000000000e+02 9.830000000000000000e+02 9.840000000000000000e+02 9.850000000000000000e+02 9.860000000000000000e+02 9.870000000000000000e+02 9.880000000000000000e+02 9.890000000000000000e+02 9.900000000000000000e+02 9.910000000000000000e+02 9.920000000000000000e+02 9.930000000000000000e+02 9.940000000000000000e+02 9.950000000000000000e+02 9.960000000000000000e+02 9.970000000000000000e+02 9.980000000000000000e+02 9.990000000000000000e+02
1.000000000000000000e+00 1.000000000000000000e+00 1.000000000000000000e+00 1.000000000000000000e+00 1.000000000000000000e+00 1.000000000000000000e+00 1.000000000000000000e+00 1.000000000000000000e+00 1.000000000000000000e+00 1.000000000000000000e+00 1.000000000000000000e+00 1.000000000000000000e+00 1.000000000000000000e+00 1.000000000000000000e+00 1.000000000000000000e+00 1.000000000000000000e+00 1.000000000000000000e+00 1.000000000000000000e+00 1.000000000000000000e+00 1.000000000000000000e+00 1.000000000000000000e+00 1.000000000000000000e+00 1.000000000000000000e+00 1.000000000000000000e+00 1.000000000000000000e+00 1.000000000000000000e+00 1.000000000000000000e+00 1.000000000000000000e+00 1.000000000000000000e+00 1.000000000000000000e+00 1.000000000000000000e+00 1.000000000000000000e+00 1.000000000000000000e+00 1.000000000000000000e+00 1.000000000000000000e+00 1.000000000000000000e+00 1.000000000000000000e+00 1.000000000000000000e+00 1.000000000000000000e+00 1.000000000000000000e+00 1.000000000000000000e+00 1.000000000000000000e+00 1.000000000000000000e+00 1.000000000000000000e+00 1.000000000000000000e+00 1.000000000000000000e+00 1.000000000000000000e+00 1.000000000000000000e+00 1.000000000000000000e+00 1.000000000000000000e+00 1.000000000000000000e+00 1.000000000000000000e+00 1.000000000000000000e+00 1.000000000000000000e+00 1.000000000000000000e+00 1.000000000000000000e+00 1.000000000000000000e+00 1.000000000000000000e+00 1.000000000000000000e+00 1.000000000000000000e+00 1.000000000000000000e+00 1.000000000000000000e+00 1.000000000000000000e+00 1.000000000000000000e+00 1.000000000000000000e+00 1.000000000000000000e+00 1.000000000000000000e+00 1.000000000000000000e+00 1.000000000000000000e+00 1.000000000000000000e+00 1.000000000000000000e+00 1.000000000000000000e+00 1.000000000000000000e+00 1.000000000000000000e+00 1.000000000000000000e+00 1.000000000000000000e+00 1.000000000000000000e+00 1.000000000000000000e+00 1.000000000000000000e+00 1.000000000000000000e+00 1.000000000000000000e+00 1.000000000000000000e+00 1.000000000000000000e+00 1.000000000000000000e+00 1.000000000000000000e+00 1.000000000000000000e+00 1.000000000000000000e+00 1.000000000000000000e+00 1.000000000000000000e+00 1.000000000000000000e+00 1.000000000000000000e+00 1.000000000000000000e+00 1.000000000000000000e+00 1.000000000000000000e+00 1.000000000000000000e+00 1.000000000000000000e+00 1.000000000000000000e+00 1.000000000000000000e+00 1.000000000000000000e+00 1.000000000000000000e+00 1.000000000000000000e+00 1.000000000000000000e+00 1.000000000000000000e+00 1.000000000000000000e+00 1.000000000000000000e+00 1.000000000000000000e+00 1.000000000000000000e+00 1.000000000000000000e+00 1.000000000000000000e+00 1.000000000000000000e+00 1.000000000000000000e+00 1.000000000000000000e+00 1.000000000000000000e+00 1.000000000000000000e+00 1.000000000000000000e+00 1.000000000000000000e+00 1.000000000000000000e+00 1.000000000000000000e+00 1.000000000000000000e+00 1.000000000000000000e+00 1.000000000000000000e+00 1.000000000000000000e+00 1.000000000000000000e+00 1.000000000000000000e+00 1.000000000000000000e+00 1.000000000000000000e+00 1.000000000000000000e+00 1.000000000000000000e+00 1.000000000000000000e+00 1.000000000000000000e+00 1.000000000000000000e+00 1.000000000000000000e+00 1.000000000000000000e+00 1.000000000000000000e+00 1.000000000000000000e+00 1.000000000000000000e+00 1.000000000000000000e+00 1.000000000000000000e+00 1.000000000000000000e+00 1.000000000000000000e+00 1.000000000000000000e+00 1.000000000000000000e+00 1.000000000000000000e+00 1.000000000000000000e+00 1.000000000000000000e+00 1.000000000000000000e+00 1.000000000000000000e+00 1.000000000000000000e+00 1.000000000000000000e+00 1.000000000000000000e+00 1.000000000000000000e+00 1.000000000000000000e+00 1.000000000000000000e+00 1.000000000000000000e+00 1.000000000000000000e+00 1.000000000000000000e+00 1.000000000000000000e+00 1.000000000000000000e+00 1.000000000000000000e+00 1.000000000000000000e+00 1.000000000000000000e+00 1.000000000000000000e+00 1.000000000000000000e+00 1.000000000000000000e+00 1.000000000000000000e+00 1.000000000000000000e+00 1.000000000000000000e+00 1.000000000000000000e+00 1.000000000000000000e+00 1.000000000000000000e+00 1.000000000000000000e+00 1.000000000000000000e+00 1.000000000000000000e+00 1.000000000000000000e+00 1.000000000000000000e+00 1.000000000000000000e+00 1.000000000000000000e+00 1.000000000000000000e+00 1.000000000000000000e+00 1.000000000000000000e+00 1.000000000000000000e+00 1.000000000000000000e+00 1.000000000000000000e+00 1.000000000000000000e+00 1.000000000000000000e+00 1.000000000000000000e+00 1.000000000000000000e+00 1.000000000000000000e+00 1.000000000000000000e+00 1.000000000000000000e+00 1.000000000000000000e+00 1.000000000000000000e+00 1.000000000000000000e+00 1.000000000000000000e+00 1.000000000000000000e+00 1.000000000000000000e+00 1.000000000000000000e+00 1.000000000000000000e+00 1.000000000000000000e+00 1.000000000000000000e+00 1.000000000000000000e+00 1.000000000000000000e+00 1.000000000000000000e+00 1.000000000000000000e+00 1.000000000000000000e+00 1.000000000000000000e+00 1.000000000000000000e+00 1.000000000000000000e+00 1.000000000000000000e+00 1.000000000000000000e+00 1.000000000000000000e+00 1.000000000000000000e+00 1.000000000000000000e+00 1.000000000000000000e+00 1.000000000000000000e+00 1.000000000000000000e+00 1.000000000000000000e+00 1.000000000000000000e+00 1.000000000000000000e+00 1.000000000000000000e+00 1.000000000000000000e+00 1.000000000000000000e+00 1.000000000000000000e+00 1.000000000000000000e+00 1.000000000000000000e+00 1.000000000000000000e+00 1.000000000000000000e+00 1.000000000000000000e+00 1.000000000000000000e+00 1.000000000000000000e+00 1.000000000000000000e+00 1.000000000000000000e+00 1.000000000000000000e+00 1.000000000000000000e+00 1.000000000000000000e+00 1.000000000000000000e+00 1.000000000000000000e+00 1.000000000000000000e+00 1.000000000000000000e+00 1.000000000000000000e+00 1.000000000000000000e+00 1.000000000000000000e+00 1.000000000000000000e+00 1.000000000000000000e+00 1.000000000000000000e+00 1.000000000000000000e+00 1.000000000000000000e+00 1.000000000000000000e+00 1.000000000000000000e+00 1.000000000000000000e+00 1.000000000000000000e+00 1.000000000000000000e+00 1.000000000000000000e+00 1.000000000000000000e+00 1.000000000000000000e+00 1.000000000000000000e+00 1.000000000000000000e+00 1.000000000000000000e+00 1.000000000000000000e+00 1.000000000000000000e+00 1.000000000000000000e+00 1.000000000000000000e+00 1.000000000000000000e+00 1.000000000000000000e+00 1.000000000000000000e+00 1.000000000000000000e+00 1.000000000000000000e+00 1.000000000000000000e+00 1.000000000000000000e+00 1.000000000000000000e+00 1.000000000000000000e+00 1.000000000000000000e+00 1.000000000000000000e+00 1.000000000000000000e+00 1.000000000000000000e+00 1.000000000000000000e+00 1.000000000000000000e+00 1.000000000000000000e+00 1.000000000000000000e+00 1.000000000000000000e+00 1.000000000000000000e+00 1.000000000000000000e+00 1.000000000000000000e+00 1.000000000000000000e+00 1.000000000000000000e+00 1.000000000000000000e+00 1.000000000000000000e+00 1.000000000000000000e+00 1.000000000000000000e+00 1.000000000000000000e+00 1.000000000000000000e+00 1.000000000000000000e+00 1.000000000000000000e+00 1.000000000000000000e+00 1.000000000000000000e+00 1.000000000000000000e+00 1.000000000000000000e+00 1.000000000000000000e+00 1.000000000000000000e+00 1.000000000000000000e+00 1.000000000000000000e+00 1.000000000000000000e+00 1.000000000000000000e+00 1.000000000000000000e+00 1.000000000000000000e+00 1.000000000000000000e+00 1.000000000000000000e+00 1.000000000000000000e+00 1.000000000000000000e+00 1.000000000000000000e+00 1.000000000000000000e+00 1.000000000000000000e+00 1.000000000000000000e+00 1.000000000000000000e+00 1.000000000000000000e+00 1.000000000000000000e+00 1.000000000000000000e+00 1.000000000000000000e+00 1.000000000000000000e+00 1.000000000000000000e+00 1.000000000000000000e+00 1.000000000000000000e+00 1.000000000000000000e+00 1.000000000000000000e+00 1.000000000000000000e+00 1.000000000000000000e+00 1.000000000000000000e+00 1.000000000000000000e+00 1.000000000000000000e+00 1.000000000000000000e+00 1.000000000000000000e+00 1.000000000000000000e+00 1.000000000000000000e+00 1.000000000000000000e+00 1.000000000000000000e+00 1.000000000000000000e+00 1.000000000000000000e+00 1.000000000000000000e+00 1.000000000000000000e+00 1.000000000000000000e+00 1.000000000000000000e+00 1.000000000000000000e+00 1.000000000000000000e+00 1.000000000000000000e+00 1.000000000000000000e+00 1.000000000000000000e+00 1.000000000000000000e+00 1.000000000000000000e+00 1.000000000000000000e+00 1.000000000000000000e+00 1.000000000000000000e+00 1.000000000000000000e+00 1.000000000000000000e+00 1.000000000000000000e+00 1.000000000000000000e+00 1.000000000000000000e+00 1.000000000000000000e+00 1.000000000000000000e+00 1.000000000000000000e+00 1.000000000000000000e+00 1.000000000000000000e+00 1.000000000000000000e+00 1.000000000000000000e+00 1.000000000000000000e+00 1.000000000000000000e+00 1.000000000000000000e+00 1.000000000000000000e+00 1.000000000000000000e+00 1.000000000000000000e+00 1.000000000000000000e+00 1.000000000000000000e+00 1.000000000000000000e+00 1.000000000000000000e+00 1.000000000000000000e+00 1.000000000000000000e+00 1.000000000000000000e+00 1.000000000000000000e+00 1.000000000000000000e+00 1.000000000000000000e+00 1.000000000000000000e+00 1.000000000000000000e+00 1.000000000000000000e+00 1.000000000000000000e+00 1.000000000000000000e+00 1.000000000000000000e+00 1.000000000000000000e+00 1.000000000000000000e+00 1.000000000000000000e+00 1.000000000000000000e+00 1.000000000000000000e+00 1.000000000000000000e+00 1.000000000000000000e+00 1.000000000000000000e+00 1.000000000000000000e+00 1.000000000000000000e+00 1.000000000000000000e+00 1.000000000000000000e+00 1.000000000000000000e+00 1.000000000000000000e+00 1.000000000000000000e+00 1.000000000000000000e+00 1.000000000000000000e+00 1.000000000000000000e+00 1.000000000000000000e+00 1.000000000000000000e+00 1.000000000000000000e+00 1.000000000000000000e+00 1.000000000000000000e+00 1.000000000000000000e+00 1.000000000000000000e+00 1.000000000000000000e+00 1.000000000000000000e+00 1.000000000000000000e+00 1.000000000000000000e+00 1.000000000000000000e+00 1.000000000000000000e+00 1.000000000000000000e+00 1.000000000000000000e+00 1.000000000000000000e+00 1.000000000000000000e+00 1.000000000000000000e+00 1.000000000000000000e+00 1.000000000000000000e+00 1.000000000000000000e+00 1.000000000000000000e+00 1.000000000000000000e+00 1.000000000000000000e+00 1.000000000000000000e+00 1.000000000000000000e+00 1.000000000000000000e+00 1.000000000000000000e+00 1.000000000000000000e+00 1.000000000000000000e+00 1.000000000000000000e+00 1.000000000000000000e+00 1.000000000000000000e+00 1.000000000000000000e+00 1.000000000000000000e+00 1.000000000000000000e+00 1.000000000000000000e+00 1.000000000000000000e+00 1.000000000000000000e+00 1.000000000000000000e+00 1.000000000000000000e+00 1.000000000000000000e+00 1.000000000000000000e+00 1.000000000000000000e+00 1.000000000000000000e+00 1.000000000000000000e+00 1.000000000000000000e+00 1.000000000000000000e+00 1.000000000000000000e+00 1.000000000000000000e+00 1.000000000000000000e+00 1.000000000000000000e+00 1.000000000000000000e+00 1.000000000000000000e+00 1.000000000000000000e+00 1.000000000000000000e+00 1.000000000000000000e+00 1.000000000000000000e+00 1.000000000000000000e+00 1.000000000000000000e+00 1.000000000000000000e+00 1.000000000000000000e+00 1.000000000000000000e+00 1.000000000000000000e+00 1.000000000000000000e+00 1.000000000000000000e+00 1.000000000000000000e+00 1.000000000000000000e+00 1.000000000000000000e+00 1.000000000000000000e+00 1.000000000000000000e+00 1.000000000000000000e+00 1.000000000000000000e+00 1.000000000000000000e+00 1.000000000000000000e+00 1.000000000000000000e+00 1.000000000000000000e+00 1.000000000000000000e+00 1.000000000000000000e+00 1.000000000000000000e+00 1.000000000000000000e+00 1.000000000000000000e+00 1.000000000000000000e+00 1.000000000000000000e+00 1.000000000000000000e+00 1.000000000000000000e+00 1.000000000000000000e+00 1.000000000000000000e+00 1.000000000000000000e+00 1.000000000000000000e+00 1.000000000000000000e+00 1.000000000000000000e+00 1.000000000000000000e+00 1.000000000000000000e+00 1.000000000000000000e+00 1.000000000000000000e+00 1.000000000000000000e+00 1.000000000000000000e+00 1.000000000000000000e+00 1.000000000000000000e+00 1.000000000000000000e+00 1.000000000000000000e+00 1.000000000000000000e+00 1.000000000000000000e+00 1.000000000000000000e+00 1.000000000000000000e+00 1.000000000000000000e+00 1.000000000000000000e+00 1.000000000000000000e+00 1.000000000000000000e+00 1.000000000000000000e+00 1.000000000000000000e+00 1.000000000000000000e+00 1.000000000000000000e+00 1.000000000000000000e+00 1.000000000000000000e+00 1.000000000000000000e+00 1.000000000000000000e+00 1.000000000000000000e+00 1.000000000000000000e+00 1.000000000000000000e+00 1.000000000000000000e+00 1.000000000000000000e+00 1.000000000000000000e+00 1.000000000000000000e+00 1.000000000000000000e+00 1.000000000000000000e+00 1.000000000000000000e+00 1.000000000000000000e+00 1.000000000000000000e+00 1.000000000000000000e+00 1.000000000000000000e+00 1.000000000000000000e+00 1.000000000000000000e+00 1.000000000000000000e+00 1.000000000000000000e+00 1.000000000000000000e+00 1.000000000000000000e+00 1.000000000000000000e+00 1.000000000000000000e+00 1.000000000000000000e+00 1.000000000000000000e+00 1.000000000000000000e+00 1.000000000000000000e+00 1.000000000000000000e+00 1.000000000000000000e+00 1.000000000000000000e+00 1.000000000000000000e+00 1.000000000000000000e+00 1.000000000000000000e+00 1.000000000000000000e+00 1.000000000000000000e+00 1.000000000000000000e+00 1.000000000000000000e+00 1.000000000000000000e+00 1.000000000000000000e+00 1.000000000000000000e+00 1.000000000000000000e+00 1.000000000000000000e+00 1.000000000000000000e+00 1.000000000000000000e+00 1.000000000000000000e+00 1.000000000000000000e+00 1.000000000000000000e+00 1.000000000000000000e+00 1.000000000000000000e+00 1.000000000000000000e+00 1.000000000000000000e+00 1.000000000000000000e+00 1.000000000000000000e+00 1.000000000000000000e+00 1.000000000000000000e+00 1.000000000000000000e+00 1.000000000000000000e+00 1.000000000000000000e+00 1.000000000000000000e+00 1.000000000000000000e+00 1.000000000000000000e+00 1.000000000000000000e+00 1.000000000000000000e+00 1.000000000000000000e+00 1.000000000000000000e+00 1.000000000000000000e+00 1.000000000000000000e+00 1.000000000000000000e+00 1.000000000000000000e+00 1.000000000000000000e+00 1.000000000000000000e+00 1.000000000000000000e+00 1.000000000000000000e+00 1.000000000000000000e+00 1.000000000000000000e+00 1.000000000000000000e+00 1.000000000000000000e+00 1.000000000000000000e+00 1.000000000000000000e+00 1.000000000000000000e+00 1.000000000000000000e+00 1.000000000000000000e+00 1.000000000000000000e+00 1.000000000000000000e+00 1.000000000000000000e+00 1.000000000000000000e+00 1.000000000000000000e+00 1.000000000000000000e+00 1.000000000000000000e+00 1.000000000000000000e+00 1.000000000000000000e+00 1.000000000000000000e+00 1.000000000000000000e+00 1.000000000000000000e+00 1.000000000000000000e+00 1.000000000000000000e+00 1.000000000000000000e+00 1.000000000000000000e+00 1.000000000000000000e+00 1.000000000000000000e+00 1.000000000000000000e+00 1.000000000000000000e+00 1.000000000000000000e+00 1.000000000000000000e+00 1.000000000000000000e+00 1.000000000000000000e+00 1.000000000000000000e+00 1.000000000000000000e+00 1.000000000000000000e+00 1.000000000000000000e+00 1.000000000000000000e+00 1.000000000000000000e+00 1.000000000000000000e+00 1.000000000000000000e+00 1.000000000000000000e+00 1.000000000000000000e+00 1.000000000000000000e+00 1.000000000000000000e+00 1.000000000000000000e+00 1.000000000000000000e+00 1.000000000000000000e+00 1.000000000000000000e+00 1.000000000000000000e+00 1.000000000000000000e+00 1.000000000000000000e+00 1.000000000000000000e+00 1.000000000000000000e+00 1.000000000000000000e+00 1.000000000000000000e+00 1.000000000000000000e+00 1.000000000000000000e+00 1.000000000000000000e+00 1.000000000000000000e+00 1.000000000000000000e+00 1.000000000000000000e+00 1.000000000000000000e+00 1.000000000000000000e+00 1.000000000000000000e+00 1.000000000000000000e+00 1.000000000000000000e+00 1.000000000000000000e+00 1.000000000000000000e+00 1.000000000000000000e+00 1.000000000000000000e+00 1.000000000000000000e+00 1.000000000000000000e+00 1.000000000000000000e+00 1.000000000000000000e+00 1.000000000000000000e+00 1.000000000000000000e+00 1.000000000000000000e+00 1.000000000000000000e+00 1.000000000000000000e+00 1.000000000000000000e+00 1.000000000000000000e+00 1.000000000000000000e+00 1.000000000000000000e+00 1.000000000000000000e+00 1.000000000000000000e+00 1.000000000000000000e+00 1.000000000000000000e+00 1.000000000000000000e+00 1.000000000000000000e+00 1.000000000000000000e+00 1.000000000000000000e+00 1.000000000000000000e+00 1.000000000000000000e+00 1.000000000000000000e+00 1.000000000000000000e+00 1.000000000000000000e+00 1.000000000000000000e+00 1.000000000000000000e+00 1.000000000000000000e+00 1.000000000000000000e+00 1.000000000000000000e+00 1.000000000000000000e+00 1.000000000000000000e+00 1.000000000000000000e+00 1.000000000000000000e+00 1.000000000000000000e+00 1.000000000000000000e+00 1.000000000000000000e+00 1.000000000000000000e+00 1.000000000000000000e+00 1.000000000000000000e+00 1.000000000000000000e+00 1.000000000000000000e+00 1.000000000000000000e+00 1.000000000000000000e+00 1.000000000000000000e+00 1.000000000000000000e+00 1.000000000000000000e+00 1.000000000000000000e+00 1.000000000000000000e+00 1.000000000000000000e+00 1.000000000000000000e+00 1.000000000000000000e+00 1.000000000000000000e+00 1.000000000000000000e+00 1.000000000000000000e+00 1.000000000000000000e+00 1.000000000000000000e+00 1.000000000000000000e+00 1.000000000000000000e+00 1.000000000000000000e+00 1.000000000000000000e+00 1.000000000000000000e+00 1.000000000000000000e+00 1.000000000000000000e+00 1.000000000000000000e+00 1.000000000000000000e+00 1.000000000000000000e+00 1.000000000000000000e+00 1.000000000000000000e+00 1.000000000000000000e+00 1.000000000000000000e+00 1.000000000000000000e+00 1.000000000000000000e+00 1.000000000000000000e+00 1.000000000000000000e+00 1.000000000000000000e+00 1.000000000000000000e+00 1.000000000000000000e+00 1.000000000000000000e+00 1.000000000000000000e+00 1.000000000000000000e+00 1.000000000000000000e+00 1.000000000000000000e+00 1.000000000000000000e+00 1.000000000000000000e+00 1.000000000000000000e+00 1.000000000000000000e+00 1.000000000000000000e+00 1.000000000000000000e+00 1.000000000000000000e+00 1.000000000000000000e+00 1.000000000000000000e+00 1.000000000000000000e+00 1.000000000000000000e+00 1.000000000000000000e+00 1.000000000000000000e+00 1.000000000000000000e+00 1.000000000000000000e+00 1.000000000000000000e+00 1.000000000000000000e+00 1.000000000000000000e+00 1.000000000000000000e+00 1.000000000000000000e+00 1.000000000000000000e+00 1.000000000000000000e+00 1.000000000000000000e+00 1.000000000000000000e+00 1.000000000000000000e+00 1.000000000000000000e+00 1.000000000000000000e+00 1.000000000000000000e+00 1.000000000000000000e+00 1.000000000000000000e+00 1.000000000000000000e+00 1.000000000000000000e+00 1.000000000000000000e+00 1.000000000000000000e+00 1.000000000000000000e+00 1.000000000000000000e+00 1.000000000000000000e+00 1.000000000000000000e+00 1.000000000000000000e+00 1.000000000000000000e+00 1.000000000000000000e+00 1.000000000000000000e+00 1.000000000000000000e+00 1.000000000000000000e+00 1.000000000000000000e+00 1.000000000000000000e+00 1.000000000000000000e+00 1.000000000000000000e+00 1.000000000000000000e+00 1.000000000000000000e+00 1.000000000000000000e+00 1.000000000000000000e+00 1.000000000000000000e+00 1.000000000000000000e+00 1.000000000000000000e+00 1.000000000000000000e+00 1.000000000000000000e+00 1.000000000000000000e+00 1.000000000000000000e+00 1.000000000000000000e+00 1.000000000000000000e+00 1.000000000000000000e+00 1.000000000000000000e+00 1.000000000000000000e+00 1.000000000000000000e+00 1.000000000000000000e+00 1.000000000000000000e+00 1.000000000000000000e+00 1.000000000000000000e+00 1.000000000000000000e+00 1.000000000000000000e+00 1.000000000000000000e+00 1.000000000000000000e+00 1.000000000000000000e+00 1.000000000000000000e+00 1.000000000000000000e+00 1.000000000000000000e+00 1.000000000000000000e+00 1.000000000000000000e+00 1.000000000000000000e+00 1.000000000000000000e+00 1.000000000000000000e+00 1.000000000000000000e+00 1.000000000000000000e+00 1.000000000000000000e+00 1.000000000000000000e+00 1.000000000000000000e+00 1.000000000000000000e+00 1.000000000000000000e+00 1.000000000000000000e+00 1.000000000000000000e+00 1.000000000000000000e+00 1.000000000000000000e+00 1.000000000000000000e+00 1.000000000000000000e+00 1.000000000000000000e+00 1.000000000000000000e+00 1.000000000000000000e+00 1.000000000000000000e+00 1.000000000000000000e+00 1.000000000000000000e+00 1.000000000000000000e+00 1.000000000000000000e+00 1.000000000000000000e+00 1.000000000000000000e+00 1.000000000000000000e+00 1.000000000000000000e+00 1.000000000000000000e+00 1.000000000000000000e+00 1.000000000000000000e+00 1.000000000000000000e+00 1.000000000000000000e+00 1.000000000000000000e+00 1.000000000000000000e+00 1.000000000000000000e+00 1.000000000000000000e+00 1.000000000000000000e+00 1.000000000000000000e+00 1.000000000000000000e+00 1.000000000000000000e+00 1.000000000000000000e+00 1.000000000000000000e+00 1.000000000000000000e+00 1.000000000000000000e+00 1.000000000000000000e+00 1.000000000000000000e+00 1.000000000000000000e+00 1.000000000000000000e+00 1.000000000000000000e+00 1.000000000000000000e+00 1.000000000000000000e+00 1.000000000000000000e+00 1.000000000000000000e+00 1.000000000000000000e+00 1.000000000000000000e+00 1.000000000000000000e+00 1.000000000000000000e+00 1.000000000000000000e+00 1.000000000000000000e+00 1.000000000000000000e+00 1.000000000000000000e+00 1.000000000000000000e+00 1.000000000000000000e+00 1.000000000000000000e+00 1.000000000000000000e+00 1.000000000000000000e+00 1.000000000000000000e+00 1.000000000000000000e+00 1.000000000000000000e+00 1.000000000000000000e+00 1.000000000000000000e+00 1.000000000000000000e+00 1.000000000000000000e+00 1.000000000000000000e+00 1.000000000000000000e+00 1.000000000000000000e+00 1.000000000000000000e+00 1.000000000000000000e+00 1.000000000000000000e+00 1.000000000000000000e+00 1.000000000000000000e+00 1.000000000000000000e+00 1.000000000000000000e+00 1.000000000000000000e+00 1.000000000000000000e+00 1.000000000000000000e+00 1.000000000000000000e+00 1.000000000000000000e+00 1.000000000000000000e+00 1.000000000000000000e+00 1.000000000000000000e+00 1.000000000000000000e+00 1.000000000000000000e+00 1.000000000000000000e+00 1.000000000000000000e+00 1.000000000000000000e+00 1.000000000000000000e+00 1.000000000000000000e+00 1.000000000000000000e+00 1.000000000000000000e+00 1.000000000000000000e+00 1.000000000000000000e+00 1.000000000000000000e+00 1.000000000000000000e+00 1.000000000000000000e+00 1.000000000000000000e+00 1.000000000000000000e+00 1.000000000000000000e+00 1.000000000000000000e+00 1.000000000000000000e+00 1.000000000000000000e+00 1.000000000000000000e+00 1.000000000000000000e+00 1.000000000000000000e+00 1.000000000000000000e+00 1.000000000000000000e+00 1.000000000000000000e+00 1.000000000000000000e+00 1.000000000000000000e+00 1.000000000000000000e+00 1.000000000000000000e+00 1.000000000000000000e+00 1.000000000000000000e+00 1.000000000000000000e+00 1.000000000000000000e+00 1.000000000000000000e+00 1.000000000000000000e+00 1.000000000000000000e+00 1.000000000000000000e+00 1.000000000000000000e+00 1.000000000000000000e+00 1.000000000000000000e+00 1.000000000000000000e+00 1.000000000000000000e+00 1.000000000000000000e+00 1.000000000000000000e+00 1.000000000000000000e+00 1.000000000000000000e+00 1.000000000000000000e+00 1.000000000000000000e+00 1.000000000000000000e+00 1.000000000000000000e+00 1.000000000000000000e+00 1.000000000000000000e+00 1.000000000000000000e+00 1.000000000000000000e+00 1.000000000000000000e+00 1.000000000000000000e+00 1.000000000000000000e+00 1.000000000000000000e+00 1.000000000000000000e+00 1.000000000000000000e+00 1.000000000000000000e+00 1.000000000000000000e+00 1.000000000000000000e+00 1.000000000000000000e+00 1.000000000000000000e+00 1.000000000000000000e+00 1.000000000000000000e+00 1.000000000000000000e+00 1.000000000000000000e+00 1.000000000000000000e+00 1.000000000000000000e+00 1.000000000000000000e+00 1.000000000000000000e+00 1.000000000000000000e+00 1.000000000000000000e+00 1.000000000000000000e+00 1.000000000000000000e+00 1.000000000000000000e+00 1.000000000000000000e+00 1.000000000000000000e+00
1.201065909392037660e-02 5.581008888899887666e-01 -2.222385981731745397e-01 7.401986940596739784e-01 5.157639625339968115e-01 5.388038483296850867e-01 6.244607935816540722e-01 2.809309264392765848e-01 5.227241409430563035e-01 5.179185735726247186e-01 1.078864527176408350e+00 -6.854224713004122282e-01 1.398811959163615226e+00 4.502828009462330749e-01 5.141490541265436587e-01 3.942579679704940054e-01 8.955008284114173156e-01 9.749102735281449661e-01 6.920352743222880632e-01 5.102314958187668115e-01 4.062529226901547275e-01 9.805702384269101568e-01 4.417047250051207019e-01 4.737207394453388787e-01 1.007170872704337000e-01 6.759747336820517427e-01 3.699577964942797337e-01 6.378609952806287842e-01 5.428778080778668969e-01 1.561580379125996565e+00 5.241629030477644724e-01 6.121209332162722561e-01 7.199308651103372148e-01 4.933607162568163784e-01 7.086785429934923108e-01 4.500720300543958885e-01 5.339531638845768091e-01 1.769118784170504055e+00 -6.664216071028272736e-02 5.298785521296421885e-01 -1.577464065534926185e-01 -5.603588138830982723e-01 7.499288382014057674e-01 2.252042297034816398e-01 2.719458029924182729e-01 5.255637832142383559e-01 7.401236925889218554e-01 5.095195751829636466e-01 6.059472524494872170e-01 2.227462570255995394e-02 2.894683795433285536e-03 8.290016190326024992e-01 6.733818010318399772e-01 4.547998515952015874e-01 4.550405209350188995e-01 1.821960866402148882e-02 4.774906656698484908e-01 5.358759901978833451e-01 1.888720429547131041e-01 4.618892888917225381e-01 9.122597691999295710e-01 5.363803882574355031e-01 5.347720753996638710e-01 4.417046610957672814e-01 6.815796346299298758e-01 5.597569495834927578e-01 5.143456757784979905e-01 3.035635856446124992e-01 5.526785493346031419e-01 -1.670145995802509078e-03 4.154289227306138255e-01 5.140712634829265326e-01 5.188800836359994673e-01 2.586402738792989778e-02 1.501063668364480685e+00 5.562830024268333728e-01 6.336719994907437092e-01 7.367100146913442282e-01 5.122345680219850816e-01 1.381608677171370703e+00 5.209039918165545568e-01 3.053496147304563535e-01 1.389326321456967328e+00 7.024979254934464734e-01 4.899554486655524066e-01 7.566424523764528898e-01 8.107076425376694706e-01 5.472406211731164483e-01 4.093127112188599814e-01 5.757420545761455788e-01 2.748436414138820671e-01 2.160656330552702453e+00 7.356104789255627496e-01 -3.379838354340857637e-02 5.536812509058569587e-01 5.141859438773389579e-01 5.541102902121597396e-01 4.749936681038781083e-01 1.894777478399157777e-01 6.740994719246138356e-01 1.594181725482668011e+00 6.886199074463904557e-01 5.495886024677469894e-01 7.339243199291773934e-01 8.600425699042976158e-01 -2.043081390571462208e+00 -1.207380231418246019e+00 5.439052509746691300e-01 5.784422782006191088e-01 9.720713425259371876e-01 5.450920787700789250e-01 4.485994700274378855e-01 1.661479752415291611e-01 4.829655823068143006e-01 5.201087239307308208e-01 5.045757609947737476e-01 5.031760595861533014e-01 5.479639383669289154e-01 9.029679046891651018e-01 5.128186538164610786e-01 1.298302551921730830e+00 5.565736812261354860e-01 5.702078994050636673e-01 -4.051387467612047599e-01 5.195841499604593183e-01 1.936562357821981717e+00 5.578636739583032744e-01 5.296240265017804205e-01 6.867500416534888519e-01 5.168770481986953991e-01 5.054465868894645331e-01 5.115357412572942852e-01 4.169372190170427817e-01 3.100833954757520328e-01 -2.599217840525968604e-01 -1.606136375729826649e-01 6.335937315766855260e-01 4.696649242487729858e-02 9.964524498388458440e-01 6.524580231148936482e-01 5.229684489029802208e-01 8.614063597733777611e-01 6.252756469691811425e-01 5.934275395106418660e-01 5.142398686352318560e-01 4.834210716863437257e-02 8.986794540252331931e-01 3.287304683739593336e-02 4.588742408076433854e-01 -8.773933626443377598e-01 7.737677356514330862e-01 -2.965649198724136237e-01 5.255633511006735370e-01 5.505905209146185753e-01 4.650084787064647784e-01 5.180939286935043464e-01 1.917067097943731424e+00 -8.645362986658744475e-02 8.118130171692392594e-01 6.952797803274773925e-01 5.218554423490190386e-01 4.140985506339658340e-01 5.028854732347122214e-01 5.132465766554291653e-01 1.084609114033345811e+00 1.729317993858427438e-01 8.478769345345440467e-01 3.940124110247749667e-01 5.460489801114440933e-01 6.431335047182770159e-01 4.746188325944148412e-01 7.413029238981485580e-01 5.255758558833734106e-01 5.164964666768442347e-01 4.053942104201955221e-01 3.739946359216644867e-02 1.864893044867083627e-01 8.448221868966225567e-02 7.435636579514626199e-01 1.141313536787113447e+00 7.067915207649546616e-01 5.177458336304764375e-01 -1.811406176307562566e-01 4.490978845311503487e-01 6.534414401707121511e-01 5.282289759970374421e-01 5.153293485687554520e-01 5.243917137301473685e-01 2.765900521954875568e+00 5.529068350926790165e-01 5.276915089513737334e-01 -8.790933213586868966e-01 4.934467785329026412e-01 5.675850516016950342e-01 1.841404184658730070e-01 5.162671797750282288e-01 9.311701077755104583e-01 5.073190570191434823e-01 6.427502179193861354e-01 4.227902455062070852e-01 6.238847419215926005e-01 5.341783508876472020e-01 9.386946121991704972e-01 6.003949925067461058e-01 5.432375261917704590e-01 6.427502092913690568e-01 2.611960130774605426e-01 1.283923486729115604e+00 5.311026592275347458e-01 3.783941191045200325e-01 4.372420570519182648e-01 -7.668050686916619285e-02 4.777704363498532780e-01 1.604727294464929344e-01 5.225483774849314367e-01 5.154425235683524065e-01 5.177556504311127128e-01 5.119692713820298557e-01 5.171391231713032832e-01 5.170745700702548131e-01 4.405200759140112665e-01 6.047052758597468713e-01 -7.017735614037672320e-01 5.860162942840726474e-01 3.524932157263283572e-01 3.859773511711448446e-01 1.180188835725404922e-01 1.292589318063422033e+00 9.546880140304482287e-01 4.992686835126949330e-01 -1.039617411089565346e-01 1.051507238976574277e+00 5.122029462889601259e-01 4.445627951130934341e-01 5.363160442016676743e-01 4.146858610114143029e-01 3.649461776036324046e-01 1.910338916343637672e-01 -1.504002494124815903e-01 -1.083147128799637482e-01 3.504855922599794393e-01 5.104634184724632373e-01 -1.032066064306443737e-01 4.455731493265903120e-01 5.172556824062459757e-01 4.693430896970560151e-01 -1.019612380449797240e-01 7.488099992462693422e-01 -2.245977587588690483e+00 6.031784668367776714e-01 -5.772615142085952833e-01 4.966781397540078746e-01 5.133787589777000226e-01 4.417035507919643833e-01 4.731514644442356698e-01 5.545585957099095076e-01 5.332822945903032963e-01 7.489077494589733153e-01 5.474163900200645916e-01 1.687047962129581524e+00 6.758918239568486586e-01 6.946708751496002421e-01 4.912622079665208696e-01 3.480266042239628099e-01 9.122597274053084737e-01 3.953726488293929364e-01 2.653973840699534126e+00 5.292061960370797458e-01 2.370295844879962976e-01 7.079993485352441551e-01 5.142934937945599083e-01 9.127911879455640198e-01 5.151301180718307338e-01 5.462419266958739028e-01 5.132365635438532747e-01 1.081596616155880985e+00 7.672598370819893043e-01 8.646398107494489560e-01 8.087905455856810866e-01 4.042274675423219721e-01 6.769753655572718909e-01 5.381886494178155234e-01 3.901392198534626155e-01 -7.110842002952426633e-01 3.839356912871214056e-01 6.482286251543145639e-01 5.579245027655755917e-01 5.237269914724187458e-01 5.045757503717707149e-01 6.069812353694779006e-01 5.490771781588265066e-01 -8.064258635914424156e-01 7.076010143549616993e-01 5.284859031744457702e-01 3.899172894242164400e-02 5.550822434812138217e-01 1.845801526443207718e+00 4.991158935779271832e-01 5.136743700897197229e-01 4.588748493894834746e-01 -3.378945117336241477e+00 5.060973185651028716e-01 2.762850838617539218e+00 7.408103547459410354e-01 5.317144325387532788e-01 -5.793038579937741517e-01 5.116693178481197535e-01 5.142823533384427437e-01 4.346849846472011780e-01 4.558258735325070865e-01 3.712705474984605569e-01 6.393310901643756150e-01 3.145972957753507271e-01 5.187874394631074582e-01 5.127046054202382130e-01 3.575746459727646154e-01 5.034377698459034933e-01 7.404646696095417147e-01 5.136139232992519288e-01 1.193833905704611009e+00 5.249999371068144079e-03 2.210502937075437213e+00 2.620022711375581181e+00 5.283714779360469960e-01 -2.052078913234333668e-01 4.334419375442141731e-01 4.031986493814368466e-01 7.268432047075396030e-01 1.368693310305122202e+00 5.369732371227733392e-01 1.121940073393423942e+00 5.128387325503714900e-01 1.261149423214744381e-01 1.248916968825168228e+00 4.187160794190612489e-01 5.246446152398228646e-01 5.089986346971357989e-01 8.855699932932364904e-01 -3.666803943698759838e+00 1.622201964327391721e+00 5.493254109275537145e-01 6.386495038634694144e-01 5.155385409508025374e-01 1.769118791708537808e+00 3.070441262029339757e-01 5.439872162942136491e-01 5.287456065586213505e-01 4.342894472882015688e-01 1.380216455885667326e+00 5.992325174206518668e-01 6.427505641687186744e-01 4.455734511424875310e-01 6.003949922374389736e-01 6.034430459855382178e-01 5.640499924888646710e-01 8.931794355310060940e-01 5.147102215764775002e-01 3.902565621895169867e-01 2.064950253409152392e-01 6.541159972782608634e-01 5.166680591858381355e-01 4.111952461188848607e-01 5.439872139101118442e-01 6.617836376126656761e-01 5.189409586695370447e-01 1.007076737873063177e+00 9.887693208077384943e-01 1.128096087165460615e+00 5.103519370047282511e-01 2.352450257112261023e-01 9.122591238693370519e-01 -1.089238183875764349e-01 9.332972591854210576e-01 6.281812397258221825e-01 5.583885959011292491e-03 5.797523390692784773e-01 9.774922957953657843e-01 3.900138163324757268e-01 5.194199078147629933e-01 2.781496699140181272e-01 -3.319955041112012117e-01 -2.440181556862094148e+00 4.771211935927808234e-01 6.003949930315527483e-01 6.003950448379450355e-01 5.098234512648358585e-01 4.317234077682304827e-01 -2.126545409706994960e-01 3.228400224184714284e-01 5.068569546508711054e-01 6.698227415211983615e-01 5.167490530870404442e-01 1.053920909990328836e+00 6.427503657116431235e-01 5.138397999886628043e-01 4.805122768734902405e-01 2.682402904329097004e-01 6.516232840686283501e-01 5.085895267733441250e-01 5.122737658251050874e-01 5.501211620511404776e-01 2.788007701543483430e-01 2.173788693406631181e-02 6.003949936424520795e-01 6.580045523982329669e-01 5.127847939316758641e-01 4.234183015999353206e-01 8.579412421694441182e-01 6.922646236538364528e-01 5.633440626113288552e-01 1.832391359981608403e+00 5.163401650548486987e-01 -3.020842356316190358e+00 7.404953361613084706e-01 1.511100442642387742e+00 5.141408675753424973e-01 -1.053386279628767630e+00 7.400882312735368451e-01 4.594821202180393582e-01 5.193731924469627836e-01 4.968939816337440973e-01 -3.069801041046579249e-01 5.087582846455360741e-01 1.066808561983197068e+00 5.961698331153618691e-01 -3.389469212004833643e-01 5.123926133400344973e-01 5.178260246663766164e-01 7.730346465942402601e-01 5.436576016304243142e-01 5.260916531631733006e-01 -5.130764650582645414e-01 5.622061190745690773e-01 5.083697410846151898e-01 6.849807588859782026e-01 5.174200055268334264e-01 7.655234059706310656e-01 5.192453169237687405e-01 5.859436218977411848e-01 6.765828887102527389e-01 5.408485856255991209e-01 3.136318546210273284e-01 2.795551250688274592e-01 3.219516377420052478e-01 9.576307196734675786e-01 5.480081309603737072e-01 3.174290786199925218e+00 6.601877230216035564e-01 6.189270317988656567e-01 5.568797371841904820e-01 6.161798217183976911e-01 2.750640499922388585e-02 4.848553666619238034e-01 5.656431937191596093e-01 5.188813349493544003e-01 1.164154531589069119e+00 7.656467810275248143e-01 5.052876241359479659e-01 4.478308165050176037e-01 1.115823078283908920e+00 4.965330923360209980e-01 5.479344512531711953e-01 4.963139568463078022e-01 7.517914112337718002e-01 5.191785414309598723e-01 9.245818447468017176e-01 4.964149047323619390e-01 5.134383873410719445e-01 5.567855326339444209e-03 5.054836599925222052e-01 1.711288152338633073e-02 3.457709563115878293e-01 4.130841769772132799e-01 5.644857553728944710e-01 7.742925744194861792e-01 5.147029357383363646e-01 3.955651861838435090e-01 6.023801914473327079e-02 5.330640486363905639e-01 5.515059174487793037e-01 4.850777965137557657e-01 4.765529478798195134e-02 5.176869285893918038e-01 2.456900582069221350e-01 5.116953778485124893e-01 4.225104895320854204e-01 1.253799541010976348e+00 7.858462157820886862e-01 5.406665624945810045e-01 2.685252652793800876e-01 6.726266209863628331e-01 4.231371878390655095e-01 9.896206399476320525e-01 5.964406741798401468e-01 5.621610583611976741e-01 6.888669787130887734e-01 1.978423785321952844e+00 4.563770057159569626e-01 4.381392846425615217e-01 5.137487129610783798e-01 7.078642063619688951e-01 4.535431651603208381e-01 8.324783309288117383e-01 -5.672132995170605652e-01 3.305989144312090899e-01 5.225795589138626518e-01 4.288362220998231389e-01 3.695154052133078348e-01 -6.068489327395228949e-01 3.893170536791343839e-01 5.161972660473707064e-01 7.382053001621533550e-01 6.653603172779362085e-01 1.447799106206355990e+00 5.179116049625555052e-01 5.195113748218963545e-01 -6.912272615265405706e-01 5.213952784115167827e-01 1.207343750372803948e+00 7.008062252674773784e-01 2.601552621844900881e-01 2.717929739654558197e-01 -1.623961309868199754e+00 4.903935823266549754e-01 1.875177464746278777e-01 1.095511372965606300e+00 8.143338371781647655e-01 5.130499158275247940e-01 5.101407780224903599e-01 6.293873062242248961e-01 7.406730058534588546e-01 4.563206288697021495e-01 5.625772060711961009e-01 2.706496713117229752e-02 4.968120976325770544e-01 6.252376465095428326e-01 6.161025738145848862e-01 5.024079042268471129e-01 5.637001869775930540e-01 1.197225208982815925e+00 -1.069534478325547683e-01 -2.306639835306495134e-01 4.339569078219031040e-01 5.428062741309847006e-01 5.539030224723742180e-01 4.954744230368043900e-01 -8.420102209829134488e-01 3.139389402479804136e+00 5.752353341415822330e-01 4.527720099611129423e-01 4.149573885279798646e-01 5.097231510714013147e-01 5.142418543087278193e-01 6.121271121597274822e-01 3.261011049591910904e-01 5.851253374400077201e-01 5.118641523282657646e-01 6.296283880440106673e-01 3.617397569580782513e-01 4.582136078812825697e-01 5.353726068111738234e-01 4.060301291466653084e-01 4.859661709415851183e-01 5.457491790566587619e-01 6.514544867150576790e-01 1.004773333615032849e+00 2.301939028296250189e+00 5.576521975927863917e-01 4.952835080566417303e-01 4.891188737491432570e-01 5.243035885063793700e-01 3.644218065795746253e-01 5.144505858358232597e-01 5.080896105418689634e-01 5.320472436422409857e-01 4.939665057027390338e-01 4.777958154690208348e-01 7.404999251565159701e-01 3.675484942227106311e-01 5.199749369467994153e-01 4.920292834433086515e-01 5.594310517280173256e-01 1.216818877368456980e-01 9.122597454974838982e-01 5.540247991369039449e-01 1.332452280394183508e-01 1.909036415752452864e+00 2.753658707154270635e-01 4.430858859712015763e-01 5.872352108346766686e-01 6.158624344119084659e-02 5.056319174782328840e-01 1.504302142577926826e+00 7.641175309428369644e-01 7.695622310742383787e-01 5.165578568754806144e-01 5.499289447865511882e-01 4.855634549153847179e-01 6.431242498907738803e-01 4.951736049406561535e-01 5.173768327806509415e-01 -1.837668515766522348e-01 5.641023550625426930e-01 -1.419721693132228069e+00 5.104492969816699643e-01 4.976821917796590555e-01 5.518270449269510047e-01 4.588690512782259701e-01 9.122597454503149628e-01 2.228860102082276806e-01 5.578378901548385338e-01 1.323561665413813149e+00 -5.431408608186121256e-01 5.179074571454409526e-01 1.125211244720141446e+00 1.494029168201103097e+00 4.222041790377133452e-01 5.149689521518142632e-01 -4.916659924528715697e-02 -1.656467485258261929e+00 2.802791993849337304e-01 7.619230225517373833e-01 5.239183589651522643e-01 5.103420867334107491e-01 5.281567734787759871e-01 4.866036398276731290e-01 -3.968131502519546272e-01 8.134903413285856644e-01 5.045757546384571635e-01 3.374489235898619488e-01 5.546877301436540231e-01 -1.786941706033474964e-02 -1.738267668099101881e-01 1.769597155557376844e+00 4.156059815921869238e-01 4.693968407273089172e-01 5.176233249969235395e-01 3.297336539516492748e-01 6.096189055203322660e-01 -4.350164682878516348e-02 -1.068431958784544777e+00 5.107282614951879074e-01 5.116125969436702281e-01 5.419955804184138914e-01 6.126552043042894358e-01 5.497284443713787994e-01 5.434233778031516415e-01 5.506550575552300320e-01 5.778824178723488414e-01 1.027585774350715520e+00 7.267245187978517151e-01 5.496938948112732870e-01 5.686895917635521602e-01 4.543215186385806681e-01 4.229327321338768875e-01 1.647981584535261612e-02 5.439872003221168928e-01 5.213315732885185350e-01 4.645169430319959769e-01 7.519985749275608367e-01 9.452812444033694694e-01 8.325000492549379238e-01 -4.833205512558181316e-01 5.503548597678853405e-01 4.831621239803463030e-01 5.118798536742351635e-01 5.817863176672124492e-01 9.015951883708925862e-01 5.599656312487881760e-01 5.151306263432623433e-01 -2.262774924422785161e-01 -8.517201753025021027e-01 2.269645281749249399e+00 5.160338898644841743e-01 8.910967961846035790e-01 4.580499029341906225e-01 5.708649709303857955e-01 3.690880000929378513e-01 1.495068670922336529e-01 5.170399938419562025e-01 5.498679165571168648e-01 -1.005284798794723027e-03 5.118403628814686135e-01 4.254911991266701610e-01 5.169365627110000805e-01 7.025998313624403080e-01 5.123904606308979925e-01 5.978197646751488570e-01 3.959784309746243181e-01 4.841832354509001957e-01 3.817183527523136943e-01 5.118377004018840326e-01 4.290416012350772856e-01 4.994767425392038773e-01 -2.841243793153711561e-01 5.087720012161898175e-01 6.428981380005871493e-01 4.966630628599438269e-01 7.400186085749008713e-01 9.122599395267821931e-01 7.332583384008103389e-01 -5.875234410844660804e-01 9.905418217038359785e-01 1.769118784154620094e+00 4.831491712132964800e-01 4.638503439435251452e-01 1.072444548291480171e+00 5.483407746515855941e-01 7.398732396535930844e-01 5.181204330660719171e-01 1.803577134553920658e+00 5.144788342109711810e-01 4.455725422466125241e-01 1.233899823705409071e+00 -5.623635924384466633e-02 5.602456730488474257e-01 -1.662896593512949994e-01 -9.454132745643005764e-01 -1.738667380488333192e-01 7.784335632259974380e-01 5.499326737419186761e-01 5.477457263998617432e-01 -3.319709524753036711e-01 5.211313227280430782e-01 3.439637120553066391e-02 -3.618494615195987918e-01 4.768404428256709515e-01 5.209598215733014515e-01 5.128412616350722653e-01 5.640764723395708113e-01 5.593442897045182161e-01 9.049620259845398973e-01 -3.933327505119618150e-01 5.165574205585411471e-01 5.691277032563446525e-01 6.212664182034205451e-01 1.161664228340357319e+00 5.086475616280443646e-01 6.270372579183476347e-01 5.160933484718626119e-01 3.272478046403055202e-02 -3.063127702653540840e-01 5.236858638634011021e-01 4.957738732063460274e-01 6.704108042629558506e-01 5.296784194836253734e-01 3.391827831986586883e-01 5.165918886535525445e-01 5.179255387659039700e-01 3.495868523172912523e-01 5.142714522311818692e-01 8.380261024352344545e-01 2.533492222007748040e+00 -2.387521127317351333e-01 6.661103662874580111e-01 3.328781950068185336e-01 2.166053384504935952e-01 6.792279949795496652e-01 -5.724180963437196928e-02 -1.504816949650069624e+00 5.160678835884889848e-01 2.594534746495239297e+00 5.027137811491841912e-01 1.504217412428851819e-01 1.755914377042397945e-01 5.045757609624280660e-01 5.684922736790573028e-01 1.546110814155604585e+00 4.891744618973762337e-01 1.258764804555467798e-01 4.384556807882528662e-01 1.679077588944144717e+00 5.839364301260566714e-01 7.321679079630450948e-01 5.459306182700935928e-01 7.408241584809239777e-01 4.554913553384087876e-01 5.636665292244043002e-01 1.346556668574228934e-02 5.180460411272778121e-01 5.019741082255122500e-01 -5.674858676283306425e-01 -4.631718780826461768e-02 1.171290778017737733e+00 2.358230262840228519e-01 4.892577546331574045e-01 6.848542100398768984e-01 5.471264749952107209e-01 1.993466252915195636e+00 7.003241996662056268e-01 2.921254819826867716e-02 2.769637934615247765e-01 4.007368172812848517e-01 1.104758579895147586e+00 5.207278742728879140e-01 -2.436952760673628121e-02 5.268780652701863243e-01 -2.052756180396425947e-02 5.084857476752688843e-01 5.154430732648853652e-01 5.377049112792216604e-03 -6.264219039498090946e-02 6.670131273201971300e-01 6.154804088028206221e-01 5.408360679818293715e-01 2.816764977154008753e-01 4.901207931698488562e-01 4.884857180988838588e-01 5.637961188616750219e-01 5.583037706610558537e-01 4.803579908764983863e-01 6.287091239163359324e-01 1.014645898000522628e+00 3.101384659760849871e+00 9.102525632545321876e-01 5.101543886546215933e-01 6.456815075145212468e-01 2.122875169706080478e-01 5.171624047873549790e-01 8.404798198244063379e-01 4.889825807126372270e-01 1.316229134643994048e+00 4.620638501056246739e-01 -5.692443396518049870e-01 -1.429164667515488152e-02 4.097843954791859367e-01 6.118330041080850545e-01 5.018153025541168821e-01 5.251219204184611744e-01 1.767478512841081859e-02 5.494624445258332601e-01 3.956206359712857168e-01 -3.604854201723596496e+00 4.858409615606523180e-01 5.124348886611953535e-01 1.121842029306840072e+00 5.144552527911125939e-01 5.684429337562100226e-01 6.812822227963793997e-01 -8.706464727631698652e-01 -5.055883752003008658e-01 4.944443771209450916e-02 5.158329652796004305e-01 4.183871443371214305e-01 2.218170544352119633e-01 4.933061078185930204e-01 -3.334485378552253798e-01 6.347165296143361113e-01 5.148339053165543744e-01 6.940499186503518159e-01 5.386036354154875028e-01 4.747891087539423682e-01 1.616191191414365902e-01 -7.402263604221489546e-01 6.525060344575428495e-01 4.970339064753029890e-01 1.641478699070147707e-01 5.144768999343665161e-01 5.836146884707704707e-01 5.164821810836033311e-01 6.707646328242262701e-01 5.691516630561119783e-01 5.394345067464215715e-01 4.990912146694094775e-01 1.769118785233556368e+00 3.674857807093094841e-01 5.502185584459947654e-01 -1.113576538260876991e-01 5.482121072038561582e-01 6.226279210647518436e-01 5.110955241941216309e-01 4.986690053934790257e-01 3.490732015725493409e-01 9.169233363481698040e-01 1.188538811203094792e+00 5.572906754050362954e-01 5.665729430174388792e-01 5.957138374371676592e-01 4.632903419532238831e-01 4.925765114780070730e-01 5.148640977919520800e-01 9.904958853467974444e-01 7.257766491758229632e-01 -4.513444023082219259e-01 4.475156056492481382e-01 9.174178516095989888e-01 4.960142199446677114e-01 -8.335214687906097181e-03 5.163773235164174080e-01 1.250074938068528763e+00 -1.385229025584709950e-01 5.635713749492221591e-01 2.492055387362272778e-01 5.462583413395566412e-01 8.208915752197515348e-01 5.221267335118530140e-01 3.677800804613884367e-01 1.393826030559835782e+00 4.892339385891030790e-01 5.263574061591774766e-01 -6.318125889002432771e-01 4.566658618446988172e-01 1.043210946494407265e+00 5.923412310060734987e-01 9.513984742214054435e-02 9.551467404535103345e-01 -5.502419725347113683e-02 5.951265345412167784e-01 1.598832625139112729e+00 -8.528777002927019346e-01 5.449412380586778903e-01 5.157604102774761001e-01 -4.435938310085396075e-01 3.247482591460705281e-01 5.842723577583943673e-01 4.715945146318036296e-01 5.238478996934038401e-01 3.585321722787092047e-01 2.637782994471352671e-01 3.453661152161796588e-01 5.471372092972461854e-01 5.150904590620138945e-01 5.289867877959245415e-03 -7.861141494376093497e-02 5.092270989544966930e-01 1.060379070381973321e+00 4.223815923668753913e-01 -5.670529280766289926e-01 5.669392150594710911e-01 5.189069313810572570e-01 4.992374843863781053e-01 3.384803834291478380e-02 3.373766259881314511e-01 5.170870542920619206e-01 5.260660439952837830e-01 4.536325894530765512e-01 3.628229190465950826e-02 4.574064775743210132e-01 5.100148486631288502e-01 6.486332887398849056e-01 2.072760385464859745e+00 1.747236849376582191e-02 3.829142798380441026e-01 4.815287364471813603e-01 1.817995842751721325e+00 5.739470790450581505e-01 4.758667538841691025e-01 1.475883965873588631e-02 5.439872187676713100e-01 5.062695485183121846e-01 4.726403977724549232e-01 3.804458073171184118e-01 5.131282565808784613e-01 5.490416860399351950e-01 5.650335365034082624e-01 -5.160895234197402370e-01 5.163670586676267771e-01 5.338120781011367333e-01 5.061408725919986917e-01 1.020967017693505730e+00 5.215930800254147126e-01 -2.412871008900847325e-01 1.059809977346969578e+00 -1.238050768905166077e+00 -5.107385621085726024e-01 5.186497361700869169e-01 5.155354110049894523e-01 6.493688485221628115e-01 5.185987843056873992e-01 3.821208573205010506e-01 6.118835229927677144e-01 5.439872209176049855e-01 5.158810249942008541e-01 5.712271444496258566e-01 5.794854318684367067e-01 5.162606732961183553e-01 2.879421933812878476e-01 4.963663493703743268e-01 4.709940370724846614e-01 3.706783461926168033e-01 5.245449781138118439e-01 5.135503481284027227e-01 5.474744119611277826e-01 6.406430064510796329e-01 5.119962635748684932e-01 6.688377296335135114e-01 4.820145896127943641e-01 5.243297578987582419e-01 5.448460872366057695e-01 3.483472030619635951e-01 4.307318775459449411e-01 2.383591504502359459e+00 5.337015521162111753e-01 5.765293339397025152e-01 3.142546747390566053e-01 5.826928298217357582e-01 1.107771510109234248e+00 5.182296259617685807e-01 7.099993510284782205e-01 5.128493935577631557e-01
6.875481100389831957e-01 2.704332008228798601e-01 4.165695053308853257e-01 2.683320950315251294e-02 3.113756674503299071e-01 2.996817189277921067e-01 5.295568451122981690e-01 4.443297227286287510e-01 2.330954321752045644e-01 3.156243952507285511e-01 2.035395777894055680e+00 1.703476207190994351e+00 -1.425060905345069351e+00 6.229079175468444918e-01 3.181677106951091294e-01 4.074519392106975002e-01 1.290775655885574302e-01 4.272573725532500255e-01 4.447198374786119901e-01 3.164098493450073768e-01 4.693520953846719856e-01 2.093574796171237207e+00 3.965397349655133130e-01 3.721831886172745629e-01 7.159844847445526739e-01 -2.423907711324495839e-01 4.585795460515834088e-01 2.389502471875778189e-01 2.802482034932240462e-01 -8.541049569333302172e-01 2.665115662859679491e-01 -1.144780717812607235e-01 2.891507300451198748e-01 2.601247354997985872e-01 -4.266088192786730016e-01 4.498031225937471067e-01 3.036999524677194140e-01 -3.388778254919064814e-01 -3.196039023557189385e+00 3.426059409029339475e-01 1.126687561546927618e+00 1.401918462768594331e-01 -1.645035449655765369e-01 7.916670268236888353e-01 6.367159362028622649e-01 2.854964752888490276e-01 2.701727477038395192e-02 3.143907869630149232e-01 2.436463983716845305e-01 6.901912419112855579e-01 6.823899768846346525e-01 4.645750579928505930e-01 -2.553316451474069160e-01 2.031915849514137618e-01 6.048640079017941762e-01 6.653151800726669896e-01 3.603849457797165812e-01 2.645976218324911922e-01 3.473815713027763041e-01 3.521249006419351901e-01 4.241150281248308729e-01 3.780538795340533387e-01 3.009696541883933318e-01 3.965397442591922506e-01 -3.464756506365887501e-01 1.906206293498416415e-01 3.208717932971393849e-01 3.339412987050837112e-01 2.221276903509458445e-01 7.297269614507766455e-01 1.175893402225796358e-01 2.999983743157175198e-01 3.085201124130363959e-01 7.205680447224765972e-01 1.901307583301656834e+00 5.011990019555682130e-01 4.688347737539695359e-01 4.796578575297780200e-01 3.165083706281411335e-01 -1.324183135895358188e+00 3.048697471168950734e-01 6.240605326110563178e-01 2.279772533455821648e+00 1.123812580819968515e-01 2.776558482986438148e-01 -4.154738130139675190e-01 1.235391487960081497e-01 2.726293608631573107e-01 -5.722586496793465871e-01 -8.727823069853972715e-01 6.368403013109107391e-01 1.557293390979471281e+00 9.064246955961827168e-02 6.994373029129812291e-01 2.806125294865135511e-01 3.076644199091601029e-01 2.758983640172267826e-01 7.366804170312872824e-01 7.384870108015632040e-01 -2.472881413167952458e-01 -1.686879862158869869e-01 5.550183787210490743e-02 2.795679211169104228e-01 2.157800596510584812e-01 -3.672268310954754367e-06 3.064593806021999267e+00 -2.807625966033170384e-01 1.107531503462284711e-01 1.682838353359418782e-01 8.079444134261906107e-01 2.347746185470799551e-01 4.352637800166709869e-01 1.677343492887626297e-01 4.645239740451351795e-01 -4.900550477260372517e-01 2.033340463867544523e-01 2.616401692018815450e-01 4.129871484094696510e-01 1.005393018033623909e+00 3.218866991068936034e-01 -1.436673410890420222e+00 2.401595200362567628e-01 1.842229254243932524e-01 1.328820326240895966e+00 3.117586846509076137e-01 2.145145284352291348e+00 1.991403347902847010e-01 3.541536524606904157e-01 2.960610652591608161e-01 3.198263174719247481e-01 2.830970193003076174e-01 3.105176179256047830e-01 6.742471690288128761e-01 4.090334071568172969e-01 1.795237554191103091e-01 8.758729194042181865e-01 7.021253711490489380e-01 7.238412736597998887e-01 -3.303859103367144390e-01 1.994695152376852465e-01 3.611520744130187199e-01 3.214756235958879937e-01 2.602797160195909343e-01 3.037000497479116490e-01 3.190093651986325995e-01 6.929491666537571648e-01 -1.280068130725512121e-01 3.186573185725636859e-01 4.500338765920601780e-01 3.963995886029708093e-01 -2.705646959490806136e-01 2.143008466627448205e-02 2.854989991834246954e-01 2.668062353055306035e-01 3.523431431847004469e-01 3.221765231507518479e-01 -2.280553714065434168e+00 4.488418835867208911e-01 -5.881104211911225566e-01 -2.475747665419984200e-01 3.040115416084972488e-01 2.236169906088818216e-01 3.352131232355978208e-01 3.175756538238093674e-01 1.119840362831154845e-01 6.812268354721341679e-02 3.146208024330808817e-01 4.211770161571711801e-01 2.866021175167756674e-01 3.561955505594849303e-01 1.795737636643175428e-01 2.816202017836344842e-02 2.854820316435122685e-01 3.180263739252297550e-01 -2.474124888390160759e+00 7.104310184429452057e-01 6.254130103794967033e-01 9.742819940785132360e-01 -4.537618265681133134e-01 1.169454009586239129e+00 -1.269118084991998317e-02 3.062501538627144804e-01 1.229799532813490304e+00 2.727364822125385446e-01 3.050356534312881340e-01 2.576476736621555741e-01 3.058917024094800485e-01 3.201248781439274826e-01 -4.640154215529563309e-01 3.409799409969415107e-01 2.237001529156460999e-01 8.057515201050059472e-01 3.131135710286269136e-01 2.463323535815837573e-01 2.263861214682518497e-01 3.079234122327972889e-01 -1.624418414394919186e+00 3.250405284009996731e-01 2.106561436311858160e-01 3.525586520437941074e-01 1.008074534914390613e-01 2.742658353256754999e-01 3.791642630291673366e-01 1.313947345291626989e-01 -7.961531397432165535e-01 2.106561485719404547e-01 4.561989766200159613e-01 -5.061858075673623114e-01 3.562180978776497420e-01 1.582879973886739677e-01 2.596837483891258347e-01 -3.203021909965575009e+00 4.436474196006622850e-01 9.343851661277036147e-01 3.208100191919705524e-01 3.036475868753100160e-01 3.131903627024653081e-01 3.249470030195488190e-01 3.105177865468110032e-01 3.158116059039894896e-01 3.296984765672089090e-01 1.612498220496993706e-01 6.596881966944023734e-01 1.292034367371108494e-01 5.189602929069401238e-01 4.587406064294411445e-01 3.854676789707890960e-01 -6.452740819007204420e-01 2.250224216102339803e+00 3.840752901333741032e-01 1.231150666881147604e+00 -1.380783958999007854e+00 3.129944612508324675e-01 2.081964851282852580e-01 3.496965330790380855e-01 1.152015477561092460e+00 4.881700587446560213e-01 7.977257211610102594e-01 2.797113544962927523e-01 6.702842040585353933e-01 3.171851543321376199e-01 2.831896374385228787e-01 -1.151528987120752801e+00 3.695769715642779341e-01 3.114798156764938541e-01 4.761019331858778458e-01 9.105132624232793459e-01 -3.449156617699481453e-01 3.095840657717894739e+00 4.748155447652575023e-01 1.228224957925292404e+00 -1.288646115448183194e-01 3.083995084520414487e-01 3.965379577860478344e-01 3.115500880298882613e-01 2.653920671367124284e-01 3.602714496892582274e-01 -1.005574934328883063e-01 1.460046185526787110e-01 5.610113087864759818e-01 2.796876007953501553e-01 9.178966918361966543e-02 2.634950090455156491e-01 3.570281624926784358e-01 4.241150604347841413e-01 2.667772423005375093e-01 3.180485174231544310e+00 3.790957248177090344e-01 6.551913523866925715e-01 5.426805901876103899e-01 2.720368780698395050e-01 4.237219235417337693e-01 3.135979329213509081e-01 2.640711642119392133e-01 3.174086090172018593e-01 -5.220247067021779319e-01 4.677471473937800384e-01 2.854700706875621941e-01 1.205284123412024427e-01 2.536239869314519946e-01 1.517920024057398010e+00 2.515848393748286727e-01 2.852946362901883082e-01 1.982606923877983540e+00 4.938148236531855195e-01 3.242124052183797955e-01 2.694496111543983607e-01 2.801570188956515883e-01 2.033339784748433021e-01 -2.046996992918824976e+00 2.773921788582919268e-01 1.487596814654406963e+00 -7.817094158797010389e-03 2.815749666507100790e-01 7.086787660719359172e-01 2.617040954752605786e-01 -7.143823889882129352e-01 4.317309242982279582e-01 3.102246496411846799e-01 4.500379566409060117e-01 -3.810727426223965431e-01 3.349308955345133842e-01 -2.151531112385424382e+00 2.763259227576055771e-02 2.903791168850826665e-01 6.054658770751891739e-01 3.150819811292636663e-01 3.170654980291235936e-01 4.598289832826225054e-01 2.114114080434640330e-01 -1.199214313770066431e-01 -7.549290097991375736e-01 4.428475919347642578e-03 6.829432219052848918e-01 3.213456881883250960e-01 4.901715880545398085e-01 3.248601849098892158e-01 2.717725988681374966e-02 3.215192036105366524e-01 2.409854662918522461e+00 6.970673937620937011e-01 2.466288325842908580e-01 -1.138181290921989275e+00 2.191547186044598139e-01 4.602814591013824952e+00 3.337367504172799038e-01 -1.213817669783138625e-01 5.688862563678342976e-01 -5.494773689226252422e+00 5.050730625197934476e-01 1.523117063838293817e+00 3.174722321033198735e-01 5.398381127036051552e-01 -4.353425348153988628e-01 3.852142114172460996e-01 3.346054915463195778e-01 2.974484758593098355e-01 2.477045321666019595e-01 2.879693412643772543e+00 -3.648029822446304249e-01 2.833356512009437278e-01 -1.897297041912079596e+00 3.345323209289161603e-01 -3.388778279784386838e-01 7.422264576812275250e-01 5.469889867768082947e-01 3.251849198223289994e-01 3.239365132956267823e-01 1.283598772546828304e+00 1.374968173796710935e-01 2.106558706619860444e-01 3.695755647735755600e-01 1.313947360270001641e-01 2.663586983793926333e-01 3.966404425668069167e-01 -6.012854250398127487e-01 3.156593647279842263e-01 5.398991125942167457e-01 3.742149698704170802e-01 1.675097448371379305e-01 3.135106611644913333e-01 4.598131370938571272e-01 5.469889989577241263e-01 3.850826590950731099e-01 3.150101690424123579e-01 1.994563139792741302e-01 4.437966082585203531e-01 3.339027714111506562e+00 3.161965839107839793e-01 1.583914642659657035e-01 4.241159169134844364e-01 8.521360090740870419e-01 4.643971929205555349e-01 -1.916653491257393482e-01 6.880027049032615416e-01 2.568430800477071174e-01 1.137570174581513799e-01 3.937406873510434502e-01 6.570672349929158607e-01 6.455244044594306008e-01 7.754246894734637685e-01 8.086630331439645936e-01 3.817451392954837597e-01 1.313947344654880223e-01 1.313946510690529312e-01 2.891517361005442321e-01 1.237187121994176298e-01 1.120056567396621849e+00 4.111868746314348844e-01 3.051999289184041952e-01 3.632641398506918917e-01 3.148265286914952998e-01 7.804614103425524529e-01 2.106557267920074195e-01 3.138927246266068893e-01 4.408317576997672349e-01 2.882220562642779926e-01 -6.310129398857132754e-01 3.293298469249463234e-01 3.250717674348814201e-01 3.670997201182801817e-01 7.004598167018203370e-01 7.377345789706852841e-01 1.313947350639038392e-01 5.378886339783520154e-02 3.196048180104492098e-01 4.459356554973377684e-01 -5.898429569840698550e-01 2.054896136337044654e-01 -3.458305241015601883e+00 1.918097656474324619e+00 6.282023191621646241e-01 -4.442475800757909599e-01 2.680172638563079260e-02 2.030175800281472043e+00 3.100839079944970877e-01 6.332006443333689782e-01 3.324379854085607322e-02 3.044321258265499930e-01 4.509097546901331688e-01 2.955854158092823813e-01 -4.317204466778553074e-01 2.498945985011291337e-01 2.031558796235357622e+00 3.530251573739184301e-01 -4.038596706599658637e-01 3.009912492406285334e-01 3.095573679231984898e-01 -1.445354333113460177e+00 3.080554279171535126e-01 3.464471183439112312e-01 4.028238027202564742e-01 1.994551047491624762e-01 3.199995363064253029e-01 2.275316708620516437e-01 3.107519688188217222e-01 -1.604099799682600636e-01 3.138582208772393578e-01 1.292196212846534464e-01 3.338213484245320939e-01 2.855151627912564938e-01 2.235394435223887755e-02 4.353355288072924822e-01 6.106460318831261613e-01 -1.359674013967223871e+00 -5.126587402199097587e-01 -1.063555036116515251e-01 6.133506194324728905e-02 2.888689529740930406e-01 4.259862871137598539e-01 3.625568223077546004e-01 7.258440141534315826e-01 -1.075601881585250136e-01 3.245036645372874617e-01 3.071348268272876547e-01 9.221925773610141486e-02 -1.602854341784352987e-01 2.981803822215166044e-01 4.420118774328897771e-01 4.789041550855354656e-01 3.113005127530457106e-01 2.645463868766134152e-01 3.128730310892935962e-01 2.586800025670307757e-01 3.088597316729937425e-01 5.117578431667172412e-01 4.289794568264522767e-01 3.172468513587483607e-01 6.868218664195503420e-01 3.205189246921588686e-01 7.251321982447880288e-01 8.586563025418511574e-02 4.977111897831162368e-01 2.233791406495470033e-01 -1.435547936154280890e+00 2.926519790393933840e-01 6.441688957648520342e-01 3.844241396535046373e-01 2.638658415092262066e-01 2.879481303801433301e-01 2.554459803975377419e-01 6.953272528910130479e-01 3.115231033960109697e-01 3.731716663955738644e-01 3.170940269432501180e-01 2.895944359109668409e-01 2.148406440095747549e-01 5.210700498304279282e-01 2.872365438251967551e-01 2.577615275832080277e-01 1.724747005987321835e-01 4.635876800137811449e-02 1.614613734001207446e+00 2.959913791099729186e-01 3.724754889771913491e-01 3.754673305441504350e-01 -8.265265206670924236e-01 4.215778628482405588e-01 3.246839219338760185e-01 5.037731026052504335e-01 -7.544424216737413702e-03 3.280565980375880208e-01 1.524383571116864289e+00 8.869851570867323121e-01 4.033614310793650071e-01 2.755532243880376986e-01 3.796480437209761583e-01 3.274408751223492620e-01 9.113369461642468750e-01 2.994966896308278503e+00 3.162506809224297499e-01 5.222445557858438475e-02 5.943934532099572898e-01 -1.744781693982929149e-01 3.182314259580688032e-01 3.258796653245900621e-01 1.057181767471878198e+00 3.041699253426332072e-01 -3.113987911498778960e-01 3.721173273158617789e-01 1.173461417790260253e-01 6.572125485555296853e-01 1.704882817841149922e+00 3.564306862202614723e-01 2.421607414661531288e-01 1.647073437468786317e+00 4.110901351451695662e-01 3.090040255674338376e-01 2.469534400094547388e-01 3.298174473809161178e-01 2.662316024332757325e-02 4.564006017580711227e-01 2.360973045752379207e-01 7.269849017221603482e-01 2.756178342041011864e-01 3.142098751097279208e-01 3.005380887149881608e-01 4.580146736155931153e-01 2.779816850391643723e-01 2.538153258339875817e-01 9.177257920537889024e-01 5.033810473275943664e-01 4.122282228090901612e-01 2.850786014314093952e-01 3.029223545022970976e-01 3.012257802843570920e-01 5.843002178823905046e-01 7.667512676705793284e-01 3.332297386435066899e-01 2.822574381167564095e-01 4.405995609474530061e-01 3.157512974288889662e-01 7.392597612858534672e-01 2.149362041139418478e-01 4.438965851167626653e-01 -3.168574019331187874e-01 3.171858005000484093e-01 2.592951991759234187e-01 4.129057825307423935e-01 3.329404940865250406e-01 2.326987397023559390e-01 1.754102225310930852e+00 1.149644681335124097e-01 2.734073996584920896e-01 -1.568047127303787147e-01 1.608643205749954674e+00 1.140364611742317846e+00 6.450237380415704824e-02 -4.614276851014957881e-01 3.750849189095280534e-01 3.647535655871054217e-01 5.157277687338057692e-01 3.144698850712501215e-01 3.212171083238645197e-01 1.946879445983285550e-01 3.419881697361871753e-01 3.726458541738676966e-01 2.651612505615315654e-02 -1.812653631605442850e-01 3.830166370731686309e-01 3.420404121878598547e-01 2.004931983848750598e-01 8.593255684081585466e-01 4.241150452894623668e-01 2.258606478777578364e-01 8.284571924973124224e-01 4.761836177098850986e-01 6.364478461355184136e-01 4.446003545415321834e-01 6.869747647555827230e-01 1.460978078603242913e+00 3.006754881732709994e-01 2.046489973452400246e+00 -1.793659728767786621e-02 1.359032535459044899e-01 3.135828161758613675e-01 2.789653238822719650e-01 3.262570490058882000e-01 3.561740592544153095e-01 3.248267177431212738e-01 3.136706383164427625e-01 3.552573412613562187e-01 1.829111992589751712e-01 -2.891906950425622291e-01 2.638461210301172866e-01 -7.761512876412318684e-02 2.819194477020119383e-01 4.500510144053906370e-01 4.241150453310637003e-01 2.017766326686309952e-01 2.182777181086881790e-01 -1.200059216702283216e+00 1.931170950233608297e+00 3.185827663550735434e-01 -6.996769287720133734e-01 2.978459882469801645e-01 3.121389475993042728e-01 3.189802608175165699e-01 -4.689976380681932788e+00 3.478893418457567499e+00 6.204791934988630464e-01 9.543467951558343154e-02 3.202501188599464754e-01 3.219005520782643459e-01 3.081670611294997641e-01 2.576581560367744217e+00 6.162329643019408554e-01 3.202467795351417457e-01 2.033340508789703849e-01 2.505963237671625099e-01 2.680185453447376798e-01 8.724708767094662143e-01 -3.785234556867014266e-01 -1.148248813818178338e+00 -1.189949067076093714e+00 3.141332250349450628e-01 3.219661346248432476e-01 7.085310369478745596e-01 3.451355584397381437e-01 1.297759578149190629e+00 4.653818162959798554e-01 3.177366521012057743e-01 3.021864356874939261e-01 3.179992355652389024e-01 2.793671223304719509e-01 2.832927691450498053e-01 6.514161244317852040e-01 2.776467886014308273e-01 6.442120832325801683e-01 2.175777849302695521e-01 2.423869447694003421e-02 2.833061993190479355e-01 2.016196162557411242e-01 3.452365758350514069e-01 3.281167163117842400e-01 6.885867161525562885e-01 5.469890029483511773e-01 4.599011012961341516e-01 3.843530686526941409e-01 3.172097641978492422e-01 2.566710337557207566e-01 1.524378886858642534e+00 1.836114362762554908e+00 2.834096258333226870e-01 3.568366641885991619e-01 3.162247806403237771e-01 1.702973122594920452e-01 2.364049048785074603e-01 2.177842990699117576e-01 3.163032238678618602e-01 3.211845241603493162e-01 7.905237165785505837e-01 8.676614956350413577e-01 2.432533667179764547e-01 1.839094420227759930e+00 2.040742093513558397e-01 -1.650956223495726460e-01 -2.717931968184651992e-01 -3.215454107946767448e-01 3.159622833906429173e-01 2.788239107155461860e-01 7.057475386204864476e-01 3.187947335303265572e-01 4.555251707479743839e-01 3.288903097708922862e-01 3.769007606185278414e-01 4.047182186218424849e-01 3.205301225449700558e-02 1.022071280117507142e+00 3.089394251863202823e-01 4.759336623833046453e-01 3.216807400487423640e-01 3.631559064840164108e-01 3.150078749028935587e-01 3.877144648059178689e-01 -1.151400018867773517e-01 2.233433986446707320e-01 3.155767615460556286e-01 2.723749802582079577e-02 4.241148923400521187e-01 1.117374317711274490e+00 9.454469510745554528e-01 -7.367522180231389495e-01 -3.388778255190696975e-01 6.443422642501291930e-01 -3.263741016032546405e+00 1.556107510256129256e+00 2.651785849929687577e-01 2.690531395934622066e-02 3.187782878707965950e-01 8.728090949800920706e-01 3.201956457943627155e-01 3.695767734537926952e-01 -4.357560782173295899e-01 8.284019098961714622e-01 2.609180003282062787e-01 8.863922699674124939e-01 2.062245315566332060e+00 -3.787154742249994599e-01 -1.432226993306943585e+00 2.702097525079860119e-01 2.699256668122191338e-01 7.757500738794321782e-01 3.121435417877694296e-01 7.006791200056554647e-01 4.690399016378830055e-01 1.592347118467320188e-01 3.159256652664461096e-01 3.318525731963966052e-01 2.190312091661401894e-01 3.489050672895881999e-01 1.381394849567841865e+00 1.592629526554172337e+00 3.093458778920441521e-01 2.518200387005220531e-01 5.007681368643409486e-02 -2.364826253525146305e-01 2.015808975751328946e-01 6.041450593547390349e-03 3.150302127515065553e-01 7.071356444645404693e-01 -4.324816941226000133e-01 2.887924702166676516e-01 3.429651318983031327e-01 1.563146294906792855e-01 3.019673051351138282e-01 2.630606985130976017e-01 3.125635248089209672e-01 3.200616502178502132e-01 -2.072961755843417617e-02 2.532237188796231386e-01 4.408446505544106331e-01 1.105104646834597304e+00 1.098067343281025066e+00 9.371476192880570100e-01 1.944832953836913569e-01 7.707107768003484960e-01 1.268388069360851522e-01 4.604699393071952640e-01 -2.067102954179178109e+00 2.854628216413795938e-01 6.514853636516491076e-01 2.706321634337238713e-01 9.576274264866379005e-01 1.356514606840550696e+00 2.033340462690148287e-01 2.881069449365905033e-01 3.724771774729967455e-01 2.484948936258045693e-01 5.554061245413424164e-01 8.221899612746275121e-01 -7.536486576273997429e-01 1.515217605580672644e-01 1.151774213457097407e-01 2.963478648771114554e-01 3.433513601190385511e-01 7.702611209630542133e-01 -1.688026080430469755e-01 3.899842054644416800e-01 3.138254508416385979e-01 2.858895430848529817e-01 8.870821634185730442e-01 4.231527086957466155e-01 -2.053594548677651621e-01 8.594106929013445306e-01 -4.531867123000055814e-02 5.732306858738509536e-01 2.784835868727426056e-01 1.274979208703202804e+00 5.509192193246180702e-01 7.251868763857666211e-01 4.372385877591635217e-01 4.814652243783766328e-01 -5.216172426576441978e-01 2.804800385501936555e-01 7.637758683247456437e-01 3.313162359455499861e-01 6.409306986360306935e-01 2.897481442205988023e-01 3.157494797765911243e-01 7.318288755371230581e-01 1.273025598478781661e-01 -2.021160454654925331e+00 2.723371790715641838e-01 2.817461568120872561e-01 7.617854266245888128e-01 3.990774885642498493e-01 4.002041495770520263e-01 2.793377287245363272e-01 2.506293275003128596e-01 3.686969692510507768e-01 3.451085275028775018e-02 -1.609331639548103654e+00 7.452513312975740378e-01 2.623084829533293694e-01 3.211802777516824525e-01 1.907031226824585923e-01 8.237967809149981946e-01 3.157590019679431537e-01 -1.319915773480758447e-01 3.176307176796508980e-01 1.115340634517422824e+00 2.893298890853313599e-01 4.147311742707204818e-01 1.062900036357583344e+00 3.333770100650043644e-01 2.721143458757955269e+00 2.981514711507667337e-01 2.926329887751747405e-01 6.886442279939787303e-01 2.991785733111182455e-01 2.945816811583592543e-01 -2.033124322959135810e+00 3.896006325394894554e-01 3.109849450857340436e-01 5.127573801395660658e-01 3.205958540952790758e-01 2.885387486084101116e-01 -2.384629788781468529e-01 2.023656030143007545e+00 -5.203900006093298281e-01 8.283188062909774274e-01 3.178497967223983256e-01 3.693021554347508673e-01 7.683599043648668969e-01 3.602352467000201619e-01 1.317980976216020839e+00 1.676033278948662608e-01 2.957874363138229823e-01 -8.787785257950868623e-01 -1.302799903313338337e-01 -3.085526754025646468e-01 -3.840931208961595900e+00 2.903649936665845477e+00 6.517868340405696959e-02 3.293426329049892742e-01 -1.590780513670809082e+00 3.151455209391423318e-01 2.324061154131162321e-01 3.141941916105342458e-01 1.412707910622884033e-01 6.382035653558114641e-01 5.933038668267064386e-01 9.964288368291374098e-01 -3.388778259286843730e-01 -2.158340853995256714e-01 2.097958361081514456e-01 -1.175177594355765631e+00 2.809803212159985297e-01 -6.324754395009103414e-01 2.980987998477974688e-01 4.764529357492245931e-01 4.920148584577848511e-02 4.271250624495195880e-01 2.721118157106330870e-01 -9.762839367038440852e-02 2.037748004510953059e-01 3.014106831546008447e-01 3.528488480161879326e-01 3.110543224788582251e-01 3.190365197066257208e-01 -7.365428914715030917e-01 5.645807939050021540e-01 1.528140327896915007e+00 5.731590883124652175e-02 2.413385933746864109e-01 4.079815301374613012e-01 1.213325444584498314e+00 3.078708476265616389e-01 1.520744647467303645e-01 8.962328849995329083e-01 3.155742549771005656e-01 1.835022609088882595e+00 3.697904175657414916e-01 1.204856308851207425e+00 3.015140640582248399e-01 7.369083162682620314e-01 1.342929819353161136e+00 3.012544950817550027e-01 4.046866806014841056e-01 9.106251016716200297e-01 -1.865170686591470506e-01 -5.080643067719201045e-02 1.657932214131254689e-01 2.967334203064762033e-01 3.470618428731930827e-01 1.417153773114950832e-01 2.227643496705683235e-01 -3.520684165223249562e-01 1.292543309502351745e+00 2.633107831444653768e-01 3.147343894158475819e-01 -3.108076351031018980e+00 4.947544626418110547e-01 3.632198277842172973e-01 4.550940235684676205e-01 4.327472003581814830e-01 4.989042678933356956e-01 -1.046681881094781552e+00 5.993282570067741677e-01 2.661070088503491582e-01 3.212647351676023444e-01 1.041392016792522357e+00 4.473180337189410216e-01 3.185877102973829755e-01 -1.385018881163587290e+00 4.447002635412430349e-01 8.872080943238964679e-01 2.995931022245291175e-01 3.141438514186580822e-01 3.372307848158173083e-01 7.000471368998587574e-01 -8.118169710235104142e-02 3.117715683876011723e-01 2.935574217229289795e-01 7.103352976243799966e-02 6.981578424429348839e-01 3.575215166665894895e-01 7.342379047469408393e-01 1.738011393447858044e-01 6.855997311736298228e-01 -2.121721891252700831e-01 -1.501777772485255680e+00 3.447693828847848141e-01 -1.540253324599733832e-02 3.190157002445243584e-01 3.451196036874403794e-01 5.549799529282943567e-02 5.469889994407076683e-01 3.226874327872290005e-01 8.647293997590978221e-02 4.576401893855453484e-01 2.648691474185174699e-01 3.246618797728727523e-01 2.701973335592787739e-01 -8.108518932157141590e-01 3.018260573280152625e-01 3.581537986931900286e-01 2.911866116326009557e-01 -1.214884140426546327e-01 3.122260289797884059e-01 7.984280739033798868e-01 -5.038499663486433189e-01 1.093707022450269850e+00 6.033829696575382373e-01 2.687236026994366256e-01 3.165446290942611207e-01 -2.022076329488790680e+00 3.053773407181531452e-01 1.826134011169801008e-01 2.356781601462992759e-01 5.469889985509535091e-01 3.146955385095361879e-01 2.620363187173758712e-01 1.101081529460707226e-01 3.199421509574368327e-01 4.359793646672045497e-01 4.159808350145773881e-01 3.774462069019921540e-01 3.006944427989109436e-01 3.163998255218758437e-01 3.152115493341294816e-01 2.732688131386183383e-01 2.519458967814046726e-02 3.221997525178835753e-01 5.929327710940132112e-01 2.168901435623171448e-01 3.303077257885866369e-01 -1.235780497594540228e-01 1.344464746245871423e-01 5.147464143739075570e-01 4.360284065124960584e+00 2.881611019300878707e-01 1.266901141213929716e-01 5.264058184161328757e-01 2.118327129552933508e-01 1.534018845099860862e+00 3.430098071063568677e-01 6.581973140624068908e-01 3.114772465262443668e-01
