# 
#                 ----------------------------------------------------
#                 Data from a 3D direct N-body simulation. 
# 
#                 rows are i-particle; 
#                 coumns are :mass, tag, x ,y, z, vx, vy, vz, ax, ay, az
# 
#                 NTHU, Computational Physics 
# 
#                 ----------------------------------------------------
#                 Time = 0.0
0.000000000000000000e+00 1.000000000000000000e+00 2.000000000000000000e+00 3.000000000000000000e+00 4.000000000000000000e+00 5.000000000000000000e+00 6.000000000000000000e+00 7.000000000000000000e+00 8.000000000000000000e+00 9.000000000000000000e+00 1.000000000000000000e+01 1.100000000000000000e+01 1.200000000000000000e+01 1.300000000000000000e+01 1.400000000000000000e+01 1.500000000000000000e+01 1.600000000000000000e+01 1.700000000000000000e+01 1.800000000000000000e+01 1.900000000000000000e+01 2.000000000000000000e+01 2.100000000000000000e+01 2.200000000000000000e+01 2.300000000000000000e+01 2.400000000000000000e+01 2.500000000000000000e+01 2.600000000000000000e+01 2.700000000000000000e+01 2.800000000000000000e+01 2.900000000000000000e+01 3.000000000000000000e+01 3.100000000000000000e+01 3.200000000000000000e+01 3.300000000000000000e+01 3.400000000000000000e+01 3.500000000000000000e+01 3.600000000000000000e+01 3.700000000000000000e+01 3.800000000000000000e+01 3.900000000000000000e+01 4.000000000000000000e+01 4.100000000000000000e+01 4.200000000000000000e+01 4.300000000000000000e+01 4.400000000000000000e+01 4.500000000000000000e+01 4.600000000000000000e+01 4.700000000000000000e+01 4.800000000000000000e+01 4.900000000000000000e+01 5.000000000000000000e+01 5.100000000000000000e+01 5.200000000000000000e+01 5.300000000000000000e+01 5.400000000000000000e+01 5.500000000000000000e+01 5.600000000000000000e+01 5.700000000000000000e+01 5.800000000000000000e+01 5.900000000000000000e+01 6.000000000000000000e+01 6.100000000000000000e+01 6.200000000000000000e+01 6.300000000000000000e+01 6.400000000000000000e+01 6.500000000000000000e+01 6.600000000000000000e+01 6.700000000000000000e+01 6.800000000000000000e+01 6.900000000000000000e+01 7.000000000000000000e+01 7.100000000000000000e+01 7.200000000000000000e+01 7.300000000000000000e+01 7.400000000000000000e+01 7.500000000000000000e+01 7.600000000000000000e+01 7.700000000000000000e+01 7.800000000000000000e+01 7.900000000000000000e+01 8.000000000000000000e+01 8.100000000000000000e+01 8.200000000000000000e+01 8.300000000000000000e+01 8.400000000000000000e+01 8.500000000000000000e+01 8.600000000000000000e+01 8.700000000000000000e+01 8.800000000000000000e+01 8.900000000000000000e+01 9.000000000000000000e+01 9.100000000000000000e+01 9.200000000000000000e+01 9.300000000000000000e+01 9.400000000000000000e+01 9.500000000000000000e+01 9.600000000000000000e+01 9.700000000000000000e+01 9.800000000000000000e+01 9.900000000000000000e+01 1.000000000000000000e+02 1.010000000000000000e+02 1.020000000000000000e+02 1.030000000000000000e+02 1.040000000000000000e+02 1.050000000000000000e+02 1.060000000000000000e+02 1.070000000000000000e+02 1.080000000000000000e+02 1.090000000000000000e+02 1.100000000000000000e+02 1.110000000000000000e+02 1.120000000000000000e+02 1.130000000000000000e+02 1.140000000000000000e+02 1.150000000000000000e+02 1.160000000000000000e+02 1.170000000000000000e+02 1.180000000000000000e+02 1.190000000000000000e+02 1.200000000000000000e+02 1.210000000000000000e+02 1.220000000000000000e+02 1.230000000000000000e+02 1.240000000000000000e+02 1.250000000000000000e+02 1.260000000000000000e+02 1.270000000000000000e+02 1.280000000000000000e+02 1.290000000000000000e+02 1.300000000000000000e+02 1.310000000000000000e+02 1.320000000000000000e+02 1.330000000000000000e+02 1.340000000000000000e+02 1.350000000000000000e+02 1.360000000000000000e+02 1.370000000000000000e+02 1.380000000000000000e+02 1.390000000000000000e+02 1.400000000000000000e+02 1.410000000000000000e+02 1.420000000000000000e+02 1.430000000000000000e+02 1.440000000000000000e+02 1.450000000000000000e+02 1.460000000000000000e+02 1.470000000000000000e+02 1.480000000000000000e+02 1.490000000000000000e+02 1.500000000000000000e+02 1.510000000000000000e+02 1.520000000000000000e+02 1.530000000000000000e+02 1.540000000000000000e+02 1.550000000000000000e+02 1.560000000000000000e+02 1.570000000000000000e+02 1.580000000000000000e+02 1.590000000000000000e+02 1.600000000000000000e+02 1.610000000000000000e+02 1.620000000000000000e+02 1.630000000000000000e+02 1.640000000000000000e+02 1.650000000000000000e+02 1.660000000000000000e+02 1.670000000000000000e+02 1.680000000000000000e+02 1.690000000000000000e+02 1.700000000000000000e+02 1.710000000000000000e+02 1.720000000000000000e+02 1.730000000000000000e+02 1.740000000000000000e+02 1.750000000000000000e+02 1.760000000000000000e+02 1.770000000000000000e+02 1.780000000000000000e+02 1.790000000000000000e+02 1.800000000000000000e+02 1.810000000000000000e+02 1.820000000000000000e+02 1.830000000000000000e+02 1.840000000000000000e+02 1.850000000000000000e+02 1.860000000000000000e+02 1.870000000000000000e+02 1.880000000000000000e+02 1.890000000000000000e+02 1.900000000000000000e+02 1.910000000000000000e+02 1.920000000000000000e+02 1.930000000000000000e+02 1.940000000000000000e+02 1.950000000000000000e+02 1.960000000000000000e+02 1.970000000000000000e+02 1.980000000000000000e+02 1.990000000000000000e+02 2.000000000000000000e+02 2.010000000000000000e+02 2.020000000000000000e+02 2.030000000000000000e+02 2.040000000000000000e+02 2.050000000000000000e+02 2.060000000000000000e+02 2.070000000000000000e+02 2.080000000000000000e+02 2.090000000000000000e+02 2.100000000000000000e+02 2.110000000000000000e+02 2.120000000000000000e+02 2.130000000000000000e+02 2.140000000000000000e+02 2.150000000000000000e+02 2.160000000000000000e+02 2.170000000000000000e+02 2.180000000000000000e+02 2.190000000000000000e+02 2.200000000000000000e+02 2.210000000000000000e+02 2.220000000000000000e+02 2.230000000000000000e+02 2.240000000000000000e+02 2.250000000000000000e+02 2.260000000000000000e+02 2.270000000000000000e+02 2.280000000000000000e+02 2.290000000000000000e+02 2.300000000000000000e+02 2.310000000000000000e+02 2.320000000000000000e+02 2.330000000000000000e+02 2.340000000000000000e+02 2.350000000000000000e+02 2.360000000000000000e+02 2.370000000000000000e+02 2.380000000000000000e+02 2.390000000000000000e+02 2.400000000000000000e+02 2.410000000000000000e+02 2.420000000000000000e+02 2.430000000000000000e+02 2.440000000000000000e+02 2.450000000000000000e+02 2.460000000000000000e+02 2.470000000000000000e+02 2.480000000000000000e+02 2.490000000000000000e+02 2.500000000000000000e+02 2.510000000000000000e+02 2.520000000000000000e+02 2.530000000000000000e+02 2.540000000000000000e+02 2.550000000000000000e+02 2.560000000000000000e+02 2.570000000000000000e+02 2.580000000000000000e+02 2.590000000000000000e+02 2.600000000000000000e+02 2.610000000000000000e+02 2.620000000000000000e+02 2.630000000000000000e+02 2.640000000000000000e+02 2.650000000000000000e+02 2.660000000000000000e+02 2.670000000000000000e+02 2.680000000000000000e+02 2.690000000000000000e+02 2.700000000000000000e+02 2.710000000000000000e+02 2.720000000000000000e+02 2.730000000000000000e+02 2.740000000000000000e+02 2.750000000000000000e+02 2.760000000000000000e+02 2.770000000000000000e+02 2.780000000000000000e+02 2.790000000000000000e+02 2.800000000000000000e+02 2.810000000000000000e+02 2.820000000000000000e+02 2.830000000000000000e+02 2.840000000000000000e+02 2.850000000000000000e+02 2.860000000000000000e+02 2.870000000000000000e+02 2.880000000000000000e+02 2.890000000000000000e+02 2.900000000000000000e+02 2.910000000000000000e+02 2.920000000000000000e+02 2.930000000000000000e+02 2.940000000000000000e+02 2.950000000000000000e+02 2.960000000000000000e+02 2.970000000000000000e+02 2.980000000000000000e+02 2.990000000000000000e+02 3.000000000000000000e+02 3.010000000000000000e+02 3.020000000000000000e+02 3.030000000000000000e+02 3.040000000000000000e+02 3.050000000000000000e+02 3.060000000000000000e+02 3.070000000000000000e+02 3.080000000000000000e+02 3.090000000000000000e+02 3.100000000000000000e+02 3.110000000000000000e+02 3.120000000000000000e+02 3.130000000000000000e+02 3.140000000000000000e+02 3.150000000000000000e+02 3.160000000000000000e+02 3.170000000000000000e+02 3.180000000000000000e+02 3.190000000000000000e+02 3.200000000000000000e+02 3.210000000000000000e+02 3.220000000000000000e+02 3.230000000000000000e+02 3.240000000000000000e+02 3.250000000000000000e+02 3.260000000000000000e+02 3.270000000000000000e+02 3.280000000000000000e+02 3.290000000000000000e+02 3.300000000000000000e+02 3.310000000000000000e+02 3.320000000000000000e+02 3.330000000000000000e+02 3.340000000000000000e+02 3.350000000000000000e+02 3.360000000000000000e+02 3.370000000000000000e+02 3.380000000000000000e+02 3.390000000000000000e+02 3.400000000000000000e+02 3.410000000000000000e+02 3.420000000000000000e+02 3.430000000000000000e+02 3.440000000000000000e+02 3.450000000000000000e+02 3.460000000000000000e+02 3.470000000000000000e+02 3.480000000000000000e+02 3.490000000000000000e+02 3.500000000000000000e+02 3.510000000000000000e+02 3.520000000000000000e+02 3.530000000000000000e+02 3.540000000000000000e+02 3.550000000000000000e+02 3.560000000000000000e+02 3.570000000000000000e+02 3.580000000000000000e+02 3.590000000000000000e+02 3.600000000000000000e+02 3.610000000000000000e+02 3.620000000000000000e+02 3.630000000000000000e+02 3.640000000000000000e+02 3.650000000000000000e+02 3.660000000000000000e+02 3.670000000000000000e+02 3.680000000000000000e+02 3.690000000000000000e+02 3.700000000000000000e+02 3.710000000000000000e+02 3.720000000000000000e+02 3.730000000000000000e+02 3.740000000000000000e+02 3.750000000000000000e+02 3.760000000000000000e+02 3.770000000000000000e+02 3.780000000000000000e+02 3.790000000000000000e+02 3.800000000000000000e+02 3.810000000000000000e+02 3.820000000000000000e+02 3.830000000000000000e+02 3.840000000000000000e+02 3.850000000000000000e+02 3.860000000000000000e+02 3.870000000000000000e+02 3.880000000000000000e+02 3.890000000000000000e+02 3.900000000000000000e+02 3.910000000000000000e+02 3.920000000000000000e+02 3.930000000000000000e+02 3.940000000000000000e+02 3.950000000000000000e+02 3.960000000000000000e+02 3.970000000000000000e+02 3.980000000000000000e+02 3.990000000000000000e+02 4.000000000000000000e+02 4.010000000000000000e+02 4.020000000000000000e+02 4.030000000000000000e+02 4.040000000000000000e+02 4.050000000000000000e+02 4.060000000000000000e+02 4.070000000000000000e+02 4.080000000000000000e+02 4.090000000000000000e+02 4.100000000000000000e+02 4.110000000000000000e+02 4.120000000000000000e+02 4.130000000000000000e+02 4.140000000000000000e+02 4.150000000000000000e+02 4.160000000000000000e+02 4.170000000000000000e+02 4.180000000000000000e+02 4.190000000000000000e+02 4.200000000000000000e+02 4.210000000000000000e+02 4.220000000000000000e+02 4.230000000000000000e+02 4.240000000000000000e+02 4.250000000000000000e+02 4.260000000000000000e+02 4.270000000000000000e+02 4.280000000000000000e+02 4.290000000000000000e+02 4.300000000000000000e+02 4.310000000000000000e+02 4.320000000000000000e+02 4.330000000000000000e+02 4.340000000000000000e+02 4.350000000000000000e+02 4.360000000000000000e+02 4.370000000000000000e+02 4.380000000000000000e+02 4.390000000000000000e+02 4.400000000000000000e+02 4.410000000000000000e+02 4.420000000000000000e+02 4.430000000000000000e+02 4.440000000000000000e+02 4.450000000000000000e+02 4.460000000000000000e+02 4.470000000000000000e+02 4.480000000000000000e+02 4.490000000000000000e+02 4.500000000000000000e+02 4.510000000000000000e+02 4.520000000000000000e+02 4.530000000000000000e+02 4.540000000000000000e+02 4.550000000000000000e+02 4.560000000000000000e+02 4.570000000000000000e+02 4.580000000000000000e+02 4.590000000000000000e+02 4.600000000000000000e+02 4.610000000000000000e+02 4.620000000000000000e+02 4.630000000000000000e+02 4.640000000000000000e+02 4.650000000000000000e+02 4.660000000000000000e+02 4.670000000000000000e+02 4.680000000000000000e+02 4.690000000000000000e+02 4.700000000000000000e+02 4.710000000000000000e+02 4.720000000000000000e+02 4.730000000000000000e+02 4.740000000000000000e+02 4.750000000000000000e+02 4.760000000000000000e+02 4.770000000000000000e+02 4.780000000000000000e+02 4.790000000000000000e+02 4.800000000000000000e+02 4.810000000000000000e+02 4.820000000000000000e+02 4.830000000000000000e+02 4.840000000000000000e+02 4.850000000000000000e+02 4.860000000000000000e+02 4.870000000000000000e+02 4.880000000000000000e+02 4.890000000000000000e+02 4.900000000000000000e+02 4.910000000000000000e+02 4.920000000000000000e+02 4.930000000000000000e+02 4.940000000000000000e+02 4.950000000000000000e+02 4.960000000000000000e+02 4.970000000000000000e+02 4.980000000000000000e+02 4.990000000000000000e+02 5.000000000000000000e+02 5.010000000000000000e+02 5.020000000000000000e+02 5.030000000000000000e+02 5.040000000000000000e+02 5.050000000000000000e+02 5.060000000000000000e+02 5.070000000000000000e+02 5.080000000000000000e+02 5.090000000000000000e+02 5.100000000000000000e+02 5.110000000000000000e+02 5.120000000000000000e+02 5.130000000000000000e+02 5.140000000000000000e+02 5.150000000000000000e+02 5.160000000000000000e+02 5.170000000000000000e+02 5.180000000000000000e+02 5.190000000000000000e+02 5.200000000000000000e+02 5.210000000000000000e+02 5.220000000000000000e+02 5.230000000000000000e+02 5.240000000000000000e+02 5.250000000000000000e+02 5.260000000000000000e+02 5.270000000000000000e+02 5.280000000000000000e+02 5.290000000000000000e+02 5.300000000000000000e+02 5.310000000000000000e+02 5.320000000000000000e+02 5.330000000000000000e+02 5.340000000000000000e+02 5.350000000000000000e+02 5.360000000000000000e+02 5.370000000000000000e+02 5.380000000000000000e+02 5.390000000000000000e+02 5.400000000000000000e+02 5.410000000000000000e+02 5.420000000000000000e+02 5.430000000000000000e+02 5.440000000000000000e+02 5.450000000000000000e+02 5.460000000000000000e+02 5.470000000000000000e+02 5.480000000000000000e+02 5.490000000000000000e+02 5.500000000000000000e+02 5.510000000000000000e+02 5.520000000000000000e+02 5.530000000000000000e+02 5.540000000000000000e+02 5.550000000000000000e+02 5.560000000000000000e+02 5.570000000000000000e+02 5.580000000000000000e+02 5.590000000000000000e+02 5.600000000000000000e+02 5.610000000000000000e+02 5.620000000000000000e+02 5.630000000000000000e+02 5.640000000000000000e+02 5.650000000000000000e+02 5.660000000000000000e+02 5.670000000000000000e+02 5.680000000000000000e+02 5.690000000000000000e+02 5.700000000000000000e+02 5.710000000000000000e+02 5.720000000000000000e+02 5.730000000000000000e+02 5.740000000000000000e+02 5.750000000000000000e+02 5.760000000000000000e+02 5.770000000000000000e+02 5.780000000000000000e+02 5.790000000000000000e+02 5.800000000000000000e+02 5.810000000000000000e+02 5.820000000000000000e+02 5.830000000000000000e+02 5.840000000000000000e+02 5.850000000000000000e+02 5.860000000000000000e+02 5.870000000000000000e+02 5.880000000000000000e+02 5.890000000000000000e+02 5.900000000000000000e+02 5.910000000000000000e+02 5.920000000000000000e+02 5.930000000000000000e+02 5.940000000000000000e+02 5.950000000000000000e+02 5.960000000000000000e+02 5.970000000000000000e+02 5.980000000000000000e+02 5.990000000000000000e+02 6.000000000000000000e+02 6.010000000000000000e+02 6.020000000000000000e+02 6.030000000000000000e+02 6.040000000000000000e+02 6.050000000000000000e+02 6.060000000000000000e+02 6.070000000000000000e+02 6.080000000000000000e+02 6.090000000000000000e+02 6.100000000000000000e+02 6.110000000000000000e+02 6.120000000000000000e+02 6.130000000000000000e+02 6.140000000000000000e+02 6.150000000000000000e+02 6.160000000000000000e+02 6.170000000000000000e+02 6.180000000000000000e+02 6.190000000000000000e+02 6.200000000000000000e+02 6.210000000000000000e+02 6.220000000000000000e+02 6.230000000000000000e+02 6.240000000000000000e+02 6.250000000000000000e+02 6.260000000000000000e+02 6.270000000000000000e+02 6.280000000000000000e+02 6.290000000000000000e+02 6.300000000000000000e+02 6.310000000000000000e+02 6.320000000000000000e+02 6.330000000000000000e+02 6.340000000000000000e+02 6.350000000000000000e+02 6.360000000000000000e+02 6.370000000000000000e+02 6.380000000000000000e+02 6.390000000000000000e+02 6.400000000000000000e+02 6.410000000000000000e+02 6.420000000000000000e+02 6.430000000000000000e+02 6.440000000000000000e+02 6.450000000000000000e+02 6.460000000000000000e+02 6.470000000000000000e+02 6.480000000000000000e+02 6.490000000000000000e+02 6.500000000000000000e+02 6.510000000000000000e+02 6.520000000000000000e+02 6.530000000000000000e+02 6.540000000000000000e+02 6.550000000000000000e+02 6.560000000000000000e+02 6.570000000000000000e+02 6.580000000000000000e+02 6.590000000000000000e+02 6.600000000000000000e+02 6.610000000000000000e+02 6.620000000000000000e+02 6.630000000000000000e+02 6.640000000000000000e+02 6.650000000000000000e+02 6.660000000000000000e+02 6.670000000000000000e+02 6.680000000000000000e+02 6.690000000000000000e+02 6.700000000000000000e+02 6.710000000000000000e+02 6.720000000000000000e+02 6.730000000000000000e+02 6.740000000000000000e+02 6.750000000000000000e+02 6.760000000000000000e+02 6.770000000000000000e+02 6.780000000000000000e+02 6.790000000000000000e+02 6.800000000000000000e+02 6.810000000000000000e+02 6.820000000000000000e+02 6.830000000000000000e+02 6.840000000000000000e+02 6.850000000000000000e+02 6.860000000000000000e+02 6.870000000000000000e+02 6.880000000000000000e+02 6.890000000000000000e+02 6.900000000000000000e+02 6.910000000000000000e+02 6.920000000000000000e+02 6.930000000000000000e+02 6.940000000000000000e+02 6.950000000000000000e+02 6.960000000000000000e+02 6.970000000000000000e+02 6.980000000000000000e+02 6.990000000000000000e+02 7.000000000000000000e+02 7.010000000000000000e+02 7.020000000000000000e+02 7.030000000000000000e+02 7.040000000000000000e+02 7.050000000000000000e+02 7.060000000000000000e+02 7.070000000000000000e+02 7.080000000000000000e+02 7.090000000000000000e+02 7.100000000000000000e+02 7.110000000000000000e+02 7.120000000000000000e+02 7.130000000000000000e+02 7.140000000000000000e+02 7.150000000000000000e+02 7.160000000000000000e+02 7.170000000000000000e+02 7.180000000000000000e+02 7.190000000000000000e+02 7.200000000000000000e+02 7.210000000000000000e+02 7.220000000000000000e+02 7.230000000000000000e+02 7.240000000000000000e+02 7.250000000000000000e+02 7.260000000000000000e+02 7.270000000000000000e+02 7.280000000000000000e+02 7.290000000000000000e+02 7.300000000000000000e+02 7.310000000000000000e+02 7.320000000000000000e+02 7.330000000000000000e+02 7.340000000000000000e+02 7.350000000000000000e+02 7.360000000000000000e+02 7.370000000000000000e+02 7.380000000000000000e+02 7.390000000000000000e+02 7.400000000000000000e+02 7.410000000000000000e+02 7.420000000000000000e+02 7.430000000000000000e+02 7.440000000000000000e+02 7.450000000000000000e+02 7.460000000000000000e+02 7.470000000000000000e+02 7.480000000000000000e+02 7.490000000000000000e+02 7.500000000000000000e+02 7.510000000000000000e+02 7.520000000000000000e+02 7.530000000000000000e+02 7.540000000000000000e+02 7.550000000000000000e+02 7.560000000000000000e+02 7.570000000000000000e+02 7.580000000000000000e+02 7.590000000000000000e+02 7.600000000000000000e+02 7.610000000000000000e+02 7.620000000000000000e+02 7.630000000000000000e+02 7.640000000000000000e+02 7.650000000000000000e+02 7.660000000000000000e+02 7.670000000000000000e+02 7.680000000000000000e+02 7.690000000000000000e+02 7.700000000000000000e+02 7.710000000000000000e+02 7.720000000000000000e+02 7.730000000000000000e+02 7.740000000000000000e+02 7.750000000000000000e+02 7.760000000000000000e+02 7.770000000000000000e+02 7.780000000000000000e+02 7.790000000000000000e+02 7.800000000000000000e+02 7.810000000000000000e+02 7.820000000000000000e+02 7.830000000000000000e+02 7.840000000000000000e+02 7.850000000000000000e+02 7.860000000000000000e+02 7.870000000000000000e+02 7.880000000000000000e+02 7.890000000000000000e+02 7.900000000000000000e+02 7.910000000000000000e+02 7.920000000000000000e+02 7.930000000000000000e+02 7.940000000000000000e+02 7.950000000000000000e+02 7.960000000000000000e+02 7.970000000000000000e+02 7.980000000000000000e+02 7.990000000000000000e+02 8.000000000000000000e+02 8.010000000000000000e+02 8.020000000000000000e+02 8.030000000000000000e+02 8.040000000000000000e+02 8.050000000000000000e+02 8.060000000000000000e+02 8.070000000000000000e+02 8.080000000000000000e+02 8.090000000000000000e+02 8.100000000000000000e+02 8.110000000000000000e+02 8.120000000000000000e+02 8.130000000000000000e+02 8.140000000000000000e+02 8.150000000000000000e+02 8.160000000000000000e+02 8.170000000000000000e+02 8.180000000000000000e+02 8.190000000000000000e+02 8.200000000000000000e+02 8.210000000000000000e+02 8.220000000000000000e+02 8.230000000000000000e+02 8.240000000000000000e+02 8.250000000000000000e+02 8.260000000000000000e+02 8.270000000000000000e+02 8.280000000000000000e+02 8.290000000000000000e+02 8.300000000000000000e+02 8.310000000000000000e+02 8.320000000000000000e+02 8.330000000000000000e+02 8.340000000000000000e+02 8.350000000000000000e+02 8.360000000000000000e+02 8.370000000000000000e+02 8.380000000000000000e+02 8.390000000000000000e+02 8.400000000000000000e+02 8.410000000000000000e+02 8.420000000000000000e+02 8.430000000000000000e+02 8.440000000000000000e+02 8.450000000000000000e+02 8.460000000000000000e+02 8.470000000000000000e+02 8.480000000000000000e+02 8.490000000000000000e+02 8.500000000000000000e+02 8.510000000000000000e+02 8.520000000000000000e+02 8.530000000000000000e+02 8.540000000000000000e+02 8.550000000000000000e+02 8.560000000000000000e+02 8.570000000000000000e+02 8.580000000000000000e+02 8.590000000000000000e+02 8.600000000000000000e+02 8.610000000000000000e+02 8.620000000000000000e+02 8.630000000000000000e+02 8.640000000000000000e+02 8.650000000000000000e+02 8.660000000000000000e+02 8.670000000000000000e+02 8.680000000000000000e+02 8.690000000000000000e+02 8.700000000000000000e+02 8.710000000000000000e+02 8.720000000000000000e+02 8.730000000000000000e+02 8.740000000000000000e+02 8.750000000000000000e+02 8.760000000000000000e+02 8.770000000000000000e+02 8.780000000000000000e+02 8.790000000000000000e+02 8.800000000000000000e+02 8.810000000000000000e+02 8.820000000000000000e+02 8.830000000000000000e+02 8.840000000000000000e+02 8.850000000000000000e+02 8.860000000000000000e+02 8.870000000000000000e+02 8.880000000000000000e+02 8.890000000000000000e+02 8.900000000000000000e+02 8.910000000000000000e+02 8.920000000000000000e+02 8.930000000000000000e+02 8.940000000000000000e+02 8.950000000000000000e+02 8.960000000000000000e+02 8.970000000000000000e+02 8.980000000000000000e+02 8.990000000000000000e+02 9.000000000000000000e+02 9.010000000000000000e+02 9.020000000000000000e+02 9.030000000000000000e+02 9.040000000000000000e+02 9.050000000000000000e+02 9.060000000000000000e+02 9.070000000000000000e+02 9.080000000000000000e+02 9.090000000000000000e+02 9.100000000000000000e+02 9.110000000000000000e+02 9.120000000000000000e+02 9.130000000000000000e+02 9.140000000000000000e+02 9.150000000000000000e+02 9.160000000000000000e+02 9.170000000000000000e+02 9.180000000000000000e+02 9.190000000000000000e+02 9.200000000000000000e+02 9.210000000000000000e+02 9.220000000000000000e+02 9.230000000000000000e+02 9.240000000000000000e+02 9.250000000000000000e+02 9.260000000000000000e+02 9.270000000000000000e+02 9.280000000000000000e+02 9.290000000000000000e+02 9.300000000000000000e+02 9.310000000000000000e+02 9.320000000000000000e+02 9.330000000000000000e+02 9.340000000000000000e+02 9.350000000000000000e+02 9.360000000000000000e+02 9.370000000000000000e+02 9.380000000000000000e+02 9.390000000000000000e+02 9.400000000000000000e+02 9.410000000000000000e+02 9.420000000000000000e+02 9.430000000000000000e+02 9.440000000000000000e+02 9.450000000000000000e+02 9.460000000000000000e+02 9.470000000000000000e+02 9.480000000000000000e+02 9.490000000000000000e+02 9.500000000000000000e+02 9.510000000000000000e+02 9.520000000000000000e+02 9.530000000000000000e+02 9.540000000000000000e+02 9.550000000000000000e+02 9.560000000000000000e+02 9.570000000000000000e+02 9.580000000000000000e+02 9.590000000000000000e+02 9.600000000000000000e+02 9.610000000000000000e+02 9.620000000000000000e+02 9.630000000000000000e+02 9.640000000000000000e+02 9.650000000000000000e+02 9.660000000000000000e+02 9.670000000000000000e+02 9.680000000000000000e+02 9.690000000000000000e+02 9.700000000000000000e+02 9.710000000000000000e+02 9.720000000000000000e+02 9.730000000000000000e+02 9.740000000000000000e+02 9.750000000000000000e+02 9.760000000000000000e+02 9.770000000000000000e+02 9.780000000000000000e+02 9.790000000000000000e+02 9.800000000000000000e+02 9.810000000000000000e+02 9.820000000000000000e+02 9.830000000000000000e+02 9.840000000000000000e+02 9.850000000000000000e+02 9.860000000000000000e+02 9.870000000000000000e+02 9.880000000000000000e+02 9.890000000000000000e+02 9.900000000000000000e+02 9.910000000000000000e+02 9.920000000000000000e+02 9.930000000000000000e+02 9.940000000000000000e+02 9.950000000000000000e+02 9.960000000000000000e+02 9.970000000000000000e+02 9.980000000000000000e+02 9.990000000000000000e+02
1.000000000000000000e+00 1.000000000000000000e+00 1.000000000000000000e+00 1.000000000000000000e+00 1.000000000000000000e+00 1.000000000000000000e+00 1.000000000000000000e+00 1.000000000000000000e+00 1.000000000000000000e+00 1.000000000000000000e+00 1.000000000000000000e+00 1.000000000000000000e+00 1.000000000000000000e+00 1.000000000000000000e+00 1.000000000000000000e+00 1.000000000000000000e+00 1.000000000000000000e+00 1.000000000000000000e+00 1.000000000000000000e+00 1.000000000000000000e+00 1.000000000000000000e+00 1.000000000000000000e+00 1.000000000000000000e+00 1.000000000000000000e+00 1.000000000000000000e+00 1.000000000000000000e+00 1.000000000000000000e+00 1.000000000000000000e+00 1.000000000000000000e+00 1.000000000000000000e+00 1.000000000000000000e+00 1.000000000000000000e+00 1.000000000000000000e+00 1.000000000000000000e+00 1.000000000000000000e+00 1.000000000000000000e+00 1.000000000000000000e+00 1.000000000000000000e+00 1.000000000000000000e+00 1.000000000000000000e+00 1.000000000000000000e+00 1.000000000000000000e+00 1.000000000000000000e+00 1.000000000000000000e+00 1.000000000000000000e+00 1.000000000000000000e+00 1.000000000000000000e+00 1.000000000000000000e+00 1.000000000000000000e+00 1.000000000000000000e+00 1.000000000000000000e+00 1.000000000000000000e+00 1.000000000000000000e+00 1.000000000000000000e+00 1.000000000000000000e+00 1.000000000000000000e+00 1.000000000000000000e+00 1.000000000000000000e+00 1.000000000000000000e+00 1.000000000000000000e+00 1.000000000000000000e+00 1.000000000000000000e+00 1.000000000000000000e+00 1.000000000000000000e+00 1.000000000000000000e+00 1.000000000000000000e+00 1.000000000000000000e+00 1.000000000000000000e+00 1.000000000000000000e+00 1.000000000000000000e+00 1.000000000000000000e+00 1.000000000000000000e+00 1.000000000000000000e+00 1.000000000000000000e+00 1.000000000000000000e+00 1.000000000000000000e+00 1.000000000000000000e+00 1.000000000000000000e+00 1.000000000000000000e+00 1.000000000000000000e+00 1.000000000000000000e+00 1.000000000000000000e+00 1.000000000000000000e+00 1.000000000000000000e+00 1.000000000000000000e+00 1.000000000000000000e+00 1.000000000000000000e+00 1.000000000000000000e+00 1.000000000000000000e+00 1.000000000000000000e+00 1.000000000000000000e+00 1.000000000000000000e+00 1.000000000000000000e+00 1.000000000000000000e+00 1.000000000000000000e+00 1.000000000000000000e+00 1.000000000000000000e+00 1.000000000000000000e+00 1.000000000000000000e+00 1.000000000000000000e+00 1.000000000000000000e+00 1.000000000000000000e+00 1.000000000000000000e+00 1.000000000000000000e+00 1.000000000000000000e+00 1.000000000000000000e+00 1.000000000000000000e+00 1.000000000000000000e+00 1.000000000000000000e+00 1.000000000000000000e+00 1.000000000000000000e+00 1.000000000000000000e+00 1.000000000000000000e+00 1.000000000000000000e+00 1.000000000000000000e+00 1.000000000000000000e+00 1.000000000000000000e+00 1.000000000000000000e+00 1.000000000000000000e+00 1.000000000000000000e+00 1.000000000000000000e+00 1.000000000000000000e+00 1.000000000000000000e+00 1.000000000000000000e+00 1.000000000000000000e+00 1.000000000000000000e+00 1.000000000000000000e+00 1.000000000000000000e+00 1.000000000000000000e+00 1.000000000000000000e+00 1.000000000000000000e+00 1.000000000000000000e+00 1.000000000000000000e+00 1.000000000000000000e+00 1.000000000000000000e+00 1.000000000000000000e+00 1.000000000000000000e+00 1.000000000000000000e+00 1.000000000000000000e+00 1.000000000000000000e+00 1.000000000000000000e+00 1.000000000000000000e+00 1.000000000000000000e+00 1.000000000000000000e+00 1.000000000000000000e+00 1.000000000000000000e+00 1.000000000000000000e+00 1.000000000000000000e+00 1.000000000000000000e+00 1.000000000000000000e+00 1.000000000000000000e+00 1.000000000000000000e+00 1.000000000000000000e+00 1.000000000000000000e+00 1.000000000000000000e+00 1.000000000000000000e+00 1.000000000000000000e+00 1.000000000000000000e+00 1.000000000000000000e+00 1.000000000000000000e+00 1.000000000000000000e+00 1.000000000000000000e+00 1.000000000000000000e+00 1.000000000000000000e+00 1.000000000000000000e+00 1.000000000000000000e+00 1.000000000000000000e+00 1.000000000000000000e+00 1.000000000000000000e+00 1.000000000000000000e+00 1.000000000000000000e+00 1.000000000000000000e+00 1.000000000000000000e+00 1.000000000000000000e+00 1.000000000000000000e+00 1.000000000000000000e+00 1.000000000000000000e+00 1.000000000000000000e+00 1.000000000000000000e+00 1.000000000000000000e+00 1.000000000000000000e+00 1.000000000000000000e+00 1.000000000000000000e+00 1.000000000000000000e+00 1.000000000000000000e+00 1.000000000000000000e+00 1.000000000000000000e+00 1.000000000000000000e+00 1.000000000000000000e+00 1.000000000000000000e+00 1.000000000000000000e+00 1.000000000000000000e+00 1.000000000000000000e+00 1.000000000000000000e+00 1.000000000000000000e+00 1.000000000000000000e+00 1.000000000000000000e+00 1.000000000000000000e+00 1.000000000000000000e+00 1.000000000000000000e+00 1.000000000000000000e+00 1.000000000000000000e+00 1.000000000000000000e+00 1.000000000000000000e+00 1.000000000000000000e+00 1.000000000000000000e+00 1.000000000000000000e+00 1.000000000000000000e+00 1.000000000000000000e+00 1.000000000000000000e+00 1.000000000000000000e+00 1.000000000000000000e+00 1.000000000000000000e+00 1.000000000000000000e+00 1.000000000000000000e+00 1.000000000000000000e+00 1.000000000000000000e+00 1.000000000000000000e+00 1.000000000000000000e+00 1.000000000000000000e+00 1.000000000000000000e+00 1.000000000000000000e+00 1.000000000000000000e+00 1.000000000000000000e+00 1.000000000000000000e+00 1.000000000000000000e+00 1.000000000000000000e+00 1.000000000000000000e+00 1.000000000000000000e+00 1.000000000000000000e+00 1.000000000000000000e+00 1.000000000000000000e+00 1.000000000000000000e+00 1.000000000000000000e+00 1.000000000000000000e+00 1.000000000000000000e+00 1.000000000000000000e+00 1.000000000000000000e+00 1.000000000000000000e+00 1.000000000000000000e+00 1.000000000000000000e+00 1.000000000000000000e+00 1.000000000000000000e+00 1.000000000000000000e+00 1.000000000000000000e+00 1.000000000000000000e+00 1.000000000000000000e+00 1.000000000000000000e+00 1.000000000000000000e+00 1.000000000000000000e+00 1.000000000000000000e+00 1.000000000000000000e+00 1.000000000000000000e+00 1.000000000000000000e+00 1.000000000000000000e+00 1.000000000000000000e+00 1.000000000000000000e+00 1.000000000000000000e+00 1.000000000000000000e+00 1.000000000000000000e+00 1.000000000000000000e+00 1.000000000000000000e+00 1.000000000000000000e+00 1.000000000000000000e+00 1.000000000000000000e+00 1.000000000000000000e+00 1.000000000000000000e+00 1.000000000000000000e+00 1.000000000000000000e+00 1.000000000000000000e+00 1.000000000000000000e+00 1.000000000000000000e+00 1.000000000000000000e+00 1.000000000000000000e+00 1.000000000000000000e+00 1.000000000000000000e+00 1.000000000000000000e+00 1.000000000000000000e+00 1.000000000000000000e+00 1.000000000000000000e+00 1.000000000000000000e+00 1.000000000000000000e+00 1.000000000000000000e+00 1.000000000000000000e+00 1.000000000000000000e+00 1.000000000000000000e+00 1.000000000000000000e+00 1.000000000000000000e+00 1.000000000000000000e+00 1.000000000000000000e+00 1.000000000000000000e+00 1.000000000000000000e+00 1.000000000000000000e+00 1.000000000000000000e+00 1.000000000000000000e+00 1.000000000000000000e+00 1.000000000000000000e+00 1.000000000000000000e+00 1.000000000000000000e+00 1.000000000000000000e+00 1.000000000000000000e+00 1.000000000000000000e+00 1.000000000000000000e+00 1.000000000000000000e+00 1.000000000000000000e+00 1.000000000000000000e+00 1.000000000000000000e+00 1.000000000000000000e+00 1.000000000000000000e+00 1.000000000000000000e+00 1.000000000000000000e+00 1.000000000000000000e+00 1.000000000000000000e+00 1.000000000000000000e+00 1.000000000000000000e+00 1.000000000000000000e+00 1.000000000000000000e+00 1.000000000000000000e+00 1.000000000000000000e+00 1.000000000000000000e+00 1.000000000000000000e+00 1.000000000000000000e+00 1.000000000000000000e+00 1.000000000000000000e+00 1.000000000000000000e+00 1.000000000000000000e+00 1.000000000000000000e+00 1.000000000000000000e+00 1.000000000000000000e+00 1.000000000000000000e+00 1.000000000000000000e+00 1.000000000000000000e+00 1.000000000000000000e+00 1.000000000000000000e+00 1.000000000000000000e+00 1.000000000000000000e+00 1.000000000000000000e+00 1.000000000000000000e+00 1.000000000000000000e+00 1.000000000000000000e+00 1.000000000000000000e+00 1.000000000000000000e+00 1.000000000000000000e+00 1.000000000000000000e+00 1.000000000000000000e+00 1.000000000000000000e+00 1.000000000000000000e+00 1.000000000000000000e+00 1.000000000000000000e+00 1.000000000000000000e+00 1.000000000000000000e+00 1.000000000000000000e+00 1.000000000000000000e+00 1.000000000000000000e+00 1.000000000000000000e+00 1.000000000000000000e+00 1.000000000000000000e+00 1.000000000000000000e+00 1.000000000000000000e+00 1.000000000000000000e+00 1.000000000000000000e+00 1.000000000000000000e+00 1.000000000000000000e+00 1.000000000000000000e+00 1.000000000000000000e+00 1.000000000000000000e+00 1.000000000000000000e+00 1.000000000000000000e+00 1.000000000000000000e+00 1.000000000000000000e+00 1.000000000000000000e+00 1.000000000000000000e+00 1.000000000000000000e+00 1.000000000000000000e+00 1.000000000000000000e+00 1.000000000000000000e+00 1.000000000000000000e+00 1.000000000000000000e+00 1.000000000000000000e+00 1.000000000000000000e+00 1.000000000000000000e+00 1.000000000000000000e+00 1.000000000000000000e+00 1.000000000000000000e+00 1.000000000000000000e+00 1.000000000000000000e+00 1.000000000000000000e+00 1.000000000000000000e+00 1.000000000000000000e+00 1.000000000000000000e+00 1.000000000000000000e+00 1.000000000000000000e+00 1.000000000000000000e+00 1.000000000000000000e+00 1.000000000000000000e+00 1.000000000000000000e+00 1.000000000000000000e+00 1.000000000000000000e+00 1.000000000000000000e+00 1.000000000000000000e+00 1.000000000000000000e+00 1.000000000000000000e+00 1.000000000000000000e+00 1.000000000000000000e+00 1.000000000000000000e+00 1.000000000000000000e+00 1.000000000000000000e+00 1.000000000000000000e+00 1.000000000000000000e+00 1.000000000000000000e+00 1.000000000000000000e+00 1.000000000000000000e+00 1.000000000000000000e+00 1.000000000000000000e+00 1.000000000000000000e+00 1.000000000000000000e+00 1.000000000000000000e+00 1.000000000000000000e+00 1.000000000000000000e+00 1.000000000000000000e+00 1.000000000000000000e+00 1.000000000000000000e+00 1.000000000000000000e+00 1.000000000000000000e+00 1.000000000000000000e+00 1.000000000000000000e+00 1.000000000000000000e+00 1.000000000000000000e+00 1.000000000000000000e+00 1.000000000000000000e+00 1.000000000000000000e+00 1.000000000000000000e+00 1.000000000000000000e+00 1.000000000000000000e+00 1.000000000000000000e+00 1.000000000000000000e+00 1.000000000000000000e+00 1.000000000000000000e+00 1.000000000000000000e+00 1.000000000000000000e+00 1.000000000000000000e+00 1.000000000000000000e+00 1.000000000000000000e+00 1.000000000000000000e+00 1.000000000000000000e+00 1.000000000000000000e+00 1.000000000000000000e+00 1.000000000000000000e+00 1.000000000000000000e+00 1.000000000000000000e+00 1.000000000000000000e+00 1.000000000000000000e+00 1.000000000000000000e+00 1.000000000000000000e+00 1.000000000000000000e+00 1.000000000000000000e+00 1.000000000000000000e+00 1.000000000000000000e+00 1.000000000000000000e+00 1.000000000000000000e+00 1.000000000000000000e+00 1.000000000000000000e+00 1.000000000000000000e+00 1.000000000000000000e+00 1.000000000000000000e+00 1.000000000000000000e+00 1.000000000000000000e+00 1.000000000000000000e+00 1.000000000000000000e+00 1.000000000000000000e+00 1.000000000000000000e+00 1.000000000000000000e+00 1.000000000000000000e+00 1.000000000000000000e+00 1.000000000000000000e+00 1.000000000000000000e+00 1.000000000000000000e+00 1.000000000000000000e+00 1.000000000000000000e+00 1.000000000000000000e+00 1.000000000000000000e+00 1.000000000000000000e+00 1.000000000000000000e+00 1.000000000000000000e+00 1.000000000000000000e+00 1.000000000000000000e+00 1.000000000000000000e+00 1.000000000000000000e+00 1.000000000000000000e+00 1.000000000000000000e+00 1.000000000000000000e+00 1.000000000000000000e+00 1.000000000000000000e+00 1.000000000000000000e+00 1.000000000000000000e+00 1.000000000000000000e+00 1.000000000000000000e+00 1.000000000000000000e+00 1.000000000000000000e+00 1.000000000000000000e+00 1.000000000000000000e+00 1.000000000000000000e+00 1.000000000000000000e+00 1.000000000000000000e+00 1.000000000000000000e+00 1.000000000000000000e+00 1.000000000000000000e+00 1.000000000000000000e+00 1.000000000000000000e+00 1.000000000000000000e+00 1.000000000000000000e+00 1.000000000000000000e+00 1.000000000000000000e+00 1.000000000000000000e+00 1.000000000000000000e+00 1.000000000000000000e+00 1.000000000000000000e+00 1.000000000000000000e+00 1.000000000000000000e+00 1.000000000000000000e+00 1.000000000000000000e+00 1.000000000000000000e+00 1.000000000000000000e+00 1.000000000000000000e+00 1.000000000000000000e+00 1.000000000000000000e+00 1.000000000000000000e+00 1.000000000000000000e+00 1.000000000000000000e+00 1.000000000000000000e+00 1.000000000000000000e+00 1.000000000000000000e+00 1.000000000000000000e+00 1.000000000000000000e+00 1.000000000000000000e+00 1.000000000000000000e+00 1.000000000000000000e+00 1.000000000000000000e+00 1.000000000000000000e+00 1.000000000000000000e+00 1.000000000000000000e+00 1.000000000000000000e+00 1.000000000000000000e+00 1.000000000000000000e+00 1.000000000000000000e+00 1.000000000000000000e+00 1.000000000000000000e+00 1.000000000000000000e+00 1.000000000000000000e+00 1.000000000000000000e+00 1.000000000000000000e+00 1.000000000000000000e+00 1.000000000000000000e+00 1.000000000000000000e+00 1.000000000000000000e+00 1.000000000000000000e+00 1.000000000000000000e+00 1.000000000000000000e+00 1.000000000000000000e+00 1.000000000000000000e+00 1.000000000000000000e+00 1.000000000000000000e+00 1.000000000000000000e+00 1.000000000000000000e+00 1.000000000000000000e+00 1.000000000000000000e+00 1.000000000000000000e+00 1.000000000000000000e+00 1.000000000000000000e+00 1.000000000000000000e+00 1.000000000000000000e+00 1.000000000000000000e+00 1.000000000000000000e+00 1.000000000000000000e+00 1.000000000000000000e+00 1.000000000000000000e+00 1.000000000000000000e+00 1.000000000000000000e+00 1.000000000000000000e+00 1.000000000000000000e+00 1.000000000000000000e+00 1.000000000000000000e+00 1.000000000000000000e+00 1.000000000000000000e+00 1.000000000000000000e+00 1.000000000000000000e+00 1.000000000000000000e+00 1.000000000000000000e+00 1.000000000000000000e+00 1.000000000000000000e+00 1.000000000000000000e+00 1.000000000000000000e+00 1.000000000000000000e+00 1.000000000000000000e+00 1.000000000000000000e+00 1.000000000000000000e+00 1.000000000000000000e+00 1.000000000000000000e+00 1.000000000000000000e+00 1.000000000000000000e+00 1.000000000000000000e+00 1.000000000000000000e+00 1.000000000000000000e+00 1.000000000000000000e+00 1.000000000000000000e+00 1.000000000000000000e+00 1.000000000000000000e+00 1.000000000000000000e+00 1.000000000000000000e+00 1.000000000000000000e+00 1.000000000000000000e+00 1.000000000000000000e+00 1.000000000000000000e+00 1.000000000000000000e+00 1.000000000000000000e+00 1.000000000000000000e+00 1.000000000000000000e+00 1.000000000000000000e+00 1.000000000000000000e+00 1.000000000000000000e+00 1.000000000000000000e+00 1.000000000000000000e+00 1.000000000000000000e+00 1.000000000000000000e+00 1.000000000000000000e+00 1.000000000000000000e+00 1.000000000000000000e+00 1.000000000000000000e+00 1.000000000000000000e+00 1.000000000000000000e+00 1.000000000000000000e+00 1.000000000000000000e+00 1.000000000000000000e+00 1.000000000000000000e+00 1.000000000000000000e+00 1.000000000000000000e+00 1.000000000000000000e+00 1.000000000000000000e+00 1.000000000000000000e+00 1.000000000000000000e+00 1.000000000000000000e+00 1.000000000000000000e+00 1.000000000000000000e+00 1.000000000000000000e+00 1.000000000000000000e+00 1.000000000000000000e+00 1.000000000000000000e+00 1.000000000000000000e+00 1.000000000000000000e+00 1.000000000000000000e+00 1.000000000000000000e+00 1.000000000000000000e+00 1.000000000000000000e+00 1.000000000000000000e+00 1.000000000000000000e+00 1.000000000000000000e+00 1.000000000000000000e+00 1.000000000000000000e+00 1.000000000000000000e+00 1.000000000000000000e+00 1.000000000000000000e+00 1.000000000000000000e+00 1.000000000000000000e+00 1.000000000000000000e+00 1.000000000000000000e+00 1.000000000000000000e+00 1.000000000000000000e+00 1.000000000000000000e+00 1.000000000000000000e+00 1.000000000000000000e+00 1.000000000000000000e+00 1.000000000000000000e+00 1.000000000000000000e+00 1.000000000000000000e+00 1.000000000000000000e+00 1.000000000000000000e+00 1.000000000000000000e+00 1.000000000000000000e+00 1.000000000000000000e+00 1.000000000000000000e+00 1.000000000000000000e+00 1.000000000000000000e+00 1.000000000000000000e+00 1.000000000000000000e+00 1.000000000000000000e+00 1.000000000000000000e+00 1.000000000000000000e+00 1.000000000000000000e+00 1.000000000000000000e+00 1.000000000000000000e+00 1.000000000000000000e+00 1.000000000000000000e+00 1.000000000000000000e+00 1.000000000000000000e+00 1.000000000000000000e+00 1.000000000000000000e+00 1.000000000000000000e+00 1.000000000000000000e+00 1.000000000000000000e+00 1.000000000000000000e+00 1.000000000000000000e+00 1.000000000000000000e+00 1.000000000000000000e+00 1.000000000000000000e+00 1.000000000000000000e+00 1.000000000000000000e+00 1.000000000000000000e+00 1.000000000000000000e+00 1.000000000000000000e+00 1.000000000000000000e+00 1.000000000000000000e+00 1.000000000000000000e+00 1.000000000000000000e+00 1.000000000000000000e+00 1.000000000000000000e+00 1.000000000000000000e+00 1.000000000000000000e+00 1.000000000000000000e+00 1.000000000000000000e+00 1.000000000000000000e+00 1.000000000000000000e+00 1.000000000000000000e+00 1.000000000000000000e+00 1.000000000000000000e+00 1.000000000000000000e+00 1.000000000000000000e+00 1.000000000000000000e+00 1.000000000000000000e+00 1.000000000000000000e+00 1.000000000000000000e+00 1.000000000000000000e+00 1.000000000000000000e+00 1.000000000000000000e+00 1.000000000000000000e+00 1.000000000000000000e+00 1.000000000000000000e+00 1.000000000000000000e+00 1.000000000000000000e+00 1.000000000000000000e+00 1.000000000000000000e+00 1.000000000000000000e+00 1.000000000000000000e+00 1.000000000000000000e+00 1.000000000000000000e+00 1.000000000000000000e+00 1.000000000000000000e+00 1.000000000000000000e+00 1.000000000000000000e+00 1.000000000000000000e+00 1.000000000000000000e+00 1.000000000000000000e+00 1.000000000000000000e+00 1.000000000000000000e+00 1.000000000000000000e+00 1.000000000000000000e+00 1.000000000000000000e+00 1.000000000000000000e+00 1.000000000000000000e+00 1.000000000000000000e+00 1.000000000000000000e+00 1.000000000000000000e+00 1.000000000000000000e+00 1.000000000000000000e+00 1.000000000000000000e+00 1.000000000000000000e+00 1.000000000000000000e+00 1.000000000000000000e+00 1.000000000000000000e+00 1.000000000000000000e+00 1.000000000000000000e+00 1.000000000000000000e+00 1.000000000000000000e+00 1.000000000000000000e+00 1.000000000000000000e+00 1.000000000000000000e+00 1.000000000000000000e+00 1.000000000000000000e+00 1.000000000000000000e+00 1.000000000000000000e+00 1.000000000000000000e+00 1.000000000000000000e+00 1.000000000000000000e+00 1.000000000000000000e+00 1.000000000000000000e+00 1.000000000000000000e+00 1.000000000000000000e+00 1.000000000000000000e+00 1.000000000000000000e+00 1.000000000000000000e+00 1.000000000000000000e+00 1.000000000000000000e+00 1.000000000000000000e+00 1.000000000000000000e+00 1.000000000000000000e+00 1.000000000000000000e+00 1.000000000000000000e+00 1.000000000000000000e+00 1.000000000000000000e+00 1.000000000000000000e+00 1.000000000000000000e+00 1.000000000000000000e+00 1.000000000000000000e+00 1.000000000000000000e+00 1.000000000000000000e+00 1.000000000000000000e+00 1.000000000000000000e+00 1.000000000000000000e+00 1.000000000000000000e+00 1.000000000000000000e+00 1.000000000000000000e+00 1.000000000000000000e+00 1.000000000000000000e+00 1.000000000000000000e+00 1.000000000000000000e+00 1.000000000000000000e+00 1.000000000000000000e+00 1.000000000000000000e+00 1.000000000000000000e+00 1.000000000000000000e+00 1.000000000000000000e+00 1.000000000000000000e+00 1.000000000000000000e+00 1.000000000000000000e+00 1.000000000000000000e+00 1.000000000000000000e+00 1.000000000000000000e+00 1.000000000000000000e+00 1.000000000000000000e+00 1.000000000000000000e+00 1.000000000000000000e+00 1.000000000000000000e+00 1.000000000000000000e+00 1.000000000000000000e+00 1.000000000000000000e+00 1.000000000000000000e+00 1.000000000000000000e+00 1.000000000000000000e+00 1.000000000000000000e+00 1.000000000000000000e+00 1.000000000000000000e+00 1.000000000000000000e+00 1.000000000000000000e+00 1.000000000000000000e+00 1.000000000000000000e+00 1.000000000000000000e+00 1.000000000000000000e+00 1.000000000000000000e+00 1.000000000000000000e+00 1.000000000000000000e+00 1.000000000000000000e+00 1.000000000000000000e+00 1.000000000000000000e+00 1.000000000000000000e+00 1.000000000000000000e+00 1.000000000000000000e+00 1.000000000000000000e+00 1.000000000000000000e+00 1.000000000000000000e+00 1.000000000000000000e+00 1.000000000000000000e+00 1.000000000000000000e+00 1.000000000000000000e+00 1.000000000000000000e+00 1.000000000000000000e+00 1.000000000000000000e+00 1.000000000000000000e+00 1.000000000000000000e+00 1.000000000000000000e+00 1.000000000000000000e+00 1.000000000000000000e+00 1.000000000000000000e+00 1.000000000000000000e+00 1.000000000000000000e+00 1.000000000000000000e+00 1.000000000000000000e+00 1.000000000000000000e+00 1.000000000000000000e+00 1.000000000000000000e+00 1.000000000000000000e+00 1.000000000000000000e+00 1.000000000000000000e+00 1.000000000000000000e+00 1.000000000000000000e+00 1.000000000000000000e+00 1.000000000000000000e+00 1.000000000000000000e+00 1.000000000000000000e+00 1.000000000000000000e+00 1.000000000000000000e+00 1.000000000000000000e+00 1.000000000000000000e+00 1.000000000000000000e+00 1.000000000000000000e+00 1.000000000000000000e+00 1.000000000000000000e+00 1.000000000000000000e+00 1.000000000000000000e+00 1.000000000000000000e+00 1.000000000000000000e+00 1.000000000000000000e+00 1.000000000000000000e+00 1.000000000000000000e+00 1.000000000000000000e+00 1.000000000000000000e+00 1.000000000000000000e+00 1.000000000000000000e+00 1.000000000000000000e+00 1.000000000000000000e+00 1.000000000000000000e+00 1.000000000000000000e+00 1.000000000000000000e+00 1.000000000000000000e+00 1.000000000000000000e+00 1.000000000000000000e+00 1.000000000000000000e+00 1.000000000000000000e+00 1.000000000000000000e+00 1.000000000000000000e+00 1.000000000000000000e+00 1.000000000000000000e+00 1.000000000000000000e+00 1.000000000000000000e+00 1.000000000000000000e+00 1.000000000000000000e+00 1.000000000000000000e+00 1.000000000000000000e+00 1.000000000000000000e+00 1.000000000000000000e+00 1.000000000000000000e+00 1.000000000000000000e+00 1.000000000000000000e+00 1.000000000000000000e+00 1.000000000000000000e+00 1.000000000000000000e+00 1.000000000000000000e+00 1.000000000000000000e+00 1.000000000000000000e+00 1.000000000000000000e+00 1.000000000000000000e+00 1.000000000000000000e+00 1.000000000000000000e+00 1.000000000000000000e+00 1.000000000000000000e+00 1.000000000000000000e+00 1.000000000000000000e+00 1.000000000000000000e+00 1.000000000000000000e+00 1.000000000000000000e+00 1.000000000000000000e+00 1.000000000000000000e+00 1.000000000000000000e+00 1.000000000000000000e+00 1.000000000000000000e+00 1.000000000000000000e+00 1.000000000000000000e+00 1.000000000000000000e+00 1.000000000000000000e+00 1.000000000000000000e+00 1.000000000000000000e+00 1.000000000000000000e+00 1.000000000000000000e+00 1.000000000000000000e+00 1.000000000000000000e+00 1.000000000000000000e+00 1.000000000000000000e+00 1.000000000000000000e+00 1.000000000000000000e+00 1.000000000000000000e+00 1.000000000000000000e+00 1.000000000000000000e+00 1.000000000000000000e+00 1.000000000000000000e+00 1.000000000000000000e+00 1.000000000000000000e+00 1.000000000000000000e+00 1.000000000000000000e+00 1.000000000000000000e+00 1.000000000000000000e+00 1.000000000000000000e+00 1.000000000000000000e+00 1.000000000000000000e+00 1.000000000000000000e+00 1.000000000000000000e+00 1.000000000000000000e+00 1.000000000000000000e+00 1.000000000000000000e+00 1.000000000000000000e+00 1.000000000000000000e+00 1.000000000000000000e+00 1.000000000000000000e+00 1.000000000000000000e+00 1.000000000000000000e+00 1.000000000000000000e+00 1.000000000000000000e+00 1.000000000000000000e+00 1.000000000000000000e+00 1.000000000000000000e+00 1.000000000000000000e+00 1.000000000000000000e+00 1.000000000000000000e+00
5.862712168095301352e-02 5.251010849586479345e-01 -2.866749191235367644e-01 7.774620626534284318e-01 5.237171320070440617e-01 5.476297117006364568e-01 5.727252327964843515e-01 3.896111297614472946e-01 5.660212743728976204e-01 5.267707355086159726e-01 1.086566946880576534e+00 -7.319652826519965627e-01 1.423555522329865708e+00 4.680700150366440271e-01 5.222244207261415028e-01 4.189091287790516205e-01 8.385851581514998099e-01 9.799564121391070026e-01 7.474817263555980640e-01 5.292323509765733958e-01 3.692510598258171295e-01 9.945309689145831467e-01 3.549815981395298969e-01 5.568059824815693171e-01 6.781384568185508388e-02 6.636291863031806848e-01 4.152629956635872643e-01 7.129793034833871168e-01 5.131993161652962376e-01 1.633325452962758773e+00 4.916552581108308284e-01 6.031022279418298826e-01 7.184775789292356940e-01 5.116145029049485871e-01 6.905143886007356624e-01 4.616443299281146606e-01 5.686850340048509311e-01 1.860645449995982359e+00 -9.281653421007492188e-02 5.155080446747845047e-01 -2.231295384960304828e-01 -5.622974790550474555e-01 7.460930797442459905e-01 2.311232968727974513e-01 3.229035772241332647e-01 4.926218790479435783e-01 7.773131500575962693e-01 5.337465251784363485e-01 6.750697058398866801e-01 9.209116808785637251e-03 3.475330734113255687e-02 7.604465565083332601e-01 6.830409189912125534e-01 4.179795167425255920e-01 4.654148654402639473e-01 2.231378094678895460e-02 5.665814975276618481e-01 5.036662716635368353e-01 2.003243802242468952e-01 5.472618176053093419e-01 9.282837989366231612e-01 4.587860760807718208e-01 4.948043392098121496e-01 3.549814562732995227e-01 6.754457054855800280e-01 6.557915867691245237e-01 5.306188573779435647e-01 4.225916698662505189e-01 5.556144606730788471e-01 4.474418628555305866e-02 4.648496139064394739e-01 5.978356859768318987e-01 5.179608657039483921e-01 1.353666169994989336e-02 1.527550966823834289e+00 5.305373775861307317e-01 6.387143163152468883e-01 7.163616495860321010e-01 5.245441387498749330e-01 1.388988453684899982e+00 5.438629323551016359e-01 3.576517595132189253e-01 1.449982120256408713e+00 7.647300207360163693e-01 5.192653883018382155e-01 7.511923139973374353e-01 7.964491342031352339e-01 5.159352500350254944e-01 4.256148487468920938e-01 5.766986543231954476e-01 3.258444007222440209e-01 2.237500575131926794e+00 7.858044497579984577e-01 5.856935627887730617e-02 4.774252832386785550e-01 5.136376089473667639e-01 5.626729171293234355e-01 4.845340916943670639e-01 1.902403727112212672e-01 6.579872191556925820e-01 1.645933813084185182e+00 6.877580583859438379e-01 5.096577929743106861e-01 5.797045144547020579e-01 8.543749288824193933e-01 -2.148524536665081808e+00 -1.251906954860810828e+00 5.148845466998513976e-01 6.246938990835361194e-01 9.678122705005199888e-01 5.930242938126003560e-01 4.199944572690760825e-01 1.840751927468139981e-01 5.097485595217218224e-01 5.283820382522653736e-01 5.022956341606265029e-01 4.549758620134859433e-01 4.928169969995833677e-01 1.002247410594316435e+00 5.079793072464765524e-01 1.319054505378062236e+00 5.370058874529348714e-01 6.429977877076009651e-01 -5.502442887565740515e-01 5.144401347819038683e-01 1.979554431376767232e+00 4.951572131809451327e-01 5.195266211285328728e-01 6.721311529505690219e-01 4.972063640226511150e-01 5.791307070821409830e-01 5.226448072528456779e-01 4.391071785443331765e-01 4.951638084754558800e-01 -3.851631966928143469e-01 -1.727999615342787343e-01 6.754002839104163991e-01 5.024826576460904304e-02 1.011403169484824449e+00 5.432971525386495193e-01 5.386969991668011382e-01 8.754381873938744674e-01 4.843918634996740025e-01 4.779924501470205200e-01 5.220462890559129931e-01 3.164560236730062232e-02 9.774847730986531147e-01 -1.687259770303007056e-01 4.212886548102706130e-01 -9.277980802456818887e-01 7.516902128000721994e-01 -2.838525370288689231e-01 4.926201878681089052e-01 5.394604646811501647e-01 5.391863482841939836e-01 5.296980515657495614e-01 2.044064183995532691e+00 -1.693344280719670802e-01 8.271663166890063090e-01 6.564768853856389752e-01 5.608786283582551935e-01 4.568467911913731139e-01 5.190878594440260230e-01 5.217829750106082187e-01 1.065756112976989911e+00 2.542816168967466095e-01 8.522651109503538436e-01 3.039218124114893560e-01 3.900798336849796710e-01 6.372538981847837292e-01 6.139376417246837914e-01 7.766708646179922848e-01 4.926049604949352956e-01 5.255535555027426309e-01 4.027159629488545889e-01 4.520980772149398030e-02 2.225464233149309634e-01 1.109848583413963335e-01 7.578320626557607520e-01 1.144203195426400699e+00 6.651092260836712899e-01 5.178830266272462790e-01 -1.659442393705512497e-01 4.446184032975858957e-01 4.467396189495266290e-01 5.294482130596652736e-01 5.267509878413288993e-01 5.016689624029101457e-01 2.873706648562821542e+00 4.786302966638277812e-01 5.698147206341329651e-01 -9.268502852436383277e-01 5.130695014286675848e-01 5.015157006579369359e-01 2.021048349722335546e-01 5.233279639141741324e-01 9.466578153763097747e-01 5.068362035612057337e-01 4.258873411127181985e-01 5.623629971202538380e-01 6.334881693288059168e-01 5.266477751718201539e-01 8.459290171185359641e-01 6.024418932209445465e-01 5.432069364668509204e-01 4.258873076671879643e-01 1.929708636706994607e-01 1.302215460148146375e+00 5.523840172707285001e-01 4.862047648840089331e-01 4.211808858141524725e-01 -9.668094276364661011e-02 4.992186150110578535e-01 1.543916561520476682e-01 5.288320457976434241e-01 5.262105956984740596e-01 5.240078298640259424e-01 5.255784180585852949e-01 5.187742606531338119e-01 5.248897164135172266e-01 4.414185610143733229e-01 5.566481733646507779e-01 -7.227709012458213289e-01 6.265823437194425471e-01 4.753943337407250391e-01 3.508913190085180545e-01 5.553093607984822475e-03 1.342471391665450708e+00 9.733403569502901975e-01 4.899960464713465358e-01 -1.019177863930740280e-01 1.068308997425636120e+00 5.203981136385289474e-01 4.740407493926465099e-01 6.646328814455986222e-01 4.064229347605680664e-01 2.480526371295478649e-01 1.635288942696731251e-01 -1.662879865904516585e-01 -6.309857476931228504e-02 5.188061052996676414e-01 4.984025193771058904e-01 -1.200986225190514706e-01 4.401242000511372821e-01 5.247334638640245297e-01 5.242423900473954790e-01 -9.266378704666292099e-02 7.634272489325648614e-01 -2.381732739249285302e+00 6.170217003325957350e-01 -6.734473453897068529e-01 5.003165727511331706e-01 5.195234926006232490e-01 3.549815730903835842e-01 4.900821216729906449e-01 5.542646288212823569e-01 5.104742821368279948e-01 7.887120948659473996e-01 5.722479825255356589e-01 1.702746994796046076e+00 6.839648333232503097e-01 6.772247398749182690e-01 4.519557901708142200e-01 4.071910206701829238e-01 9.282838249370619632e-01 4.802866090358512974e-01 2.748263572356969942e+00 4.465312553541562757e-01 2.194997077741873137e-01 7.709286569112407950e-01 5.126575161031561301e-01 9.277071758898007836e-01 5.231099426653548212e-01 5.814225968142827661e-01 5.233098194032699269e-01 1.154967991770128322e+00 7.661179412730637628e-01 8.561088561253369367e-01 7.993566396887561432e-01 5.851513166160284829e-01 6.855690268964190759e-01 5.076972603744832613e-01 3.722809298167201741e-01 -7.501339227234148366e-01 3.913345458338053362e-01 4.341345390515627400e-01 5.487786911206838925e-01 4.984589489280721875e-01 5.022957077105140167e-01 6.120296524477354394e-01 5.134376255322561367e-01 -9.301802732989460365e-01 7.649059886280240583e-01 5.072978378164594293e-01 -1.414105245776017643e-02 4.589015776772490396e-01 1.860734092834333442e+00 5.068289617494896593e-01 5.232822135755358373e-01 4.212972235576792346e-01 -3.513058613056738277e+00 5.231881616512955580e-01 2.955171781803193287e+00 7.773118114898778241e-01 5.273305851715164305e-01 -5.696917757248730618e-01 5.164140374144857715e-01 5.224665979985250175e-01 4.548710056495304244e-01 4.494647322749875107e-01 3.365015365123756874e-01 6.517906626483310761e-01 3.137956984746567146e-01 5.252688492976083090e-01 5.185360859907249820e-01 3.560610007885399719e-01 5.279890137150832219e-01 7.776117040492522836e-01 5.207963128425536770e-01 1.214916111836147783e+00 4.166171836332783346e-02 2.242330538850982879e+00 2.688412001983662591e+00 4.840268739164692580e-01 -2.376996170513678286e-01 3.873661128783288943e-01 3.997264455489435431e-01 7.428645762519306972e-01 1.399389001291252654e+00 5.309999818944404204e-01 1.136898113995340465e+00 5.209847220558397884e-01 1.187855452559359037e-01 1.262197569364354788e+00 5.635501330152768995e-01 5.660715710326366112e-01 5.314553014815918131e-01 9.094961398153299514e-01 -3.855884959749434238e+00 1.662271503650896820e+00 5.308102694508172181e-01 6.350314657961053655e-01 5.259706542889143188e-01 1.860645457126005597e+00 2.952291915363176589e-01 5.653794586833554847e-01 4.782188096115908560e-01 6.092030245419705059e-01 1.369825072754459416e+00 5.244613188240683233e-01 4.258875331389605501e-01 4.401194934795005231e-01 6.024418999450250611e-01 4.214159205688105536e-01 5.707545734744342569e-01 9.040345179962194777e-01 5.215429918196090586e-01 3.811943472297384394e-01 1.423226228239805602e-01 6.557412946219070005e-01 5.235424558052459432e-01 2.831960681736135355e-01 5.653794440936039667e-01 6.227370381644556918e-01 5.258486017811120350e-01 1.048596890032932327e+00 9.321698390992945171e-01 1.161561451174411230e+00 5.213553369469994259e-01 2.129301207459896872e-01 9.282844362886881751e-01 -1.099331478853906030e-01 9.338408445756511966e-01 6.306233783654890956e-01 4.244576954996622659e-02 4.492468285292552377e-01 8.896856646662720802e-01 3.839202673836822344e-01 4.799336126457362517e-01 3.175438485503104813e-01 -3.414404258720006857e-01 -2.531657670219738865e+00 5.445272057296853818e-01 6.024418968560124599e-01 6.024419428645093610e-01 5.155960825009547888e-01 3.569107913289504830e-01 -2.398569406486100730e-01 2.808417848564273012e-01 5.210844325440249225e-01 7.128505607626840490e-01 5.241335821389363492e-01 1.021420796577029000e+00 4.258876792329031602e-01 5.236394067190385249e-01 4.970396541493584119e-01 2.932292161494738925e-01 6.621771726393490543e-01 5.251289905776219680e-01 5.195241646326704821e-01 4.944287773129604213e-01 3.184935142422004040e-01 2.049061060423521680e-02 6.024418969999716378e-01 6.637890320862857019e-01 5.216913806707206280e-01 3.903489856868189167e-01 8.602153012228556106e-01 7.642372092943457984e-01 5.646919586407508351e-01 1.924925632031103007e+00 4.884786183526967362e-01 -3.206522879763329392e+00 7.770720477826726924e-01 1.548450747505377922e+00 5.935538520429993747e-01 -1.117288135999047416e+00 8.484441728302680730e-01 4.352302005633543192e-01 5.335789559489086953e-01 5.323535270374513129e-01 -4.446762482540715378e-01 5.037483952378151164e-01 1.078779003346191034e+00 4.470965785858163066e-01 -4.101825947626308033e-01 5.110184582909393924e-01 5.357992426090699700e-01 7.953497923623813470e-01 5.013070135917359060e-01 6.088522636146305178e-01 -5.492893808232162112e-01 5.611652487054022975e-01 5.204654234257333201e-01 5.315976850785069097e-01 5.330372946764326825e-01 7.707456747395499130e-01 5.234096820811755535e-01 6.266346015373642775e-01 4.246182911186755504e-01 5.196115565214490806e-01 2.342213575331280329e-01 3.350782380017031659e-01 3.666819679021444123e-01 9.742251113666781093e-01 5.589429915915100633e-01 3.264002736641024249e+00 6.554337748842339328e-01 6.657163140414306124e-01 5.442474815358110396e-01 5.404227771714422701e-01 1.453581873151077279e-02 4.949283871537744628e-01 5.351334386657379261e-01 5.172606767052799759e-01 1.155935699470925559e+00 7.710188173172797255e-01 5.154159459181039127e-01 4.368498221980878227e-01 1.119946874715734175e+00 5.184024843497178070e-01 5.622089004754370345e-01 5.333154169759931618e-01 8.558302941809126096e-01 5.191124541449378960e-01 9.481028581908012010e-01 5.056945451497635302e-01 5.231636689994551004e-01 4.039048244519889697e-02 5.344024247133519756e-01 1.731042852431326218e-02 2.865338865029785076e-01 3.986881833341381909e-01 5.738327761453633213e-01 7.897351095768659901e-01 5.268571614768829958e-01 3.831472965050142787e-01 1.247775681309694490e-01 5.010395492218511215e-01 5.157317138855301852e-01 4.419479261468340359e-01 3.143193537379472373e-03 5.222403769590500122e-01 2.668221874391849546e-01 5.248871148561012889e-01 4.087313509774554432e-01 1.264178197157909800e+00 7.517650868316871904e-01 5.061257863900344711e-01 2.457046033109660799e-01 8.115430981032729640e-01 4.507282973072013754e-01 1.003957153602761165e+00 5.745494545756539839e-01 6.241870448274180472e-01 7.089368167774343643e-01 2.032901688008139196e+00 5.025498395666044837e-01 5.614313399951053052e-01 5.151530744695821395e-01 7.646676366244831158e-01 6.126805494477024494e-01 8.718238464601801851e-01 -5.867683756080763757e-01 4.138469174405363105e-01 5.242922875149674811e-01 4.381465751393804342e-01 4.501970444738115917e-01 -6.410478075116088359e-01 3.848304733488435159e-01 5.266238547007927595e-01 7.227575902340696024e-01 6.701325838404299517e-01 1.560648067742054890e+00 5.237057596133373183e-01 5.234758630907676569e-01 -7.355176881643891162e-01 5.173036507085317925e-01 1.247927045782566191e+00 7.267595065002288024e-01 2.928896284901210123e-01 2.310383814440548911e-01 -1.857625487151369770e+00 5.667394168437142055e-01 1.939804642520440159e-01 1.110839278913588579e+00 8.289126431886646440e-01 5.467575534602767684e-01 5.604886689945923761e-01 5.466058053956726059e-01 7.770073015609493261e-01 4.185360226489079905e-01 5.526110693533426987e-01 1.172691334411785080e-02 5.991921891993116089e-01 5.096882145056675917e-01 3.896447431781548953e-01 5.153718171160077688e-01 4.357249085720227844e-01 1.238989939886550040e+00 -9.599625139789934314e-02 -2.472047443852692372e-01 4.101312895792198487e-01 5.165433107309036487e-01 5.270737509805119014e-01 4.986414907671787855e-01 -8.906658057445990817e-01 3.227966924350919253e+00 4.681673284418843561e-01 4.374280451035281736e-01 4.559404112541839416e-01 5.183468214778697014e-01 5.047950414369968275e-01 4.770498087556025446e-01 3.286051227520554452e-01 6.152789753513790982e-01 5.221470719938970939e-01 4.600629014175275922e-01 3.145898147751797214e-01 4.033934890271436147e-01 5.673145567995282468e-01 4.050801071642993745e-01 5.530312633243774645e-01 5.159313285553661643e-01 6.834187537422773406e-01 1.027027871606218001e+00 2.351058066298743920e+00 4.925448096693621491e-01 5.012360132932210943e-01 3.360002186069488972e-01 4.739960466610425027e-01 3.881098969124480158e-01 5.202595073540097204e-01 5.290154417360076744e-01 4.907064515032439345e-01 5.854330957405418090e-01 5.544881378007128214e-01 7.773996664484158492e-01 3.644601834482359970e-01 3.880079360409475209e-01 3.943379842253549317e-01 4.837165754510374116e-01 1.044470796532797341e-01 9.282838100469276155e-01 5.321960263849553341e-01 8.461703261825913314e-02 1.914714344752916686e+00 3.264493614238048735e-01 4.019902520731711837e-01 5.977933260998642417e-01 6.635401269606969188e-02 5.539397504951406592e-01 1.536898774381880939e+00 8.065623751678590025e-01 6.876459168403724620e-01 5.242974821381056749e-01 5.125260268891824733e-01 4.234943612920239464e-01 6.372472121481080887e-01 5.115449439069815751e-01 5.255930931779050352e-01 -2.774655937803364170e-01 4.719637308636520645e-01 -1.619418113077400134e+00 4.979715086892820275e-01 5.243170085596430274e-01 5.304621566792835363e-01 4.213009097643948264e-01 9.282838099584515001e-01 2.253926416105054287e-01 5.056221575675158286e-01 1.376487465381090125e+00 -5.862557588864052427e-01 5.236428570377089642e-01 1.160116227049432513e+00 1.567624422864494216e+00 5.917586699032932884e-01 5.240014569018022206e-01 -6.742065743214967211e-02 -1.728223221949304333e+00 2.672247215707115875e-01 8.483908693936245138e-01 5.348370638906011498e-01 5.209833035777542420e-01 6.197221023293059128e-01 4.797930149636265296e-01 -4.298765444136862235e-01 8.375819943148365976e-01 5.022956706861333442e-01 3.243178677550294653e-01 5.054824415792732450e-01 3.135585173037742750e-03 -1.637095870794351704e-01 1.839006728670788293e+00 4.103641871852801715e-01 5.142412512080039022e-01 5.249868124895312738e-01 3.194521337764999469e-01 4.916700213842463696e-01 -1.474797808692066559e-01 -1.352575363902779104e+00 5.176141027333561739e-01 4.840407781907011819e-01 4.825880384264395473e-01 5.463182009430522790e-01 5.300191173154050750e-01 5.471441398093038755e-01 5.132006689606970484e-01 5.573159762227544167e-01 1.041331593582948134e+00 7.108130625454195384e-01 5.304601844757897977e-01 6.348647678073302547e-01 5.483772308922306715e-01 5.566763633846472104e-01 5.889509442259064503e-02 5.653794165927344961e-01 4.263573503634118245e-01 5.772920278124213933e-01 7.505170622860688479e-01 8.319533155920271206e-01 8.718198433260743174e-01 -5.508660169071560864e-01 5.289918603282606213e-01 4.741608881698560207e-01 5.187953065595929392e-01 5.967519128504662485e-01 9.158849721771432639e-01 4.868699641804295486e-01 5.178831549011331248e-01 -3.120439295861496265e-01 -9.057659436088596472e-01 2.352107630544711725e+00 5.138304103856293770e-01 9.066779811235219366e-01 4.153734695103492025e-01 5.784385298376414353e-01 4.027198628546778680e-01 1.527718063501204149e-01 5.237684051874599289e-01 5.111683907418493877e-01 -1.282917570623634670e-03 5.203703387350235854e-01 4.564185695193406223e-01 5.184072127874301827e-01 4.833183325209357561e-01 5.232895127505312605e-01 6.401192351815645498e-01 4.304700685453173303e-01 5.652447990088965701e-01 5.247058560005678496e-01 5.295415650023717058e-01 4.149283927097134894e-01 5.207861908669531026e-01 -2.463581153047245398e-01 5.180690612188939559e-01 6.414437186479217123e-01 5.567626119926675221e-01 7.774986042522713525e-01 9.282835078460029976e-01 7.247987746781034968e-01 -6.194150693625303239e-01 9.776859264321717813e-01 1.860645449957729625e+00 5.107021169662190330e-01 4.637446879500843333e-01 1.090036208296115250e+00 5.612473153422266048e-01 7.776632646711002517e-01 5.253954440460004705e-01 1.890848692312849577e+00 5.245061929580961957e-01 4.401232714416918324e-01 1.236921002404422820e+00 -6.848663082033666638e-02 4.979898105965631649e-01 -1.523044275919078483e-01 -9.925092749685711091e-01 -1.639728558879468001e-01 7.755010814934554242e-01 5.675596774421418633e-01 5.269503165830154989e-01 -3.173998445135915447e-01 5.487601837472210198e-01 4.942695681179727629e-02 -4.174824705149311477e-01 5.463428469842023238e-01 5.241322443943120524e-01 5.202557564710414972e-01 5.066546177914534876e-01 4.725423683785431317e-01 9.201845005379909459e-01 -4.486391278944839578e-01 5.247781998214994248e-01 4.961828345100015580e-01 5.787765805659625951e-01 1.177867042956794119e+00 4.800537793094587502e-01 6.942931116474788666e-01 5.246016649529575693e-01 4.960952382455240811e-02 -4.445182810399348483e-01 5.496241427041228533e-01 5.401333307990346944e-01 6.875879524702477319e-01 5.119729443802449875e-01 3.776755448776412671e-01 5.230862536168436883e-01 5.224730002659551120e-01 4.164429713310923153e-01 5.401780286740223147e-01 8.414451612115505519e-01 2.603454400143826675e+00 -2.519503821086936379e-01 6.559184393413445280e-01 3.487530891510430830e-01 1.990310496850286603e-01 6.507593424951675365e-01 -5.481073983897263857e-02 -1.600939005643986279e+00 4.974526760114288959e-01 2.666260256504766168e+00 5.909796733262823176e-01 1.712462526403953911e-01 1.534398907416981983e-01 5.022956355618142243e-01 5.930707870556531924e-01 1.589664742246018836e+00 5.215050710654270949e-01 1.259485623205224558e-01 4.127972044482555725e-01 1.747869571263759525e+00 5.979565440080644168e-01 7.974124508351899676e-01 5.189370893098859128e-01 7.377765829638806006e-01 4.663027749940841238e-01 5.834977144258371995e-01 2.727096799330741214e-02 5.168732336436446806e-01 5.835108508921981185e-01 -5.868218963682763079e-01 -1.079413243288004087e-01 1.184013842752638768e+00 2.406180845998963647e-01 4.784617617848068161e-01 7.237028202345110461e-01 5.128207924326234624e-01 2.026375421475792749e+00 6.583754854240114751e-01 1.581175813217344447e-02 3.764763639921068772e-01 3.983814624592925124e-01 1.146812966609046303e+00 5.025604500151975573e-01 -2.401090022409445301e-02 5.157140606479135858e-01 -6.047617427629021526e-03 5.193779513185068364e-01 5.275632078264629321e-01 1.167231840457680185e-02 -2.152604817871379972e-02 6.593996984838058628e-01 4.963514869872940882e-01 5.901841830058762728e-01 1.849819527980185452e-01 4.043159602811580156e-01 5.303295299179704436e-01 4.481433719347650557e-01 4.871301852910995267e-01 4.797213128384012482e-01 5.787468662112440487e-01 1.021763408375457205e+00 3.188395593947562112e+00 9.672322098469730012e-01 5.322315522010258038e-01 5.613881242913516534e-01 2.189898948349387475e-01 5.218171550469614672e-01 8.610726492089467721e-01 5.098273321608010056e-01 1.317237600361871763e+00 5.018665731639341265e-01 -5.953880299943952181e-01 -2.088863271712076627e-02 4.284032646551339529e-01 6.161190895462169692e-01 5.781102782510906257e-01 5.202779232894402250e-01 5.872545790177918085e-02 5.222588400277733411e-01 5.377701133550184531e-01 -3.854854581103256628e+00 4.781813756988693154e-01 5.179797378870855118e-01 1.141342973518868043e+00 5.262963476711309818e-01 4.140387034923638243e-01 6.702771991265684681e-01 -9.165915974208965755e-01 -4.984602230069923867e-01 2.348928280938157587e-02 5.201977916478381925e-01 6.002677849390973819e-01 2.099957459775029789e-01 5.125641949615007409e-01 -3.475254720920432638e-01 5.491012524076429591e-01 5.591492585514585834e-01 6.968814848796797135e-01 5.553887094162003324e-01 4.667028486419311784e-01 1.439033454102082443e-01 -7.882087215006733372e-01 6.549513871428670475e-01 5.633255145881966852e-01 1.542766489255353590e-01 5.245829815457968559e-01 5.174762992183083998e-01 5.125164733122835603e-01 6.659548209578299849e-01 5.815294965917110481e-01 5.508104103038626853e-01 5.045734479916883508e-01 1.860645453241278391e+00 3.492719341772391739e-01 5.311331042297318117e-01 -1.390018404816482922e-01 5.178776385306439467e-01 6.427930800230816644e-01 5.311337991339214470e-01 4.824772563076027976e-01 3.731897818476998530e-01 9.597626350864238987e-01 1.229082816920282983e+00 5.539129537312853513e-01 5.858129967561176432e-01 5.971341149523629044e-01 4.971532344275333415e-01 5.352193319035967178e-01 5.220328004550882639e-01 9.777275437311201411e-01 6.815679174269809737e-01 -4.661160810134959420e-01 4.661922879710641010e-01 9.014816729941267370e-01 5.147346811367270458e-01 -3.912986371991501733e-02 5.282472631075840752e-01 1.512875940206341197e+00 -1.382740055391985246e-01 6.572504127409776187e-01 2.342082114191191278e-01 4.706004211544895233e-01 8.726982671220787635e-01 5.228334178144403710e-01 3.742946375514023538e-01 1.412879971158078174e+00 4.696178432005350678e-01 5.164295799128187925e-01 -7.138931326653618070e-01 4.406106292301261163e-01 1.039170697398993148e+00 6.260140065082440142e-01 6.510077269793206056e-02 9.945637828053932594e-01 -1.636109259668625665e-02 7.373757300813723603e-01 1.660812344091790127e+00 -8.685284497575599394e-01 5.775042198920726788e-01 5.224840344606884734e-01 -4.826816707421893171e-01 3.015221412101802834e-01 5.701980156145535217e-01 5.169234320341620226e-01 4.753305322088220985e-01 4.316084290879189655e-01 2.626653610693882590e-01 3.489000362702177060e-01 5.761654467960454218e-01 5.215790367033874553e-01 9.185340165760339654e-03 -1.606363205081952905e-01 5.182807403283733461e-01 1.069344489771535844e+00 5.461100633926671000e-01 -5.863333464113590354e-01 4.415899877296357579e-01 5.231910240192522155e-01 5.659968191669940696e-01 4.756937925430144293e-02 3.240520779926311379e-01 5.243959692603546996e-01 5.294796456653007022e-01 4.533985428156165898e-01 -1.331626668577930162e-02 5.574354955926165145e-01 5.335543493035038720e-01 5.739170785862732771e-01 2.111469387537605602e+00 -1.408469047676106159e-02 3.896034708256224666e-01 5.744438454182697606e-01 1.859158472929195227e+00 4.844801103709342471e-01 5.586122091039485982e-01 2.756420751547197789e-02 5.653794787654579101e-01 5.216103229031772148e-01 4.780053195760325946e-01 4.006811824143278189e-01 5.287116172456665097e-01 4.359679023100307971e-01 5.208997447585317353e-01 -5.642003686401755314e-01 5.246636868050259528e-01 4.956043596425920850e-01 5.189239090969074431e-01 1.266320570664766665e+00 5.164404585437220030e-01 -2.496365310647483404e-01 1.131495507042020066e+00 -1.323633185694330638e+00 -5.464692228453678080e-01 5.433270671670957785e-01 5.235041616589598545e-01 6.671248371603344385e-01 5.185139036094938980e-01 5.086178410726144294e-01 5.071744712417329826e-01 5.653794764462559685e-01 5.235837520134511980e-01 5.158799819519918062e-01 6.040696105450013009e-01 5.201895307737490759e-01 3.207586074096948625e-01 5.240842892609121062e-01 5.404266054242997663e-01 4.095007823106663336e-01 5.251756460650048863e-01 5.180377514340199774e-01 5.153622805814428443e-01 6.545644620289660098e-01 5.209823161595970031e-01 7.225296412857939998e-01 5.158760845611335411e-01 5.365314284549088653e-01 5.370947159321216580e-01 4.222296970514727854e-01 3.568262220103273763e-01 2.482755457454622672e+00 5.125568991076168146e-01 6.291463482012978892e-01 2.965315472594520219e-01 5.787717946299274496e-01 1.121976093752793391e+00 4.151795649303362534e-01 6.893807182590685478e-01 5.217721279586272631e-01
7.175899691554268323e-01 2.950900604908558988e-01 4.515050492734592469e-01 -3.476283636853130798e-02 3.089940090147569318e-01 3.943405085022644307e-01 5.392055758264975296e-01 3.902761474782091011e-01 3.776629527017570376e-01 3.129665748518342117e-01 2.085250869535967500e+00 1.738822014222853429e+00 -1.478211886627178506e+00 5.838855112716976326e-01 3.093593719039462453e-01 4.639047278409164088e-01 1.362567859361618894e-01 4.489913340127359986e-01 4.056458593405676827e-01 3.042737485953069809e-01 4.120448946350354635e-01 2.157960139206037464e+00 3.517458221045036137e-01 3.430796590547862679e-01 7.543619209353633615e-01 -1.666442693867362379e-01 4.047519993689004947e-01 1.855250746232475212e-01 2.962879654278544606e-01 -9.338766910495313045e-01 4.517393116723671387e-01 -1.623266740109843287e-01 2.893382645446562207e-01 3.155737568817961192e-01 -4.097633035841697913e-01 5.041303054255297234e-01 3.343203556364502949e-01 -3.967301458026062932e-01 -3.315935607831820064e+00 3.332433793630381058e-01 1.203741896012399337e+00 1.466878736172687325e-01 -1.694786803614667936e-01 7.914968505115865804e-01 5.528562589444141473e-01 3.182001567732637981e-01 -3.470266728416718932e-02 3.087286347070682946e-01 1.322445001944165532e-01 6.535115580651539302e-01 6.927671357542053432e-01 5.072736792120503546e-01 -1.448398228852845748e-01 2.452433684548261383e-01 5.910654293002550741e-01 6.607927751539185435e-01 2.929882684699253725e-01 2.557728664001052143e-01 3.449289863296515213e-01 3.135357085112999709e-01 4.339593057174480073e-01 4.382879325012997707e-01 3.446269553236366301e-01 3.517458404179190645e-01 -3.413884177593899394e-01 1.187429273442829614e-01 3.074687604386640016e-01 3.074282812791809261e-01 2.457944765818907973e-01 7.030907589374250088e-01 1.661684522048689772e-01 2.470013375687656609e-01 3.056330123937768817e-01 7.229917129342783300e-01 1.950226821162917679e+00 4.077971376026024442e-01 4.788301072735392516e-01 4.829115514469728976e-01 3.090957639664664303e-01 -1.361097688456972321e+00 3.247113408778239396e-01 5.334321814807432283e-01 2.408941839347956471e+00 6.709860054124387740e-02 2.475332746405582707e-01 -3.489344352091258705e-01 1.428757385865375151e-01 3.237224888725740990e-01 -5.853004000374889548e-01 -9.147296691060315954e-01 5.528595164251299821e-01 1.617298333946646904e+00 5.205448787231067853e-02 6.809025830173776050e-01 3.683667034925000583e-01 3.497189182304991650e-01 2.730906853737604667e-01 7.876031956822215907e-01 7.364168572615460429e-01 -1.605984706593929223e-01 -1.829374686272149664e-01 5.620209403374771401e-02 3.285836655548920460e-01 2.183345576830180435e-01 -6.189789644560279164e-02 3.179282993821526127e+00 -2.962732444297270784e-01 3.599516181416796412e-01 7.535963263212505647e-02 8.123396201457501187e-01 2.791288535395666237e-01 5.306741711970647257e-01 1.617875341452892080e-01 3.584611075109978007e-01 -4.720749996669497683e-01 2.853696211038922459e-01 8.651468191874452096e-02 4.079311871797641209e-01 1.190112635176736378e+00 3.455975303339164362e-01 -1.479124833062671396e+00 1.217128977758854258e-01 7.007078263256122375e-02 1.488127006963383847e+00 3.127798913730714392e-01 2.210493687158324061e+00 3.896956101451911625e-01 2.013797855188487473e-01 3.139893808017747978e-01 3.142059507319993616e-01 3.436005845780732426e-01 3.084548841371900219e-01 6.710612130280669829e-01 4.130761572170177920e-01 1.594713216233065445e-01 8.542694436557418669e-01 7.295484667649233534e-01 7.051117440147429694e-01 -3.412429606573340601e-01 2.250829776794591175e-01 2.966629733841270600e-01 3.221556142942570977e-01 3.606611314681903435e-01 2.611987282853971970e-01 3.071411973916223226e-01 7.010649510556234976e-01 -1.842421516721721442e-01 3.194050377047418787e-01 4.198130539289429697e-01 4.040567256562758724e-01 -1.938960079613936127e-01 2.889914833446555545e-02 3.182031837820594733e-01 2.913002555937403981e-01 2.736520773135083795e-01 3.073317422901334917e-01 -2.512321638834024817e+00 4.704121090151340279e-01 -6.104474372380788161e-01 -1.641974266254936088e-01 1.391032807398802640e-01 3.876071507925875625e-01 3.109893563698740704e-01 3.077074900366497667e-01 1.310151625497000261e-01 1.217636870831437512e-01 3.203422682994436776e-01 4.915860316267663954e-01 4.634982976911733998e-01 2.741395727283074124e-01 2.320720306646342768e-01 -3.564315049295464777e-02 3.181388628585881118e-01 3.126306137933475005e-01 -2.543370468599825962e+00 6.683183477899302671e-01 5.708547521776734524e-01 9.323244081276365058e-01 -4.611490764034458234e-01 1.175095047410247506e+00 4.906162679136662902e-02 3.194264643543611171e-01 1.247742472797142899e+00 3.666815207402255861e-01 3.136629310975533325e-01 3.353444844567959326e-01 2.850884820643148632e-01 3.341010769299012084e-01 -5.030946714585029511e-01 3.366320522477745936e-01 3.385222078236203580e-01 8.261225689366115121e-01 3.257383601911249538e-01 3.685744863341037791e-01 2.506866018135730512e-01 3.100598045931301505e-01 -1.700615344099499771e+00 3.163329639485991107e-01 3.631363408881208565e-01 2.655915139341784581e-01 3.303980061536737622e-02 3.871390644947185211e-01 3.906238088246382079e-01 1.526791179387601283e-01 -7.556770819636734471e-01 3.631363329441311127e-01 4.944372063783104565e-01 -5.255092842470322489e-01 3.360879694067946399e-01 2.282602562400916912e-01 2.292447067048926090e-01 -3.316413124338835949e+00 4.213793877958859069e-01 9.117426145974618645e-01 3.167657130825577982e-01 3.080310457457071660e-01 3.087520340446683331e-01 3.311217221542440137e-01 3.064381539973768942e-01 3.075078454973404485e-01 3.769537738600753363e-01 8.717090665401441840e-02 6.730304353069006540e-01 1.070887222087533314e-01 4.430420562808392582e-01 5.284209806944776266e-01 4.110583085558517369e-01 -7.088681747785561260e-01 2.340069241201113925e+00 4.101304563819563875e-01 1.253844552904973098e+00 -1.403616907585143236e+00 3.048703865499289845e-01 2.743344301351033909e-01 3.469265938680104466e-01 1.196195808483649481e+00 5.291218672994764116e-01 8.362785256491174213e-01 2.889856792669473484e-01 6.663122733903285022e-01 2.251219721747919067e-01 2.873329144519979894e-01 -1.194936478346125597e+00 4.216216416993202043e-01 3.112589316890186364e-01 5.048985972230097818e-01 8.743741451134214859e-01 -3.842220248857148301e-01 3.232505460147429677e+00 5.013399292955883491e-01 1.310432127954938686e+00 -2.993312327364947012e-01 3.064511700195247101e-01 3.517466845956720989e-01 3.548457250867943502e-01 2.630602203942124517e-01 2.985125546521129047e-01 -1.589008059053577393e-01 8.952298315267891160e-02 5.628150873975928947e-01 2.368591294741328179e-01 1.038625102105327491e-01 2.393520451534889293e-01 4.867693508154001258e-01 4.339592738877312561e-01 2.557370620783807058e-01 3.307845700980580617e+00 3.423441556545261388e-01 6.508042046542931169e-01 5.213858712796983763e-01 2.509747368292157832e-01 4.344459414248638685e-01 3.112783458758431876e-01 3.007361766150823956e-01 3.090759319919360593e-01 -6.254789657453376783e-01 4.147996959584027143e-01 2.851300698133414913e-01 1.465695100241320714e-01 3.455892787520281062e-01 1.556671978354648544e+00 3.734204933511793278e-01 3.215857842048293058e-01 2.013328133337684012e+00 5.115897592729253818e-01 2.949308782084978375e-01 2.813197705138716365e-01 2.931459795026676307e-01 2.853698724548229260e-01 -2.077131485785738807e+00 3.305575369289293630e-01 1.600254058463591811e+00 -8.711680029254414981e-02 3.576178687577550308e-01 6.624436846863517303e-01 3.375725445332455332e-01 -7.325264279117645883e-01 3.657995413091481018e-01 3.162901894909018741e-01 4.198409688079782209e-01 -4.047190170833279144e-01 3.028665081426799577e-01 -2.363709070703221560e+00 -3.490683564663235594e-02 3.040729969328931359e-01 5.971871328801509060e-01 3.104190281024153397e-01 3.095976772347150408e-01 4.950876094485099355e-01 1.684805634228070947e-01 -7.967614649149565298e-02 -7.768727185954654724e-01 -3.977023429351489794e-03 6.883232966777531603e-01 3.070627284032394488e-01 4.993309260889323142e-01 2.900233786104162159e-01 -3.459346801381084358e-02 3.159602247370851269e-01 2.482382431228840503e+00 6.788175788175189185e-01 2.472112703870356087e-01 -1.184794415461659201e+00 2.406986985280113178e-01 4.792453733139650396e+00 4.071628929354337290e-01 -1.907812967589517517e-01 5.720287024636964146e-01 -5.699022788541613593e+00 5.327025699533388670e-01 1.581984217997691511e+00 3.079410407155638851e-01 5.242554637073806312e-01 -4.552237574470474057e-01 4.320404176918358763e-01 2.567324971358442287e-01 3.329291077325678416e-01 2.147581880815637168e-01 2.996244050717899121e+00 -3.833526894729832324e-01 3.020646516176546670e-01 -1.938978288500232905e+00 2.982649111047434576e-01 -3.967301478395550141e-01 7.592038065815844838e-01 4.979317846944552040e-01 2.596122616186212761e-01 2.835602548379133059e-01 1.263847695363361501e+00 1.571612308630835619e-01 3.631363265492464909e-01 4.216263195389634566e-01 1.526791092451197096e-01 3.704850356005862655e-01 3.864598605397539521e-01 -6.244836494745439337e-01 3.087533993357752249e-01 5.619484852277156772e-01 4.039658451416915930e-01 1.781566037205444264e-01 3.069923869042258113e-01 5.081412842549603015e-01 4.979318839940397035e-01 5.003946802672920580e-01 3.044130995188207289e-01 1.663081461094283453e-01 3.816249740737744922e-01 3.520089514807968278e+00 3.011303423800734125e-01 1.070519453313584640e-01 4.339582345614109160e-01 8.373648922526302218e-01 4.698613914747327147e-01 -1.937299899127597202e-01 6.868958597621710460e-01 3.523183879103199967e-01 1.265838553459955329e-01 4.222831698675255097e-01 6.805636708378224320e-01 5.362550902051407276e-01 7.969700943771862445e-01 8.228058724133887614e-01 2.554039621485923450e-01 1.526791179704099222e-01 1.526790427881296874e-01 2.513001061060092800e-01 2.145208527246253438e-01 1.119678076670210576e+00 3.884522600345450272e-01 2.954173307925372360e-01 2.748307886903793018e-01 3.110014205638850227e-01 7.476399487954623613e-01 3.631357335056016322e-01 3.084644618995818766e-01 4.249234846222816886e-01 2.054317414654479590e-01 -6.415399789029557764e-01 2.900214595043644206e-01 3.073059026226205859e-01 3.738873456515943161e-01 6.705629564731576675e-01 6.681149895360717350e-01 1.526791191875001563e-01 1.326163713886036599e-01 3.027496210301506840e-01 5.132720321489023796e-01 -5.954556749810515637e-01 1.742381739396254570e-01 -3.582500630604068537e+00 2.027684752695646964e+00 6.311180270292710004e-01 -4.836892834747504311e-01 -3.477083620437949885e-02 2.087004307163286665e+00 3.225598438535979828e-01 6.514788829332134323e-01 -5.675129409847987083e-02 3.930486780791899171e-01 4.000113372630699216e-01 3.001196679456025751e-01 -5.500745444533210460e-01 3.664070277903253015e-01 2.093499638424423548e+00 2.278139266308460975e-01 -4.614095555910900370e-01 2.952064410355730306e-01 3.070642270525010820e-01 -1.465864367189767314e+00 2.807372140908964697e-01 3.712938416438376077e-01 4.035320321562443358e-01 1.160657203761307488e-01 3.048760059047338489e-01 2.142304901263048789e-01 3.232791930958928139e-01 -1.613065641853866083e-01 2.956796001904727356e-01 1.070240476632004639e-01 3.017717757707529813e-01 3.045273753816060136e-01 1.167445225228348413e-02 3.777638419608697062e-01 5.078235657204179798e-01 -1.423028693191424665e+00 -6.642774283140414626e-01 -1.191639468361555543e-01 1.414037782123712117e-01 1.635212677633021694e-01 4.354203654314833249e-01 3.591416153624470420e-01 7.146081605701556372e-01 -1.409754620865265873e-01 3.341132594343856899e-01 3.083275637345495590e-01 9.574933520650545649e-02 -1.616373522319062839e-01 2.702421435190999199e-01 4.628467338704446155e-01 4.800309808170573067e-01 3.444068550682757301e-01 2.895428547223778404e-01 3.123529421568969622e-01 2.452348756590308487e-01 3.103867668753760301e-01 4.869101186080327937e-01 2.633968720045318235e-01 3.080178627333337027e-01 6.869309529425933203e-01 3.263790429923662528e-01 7.201467679663160482e-01 -1.587046532434725418e-02 5.728126776920152707e-01 2.912308697090358889e-01 -1.473472993833949696e+00 3.117408793154690105e-01 6.338607283801770409e-01 3.503572283434631118e-01 3.383639459636959557e-01 3.289259924539422175e-01 1.685618184129784036e-01 6.849450818926978712e-01 3.063022166521998657e-01 4.253675839801694947e-01 3.102922646340797175e-01 2.741365796984941983e-01 1.799940920663709587e-01 4.789606176314581965e-01 3.196373201253885910e-01 1.707887610983682414e-01 3.954202104923874861e-02 1.027315841628421572e-01 1.667906057802447162e+00 1.671877870784684028e-01 3.408641248677473090e-01 3.902732220578823408e-01 -8.665325966811048275e-01 3.139607970521478553e-01 2.285572156413422651e-01 2.949313945371890289e-01 -8.667866277265606767e-02 2.687060677161620115e-01 1.689909562987402802e+00 8.947998951660396383e-01 4.685822277888494480e-01 2.786979424171037723e-01 3.197122023553061188e-01 3.464048313617540398e-01 9.336044287922390383e-01 3.091893602276930331e+00 3.072694985444689997e-01 1.446375047059362748e-02 5.851794798874087045e-01 -2.380307783538625210e-01 3.114467403769606291e-01 3.014365388007881341e-01 1.087202990180445195e+00 3.141155696689476029e-01 -3.447931792590467337e-01 3.902488418887409272e-01 1.379628817145837905e-01 6.198487899569576909e-01 1.856243118420211502e+00 2.471733715658883113e-01 2.805454412986009283e-01 1.673422329020820110e+00 3.909698959930982820e-01 2.446528582142958874e-01 1.531482532659244611e-01 1.871154248303299183e-01 -3.432755204873314675e-02 5.225713469159003477e-01 2.450051687361942954e-01 7.156519804110841321e-01 2.789891691931188911e-01 2.066730504488497322e-01 3.290416291094881984e-01 3.723557158222385866e-01 4.303529490017211079e-01 2.635075807076286969e-01 8.811221131120079431e-01 5.173371993950814929e-01 5.077759783888606826e-01 3.135638507392652374e-01 2.397527701641293252e-01 3.027143933802921572e-01 5.929033061011045325e-01 7.798368559043736825e-01 3.715016943909686398e-01 3.253000715466493609e-01 5.908164472864156913e-01 3.060014087634893021e-01 6.984659093493713611e-01 3.257585672902719165e-01 4.792791201097284515e-01 -3.059717424402853547e-01 3.123367106169120944e-01 3.344241388215978827e-01 4.511759712435285952e-01 2.149146180404479523e-01 3.531532980386423159e-01 1.824391984229206898e+00 7.995336473568329105e-03 3.226570908031395901e-01 -2.179698036111422099e-01 1.684449940218605057e+00 1.162900010692456743e+00 3.702476655331474881e-02 -4.418135868384796550e-01 4.433064697086801509e-01 2.803861944820141838e-01 4.887945472150504456e-01 3.077456815529708289e-01 3.080665786315535670e-01 2.278430368190748900e-01 3.344876920133841858e-01 2.772353592862209504e-01 -3.455777657395578406e-02 -2.326522550135043110e-01 3.155732513371656833e-01 2.325951959790736878e-01 2.488760183966088335e-01 8.818859643570411411e-01 4.339592902406442798e-01 3.172617916056267307e-01 8.584323393760642240e-01 4.752903858750850419e-01 5.528140291433983888e-01 4.565301334067446426e-01 6.991083436224239112e-01 1.483584008819557321e+00 3.944152295113168005e-01 2.122977915460088738e+00 -2.289366952331049407e-02 1.562774737983904094e-01 3.096599297605458490e-01 3.294370403042444773e-01 3.800259717455890529e-01 2.741637014470617584e-01 3.054324275651570941e-01 3.091123525511697556e-01 3.696619028641549010e-01 2.207908718994961439e-01 -3.534179200514012686e-01 2.823189473386731319e-01 -5.860201754495587140e-02 3.037709279699316034e-01 4.198970460338453670e-01 4.339592902431005927e-01 2.307982738829488512e-01 2.237049458381236144e-01 -1.294567248908073065e+00 1.986011033761392985e+00 3.117866164688075648e-01 -7.565747013058566894e-01 2.968969996534324696e-01 3.315889865432192773e-01 3.117083373230082333e-01 -4.857397193916074052e+00 3.584414347714350857e+00 6.343617012651181497e-01 2.510074220235095771e-02 3.289647670096606524e-01 3.109618456655537932e-01 2.579434359761482720e-01 2.658008638408535518e+00 6.307642858911232109e-01 3.191260076698667070e-01 2.853695891821417252e-01 3.048448387639391410e-01 3.358639628083849860e-01 8.563198707808344912e-01 -3.731561486246544601e-01 -1.227755045141496248e+00 -1.237757858643871778e+00 3.110176168684822828e-01 3.141059425899248025e-01 7.390925238864803903e-01 3.686442995763605790e-01 1.488820415281083109e+00 4.903045514825786211e-01 3.094852553017561902e-01 3.335488981284038257e-01 3.115895119210377318e-01 3.437713457821652274e-01 3.027281173495634525e-01 6.395115464509690817e-01 2.887867065672690692e-01 6.615250404327680522e-01 2.335819847263495841e-01 6.008409715988900085e-02 3.024568441449192457e-01 1.783687570438174941e-01 2.750773883346866455e-01 2.705701344297258282e-01 6.326899935897196681e-01 4.979318202626075163e-01 2.838818761195224805e-01 2.417344009158726437e-01 3.048894219057122212e-01 2.748121979676584337e-01 1.689933980506323374e+00 1.936663778965488802e+00 3.035525975158642198e-01 3.289263203968386118e-01 3.089016689828494866e-01 1.674748350911453854e-01 2.225505023638669477e-01 4.108641042328713966e-01 3.055233590872517002e-01 3.280921421717924447e-01 8.095436757282566953e-01 8.952961632413617421e-01 2.954272938031414775e-01 1.891891497543775058e+00 3.473005138834562300e-01 -2.701502634922661739e-01 -2.713269689471287660e-01 -3.044015794474452807e-01 3.098515431255979280e-01 3.293401427383965130e-01 7.106726213431715511e-01 3.179668719126541032e-01 4.469797368462151699e-01 2.918605917260933547e-01 3.250738385684759368e-01 2.732849094620014574e-01 -6.110945969570553277e-02 1.009895442034183910e+00 3.147044891633533625e-01 3.447724531538682302e-01 3.039933070796674297e-01 3.508455330390789495e-01 3.389126440194449308e-01 3.966039150639363298e-01 -8.129685476022255330e-02 2.222394647656919242e-01 2.793623756363704524e-01 -3.485555394147481223e-02 4.339596197727399463e-01 1.096600488960634001e+00 9.711199263526902881e-01 -7.205841344101144852e-01 -3.967301457679544008e-01 6.608575918245004344e-01 -3.376339773430422575e+00 1.582836022292353206e+00 2.877715164049947649e-01 -3.495292438513136063e-02 3.128242935550292203e-01 9.048637709039657473e-01 3.122766204161531722e-01 4.216217105077606497e-01 -4.383284499218710883e-01 8.163088887948499739e-01 3.166601678334051151e-01 8.611817294010161161e-01 2.112739966421826043e+00 -3.731560424502821105e-01 -1.484600211871909936e+00 2.484643833252970779e-01 3.065782738597705448e-01 7.501177149579986159e-01 2.723548600666616526e-01 7.006845031205752861e-01 4.691103509568392282e-01 3.114769297351927535e-01 3.046396526032636443e-01 3.099752558871578523e-01 2.980129791414413143e-01 3.100007711362763319e-01 1.434309427669607118e+00 1.665668140517439832e+00 3.170032913700797650e-01 3.500701420050650881e-01 2.258153097024831468e-01 -2.495408965802329293e-01 2.269602496958184057e-01 -5.426132370058077414e-02 3.087410329799245012e-01 7.038766718665939726e-01 -5.508889610865569386e-01 2.775864132749522040e-01 3.002776033132604216e-01 1.544937429633553572e-01 3.351804044892844892e-01 1.890010161950175516e-01 3.105183432079731132e-01 3.101711347643983374e-01 5.062013144647782570e-02 2.972812825860513541e-01 4.332761014435538849e-01 1.134525115909864823e+00 1.110627385943979029e+00 9.136807743000183724e-01 2.120741885686193984e-01 7.930038055832514532e-01 1.574109710856118893e-01 5.015967718938290076e-01 -2.180361864016776341e+00 2.975482725761289804e-01 6.626057381753568398e-01 2.952500941598829032e-01 9.463579508118477035e-01 1.380837823730020730e+00 2.853696241114759835e-01 2.437892123098879815e-01 3.758279475641171929e-01 4.035994337967961920e-01 5.481735233189024559e-01 9.533411438672831917e-01 -8.169207187558448213e-01 2.523745519034507612e-01 2.782002391329668409e-02 3.025345211694224212e-01 3.406127047276575337e-01 7.630222132277379998e-01 -2.667488359958623545e-01 4.102333526358671323e-01 3.179743919999009072e-01 3.614704823952144541e-01 8.951447123669332706e-01 4.334861733931919536e-01 -2.217886245666611522e-01 8.581827145978893068e-01 -3.721425428423385390e-02 5.616765677791553113e-01 3.299055861193166961e-01 1.297262897257259517e+00 5.988265685704228236e-01 7.147189777429631130e-01 4.345865870770249106e-01 4.839780982116448915e-01 -5.878538603711076505e-01 2.237255178313334314e-01 7.516371077178609639e-01 3.049273125804271567e-01 6.092334767363708492e-01 3.233729437212280455e-01 3.052541508470765219e-01 7.143067079010771980e-01 1.635381825282577473e-01 -2.071264958043621096e+00 2.045933016801341764e-01 2.506308805008929941e-01 9.248288234676307340e-01 3.423822175665494072e-01 3.580004306876696241e-01 3.822581095354653513e-01 3.112025644543091052e-01 4.027034501121477539e-01 1.041243218882325211e-01 -1.633921885639197047e+00 7.646584964171270205e-01 2.420330643176879515e-01 3.226623477671851092e-01 2.458309016785705237e-01 8.194198510604208119e-01 3.052487700342042531e-01 -1.562593240107978121e-01 3.508470512268593855e-01 1.126046279778423642e+00 2.844139134050457374e-01 4.164851079498846920e-01 1.040776412310731702e+00 4.219124950953874187e-01 2.846917947746655297e+00 3.241470422855990408e-01 3.280298876125520846e-01 7.125890237206744526e-01 2.890431092499571308e-01 3.366536398350266079e-01 -2.173584388618823748e+00 4.563245301314838298e-01 3.044313398834627704e-01 5.193750223006199374e-01 3.104378829851545674e-01 1.920262014280895158e-01 -1.730212757399251511e-01 2.082817102995164316e+00 -5.181483549544625422e-01 8.251908134146650475e-01 3.092393890199089945e-01 3.064999030704340655e-01 8.485823444810279836e-01 2.808578282286058880e-01 1.346778544686506152e+00 2.271264152388578761e-01 4.032218064127225943e-01 -8.873683541160287680e-01 -1.304547177252485257e-01 -5.886761980253532034e-01 -4.065189596243471648e+00 3.003373403406334852e+00 2.021947714334930077e-02 2.828127525485229499e-01 -1.666023615100993283e+00 3.144599198518563954e-01 4.330278347783139692e-01 3.279129196095137977e-01 1.834196769883238154e-01 6.429366471432665930e-01 6.040313623433090084e-01 1.095923576731370419e+00 -3.967301467013559790e-01 -2.372573673670766436e-01 2.534623530138808700e-01 -1.198213156115016220e+00 3.166099300616794787e-01 -6.585910396221444918e-01 2.926290053444576822e-01 4.437788317207509436e-01 1.132217735306887130e-01 4.586607645832611602e-01 2.624133334928290262e-01 -1.713119931395384876e-02 2.547846222059484411e-01 2.832554282293096581e-01 3.668165576805668127e-01 3.279539205157233073e-01 3.089345779190793007e-01 -7.205058302614592014e-01 4.703844309707866933e-01 1.548054169388360268e+00 7.658202982642686729e-02 2.354267549337876464e-01 2.434644174493202085e-01 1.203675646954839085e+00 3.333815914450639073e-01 9.163367678269920824e-02 8.845524889156900494e-01 2.342046363575729373e-01 1.889422188781799683e+00 2.837985381646976890e-01 1.362475149778093142e+00 3.185338938594045599e-01 7.342182016704706937e-01 1.358268015351803415e+00 3.984386055895212664e-01 2.807993000766503822e-01 9.499989785965285982e-01 -1.841761781703938061e-01 -6.730291809891729427e-02 2.472569441451987482e-01 3.059965367361627275e-01 3.639505723762316292e-01 1.456178655608899308e-01 1.127076795945830129e-01 -3.866814927081591580e-01 1.292203700296811419e+00 2.985816780062627851e-01 3.090191117179718061e-01 -3.259353754871033626e+00 5.616640940044840269e-01 2.220615377186132555e-01 3.524567349870649791e-01 3.699669142325576754e-01 4.295178249434280504e-01 -1.123515383217381203e+00 6.336879142423630373e-01 2.953287563331764565e-01 3.124008883879050291e-01 1.019913686810269171e+00 4.683888580675071855e-01 3.092032737962307487e-01 -1.419652143047710480e+00 3.555181216934832911e-01 8.952961374659342830e-01 3.615266731070143624e-01 2.994683208185849876e-01 2.956204839440665366e-01 7.109703181563492569e-01 -4.642875172643304293e-02 3.100680104551273297e-01 3.009964130093734647e-01 9.991376201615011221e-02 6.667705885159733725e-01 2.443404963522288198e-01 6.889767332031067060e-01 1.846625932173018292e-01 6.938138588188724754e-01 -2.483730049748576196e-01 -1.512432975508540167e+00 2.826994723989325053e-01 -2.115833336552233948e-02 2.769733962257238669e-01 3.555749301023609088e-01 5.571948143363517070e-02 4.979318925399624507e-01 3.193281258805739098e-01 8.389320364012398112e-02 4.255971699886978987e-01 3.354187984220790564e-01 2.854050353292992837e-01 3.330897552991748944e-01 -8.644083769158930064e-01 3.009713790416619905e-01 3.171593333687712790e-01 2.840534096834408939e-01 -3.314007584296342901e-01 3.105122481785621558e-01 8.384804996829371415e-01 -6.167941101607479215e-01 1.137852934291627705e+00 6.204300774362201398e-01 3.166733647183800349e-01 3.072573176813643836e-01 -2.069303772953637655e+00 3.067310327300495354e-01 2.488198948118594545e-01 3.169112489139009892e-01 4.979317647120270474e-01 3.088866883548357922e-01 3.459123548146695870e-01 5.644938201342600964e-02 3.087592107456031409e-01 4.334217827628009667e-01 2.900573370977992393e-01 2.366971250822471062e-01 2.826311607531705739e-01 3.012144847654917301e-01 3.140974988528817402e-01 3.250460996837967187e-01 1.321814499056840342e-01 3.051389406304433893e-01 6.286429815498617568e-01 1.590743078003925559e-01 3.130175933091968177e-01 -1.495658037689516773e-01 1.962600263172507853e-01 6.435880368673294605e-01 4.575092208109791336e+00 3.342926404844961397e-01 6.555279097513511122e-02 5.707493240684026192e-01 1.757058117016244703e-01 1.571908210318986310e+00 3.298695205934326080e-01 6.326074295854098306e-01 3.038879290667841904e-01
