# 
#                 ----------------------------------------------------
#                 Data from a 3D direct N-body simulation. 
# 
#                 rows are i-particle; 
#                 coumns are :mass, tag, x ,y, z, vx, vy, vz, ax, ay, az
# 
#                 NTHU, Computational Physics 
# 
#                 ----------------------------------------------------
#                 Time = 0.0
0.000000000000000000e+00 1.000000000000000000e+00 2.000000000000000000e+00 3.000000000000000000e+00 4.000000000000000000e+00 5.000000000000000000e+00 6.000000000000000000e+00 7.000000000000000000e+00 8.000000000000000000e+00 9.000000000000000000e+00 1.000000000000000000e+01 1.100000000000000000e+01 1.200000000000000000e+01 1.300000000000000000e+01 1.400000000000000000e+01 1.500000000000000000e+01 1.600000000000000000e+01 1.700000000000000000e+01 1.800000000000000000e+01 1.900000000000000000e+01 2.000000000000000000e+01 2.100000000000000000e+01 2.200000000000000000e+01 2.300000000000000000e+01 2.400000000000000000e+01 2.500000000000000000e+01 2.600000000000000000e+01 2.700000000000000000e+01 2.800000000000000000e+01 2.900000000000000000e+01 3.000000000000000000e+01 3.100000000000000000e+01 3.200000000000000000e+01 3.300000000000000000e+01 3.400000000000000000e+01 3.500000000000000000e+01 3.600000000000000000e+01 3.700000000000000000e+01 3.800000000000000000e+01 3.900000000000000000e+01 4.000000000000000000e+01 4.100000000000000000e+01 4.200000000000000000e+01 4.300000000000000000e+01 4.400000000000000000e+01 4.500000000000000000e+01 4.600000000000000000e+01 4.700000000000000000e+01 4.800000000000000000e+01 4.900000000000000000e+01 5.000000000000000000e+01 5.100000000000000000e+01 5.200000000000000000e+01 5.300000000000000000e+01 5.400000000000000000e+01 5.500000000000000000e+01 5.600000000000000000e+01 5.700000000000000000e+01 5.800000000000000000e+01 5.900000000000000000e+01 6.000000000000000000e+01 6.100000000000000000e+01 6.200000000000000000e+01 6.300000000000000000e+01 6.400000000000000000e+01 6.500000000000000000e+01 6.600000000000000000e+01 6.700000000000000000e+01 6.800000000000000000e+01 6.900000000000000000e+01 7.000000000000000000e+01 7.100000000000000000e+01 7.200000000000000000e+01 7.300000000000000000e+01 7.400000000000000000e+01 7.500000000000000000e+01 7.600000000000000000e+01 7.700000000000000000e+01 7.800000000000000000e+01 7.900000000000000000e+01 8.000000000000000000e+01 8.100000000000000000e+01 8.200000000000000000e+01 8.300000000000000000e+01 8.400000000000000000e+01 8.500000000000000000e+01 8.600000000000000000e+01 8.700000000000000000e+01 8.800000000000000000e+01 8.900000000000000000e+01 9.000000000000000000e+01 9.100000000000000000e+01 9.200000000000000000e+01 9.300000000000000000e+01 9.400000000000000000e+01 9.500000000000000000e+01 9.600000000000000000e+01 9.700000000000000000e+01 9.800000000000000000e+01 9.900000000000000000e+01 1.000000000000000000e+02 1.010000000000000000e+02 1.020000000000000000e+02 1.030000000000000000e+02 1.040000000000000000e+02 1.050000000000000000e+02 1.060000000000000000e+02 1.070000000000000000e+02 1.080000000000000000e+02 1.090000000000000000e+02 1.100000000000000000e+02 1.110000000000000000e+02 1.120000000000000000e+02 1.130000000000000000e+02 1.140000000000000000e+02 1.150000000000000000e+02 1.160000000000000000e+02 1.170000000000000000e+02 1.180000000000000000e+02 1.190000000000000000e+02 1.200000000000000000e+02 1.210000000000000000e+02 1.220000000000000000e+02 1.230000000000000000e+02 1.240000000000000000e+02 1.250000000000000000e+02 1.260000000000000000e+02 1.270000000000000000e+02 1.280000000000000000e+02 1.290000000000000000e+02 1.300000000000000000e+02 1.310000000000000000e+02 1.320000000000000000e+02 1.330000000000000000e+02 1.340000000000000000e+02 1.350000000000000000e+02 1.360000000000000000e+02 1.370000000000000000e+02 1.380000000000000000e+02 1.390000000000000000e+02 1.400000000000000000e+02 1.410000000000000000e+02 1.420000000000000000e+02 1.430000000000000000e+02 1.440000000000000000e+02 1.450000000000000000e+02 1.460000000000000000e+02 1.470000000000000000e+02 1.480000000000000000e+02 1.490000000000000000e+02 1.500000000000000000e+02 1.510000000000000000e+02 1.520000000000000000e+02 1.530000000000000000e+02 1.540000000000000000e+02 1.550000000000000000e+02 1.560000000000000000e+02 1.570000000000000000e+02 1.580000000000000000e+02 1.590000000000000000e+02 1.600000000000000000e+02 1.610000000000000000e+02 1.620000000000000000e+02 1.630000000000000000e+02 1.640000000000000000e+02 1.650000000000000000e+02 1.660000000000000000e+02 1.670000000000000000e+02 1.680000000000000000e+02 1.690000000000000000e+02 1.700000000000000000e+02 1.710000000000000000e+02 1.720000000000000000e+02 1.730000000000000000e+02 1.740000000000000000e+02 1.750000000000000000e+02 1.760000000000000000e+02 1.770000000000000000e+02 1.780000000000000000e+02 1.790000000000000000e+02 1.800000000000000000e+02 1.810000000000000000e+02 1.820000000000000000e+02 1.830000000000000000e+02 1.840000000000000000e+02 1.850000000000000000e+02 1.860000000000000000e+02 1.870000000000000000e+02 1.880000000000000000e+02 1.890000000000000000e+02 1.900000000000000000e+02 1.910000000000000000e+02 1.920000000000000000e+02 1.930000000000000000e+02 1.940000000000000000e+02 1.950000000000000000e+02 1.960000000000000000e+02 1.970000000000000000e+02 1.980000000000000000e+02 1.990000000000000000e+02 2.000000000000000000e+02 2.010000000000000000e+02 2.020000000000000000e+02 2.030000000000000000e+02 2.040000000000000000e+02 2.050000000000000000e+02 2.060000000000000000e+02 2.070000000000000000e+02 2.080000000000000000e+02 2.090000000000000000e+02 2.100000000000000000e+02 2.110000000000000000e+02 2.120000000000000000e+02 2.130000000000000000e+02 2.140000000000000000e+02 2.150000000000000000e+02 2.160000000000000000e+02 2.170000000000000000e+02 2.180000000000000000e+02 2.190000000000000000e+02 2.200000000000000000e+02 2.210000000000000000e+02 2.220000000000000000e+02 2.230000000000000000e+02 2.240000000000000000e+02 2.250000000000000000e+02 2.260000000000000000e+02 2.270000000000000000e+02 2.280000000000000000e+02 2.290000000000000000e+02 2.300000000000000000e+02 2.310000000000000000e+02 2.320000000000000000e+02 2.330000000000000000e+02 2.340000000000000000e+02 2.350000000000000000e+02 2.360000000000000000e+02 2.370000000000000000e+02 2.380000000000000000e+02 2.390000000000000000e+02 2.400000000000000000e+02 2.410000000000000000e+02 2.420000000000000000e+02 2.430000000000000000e+02 2.440000000000000000e+02 2.450000000000000000e+02 2.460000000000000000e+02 2.470000000000000000e+02 2.480000000000000000e+02 2.490000000000000000e+02 2.500000000000000000e+02 2.510000000000000000e+02 2.520000000000000000e+02 2.530000000000000000e+02 2.540000000000000000e+02 2.550000000000000000e+02 2.560000000000000000e+02 2.570000000000000000e+02 2.580000000000000000e+02 2.590000000000000000e+02 2.600000000000000000e+02 2.610000000000000000e+02 2.620000000000000000e+02 2.630000000000000000e+02 2.640000000000000000e+02 2.650000000000000000e+02 2.660000000000000000e+02 2.670000000000000000e+02 2.680000000000000000e+02 2.690000000000000000e+02 2.700000000000000000e+02 2.710000000000000000e+02 2.720000000000000000e+02 2.730000000000000000e+02 2.740000000000000000e+02 2.750000000000000000e+02 2.760000000000000000e+02 2.770000000000000000e+02 2.780000000000000000e+02 2.790000000000000000e+02 2.800000000000000000e+02 2.810000000000000000e+02 2.820000000000000000e+02 2.830000000000000000e+02 2.840000000000000000e+02 2.850000000000000000e+02 2.860000000000000000e+02 2.870000000000000000e+02 2.880000000000000000e+02 2.890000000000000000e+02 2.900000000000000000e+02 2.910000000000000000e+02 2.920000000000000000e+02 2.930000000000000000e+02 2.940000000000000000e+02 2.950000000000000000e+02 2.960000000000000000e+02 2.970000000000000000e+02 2.980000000000000000e+02 2.990000000000000000e+02 3.000000000000000000e+02 3.010000000000000000e+02 3.020000000000000000e+02 3.030000000000000000e+02 3.040000000000000000e+02 3.050000000000000000e+02 3.060000000000000000e+02 3.070000000000000000e+02 3.080000000000000000e+02 3.090000000000000000e+02 3.100000000000000000e+02 3.110000000000000000e+02 3.120000000000000000e+02 3.130000000000000000e+02 3.140000000000000000e+02 3.150000000000000000e+02 3.160000000000000000e+02 3.170000000000000000e+02 3.180000000000000000e+02 3.190000000000000000e+02 3.200000000000000000e+02 3.210000000000000000e+02 3.220000000000000000e+02 3.230000000000000000e+02 3.240000000000000000e+02 3.250000000000000000e+02 3.260000000000000000e+02 3.270000000000000000e+02 3.280000000000000000e+02 3.290000000000000000e+02 3.300000000000000000e+02 3.310000000000000000e+02 3.320000000000000000e+02 3.330000000000000000e+02 3.340000000000000000e+02 3.350000000000000000e+02 3.360000000000000000e+02 3.370000000000000000e+02 3.380000000000000000e+02 3.390000000000000000e+02 3.400000000000000000e+02 3.410000000000000000e+02 3.420000000000000000e+02 3.430000000000000000e+02 3.440000000000000000e+02 3.450000000000000000e+02 3.460000000000000000e+02 3.470000000000000000e+02 3.480000000000000000e+02 3.490000000000000000e+02 3.500000000000000000e+02 3.510000000000000000e+02 3.520000000000000000e+02 3.530000000000000000e+02 3.540000000000000000e+02 3.550000000000000000e+02 3.560000000000000000e+02 3.570000000000000000e+02 3.580000000000000000e+02 3.590000000000000000e+02 3.600000000000000000e+02 3.610000000000000000e+02 3.620000000000000000e+02 3.630000000000000000e+02 3.640000000000000000e+02 3.650000000000000000e+02 3.660000000000000000e+02 3.670000000000000000e+02 3.680000000000000000e+02 3.690000000000000000e+02 3.700000000000000000e+02 3.710000000000000000e+02 3.720000000000000000e+02 3.730000000000000000e+02 3.740000000000000000e+02 3.750000000000000000e+02 3.760000000000000000e+02 3.770000000000000000e+02 3.780000000000000000e+02 3.790000000000000000e+02 3.800000000000000000e+02 3.810000000000000000e+02 3.820000000000000000e+02 3.830000000000000000e+02 3.840000000000000000e+02 3.850000000000000000e+02 3.860000000000000000e+02 3.870000000000000000e+02 3.880000000000000000e+02 3.890000000000000000e+02 3.900000000000000000e+02 3.910000000000000000e+02 3.920000000000000000e+02 3.930000000000000000e+02 3.940000000000000000e+02 3.950000000000000000e+02 3.960000000000000000e+02 3.970000000000000000e+02 3.980000000000000000e+02 3.990000000000000000e+02 4.000000000000000000e+02 4.010000000000000000e+02 4.020000000000000000e+02 4.030000000000000000e+02 4.040000000000000000e+02 4.050000000000000000e+02 4.060000000000000000e+02 4.070000000000000000e+02 4.080000000000000000e+02 4.090000000000000000e+02 4.100000000000000000e+02 4.110000000000000000e+02 4.120000000000000000e+02 4.130000000000000000e+02 4.140000000000000000e+02 4.150000000000000000e+02 4.160000000000000000e+02 4.170000000000000000e+02 4.180000000000000000e+02 4.190000000000000000e+02 4.200000000000000000e+02 4.210000000000000000e+02 4.220000000000000000e+02 4.230000000000000000e+02 4.240000000000000000e+02 4.250000000000000000e+02 4.260000000000000000e+02 4.270000000000000000e+02 4.280000000000000000e+02 4.290000000000000000e+02 4.300000000000000000e+02 4.310000000000000000e+02 4.320000000000000000e+02 4.330000000000000000e+02 4.340000000000000000e+02 4.350000000000000000e+02 4.360000000000000000e+02 4.370000000000000000e+02 4.380000000000000000e+02 4.390000000000000000e+02 4.400000000000000000e+02 4.410000000000000000e+02 4.420000000000000000e+02 4.430000000000000000e+02 4.440000000000000000e+02 4.450000000000000000e+02 4.460000000000000000e+02 4.470000000000000000e+02 4.480000000000000000e+02 4.490000000000000000e+02 4.500000000000000000e+02 4.510000000000000000e+02 4.520000000000000000e+02 4.530000000000000000e+02 4.540000000000000000e+02 4.550000000000000000e+02 4.560000000000000000e+02 4.570000000000000000e+02 4.580000000000000000e+02 4.590000000000000000e+02 4.600000000000000000e+02 4.610000000000000000e+02 4.620000000000000000e+02 4.630000000000000000e+02 4.640000000000000000e+02 4.650000000000000000e+02 4.660000000000000000e+02 4.670000000000000000e+02 4.680000000000000000e+02 4.690000000000000000e+02 4.700000000000000000e+02 4.710000000000000000e+02 4.720000000000000000e+02 4.730000000000000000e+02 4.740000000000000000e+02 4.750000000000000000e+02 4.760000000000000000e+02 4.770000000000000000e+02 4.780000000000000000e+02 4.790000000000000000e+02 4.800000000000000000e+02 4.810000000000000000e+02 4.820000000000000000e+02 4.830000000000000000e+02 4.840000000000000000e+02 4.850000000000000000e+02 4.860000000000000000e+02 4.870000000000000000e+02 4.880000000000000000e+02 4.890000000000000000e+02 4.900000000000000000e+02 4.910000000000000000e+02 4.920000000000000000e+02 4.930000000000000000e+02 4.940000000000000000e+02 4.950000000000000000e+02 4.960000000000000000e+02 4.970000000000000000e+02 4.980000000000000000e+02 4.990000000000000000e+02 5.000000000000000000e+02 5.010000000000000000e+02 5.020000000000000000e+02 5.030000000000000000e+02 5.040000000000000000e+02 5.050000000000000000e+02 5.060000000000000000e+02 5.070000000000000000e+02 5.080000000000000000e+02 5.090000000000000000e+02 5.100000000000000000e+02 5.110000000000000000e+02 5.120000000000000000e+02 5.130000000000000000e+02 5.140000000000000000e+02 5.150000000000000000e+02 5.160000000000000000e+02 5.170000000000000000e+02 5.180000000000000000e+02 5.190000000000000000e+02 5.200000000000000000e+02 5.210000000000000000e+02 5.220000000000000000e+02 5.230000000000000000e+02 5.240000000000000000e+02 5.250000000000000000e+02 5.260000000000000000e+02 5.270000000000000000e+02 5.280000000000000000e+02 5.290000000000000000e+02 5.300000000000000000e+02 5.310000000000000000e+02 5.320000000000000000e+02 5.330000000000000000e+02 5.340000000000000000e+02 5.350000000000000000e+02 5.360000000000000000e+02 5.370000000000000000e+02 5.380000000000000000e+02 5.390000000000000000e+02 5.400000000000000000e+02 5.410000000000000000e+02 5.420000000000000000e+02 5.430000000000000000e+02 5.440000000000000000e+02 5.450000000000000000e+02 5.460000000000000000e+02 5.470000000000000000e+02 5.480000000000000000e+02 5.490000000000000000e+02 5.500000000000000000e+02 5.510000000000000000e+02 5.520000000000000000e+02 5.530000000000000000e+02 5.540000000000000000e+02 5.550000000000000000e+02 5.560000000000000000e+02 5.570000000000000000e+02 5.580000000000000000e+02 5.590000000000000000e+02 5.600000000000000000e+02 5.610000000000000000e+02 5.620000000000000000e+02 5.630000000000000000e+02 5.640000000000000000e+02 5.650000000000000000e+02 5.660000000000000000e+02 5.670000000000000000e+02 5.680000000000000000e+02 5.690000000000000000e+02 5.700000000000000000e+02 5.710000000000000000e+02 5.720000000000000000e+02 5.730000000000000000e+02 5.740000000000000000e+02 5.750000000000000000e+02 5.760000000000000000e+02 5.770000000000000000e+02 5.780000000000000000e+02 5.790000000000000000e+02 5.800000000000000000e+02 5.810000000000000000e+02 5.820000000000000000e+02 5.830000000000000000e+02 5.840000000000000000e+02 5.850000000000000000e+02 5.860000000000000000e+02 5.870000000000000000e+02 5.880000000000000000e+02 5.890000000000000000e+02 5.900000000000000000e+02 5.910000000000000000e+02 5.920000000000000000e+02 5.930000000000000000e+02 5.940000000000000000e+02 5.950000000000000000e+02 5.960000000000000000e+02 5.970000000000000000e+02 5.980000000000000000e+02 5.990000000000000000e+02 6.000000000000000000e+02 6.010000000000000000e+02 6.020000000000000000e+02 6.030000000000000000e+02 6.040000000000000000e+02 6.050000000000000000e+02 6.060000000000000000e+02 6.070000000000000000e+02 6.080000000000000000e+02 6.090000000000000000e+02 6.100000000000000000e+02 6.110000000000000000e+02 6.120000000000000000e+02 6.130000000000000000e+02 6.140000000000000000e+02 6.150000000000000000e+02 6.160000000000000000e+02 6.170000000000000000e+02 6.180000000000000000e+02 6.190000000000000000e+02 6.200000000000000000e+02 6.210000000000000000e+02 6.220000000000000000e+02 6.230000000000000000e+02 6.240000000000000000e+02 6.250000000000000000e+02 6.260000000000000000e+02 6.270000000000000000e+02 6.280000000000000000e+02 6.290000000000000000e+02 6.300000000000000000e+02 6.310000000000000000e+02 6.320000000000000000e+02 6.330000000000000000e+02 6.340000000000000000e+02 6.350000000000000000e+02 6.360000000000000000e+02 6.370000000000000000e+02 6.380000000000000000e+02 6.390000000000000000e+02 6.400000000000000000e+02 6.410000000000000000e+02 6.420000000000000000e+02 6.430000000000000000e+02 6.440000000000000000e+02 6.450000000000000000e+02 6.460000000000000000e+02 6.470000000000000000e+02 6.480000000000000000e+02 6.490000000000000000e+02 6.500000000000000000e+02 6.510000000000000000e+02 6.520000000000000000e+02 6.530000000000000000e+02 6.540000000000000000e+02 6.550000000000000000e+02 6.560000000000000000e+02 6.570000000000000000e+02 6.580000000000000000e+02 6.590000000000000000e+02 6.600000000000000000e+02 6.610000000000000000e+02 6.620000000000000000e+02 6.630000000000000000e+02 6.640000000000000000e+02 6.650000000000000000e+02 6.660000000000000000e+02 6.670000000000000000e+02 6.680000000000000000e+02 6.690000000000000000e+02 6.700000000000000000e+02 6.710000000000000000e+02 6.720000000000000000e+02 6.730000000000000000e+02 6.740000000000000000e+02 6.750000000000000000e+02 6.760000000000000000e+02 6.770000000000000000e+02 6.780000000000000000e+02 6.790000000000000000e+02 6.800000000000000000e+02 6.810000000000000000e+02 6.820000000000000000e+02 6.830000000000000000e+02 6.840000000000000000e+02 6.850000000000000000e+02 6.860000000000000000e+02 6.870000000000000000e+02 6.880000000000000000e+02 6.890000000000000000e+02 6.900000000000000000e+02 6.910000000000000000e+02 6.920000000000000000e+02 6.930000000000000000e+02 6.940000000000000000e+02 6.950000000000000000e+02 6.960000000000000000e+02 6.970000000000000000e+02 6.980000000000000000e+02 6.990000000000000000e+02 7.000000000000000000e+02 7.010000000000000000e+02 7.020000000000000000e+02 7.030000000000000000e+02 7.040000000000000000e+02 7.050000000000000000e+02 7.060000000000000000e+02 7.070000000000000000e+02 7.080000000000000000e+02 7.090000000000000000e+02 7.100000000000000000e+02 7.110000000000000000e+02 7.120000000000000000e+02 7.130000000000000000e+02 7.140000000000000000e+02 7.150000000000000000e+02 7.160000000000000000e+02 7.170000000000000000e+02 7.180000000000000000e+02 7.190000000000000000e+02 7.200000000000000000e+02 7.210000000000000000e+02 7.220000000000000000e+02 7.230000000000000000e+02 7.240000000000000000e+02 7.250000000000000000e+02 7.260000000000000000e+02 7.270000000000000000e+02 7.280000000000000000e+02 7.290000000000000000e+02 7.300000000000000000e+02 7.310000000000000000e+02 7.320000000000000000e+02 7.330000000000000000e+02 7.340000000000000000e+02 7.350000000000000000e+02 7.360000000000000000e+02 7.370000000000000000e+02 7.380000000000000000e+02 7.390000000000000000e+02 7.400000000000000000e+02 7.410000000000000000e+02 7.420000000000000000e+02 7.430000000000000000e+02 7.440000000000000000e+02 7.450000000000000000e+02 7.460000000000000000e+02 7.470000000000000000e+02 7.480000000000000000e+02 7.490000000000000000e+02 7.500000000000000000e+02 7.510000000000000000e+02 7.520000000000000000e+02 7.530000000000000000e+02 7.540000000000000000e+02 7.550000000000000000e+02 7.560000000000000000e+02 7.570000000000000000e+02 7.580000000000000000e+02 7.590000000000000000e+02 7.600000000000000000e+02 7.610000000000000000e+02 7.620000000000000000e+02 7.630000000000000000e+02 7.640000000000000000e+02 7.650000000000000000e+02 7.660000000000000000e+02 7.670000000000000000e+02 7.680000000000000000e+02 7.690000000000000000e+02 7.700000000000000000e+02 7.710000000000000000e+02 7.720000000000000000e+02 7.730000000000000000e+02 7.740000000000000000e+02 7.750000000000000000e+02 7.760000000000000000e+02 7.770000000000000000e+02 7.780000000000000000e+02 7.790000000000000000e+02 7.800000000000000000e+02 7.810000000000000000e+02 7.820000000000000000e+02 7.830000000000000000e+02 7.840000000000000000e+02 7.850000000000000000e+02 7.860000000000000000e+02 7.870000000000000000e+02 7.880000000000000000e+02 7.890000000000000000e+02 7.900000000000000000e+02 7.910000000000000000e+02 7.920000000000000000e+02 7.930000000000000000e+02 7.940000000000000000e+02 7.950000000000000000e+02 7.960000000000000000e+02 7.970000000000000000e+02 7.980000000000000000e+02 7.990000000000000000e+02 8.000000000000000000e+02 8.010000000000000000e+02 8.020000000000000000e+02 8.030000000000000000e+02 8.040000000000000000e+02 8.050000000000000000e+02 8.060000000000000000e+02 8.070000000000000000e+02 8.080000000000000000e+02 8.090000000000000000e+02 8.100000000000000000e+02 8.110000000000000000e+02 8.120000000000000000e+02 8.130000000000000000e+02 8.140000000000000000e+02 8.150000000000000000e+02 8.160000000000000000e+02 8.170000000000000000e+02 8.180000000000000000e+02 8.190000000000000000e+02 8.200000000000000000e+02 8.210000000000000000e+02 8.220000000000000000e+02 8.230000000000000000e+02 8.240000000000000000e+02 8.250000000000000000e+02 8.260000000000000000e+02 8.270000000000000000e+02 8.280000000000000000e+02 8.290000000000000000e+02 8.300000000000000000e+02 8.310000000000000000e+02 8.320000000000000000e+02 8.330000000000000000e+02 8.340000000000000000e+02 8.350000000000000000e+02 8.360000000000000000e+02 8.370000000000000000e+02 8.380000000000000000e+02 8.390000000000000000e+02 8.400000000000000000e+02 8.410000000000000000e+02 8.420000000000000000e+02 8.430000000000000000e+02 8.440000000000000000e+02 8.450000000000000000e+02 8.460000000000000000e+02 8.470000000000000000e+02 8.480000000000000000e+02 8.490000000000000000e+02 8.500000000000000000e+02 8.510000000000000000e+02 8.520000000000000000e+02 8.530000000000000000e+02 8.540000000000000000e+02 8.550000000000000000e+02 8.560000000000000000e+02 8.570000000000000000e+02 8.580000000000000000e+02 8.590000000000000000e+02 8.600000000000000000e+02 8.610000000000000000e+02 8.620000000000000000e+02 8.630000000000000000e+02 8.640000000000000000e+02 8.650000000000000000e+02 8.660000000000000000e+02 8.670000000000000000e+02 8.680000000000000000e+02 8.690000000000000000e+02 8.700000000000000000e+02 8.710000000000000000e+02 8.720000000000000000e+02 8.730000000000000000e+02 8.740000000000000000e+02 8.750000000000000000e+02 8.760000000000000000e+02 8.770000000000000000e+02 8.780000000000000000e+02 8.790000000000000000e+02 8.800000000000000000e+02 8.810000000000000000e+02 8.820000000000000000e+02 8.830000000000000000e+02 8.840000000000000000e+02 8.850000000000000000e+02 8.860000000000000000e+02 8.870000000000000000e+02 8.880000000000000000e+02 8.890000000000000000e+02 8.900000000000000000e+02 8.910000000000000000e+02 8.920000000000000000e+02 8.930000000000000000e+02 8.940000000000000000e+02 8.950000000000000000e+02 8.960000000000000000e+02 8.970000000000000000e+02 8.980000000000000000e+02 8.990000000000000000e+02 9.000000000000000000e+02 9.010000000000000000e+02 9.020000000000000000e+02 9.030000000000000000e+02 9.040000000000000000e+02 9.050000000000000000e+02 9.060000000000000000e+02 9.070000000000000000e+02 9.080000000000000000e+02 9.090000000000000000e+02 9.100000000000000000e+02 9.110000000000000000e+02 9.120000000000000000e+02 9.130000000000000000e+02 9.140000000000000000e+02 9.150000000000000000e+02 9.160000000000000000e+02 9.170000000000000000e+02 9.180000000000000000e+02 9.190000000000000000e+02 9.200000000000000000e+02 9.210000000000000000e+02 9.220000000000000000e+02 9.230000000000000000e+02 9.240000000000000000e+02 9.250000000000000000e+02 9.260000000000000000e+02 9.270000000000000000e+02 9.280000000000000000e+02 9.290000000000000000e+02 9.300000000000000000e+02 9.310000000000000000e+02 9.320000000000000000e+02 9.330000000000000000e+02 9.340000000000000000e+02 9.350000000000000000e+02 9.360000000000000000e+02 9.370000000000000000e+02 9.380000000000000000e+02 9.390000000000000000e+02 9.400000000000000000e+02 9.410000000000000000e+02 9.420000000000000000e+02 9.430000000000000000e+02 9.440000000000000000e+02 9.450000000000000000e+02 9.460000000000000000e+02 9.470000000000000000e+02 9.480000000000000000e+02 9.490000000000000000e+02 9.500000000000000000e+02 9.510000000000000000e+02 9.520000000000000000e+02 9.530000000000000000e+02 9.540000000000000000e+02 9.550000000000000000e+02 9.560000000000000000e+02 9.570000000000000000e+02 9.580000000000000000e+02 9.590000000000000000e+02 9.600000000000000000e+02 9.610000000000000000e+02 9.620000000000000000e+02 9.630000000000000000e+02 9.640000000000000000e+02 9.650000000000000000e+02 9.660000000000000000e+02 9.670000000000000000e+02 9.680000000000000000e+02 9.690000000000000000e+02 9.700000000000000000e+02 9.710000000000000000e+02 9.720000000000000000e+02 9.730000000000000000e+02 9.740000000000000000e+02 9.750000000000000000e+02 9.760000000000000000e+02 9.770000000000000000e+02 9.780000000000000000e+02 9.790000000000000000e+02 9.800000000000000000e+02 9.810000000000000000e+02 9.820000000000000000e+02 9.830000000000000000e+02 9.840000000000000000e+02 9.850000000000000000e+02 9.860000000000000000e+02 9.870000000000000000e+02 9.880000000000000000e+02 9.890000000000000000e+02 9.900000000000000000e+02 9.910000000000000000e+02 9.920000000000000000e+02 9.930000000000000000e+02 9.940000000000000000e+02 9.950000000000000000e+02 9.960000000000000000e+02 9.970000000000000000e+02 9.980000000000000000e+02 9.990000000000000000e+02
1.000000000000000000e+00 1.000000000000000000e+00 1.000000000000000000e+00 1.000000000000000000e+00 1.000000000000000000e+00 1.000000000000000000e+00 1.000000000000000000e+00 1.000000000000000000e+00 1.000000000000000000e+00 1.000000000000000000e+00 1.000000000000000000e+00 1.000000000000000000e+00 1.000000000000000000e+00 1.000000000000000000e+00 1.000000000000000000e+00 1.000000000000000000e+00 1.000000000000000000e+00 1.000000000000000000e+00 1.000000000000000000e+00 1.000000000000000000e+00 1.000000000000000000e+00 1.000000000000000000e+00 1.000000000000000000e+00 1.000000000000000000e+00 1.000000000000000000e+00 1.000000000000000000e+00 1.000000000000000000e+00 1.000000000000000000e+00 1.000000000000000000e+00 1.000000000000000000e+00 1.000000000000000000e+00 1.000000000000000000e+00 1.000000000000000000e+00 1.000000000000000000e+00 1.000000000000000000e+00 1.000000000000000000e+00 1.000000000000000000e+00 1.000000000000000000e+00 1.000000000000000000e+00 1.000000000000000000e+00 1.000000000000000000e+00 1.000000000000000000e+00 1.000000000000000000e+00 1.000000000000000000e+00 1.000000000000000000e+00 1.000000000000000000e+00 1.000000000000000000e+00 1.000000000000000000e+00 1.000000000000000000e+00 1.000000000000000000e+00 1.000000000000000000e+00 1.000000000000000000e+00 1.000000000000000000e+00 1.000000000000000000e+00 1.000000000000000000e+00 1.000000000000000000e+00 1.000000000000000000e+00 1.000000000000000000e+00 1.000000000000000000e+00 1.000000000000000000e+00 1.000000000000000000e+00 1.000000000000000000e+00 1.000000000000000000e+00 1.000000000000000000e+00 1.000000000000000000e+00 1.000000000000000000e+00 1.000000000000000000e+00 1.000000000000000000e+00 1.000000000000000000e+00 1.000000000000000000e+00 1.000000000000000000e+00 1.000000000000000000e+00 1.000000000000000000e+00 1.000000000000000000e+00 1.000000000000000000e+00 1.000000000000000000e+00 1.000000000000000000e+00 1.000000000000000000e+00 1.000000000000000000e+00 1.000000000000000000e+00 1.000000000000000000e+00 1.000000000000000000e+00 1.000000000000000000e+00 1.000000000000000000e+00 1.000000000000000000e+00 1.000000000000000000e+00 1.000000000000000000e+00 1.000000000000000000e+00 1.000000000000000000e+00 1.000000000000000000e+00 1.000000000000000000e+00 1.000000000000000000e+00 1.000000000000000000e+00 1.000000000000000000e+00 1.000000000000000000e+00 1.000000000000000000e+00 1.000000000000000000e+00 1.000000000000000000e+00 1.000000000000000000e+00 1.000000000000000000e+00 1.000000000000000000e+00 1.000000000000000000e+00 1.000000000000000000e+00 1.000000000000000000e+00 1.000000000000000000e+00 1.000000000000000000e+00 1.000000000000000000e+00 1.000000000000000000e+00 1.000000000000000000e+00 1.000000000000000000e+00 1.000000000000000000e+00 1.000000000000000000e+00 1.000000000000000000e+00 1.000000000000000000e+00 1.000000000000000000e+00 1.000000000000000000e+00 1.000000000000000000e+00 1.000000000000000000e+00 1.000000000000000000e+00 1.000000000000000000e+00 1.000000000000000000e+00 1.000000000000000000e+00 1.000000000000000000e+00 1.000000000000000000e+00 1.000000000000000000e+00 1.000000000000000000e+00 1.000000000000000000e+00 1.000000000000000000e+00 1.000000000000000000e+00 1.000000000000000000e+00 1.000000000000000000e+00 1.000000000000000000e+00 1.000000000000000000e+00 1.000000000000000000e+00 1.000000000000000000e+00 1.000000000000000000e+00 1.000000000000000000e+00 1.000000000000000000e+00 1.000000000000000000e+00 1.000000000000000000e+00 1.000000000000000000e+00 1.000000000000000000e+00 1.000000000000000000e+00 1.000000000000000000e+00 1.000000000000000000e+00 1.000000000000000000e+00 1.000000000000000000e+00 1.000000000000000000e+00 1.000000000000000000e+00 1.000000000000000000e+00 1.000000000000000000e+00 1.000000000000000000e+00 1.000000000000000000e+00 1.000000000000000000e+00 1.000000000000000000e+00 1.000000000000000000e+00 1.000000000000000000e+00 1.000000000000000000e+00 1.000000000000000000e+00 1.000000000000000000e+00 1.000000000000000000e+00 1.000000000000000000e+00 1.000000000000000000e+00 1.000000000000000000e+00 1.000000000000000000e+00 1.000000000000000000e+00 1.000000000000000000e+00 1.000000000000000000e+00 1.000000000000000000e+00 1.000000000000000000e+00 1.000000000000000000e+00 1.000000000000000000e+00 1.000000000000000000e+00 1.000000000000000000e+00 1.000000000000000000e+00 1.000000000000000000e+00 1.000000000000000000e+00 1.000000000000000000e+00 1.000000000000000000e+00 1.000000000000000000e+00 1.000000000000000000e+00 1.000000000000000000e+00 1.000000000000000000e+00 1.000000000000000000e+00 1.000000000000000000e+00 1.000000000000000000e+00 1.000000000000000000e+00 1.000000000000000000e+00 1.000000000000000000e+00 1.000000000000000000e+00 1.000000000000000000e+00 1.000000000000000000e+00 1.000000000000000000e+00 1.000000000000000000e+00 1.000000000000000000e+00 1.000000000000000000e+00 1.000000000000000000e+00 1.000000000000000000e+00 1.000000000000000000e+00 1.000000000000000000e+00 1.000000000000000000e+00 1.000000000000000000e+00 1.000000000000000000e+00 1.000000000000000000e+00 1.000000000000000000e+00 1.000000000000000000e+00 1.000000000000000000e+00 1.000000000000000000e+00 1.000000000000000000e+00 1.000000000000000000e+00 1.000000000000000000e+00 1.000000000000000000e+00 1.000000000000000000e+00 1.000000000000000000e+00 1.000000000000000000e+00 1.000000000000000000e+00 1.000000000000000000e+00 1.000000000000000000e+00 1.000000000000000000e+00 1.000000000000000000e+00 1.000000000000000000e+00 1.000000000000000000e+00 1.000000000000000000e+00 1.000000000000000000e+00 1.000000000000000000e+00 1.000000000000000000e+00 1.000000000000000000e+00 1.000000000000000000e+00 1.000000000000000000e+00 1.000000000000000000e+00 1.000000000000000000e+00 1.000000000000000000e+00 1.000000000000000000e+00 1.000000000000000000e+00 1.000000000000000000e+00 1.000000000000000000e+00 1.000000000000000000e+00 1.000000000000000000e+00 1.000000000000000000e+00 1.000000000000000000e+00 1.000000000000000000e+00 1.000000000000000000e+00 1.000000000000000000e+00 1.000000000000000000e+00 1.000000000000000000e+00 1.000000000000000000e+00 1.000000000000000000e+00 1.000000000000000000e+00 1.000000000000000000e+00 1.000000000000000000e+00 1.000000000000000000e+00 1.000000000000000000e+00 1.000000000000000000e+00 1.000000000000000000e+00 1.000000000000000000e+00 1.000000000000000000e+00 1.000000000000000000e+00 1.000000000000000000e+00 1.000000000000000000e+00 1.000000000000000000e+00 1.000000000000000000e+00 1.000000000000000000e+00 1.000000000000000000e+00 1.000000000000000000e+00 1.000000000000000000e+00 1.000000000000000000e+00 1.000000000000000000e+00 1.000000000000000000e+00 1.000000000000000000e+00 1.000000000000000000e+00 1.000000000000000000e+00 1.000000000000000000e+00 1.000000000000000000e+00 1.000000000000000000e+00 1.000000000000000000e+00 1.000000000000000000e+00 1.000000000000000000e+00 1.000000000000000000e+00 1.000000000000000000e+00 1.000000000000000000e+00 1.000000000000000000e+00 1.000000000000000000e+00 1.000000000000000000e+00 1.000000000000000000e+00 1.000000000000000000e+00 1.000000000000000000e+00 1.000000000000000000e+00 1.000000000000000000e+00 1.000000000000000000e+00 1.000000000000000000e+00 1.000000000000000000e+00 1.000000000000000000e+00 1.000000000000000000e+00 1.000000000000000000e+00 1.000000000000000000e+00 1.000000000000000000e+00 1.000000000000000000e+00 1.000000000000000000e+00 1.000000000000000000e+00 1.000000000000000000e+00 1.000000000000000000e+00 1.000000000000000000e+00 1.000000000000000000e+00 1.000000000000000000e+00 1.000000000000000000e+00 1.000000000000000000e+00 1.000000000000000000e+00 1.000000000000000000e+00 1.000000000000000000e+00 1.000000000000000000e+00 1.000000000000000000e+00 1.000000000000000000e+00 1.000000000000000000e+00 1.000000000000000000e+00 1.000000000000000000e+00 1.000000000000000000e+00 1.000000000000000000e+00 1.000000000000000000e+00 1.000000000000000000e+00 1.000000000000000000e+00 1.000000000000000000e+00 1.000000000000000000e+00 1.000000000000000000e+00 1.000000000000000000e+00 1.000000000000000000e+00 1.000000000000000000e+00 1.000000000000000000e+00 1.000000000000000000e+00 1.000000000000000000e+00 1.000000000000000000e+00 1.000000000000000000e+00 1.000000000000000000e+00 1.000000000000000000e+00 1.000000000000000000e+00 1.000000000000000000e+00 1.000000000000000000e+00 1.000000000000000000e+00 1.000000000000000000e+00 1.000000000000000000e+00 1.000000000000000000e+00 1.000000000000000000e+00 1.000000000000000000e+00 1.000000000000000000e+00 1.000000000000000000e+00 1.000000000000000000e+00 1.000000000000000000e+00 1.000000000000000000e+00 1.000000000000000000e+00 1.000000000000000000e+00 1.000000000000000000e+00 1.000000000000000000e+00 1.000000000000000000e+00 1.000000000000000000e+00 1.000000000000000000e+00 1.000000000000000000e+00 1.000000000000000000e+00 1.000000000000000000e+00 1.000000000000000000e+00 1.000000000000000000e+00 1.000000000000000000e+00 1.000000000000000000e+00 1.000000000000000000e+00 1.000000000000000000e+00 1.000000000000000000e+00 1.000000000000000000e+00 1.000000000000000000e+00 1.000000000000000000e+00 1.000000000000000000e+00 1.000000000000000000e+00 1.000000000000000000e+00 1.000000000000000000e+00 1.000000000000000000e+00 1.000000000000000000e+00 1.000000000000000000e+00 1.000000000000000000e+00 1.000000000000000000e+00 1.000000000000000000e+00 1.000000000000000000e+00 1.000000000000000000e+00 1.000000000000000000e+00 1.000000000000000000e+00 1.000000000000000000e+00 1.000000000000000000e+00 1.000000000000000000e+00 1.000000000000000000e+00 1.000000000000000000e+00 1.000000000000000000e+00 1.000000000000000000e+00 1.000000000000000000e+00 1.000000000000000000e+00 1.000000000000000000e+00 1.000000000000000000e+00 1.000000000000000000e+00 1.000000000000000000e+00 1.000000000000000000e+00 1.000000000000000000e+00 1.000000000000000000e+00 1.000000000000000000e+00 1.000000000000000000e+00 1.000000000000000000e+00 1.000000000000000000e+00 1.000000000000000000e+00 1.000000000000000000e+00 1.000000000000000000e+00 1.000000000000000000e+00 1.000000000000000000e+00 1.000000000000000000e+00 1.000000000000000000e+00 1.000000000000000000e+00 1.000000000000000000e+00 1.000000000000000000e+00 1.000000000000000000e+00 1.000000000000000000e+00 1.000000000000000000e+00 1.000000000000000000e+00 1.000000000000000000e+00 1.000000000000000000e+00 1.000000000000000000e+00 1.000000000000000000e+00 1.000000000000000000e+00 1.000000000000000000e+00 1.000000000000000000e+00 1.000000000000000000e+00 1.000000000000000000e+00 1.000000000000000000e+00 1.000000000000000000e+00 1.000000000000000000e+00 1.000000000000000000e+00 1.000000000000000000e+00 1.000000000000000000e+00 1.000000000000000000e+00 1.000000000000000000e+00 1.000000000000000000e+00 1.000000000000000000e+00 1.000000000000000000e+00 1.000000000000000000e+00 1.000000000000000000e+00 1.000000000000000000e+00 1.000000000000000000e+00 1.000000000000000000e+00 1.000000000000000000e+00 1.000000000000000000e+00 1.000000000000000000e+00 1.000000000000000000e+00 1.000000000000000000e+00 1.000000000000000000e+00 1.000000000000000000e+00 1.000000000000000000e+00 1.000000000000000000e+00 1.000000000000000000e+00 1.000000000000000000e+00 1.000000000000000000e+00 1.000000000000000000e+00 1.000000000000000000e+00 1.000000000000000000e+00 1.000000000000000000e+00 1.000000000000000000e+00 1.000000000000000000e+00 1.000000000000000000e+00 1.000000000000000000e+00 1.000000000000000000e+00 1.000000000000000000e+00 1.000000000000000000e+00 1.000000000000000000e+00 1.000000000000000000e+00 1.000000000000000000e+00 1.000000000000000000e+00 1.000000000000000000e+00 1.000000000000000000e+00 1.000000000000000000e+00 1.000000000000000000e+00 1.000000000000000000e+00 1.000000000000000000e+00 1.000000000000000000e+00 1.000000000000000000e+00 1.000000000000000000e+00 1.000000000000000000e+00 1.000000000000000000e+00 1.000000000000000000e+00 1.000000000000000000e+00 1.000000000000000000e+00 1.000000000000000000e+00 1.000000000000000000e+00 1.000000000000000000e+00 1.000000000000000000e+00 1.000000000000000000e+00 1.000000000000000000e+00 1.000000000000000000e+00 1.000000000000000000e+00 1.000000000000000000e+00 1.000000000000000000e+00 1.000000000000000000e+00 1.000000000000000000e+00 1.000000000000000000e+00 1.000000000000000000e+00 1.000000000000000000e+00 1.000000000000000000e+00 1.000000000000000000e+00 1.000000000000000000e+00 1.000000000000000000e+00 1.000000000000000000e+00 1.000000000000000000e+00 1.000000000000000000e+00 1.000000000000000000e+00 1.000000000000000000e+00 1.000000000000000000e+00 1.000000000000000000e+00 1.000000000000000000e+00 1.000000000000000000e+00 1.000000000000000000e+00 1.000000000000000000e+00 1.000000000000000000e+00 1.000000000000000000e+00 1.000000000000000000e+00 1.000000000000000000e+00 1.000000000000000000e+00 1.000000000000000000e+00 1.000000000000000000e+00 1.000000000000000000e+00 1.000000000000000000e+00 1.000000000000000000e+00 1.000000000000000000e+00 1.000000000000000000e+00 1.000000000000000000e+00 1.000000000000000000e+00 1.000000000000000000e+00 1.000000000000000000e+00 1.000000000000000000e+00 1.000000000000000000e+00 1.000000000000000000e+00 1.000000000000000000e+00 1.000000000000000000e+00 1.000000000000000000e+00 1.000000000000000000e+00 1.000000000000000000e+00 1.000000000000000000e+00 1.000000000000000000e+00 1.000000000000000000e+00 1.000000000000000000e+00 1.000000000000000000e+00 1.000000000000000000e+00 1.000000000000000000e+00 1.000000000000000000e+00 1.000000000000000000e+00 1.000000000000000000e+00 1.000000000000000000e+00 1.000000000000000000e+00 1.000000000000000000e+00 1.000000000000000000e+00 1.000000000000000000e+00 1.000000000000000000e+00 1.000000000000000000e+00 1.000000000000000000e+00 1.000000000000000000e+00 1.000000000000000000e+00 1.000000000000000000e+00 1.000000000000000000e+00 1.000000000000000000e+00 1.000000000000000000e+00 1.000000000000000000e+00 1.000000000000000000e+00 1.000000000000000000e+00 1.000000000000000000e+00 1.000000000000000000e+00 1.000000000000000000e+00 1.000000000000000000e+00 1.000000000000000000e+00 1.000000000000000000e+00 1.000000000000000000e+00 1.000000000000000000e+00 1.000000000000000000e+00 1.000000000000000000e+00 1.000000000000000000e+00 1.000000000000000000e+00 1.000000000000000000e+00 1.000000000000000000e+00 1.000000000000000000e+00 1.000000000000000000e+00 1.000000000000000000e+00 1.000000000000000000e+00 1.000000000000000000e+00 1.000000000000000000e+00 1.000000000000000000e+00 1.000000000000000000e+00 1.000000000000000000e+00 1.000000000000000000e+00 1.000000000000000000e+00 1.000000000000000000e+00 1.000000000000000000e+00 1.000000000000000000e+00 1.000000000000000000e+00 1.000000000000000000e+00 1.000000000000000000e+00 1.000000000000000000e+00 1.000000000000000000e+00 1.000000000000000000e+00 1.000000000000000000e+00 1.000000000000000000e+00 1.000000000000000000e+00 1.000000000000000000e+00 1.000000000000000000e+00 1.000000000000000000e+00 1.000000000000000000e+00 1.000000000000000000e+00 1.000000000000000000e+00 1.000000000000000000e+00 1.000000000000000000e+00 1.000000000000000000e+00 1.000000000000000000e+00 1.000000000000000000e+00 1.000000000000000000e+00 1.000000000000000000e+00 1.000000000000000000e+00 1.000000000000000000e+00 1.000000000000000000e+00 1.000000000000000000e+00 1.000000000000000000e+00 1.000000000000000000e+00 1.000000000000000000e+00 1.000000000000000000e+00 1.000000000000000000e+00 1.000000000000000000e+00 1.000000000000000000e+00 1.000000000000000000e+00 1.000000000000000000e+00 1.000000000000000000e+00 1.000000000000000000e+00 1.000000000000000000e+00 1.000000000000000000e+00 1.000000000000000000e+00 1.000000000000000000e+00 1.000000000000000000e+00 1.000000000000000000e+00 1.000000000000000000e+00 1.000000000000000000e+00 1.000000000000000000e+00 1.000000000000000000e+00 1.000000000000000000e+00 1.000000000000000000e+00 1.000000000000000000e+00 1.000000000000000000e+00 1.000000000000000000e+00 1.000000000000000000e+00 1.000000000000000000e+00 1.000000000000000000e+00 1.000000000000000000e+00 1.000000000000000000e+00 1.000000000000000000e+00 1.000000000000000000e+00 1.000000000000000000e+00 1.000000000000000000e+00 1.000000000000000000e+00 1.000000000000000000e+00 1.000000000000000000e+00 1.000000000000000000e+00 1.000000000000000000e+00 1.000000000000000000e+00 1.000000000000000000e+00 1.000000000000000000e+00 1.000000000000000000e+00 1.000000000000000000e+00 1.000000000000000000e+00 1.000000000000000000e+00 1.000000000000000000e+00 1.000000000000000000e+00 1.000000000000000000e+00 1.000000000000000000e+00 1.000000000000000000e+00 1.000000000000000000e+00 1.000000000000000000e+00 1.000000000000000000e+00 1.000000000000000000e+00 1.000000000000000000e+00 1.000000000000000000e+00 1.000000000000000000e+00 1.000000000000000000e+00 1.000000000000000000e+00 1.000000000000000000e+00 1.000000000000000000e+00 1.000000000000000000e+00 1.000000000000000000e+00 1.000000000000000000e+00 1.000000000000000000e+00 1.000000000000000000e+00 1.000000000000000000e+00 1.000000000000000000e+00 1.000000000000000000e+00 1.000000000000000000e+00 1.000000000000000000e+00 1.000000000000000000e+00 1.000000000000000000e+00 1.000000000000000000e+00 1.000000000000000000e+00 1.000000000000000000e+00 1.000000000000000000e+00 1.000000000000000000e+00 1.000000000000000000e+00 1.000000000000000000e+00 1.000000000000000000e+00 1.000000000000000000e+00 1.000000000000000000e+00 1.000000000000000000e+00 1.000000000000000000e+00 1.000000000000000000e+00 1.000000000000000000e+00 1.000000000000000000e+00 1.000000000000000000e+00 1.000000000000000000e+00 1.000000000000000000e+00 1.000000000000000000e+00 1.000000000000000000e+00 1.000000000000000000e+00 1.000000000000000000e+00 1.000000000000000000e+00 1.000000000000000000e+00 1.000000000000000000e+00 1.000000000000000000e+00 1.000000000000000000e+00 1.000000000000000000e+00 1.000000000000000000e+00 1.000000000000000000e+00 1.000000000000000000e+00 1.000000000000000000e+00 1.000000000000000000e+00 1.000000000000000000e+00 1.000000000000000000e+00 1.000000000000000000e+00 1.000000000000000000e+00 1.000000000000000000e+00 1.000000000000000000e+00 1.000000000000000000e+00 1.000000000000000000e+00 1.000000000000000000e+00 1.000000000000000000e+00 1.000000000000000000e+00 1.000000000000000000e+00 1.000000000000000000e+00 1.000000000000000000e+00 1.000000000000000000e+00 1.000000000000000000e+00 1.000000000000000000e+00 1.000000000000000000e+00 1.000000000000000000e+00 1.000000000000000000e+00 1.000000000000000000e+00 1.000000000000000000e+00 1.000000000000000000e+00 1.000000000000000000e+00 1.000000000000000000e+00 1.000000000000000000e+00 1.000000000000000000e+00 1.000000000000000000e+00 1.000000000000000000e+00 1.000000000000000000e+00 1.000000000000000000e+00 1.000000000000000000e+00 1.000000000000000000e+00 1.000000000000000000e+00 1.000000000000000000e+00 1.000000000000000000e+00 1.000000000000000000e+00 1.000000000000000000e+00 1.000000000000000000e+00 1.000000000000000000e+00 1.000000000000000000e+00 1.000000000000000000e+00 1.000000000000000000e+00 1.000000000000000000e+00 1.000000000000000000e+00 1.000000000000000000e+00 1.000000000000000000e+00 1.000000000000000000e+00 1.000000000000000000e+00 1.000000000000000000e+00 1.000000000000000000e+00 1.000000000000000000e+00 1.000000000000000000e+00 1.000000000000000000e+00 1.000000000000000000e+00 1.000000000000000000e+00 1.000000000000000000e+00 1.000000000000000000e+00 1.000000000000000000e+00 1.000000000000000000e+00 1.000000000000000000e+00 1.000000000000000000e+00 1.000000000000000000e+00 1.000000000000000000e+00 1.000000000000000000e+00 1.000000000000000000e+00 1.000000000000000000e+00 1.000000000000000000e+00 1.000000000000000000e+00 1.000000000000000000e+00 1.000000000000000000e+00 1.000000000000000000e+00 1.000000000000000000e+00 1.000000000000000000e+00 1.000000000000000000e+00 1.000000000000000000e+00 1.000000000000000000e+00 1.000000000000000000e+00 1.000000000000000000e+00 1.000000000000000000e+00 1.000000000000000000e+00 1.000000000000000000e+00 1.000000000000000000e+00 1.000000000000000000e+00 1.000000000000000000e+00 1.000000000000000000e+00 1.000000000000000000e+00 1.000000000000000000e+00 1.000000000000000000e+00 1.000000000000000000e+00 1.000000000000000000e+00 1.000000000000000000e+00 1.000000000000000000e+00 1.000000000000000000e+00 1.000000000000000000e+00 1.000000000000000000e+00 1.000000000000000000e+00 1.000000000000000000e+00 1.000000000000000000e+00 1.000000000000000000e+00 1.000000000000000000e+00 1.000000000000000000e+00 1.000000000000000000e+00 1.000000000000000000e+00 1.000000000000000000e+00 1.000000000000000000e+00 1.000000000000000000e+00 1.000000000000000000e+00 1.000000000000000000e+00 1.000000000000000000e+00 1.000000000000000000e+00 1.000000000000000000e+00 1.000000000000000000e+00 1.000000000000000000e+00 1.000000000000000000e+00 1.000000000000000000e+00 1.000000000000000000e+00 1.000000000000000000e+00 1.000000000000000000e+00 1.000000000000000000e+00 1.000000000000000000e+00 1.000000000000000000e+00 1.000000000000000000e+00 1.000000000000000000e+00 1.000000000000000000e+00 1.000000000000000000e+00 1.000000000000000000e+00 1.000000000000000000e+00 1.000000000000000000e+00 1.000000000000000000e+00 1.000000000000000000e+00 1.000000000000000000e+00 1.000000000000000000e+00 1.000000000000000000e+00 1.000000000000000000e+00 1.000000000000000000e+00 1.000000000000000000e+00 1.000000000000000000e+00 1.000000000000000000e+00 1.000000000000000000e+00 1.000000000000000000e+00 1.000000000000000000e+00 1.000000000000000000e+00 1.000000000000000000e+00 1.000000000000000000e+00 1.000000000000000000e+00 1.000000000000000000e+00 1.000000000000000000e+00 1.000000000000000000e+00 1.000000000000000000e+00 1.000000000000000000e+00 1.000000000000000000e+00 1.000000000000000000e+00 1.000000000000000000e+00 1.000000000000000000e+00 1.000000000000000000e+00 1.000000000000000000e+00 1.000000000000000000e+00 1.000000000000000000e+00 1.000000000000000000e+00 1.000000000000000000e+00 1.000000000000000000e+00 1.000000000000000000e+00 1.000000000000000000e+00 1.000000000000000000e+00 1.000000000000000000e+00 1.000000000000000000e+00 1.000000000000000000e+00 1.000000000000000000e+00 1.000000000000000000e+00 1.000000000000000000e+00 1.000000000000000000e+00 1.000000000000000000e+00 1.000000000000000000e+00 1.000000000000000000e+00 1.000000000000000000e+00 1.000000000000000000e+00 1.000000000000000000e+00 1.000000000000000000e+00 1.000000000000000000e+00 1.000000000000000000e+00 1.000000000000000000e+00 1.000000000000000000e+00 1.000000000000000000e+00 1.000000000000000000e+00 1.000000000000000000e+00 1.000000000000000000e+00 1.000000000000000000e+00 1.000000000000000000e+00 1.000000000000000000e+00 1.000000000000000000e+00 1.000000000000000000e+00 1.000000000000000000e+00 1.000000000000000000e+00 1.000000000000000000e+00 1.000000000000000000e+00 1.000000000000000000e+00 1.000000000000000000e+00 1.000000000000000000e+00 1.000000000000000000e+00 1.000000000000000000e+00 1.000000000000000000e+00 1.000000000000000000e+00 1.000000000000000000e+00 1.000000000000000000e+00 1.000000000000000000e+00 1.000000000000000000e+00 1.000000000000000000e+00 1.000000000000000000e+00 1.000000000000000000e+00 1.000000000000000000e+00 1.000000000000000000e+00 1.000000000000000000e+00 1.000000000000000000e+00 1.000000000000000000e+00 1.000000000000000000e+00 1.000000000000000000e+00 1.000000000000000000e+00 1.000000000000000000e+00 1.000000000000000000e+00 1.000000000000000000e+00 1.000000000000000000e+00 1.000000000000000000e+00 1.000000000000000000e+00 1.000000000000000000e+00 1.000000000000000000e+00 1.000000000000000000e+00 1.000000000000000000e+00 1.000000000000000000e+00 1.000000000000000000e+00 1.000000000000000000e+00 1.000000000000000000e+00 1.000000000000000000e+00 1.000000000000000000e+00 1.000000000000000000e+00 1.000000000000000000e+00 1.000000000000000000e+00 1.000000000000000000e+00 1.000000000000000000e+00 1.000000000000000000e+00 1.000000000000000000e+00 1.000000000000000000e+00 1.000000000000000000e+00 1.000000000000000000e+00 1.000000000000000000e+00 1.000000000000000000e+00 1.000000000000000000e+00 1.000000000000000000e+00 1.000000000000000000e+00 1.000000000000000000e+00 1.000000000000000000e+00 1.000000000000000000e+00 1.000000000000000000e+00 1.000000000000000000e+00 1.000000000000000000e+00 1.000000000000000000e+00 1.000000000000000000e+00 1.000000000000000000e+00 1.000000000000000000e+00 1.000000000000000000e+00 1.000000000000000000e+00 1.000000000000000000e+00 1.000000000000000000e+00 1.000000000000000000e+00 1.000000000000000000e+00 1.000000000000000000e+00 1.000000000000000000e+00 1.000000000000000000e+00 1.000000000000000000e+00 1.000000000000000000e+00 1.000000000000000000e+00 1.000000000000000000e+00 1.000000000000000000e+00 1.000000000000000000e+00 1.000000000000000000e+00 1.000000000000000000e+00
3.824940608844219075e-02 5.041066561968798876e-01 -2.537629988154191385e-01 7.599046566721564533e-01 5.160901180713066694e-01 5.068719929224257958e-01 6.005976965181623051e-01 3.222077076048948663e-01 5.443413579569968963e-01 5.265464617800401648e-01 1.082482817643061201e+00 -7.072680025107800361e-01 1.410521540496109338e+00 4.584366165490956213e-01 5.172765308033737686e-01 4.011185654920326193e-01 8.706324729838567089e-01 9.786379804521980752e-01 7.254179546797365763e-01 5.208444722266135640e-01 3.802065222798804989e-01 9.871151086429740262e-01 3.889600721530997451e-01 5.128476660389936770e-01 8.385015319695704461e-02 6.694958202779931478e-01 3.862885599360689759e-01 6.840919271184779937e-01 5.542611897229178242e-01 1.595294126312944982e+00 5.032499492835764698e-01 6.086822186851069683e-01 7.189686034581836971e-01 5.264052802592975588e-01 7.005177097704933242e-01 4.540192595259924802e-01 5.222907998746494362e-01 1.812176028697091823e+00 -7.698879931116628383e-02 5.084844219739990123e-01 -1.885388704502784507e-01 -5.617665340386056583e-01 7.482229425372186604e-01 2.279688140167204224e-01 2.980809004111287797e-01 5.007449455267158900e-01 7.595256949763257159e-01 5.247041627714484902e-01 6.411024048505088446e-01 1.386766502897713617e-02 2.179550250949607165e-02 8.010826806184706550e-01 6.785022642894203981e-01 4.330460813289324640e-01 4.597129458539967461e-01 1.830509020199540607e-02 5.176679489359441444e-01 5.211977509487599747e-01 1.940636952722471220e-01 4.895134754250523024e-01 9.191874445051649856e-01 5.005568740121849602e-01 5.279768844620568169e-01 3.889602011252112912e-01 6.790767113074650529e-01 6.088734201226263520e-01 5.133913612865527165e-01 3.444008609972191715e-01 5.656566530501188073e-01 1.811829351558118598e-02 4.328157977097421005e-01 5.793516142850420048e-01 5.188510000943680200e-01 1.023779065280064696e-02 1.513506669517621583e+00 5.478759232238561427e-01 6.360335195525373964e-01 7.275838012822134493e-01 5.188875778062954636e-01 1.385202037023186339e+00 5.313437072663236282e-01 3.290419479767656141e-01 1.417813291210610283e+00 7.358603358308977160e-01 5.023008549975803705e-01 7.544878325714658995e-01 8.019353127546795523e-01 5.499139918429445384e-01 4.169054887216274152e-01 5.761970901547139867e-01 2.940889385282020596e-01 2.196738258516691911e+00 7.623465843002276143e-01 5.748516451468512270e-03 4.931989465480743351e-01 4.758123541889344166e-01 5.630660913214168284e-01 4.794671088301973860e-01 1.896794811601146546e-01 6.602956706842127987e-01 1.619002718380495809e+00 6.892128134101151993e-01 5.454194033482852033e-01 6.698476078613662121e-01 8.590750209881080623e-01 -2.092533985120464290e+00 -1.228291563977352618e+00 5.364716991303677407e-01 6.039169786226470382e-01 9.703579936351077739e-01 5.734507531390362622e-01 4.316264588267952895e-01 1.713187053701805129e-01 4.960084152997730200e-01 5.239784613391685886e-01 4.964377782023943197e-01 4.737546115560927751e-01 5.259096480874253521e-01 9.499771314619883666e-01 5.147893687870479518e-01 1.308075838530080359e+00 5.472441610196218109e-01 6.081765751319307967e-01 -4.733703664286811885e-01 5.196576587327633723e-01 1.956726449316133154e+00 5.505176556228444928e-01 5.512901420711110445e-01 6.821309847588328257e-01 5.263213961054750145e-01 5.383297454722394404e-01 5.162789786294578187e-01 4.267577203868015423e-01 3.861181804434881126e-01 -3.196206869597821854e-01 -1.689489426274365103e-01 6.537304486478242582e-01 5.313202224507618948e-02 1.003448090092747380e+00 6.076350216115770086e-01 5.043393481058501271e-01 8.680907703449829427e-01 5.679298261154529515e-01 5.500987434081555660e-01 5.197859531244328757e-01 4.874090448719100438e-02 9.372077377082650429e-01 -6.323572963148083037e-02 4.389728624976423910e-01 -9.010302657975163276e-01 7.646517998061864718e-01 -2.916237790267668384e-01 5.007520086112683400e-01 5.614646307432469285e-01 4.572286951447673276e-01 5.231332331601905583e-01 1.976654224472713439e+00 -1.254070170701703790e-01 8.182233352025672923e-01 6.803518230580308801e-01 5.399873481526927810e-01 4.186436053795153378e-01 5.000567230255278384e-01 5.187872601429196484e-01 1.076057918870041874e+00 2.092362024717322744e-01 8.511190656530713827e-01 3.461005879432837440e-01 4.485620863097263267e-01 6.594307424642478210e-01 5.398923353460003405e-01 7.613442170670710052e-01 5.007414082306334002e-01 5.172199181171942550e-01 4.041297671498793043e-01 4.711099909255566515e-02 2.015916893542117616e-01 9.613503922464922136e-02 7.503341738148854301e-01 1.142886515809848236e+00 6.896937897749511048e-01 5.269915216521328105e-01 -1.741787007625583694e-01 4.382417848412575867e-01 5.926228243601894263e-01 5.481905550206199740e-01 5.128558800041794763e-01 5.116138608905980156e-01 2.816589686496274503e+00 5.344285785344290440e-01 5.489151807744258038e-01 -9.018922420567571097e-01 5.423108166936283503e-01 5.349214548553865578e-01 1.923669613783766108e-01 5.221918781601349036e-01 9.384787695294863896e-01 5.342601146220228303e-01 5.666836036919480346e-01 4.628030354576693206e-01 6.305276580484885374e-01 4.901098563884430659e-01 8.992505232650976899e-01 6.014809069828991328e-01 5.432206074998205958e-01 5.666835969356531777e-01 2.280137200177951573e-01 1.292562393910199114e+00 5.586770860907183112e-01 4.188918464803143005e-01 4.282303677992116420e-01 -8.799179428468359432e-02 4.871225749790135118e-01 1.569632493262016759e-01 5.202059661118138001e-01 5.123128404496789523e-01 5.155236984211889473e-01 5.183049337656391309e-01 5.154937370189499601e-01 5.171644741195613459e-01 4.370643196498682492e-01 5.824431762035142679e-01 -7.120158603150729126e-01 6.088995299567662167e-01 4.059342524420161968e-01 3.685007546837180681e-01 6.495931815896538453e-02 1.316343790500292599e+00 9.634467251043588032e-01 4.947506844047616648e-01 -1.030249489730590412e-01 1.059427413742165536e+00 5.194129293603234609e-01 4.496826054839292430e-01 6.127318846058806834e-01 4.107519758012767030e-01 3.039190169436469247e-01 1.781237657227701943e-01 -1.578720159727367844e-01 -8.835535703082010583e-02 4.195980303797375299e-01 5.338497602082474813e-01 -1.108281844292787754e-01 4.298854847999963869e-01 5.139492638020961568e-01 4.944827535330947321e-01 -9.782024530259261774e-02 7.560581656469215206e-01 -2.309663884773559772e+00 6.146653823183949594e-01 -6.226205638169947099e-01 4.979675957875734360e-01 5.137093368893713707e-01 3.889604658591587771e-01 4.764276954696166633e-01 5.659087550125617705e-01 5.428970805080786111e-01 7.690116447388615217e-01 5.596604746724185286e-01 1.694711762177527836e+00 6.804981537574594785e-01 6.882636094034126906e-01 4.688826131987534618e-01 3.659328467875594959e-01 9.191874721145222304e-01 4.281556448029883444e-01 2.698212135965813552e+00 4.868372717490118129e-01 2.287954146232014097e-01 7.411419808493165950e-01 5.043573122241956641e-01 9.190612978372365571e-01 5.204511736655925702e-01 5.692081226615984813e-01 5.179895913106001837e-01 1.116164453102586274e+00 7.698488484217101968e-01 8.607965506314106952e-01 8.068543369006421218e-01 5.064983105447089518e-01 6.810059279189811798e-01 5.170817217315533121e-01 3.814113496638241729e-01 -7.294657848087686691e-01 3.873338104872917631e-01 5.588892631133955957e-01 5.633973860298178149e-01 5.295438462803018220e-01 4.964377390332607165e-01 6.088058325571124030e-01 5.492383025913952777e-01 -8.646408503718238103e-01 7.354750578512633252e-01 5.480496206783812552e-01 4.231027561003720960e-03 5.389969315691850449e-01 1.853094650924969278e+00 5.054066204874437807e-01 5.187102800971644667e-01 4.389659609437061016e-01 -3.441880399773747268e+00 5.156995789178802081e-01 2.853057181091098293e+00 7.610941367255552592e-01 5.171652316392822968e-01 -5.751370105216089268e-01 5.217824930908288028e-01 5.179915043369803795e-01 4.430402669378835645e-01 4.509068613849994689e-01 3.540361773938923706e-01 6.451347764930531747e-01 3.141889668789146772e-01 5.217993462850122333e-01 5.142141786093946676e-01 3.512405811607924311e-01 5.227729156336745620e-01 7.608046172746966151e-01 5.168522162482933613e-01 1.203727574583501880e+00 1.596134088288897815e-02 2.225562378844775147e+00 2.652211546163869116e+00 5.042689505670893135e-01 -2.204468920739127147e-01 4.027827929935777207e-01 4.009070810823749942e-01 7.346968789895581553e-01 1.383084003021401331e+00 5.342122808827709513e-01 1.129101634155937450e+00 5.181108470890057882e-01 1.221035884047750181e-01 1.255881355466370586e+00 4.832112163792003368e-01 5.467236150105673209e-01 5.080769227731838367e-01 9.009571217272690502e-01 -3.755476850259699795e+00 1.640995692343883094e+00 5.071491436398619657e-01 6.369507018604060322e-01 5.187112512392959562e-01 1.812176020801154364e+00 3.014298618207378877e-01 5.552156818205051803e-01 5.189886217265015089e-01 5.039631961471667809e-01 1.375688002746552785e+00 5.644626930664785602e-01 5.666833555544624756e-01 4.298880725063864428e-01 6.014809064800986649e-01 5.190550343478825823e-01 5.688164314563605162e-01 8.988547501471932932e-01 5.168107965997557063e-01 3.840526064733359446e-01 1.725306049896853655e-01 6.615592087193949977e-01 5.161915460451246274e-01 3.447584023457389013e-01 5.552157157816567379e-01 6.504090242366864505e-01 5.122444336712328461e-01 1.028746174590145168e+00 9.641465130353809032e-01 1.143805586742313141e+00 5.198180132538234854e-01 2.225842647735568058e-01 9.191876444033201254e-01 -1.094316220035371490e-01 9.335648922196843058e-01 6.296658588836071546e-01 1.531465877381797507e-02 5.593897875262858754e-01 9.393836777443246300e-01 3.867703747364867883e-01 5.009485091456215011e-01 2.921823349963999505e-01 -3.365198078266888881e-01 -2.483117988450874503e+00 4.957869260777061915e-01 6.014809055583784092e-01 6.014808515103777786e-01 4.988851078271469563e-01 3.922845604811071585e-01 -2.254656702385981204e-01 3.009386094635385644e-01 5.107842884306404985e-01 7.016421471006989430e-01 5.166697443357394226e-01 1.039377615672318012e+00 5.666834794026326394e-01 5.177971562477537981e-01 4.877453276160094719e-01 2.765634479237241150e-01 6.574648525464481530e-01 5.097761916405569860e-01 5.185505059446041676e-01 5.257253719378203183e-01 2.957084048672961596e-01 1.645459257596171287e-02 6.014809050404820168e-01 6.614950212382574302e-01 5.176384573699557290e-01 4.029911564190440942e-01 8.592971405840400534e-01 7.340355306045813766e-01 5.639809026501563238e-01 1.875810454495744573e+00 5.035041772424126982e-01 -3.107941767594273763e+00 7.595995208479014993e-01 1.528950347154788725e+00 5.745221833862733662e-01 -1.083424902420176084e+00 7.943011550881372562e-01 4.444424085499247279e-01 5.265055572320319621e-01 5.314315781508598402e-01 -3.713430510475264068e-01 5.194427006002166891e-01 1.072423751231980971e+00 4.984388509080961982e-01 -3.725259113458231908e-01 5.150736262239582475e-01 5.191895610928498606e-01 7.865272039418805816e-01 4.989665184063412640e-01 5.741710334447459596e-01 -5.306439118381810482e-01 5.609901004624562315e-01 5.186788637613938269e-01 6.247485071313373384e-01 5.143669366726956182e-01 7.682426925546879115e-01 5.205158472379208812e-01 6.089043574179351381e-01 5.759263653242023828e-01 5.112389847589975389e-01 2.736035414479105476e-01 3.047460557280006199e-01 3.413049256725606551e-01 9.654163923169782890e-01 5.531445841193854962e-01 3.216369470434801592e+00 6.584309792812387263e-01 6.454278483589285242e-01 5.511048234255707667e-01 5.841749746363722462e-01 2.515944568275092427e-02 4.890350442630280736e-01 4.935179658229735256e-01 5.206168488240727754e-01 1.160882111893720259e+00 7.679196515927063649e-01 5.263235113252462405e-01 4.416363432368575204e-01 1.118200484897703850e+00 5.411656842150928126e-01 5.696029828605666534e-01 5.353767361044081685e-01 8.054654366788920328e-01 5.217733241541534506e-01 9.360177650070242716e-01 5.225430623825090271e-01 5.184114544860901619e-01 1.711470684343890936e-02 5.260561235532614788e-01 7.002229360025037999e-03 3.167366211190969505e-01 4.051620627785764150e-01 5.774794596490255838e-01 7.825674702816921569e-01 5.128266879971749015e-01 3.881303520398290408e-01 8.762954069347025921e-02 5.127762416530833312e-01 5.445236473533807686e-01 4.538173056239329650e-01 3.146307111437756515e-02 5.179510773917058719e-01 2.500303684824680683e-01 5.195536207840680820e-01 4.132895436717795024e-01 1.259688292820887456e+00 7.726633643757623293e-01 5.405682762380020767e-01 2.558084617065570776e-01 7.413973536066592596e-01 4.337988412145187267e-01 9.963714303163277997e-01 6.009950672376673797e-01 6.039628247304222874e-01 6.981473306974187443e-01 2.003966322740228012e+00 4.687595036922085345e-01 4.881399347550998691e-01 5.119303734304146980e-01 7.355024100923263086e-01 5.604124407489667892e-01 8.510652359006082301e-01 -5.763949865464874645e-01 3.622050876937569219e-01 5.129153699199402450e-01 4.283092412211034761e-01 3.869021922315390993e-01 -6.232860500031897066e-01 3.872124225115238794e-01 5.143725034022827991e-01 7.334453359493854352e-01 6.677908130872088899e-01 1.501331101261708989e+00 5.143611134286920628e-01 5.151808519976679435e-01 -7.123656279355681242e-01 5.184742259851944368e-01 1.226404465075700001e+00 7.136796374899595508e-01 2.752548707897856106e-01 2.515342089054901087e-01 -1.733613052970335078e+00 5.347810963275955176e-01 1.857669266659081053e-01 1.102753704416234104e+00 8.202992246363511875e-01 5.194353694363798013e-01 5.308305808862602282e-01 6.117096942585611430e-01 7.598317363804908409e-01 4.358019355723191102e-01 5.578880846080889189e-01 2.799396022572857995e-02 5.349652733799244997e-01 5.888653983801093172e-01 5.043911544468206998e-01 5.093848730467555042e-01 4.750399297250187391e-01 1.218386109910058357e+00 -1.018346587632047440e-01 -2.384442740077524214e-01 4.167882916308578989e-01 5.514356668296693798e-01 5.378457125083492274e-01 5.303934479003771241e-01 -8.648226547659366714e-01 3.181211499454209779e+00 5.259847364381013968e-01 4.442804580573543882e-01 4.313592003730465363e-01 5.206503128366483102e-01 5.100565029110923909e-01 5.494570816480507380e-01 3.259393947888614695e-01 5.993107571000194644e-01 5.197005975177171333e-01 5.578970754355799810e-01 3.394193227545152514e-01 4.101376800989351423e-01 5.611064715919188428e-01 4.055789773171403767e-01 5.164910082413599612e-01 5.508872106846006700e-01 6.666184734258937539e-01 1.015356862369678703e+00 2.325108638162997288e+00 5.262763215870972511e-01 4.979583369636614298e-01 4.062538608741685375e-01 4.847166410556345562e-01 3.708881116452084070e-01 5.179762723940152247e-01 5.124971554770703097e-01 5.103248335159554783e-01 5.462859320451508571e-01 4.806529000862372891e-01 7.602737223458453375e-01 3.651805526340294872e-01 4.393761710420144295e-01 4.374296302645905299e-01 5.237273296920794685e-01 1.135842543651664066e-01 9.191874634598216076e-01 5.686997500329324939e-01 1.093545636515381864e-01 1.912131356941804583e+00 2.934352794209146298e-01 4.175749289207050241e-01 5.921836293606662638e-01 6.379495706600672722e-02 5.369661493270364572e-01 1.519248647955374842e+00 7.866589368323101406e-01 7.337190455197801775e-01 5.159386948962254582e-01 5.480338928806391952e-01 4.544598027949060537e-01 6.594427429153977283e-01 5.485624904555146397e-01 5.155459546798755177e-01 -2.290123707297483102e-01 5.210631681222653855e-01 -1.513391130401112949e+00 4.821133118953720986e-01 5.093062729532656929e-01 5.061524931608044620e-01 4.389646951227317850e-01 9.191874635635820523e-01 2.203377023030069215e-01 5.316696581378411723e-01 1.348531044664689871e+00 -5.633685757649755654e-01 5.179094452910955049e-01 1.141830211654689675e+00 1.528685208534667384e+00 5.093575925542198624e-01 5.200648266825970145e-01 -5.772735944759503635e-02 -1.690141834555082712e+00 2.741489314211654205e-01 8.073275680519148567e-01 5.159155585223190732e-01 5.197101104012641359e-01 6.020080060923617138e-01 4.834111285995241203e-01 -4.123410347833114109e-01 8.235532686730255847e-01 4.964380385274162477e-01 3.293706399574666266e-01 5.441224384891427679e-01 -8.060702556866229662e-03 -1.695719928087230932e-01 1.802264822909753095e+00 4.131114999112571740e-01 5.254931504310653700e-01 5.144355761475837285e-01 3.248972956908083853e-01 5.647282541507246956e-01 -9.251103534879756563e-02 -1.201949639437835726e+00 5.207481972989307373e-01 5.437897588624035494e-01 5.037877532953102255e-01 6.094138262562139863e-01 5.074360901351065989e-01 5.457538060417634895e-01 5.539754155649436740e-01 5.693988708542395694e-01 1.034183916072577203e+00 7.209529934808449614e-01 5.071678608605135752e-01 6.030470126948037635e-01 4.685275321020270778e-01 4.562292352567932641e-01 4.077741840187956712e-02 5.552157095394250064e-01 4.636296663571924381e-01 5.111581114897261191e-01 7.581814647254636608e-01 8.961995408634864102e-01 8.510538459494447761e-01 -5.150145246156726531e-01 5.076369623427040567e-01 4.494549453216128976e-01 5.126033513959900034e-01 5.906208794950111862e-01 9.094999279837866490e-01 5.542136879544746764e-01 5.284946913821064740e-01 -2.678187770656783040e-01 -8.770613306247303509e-01 2.308490989529389026e+00 5.061010140831134763e-01 8.984038719581600718e-01 4.244506458164397089e-01 5.741475389793255779e-01 3.844331866211457838e-01 1.509040020688525996e-01 5.156046941315016729e-01 5.470433709520748922e-01 -5.374213157800442064e-03 5.129829123008294856e-01 4.349475238365237972e-01 5.126167072024029325e-01 6.128535119121082397e-01 5.208965955986067931e-01 6.177463106985734420e-01 4.120062474036655376e-01 5.305625558922421048e-01 4.423293774422389357e-01 5.098643075600738372e-01 4.141679214798999475e-01 5.365308430509875270e-01 -2.668206331510679652e-01 5.131241462483421278e-01 6.423811172481401766e-01 4.993156794901008610e-01 7.596918936070444772e-01 9.191875046520492365e-01 7.294657976747801476e-01 -6.024962999090219817e-01 9.847834673373699887e-01 1.812176028735947853e+00 4.961741188376018741e-01 4.638003696811884291e-01 1.080706196974822841e+00 5.680622951427927170e-01 7.596008029213928703e-01 5.141620625003000544e-01 1.844625465469331926e+00 5.191179966391796796e-01 4.298863693813391174e-01 1.234735642138982348e+00 -6.300874409315948554e-02 5.408641133281755220e-01 -1.595374556859538995e-01 -9.675255063520609156e-01 -1.693158303069342285e-01 7.729868858722700464e-01 5.731204835129639630e-01 5.093499799665185401e-01 -3.256003422862558394e-01 4.993129355341593412e-01 5.379215263745085185e-02 -3.884369472450299732e-01 5.092227882291655572e-01 5.192322342873180174e-01 5.284326072394301965e-01 5.445657181600570551e-01 5.128818445833677186e-01 9.121133900032807329e-01 -4.193328625044923652e-01 5.151834810229648509e-01 5.343631282465409749e-01 6.066327379453467783e-01 1.169297894776434754e+00 4.943054899460769813e-01 6.592366967599980754e-01 5.140516880061599680e-01 4.578057783154877020e-02 -3.719584805902793057e-01 5.428654476796925810e-01 5.539192203602186781e-01 6.825610705114858456e-01 5.229511077315007750e-01 3.525080708920861339e-01 5.186889353317407636e-01 5.139350859621643064e-01 3.786844964799735980e-01 5.248865499588992733e-01 8.397267908855509111e-01 2.566363438488154625e+00 -2.450066184209120923e-01 6.618472058744531150e-01 3.314881936093513892e-01 2.071720798595429458e-01 6.664949000294217996e-01 -5.708759847865751275e-02 -1.549932182793759772e+00 5.205081022521523826e-01 2.628176920328912036e+00 5.446905957123718833e-01 1.594990558994018037e-01 1.651435577079843064e-01 4.964377782647328430e-01 5.834792452466281976e-01 1.566681357551053200e+00 5.008221144035245320e-01 1.260992914666160813e-01 4.262204254306382056e-01 1.711597466823773672e+00 6.004343392217246222e-01 7.667989400063149885e-01 4.993231548937476227e-01 7.389453362119832169e-01 4.603698767273916026e-01 5.724361156590225264e-01 1.965886372323168499e-02 5.155618696640893450e-01 5.146648168499393661e-01 -5.762738595472917114e-01 -7.605269580831232334e-02 1.177415973664255100e+00 2.379069453072573115e-01 4.834222025202581374e-01 7.055081162935256112e-01 5.488670794621270943e-01 2.008970742354354577e+00 6.832081327600779685e-01 2.296701313269130726e-02 3.169661211556643599e-01 3.955876338304440409e-01 1.124912154766031902e+00 5.048672714905048098e-01 -2.757512550856485584e-02 5.094555717644098092e-01 -1.390259729470551611e-02 5.298574845001282618e-01 5.119564083154022338e-01 9.621752564775162093e-04 -4.467166388873877042e-02 6.666489856104470535e-01 5.713276460121546885e-01 5.797101181432530170e-01 2.356387172928417206e-01 4.369623741976073061e-01 5.070536286792026726e-01 5.129081319463224542e-01 5.390066223204754703e-01 4.792901930947005007e-01 6.056864292621931822e-01 1.018013915938414060e+00 3.141916039991286436e+00 9.403433032708385930e-01 5.189646192163390737e-01 6.193541256824965924e-01 2.153448910050787257e-01 5.142546839522509350e-01 8.507506479801978383e-01 5.002091337142063887e-01 1.316835922743825105e+00 4.508326832459381150e-01 -5.815411431504283746e-01 -1.831184611204140014e-02 4.097096887799441256e-01 6.138425262971402008e-01 5.374041520463935795e-01 5.115411774485543184e-01 4.777167024763333270e-02 5.012682065526768982e-01 4.282319123902948443e-01 -3.722083780736427983e+00 4.802242602778615810e-01 5.233899018852821161e-01 1.131013481016337030e+00 5.171265065253473070e-01 4.910778538676692229e-01 6.817015928091225696e-01 -8.921995205939392548e-01 -5.026642595140058400e-01 3.741790619968242415e-02 5.163213772098919074e-01 4.653333046137293483e-01 2.155596595421317152e-01 5.137032780885781857e-01 -3.402668028084257501e-01 5.958986862929689377e-01 5.142167482040347348e-01 6.954366654880445031e-01 5.463547753965801723e-01 4.707534172083927548e-01 1.533103270723010780e-01 -7.627536477131153791e-01 6.555554587677641099e-01 5.360366272466561277e-01 1.594536062016820022e-01 5.146546002327070379e-01 5.582603592585663188e-01 5.347341846997855086e-01 6.711436659782636927e-01 5.749036334769450640e-01 5.448555467103001204e-01 5.016987495306817202e-01 1.812176028344262724e+00 3.588294000323514754e-01 5.441273757212226059e-01 -1.246681615193209330e-01 5.479408162124446147e-01 6.311358560353077518e-01 5.253911363327918860e-01 4.910836655841263609e-01 3.566895069934677420e-01 9.415341322701651361e-01 1.209167728507394513e+00 5.561959086019437892e-01 5.831571541225354371e-01 5.965490909161805799e-01 4.753742170339340101e-01 5.190715423194234290e-01 5.174981157053472058e-01 9.847788947380577973e-01 7.096677487135797380e-01 -4.584215265800198891e-01 4.561545856782187602e-01 9.109102241114779286e-01 5.180989987292310417e-01 -2.283676009381303135e-02 5.276541860257056848e-01 1.373849738021504674e+00 -1.388845615635667663e-01 6.098091751552202622e-01 2.421365978027380239e-01 4.969313103843413515e-01 8.454673336448407239e-01 5.196019773782840634e-01 3.706295452168856808e-01 1.402819698305571627e+00 4.719402957685049915e-01 5.289362089480209583e-01 -6.706332665629509693e-01 4.484727853287732713e-01 1.041369307559731228e+00 6.088048935052312594e-01 7.809315954476735155e-02 9.747357260505750132e-01 -3.733787951103525321e-02 6.694322142933940567e-01 1.628097504334247159e+00 -8.604304590857798640e-01 5.780850137946764722e-01 5.170131482829012359e-01 -4.619423854552567876e-01 3.089563826400902324e-01 6.035509648525203552e-01 4.898166850460889399e-01 5.029287887939838386e-01 3.846271922458803783e-01 2.631679725192563324e-01 3.447658977209616671e-01 5.755624318717372789e-01 5.133376921126202586e-01 7.352296099094028474e-03 -1.187022872949359265e-01 5.055089140135539116e-01 1.064622826362269459e+00 4.780166688474287717e-01 -5.767748852675619320e-01 5.231544353141068804e-01 5.196505626639510433e-01 5.449608814503333898e-01 4.316632552400347794e-02 3.296216135453802765e-01 5.160408564533724984e-01 5.044087789881550599e-01 4.517405363536343144e-01 5.187376809683737211e-03 5.401828507092036880e-01 5.212613928722221734e-01 6.194268289515553194e-01 2.090989646201187213e+00 2.011400318436291218e-03 3.860237985533962468e-01 5.438664947071053524e-01 1.837391241611629367e+00 5.698576561914835414e-01 5.106071628130242068e-01 1.875284533164829279e-02 5.552156779539411113e-01 5.079397239827275756e-01 4.764075953939903574e-01 3.846479531158070730e-01 5.004427157266824189e-01 4.500186817317654020e-01 5.406184610397354318e-01 -5.388611811246823979e-01 5.168563561390756567e-01 5.407991619609788803e-01 5.451983127914979965e-01 1.136445191030995838e+00 5.242274096359917923e-01 -2.455055600528097681e-01 1.093644555387329520e+00 -1.278213765493697807e+00 -5.275000743586841789e-01 5.260056532765308157e-01 5.169543124186618543e-01 6.550648151973064159e-01 5.191371247112157583e-01 4.304167600279809602e-01 5.754677604588118722e-01 5.552156755435996294e-01 5.153657592244531571e-01 4.932604122675481872e-01 5.912781769856002567e-01 5.161305556869206779e-01 3.017642577341818066e-01 5.045004010397157179e-01 5.337505568374465437e-01 3.886190623922780585e-01 5.287690749092746056e-01 5.120253846774434070e-01 5.491045741679508874e-01 6.504445935001063051e-01 5.198524183651742625e-01 6.965686484404015610e-01 4.971584652779327262e-01 5.048519715703092547e-01 5.412504824360631073e-01 3.819823229925665142e-01 3.942528349230625118e-01 2.430087971015931103e+00 4.743489471256240320e-01 6.028877616569968678e-01 3.015739596888594720e-01 5.825058538498236738e-01 1.114290897252962820e+00 4.379248197959827449e-01 7.005527720747859455e-01 5.187014065255467488e-01
7.061967338324290910e-01 3.220011447455332076e-01 4.332435595423966279e-01 -5.430620742645168170e-03 3.115947609915631356e-01 3.296803214656783276e-01 5.346647746721709948e-01 4.223139624645844137e-01 3.059731546583287498e-01 3.278617255879599512e-01 2.058806590062843611e+00 1.720078405980837166e+00 -1.450184623016793850e+00 6.129228656138251408e-01 3.109557617617424996e-01 4.399171117753026272e-01 1.315505731197292028e-01 4.374042994158704456e-01 4.306727306778825870e-01 3.182252674336484843e-01 4.499739743907784639e-01 2.123774093158821596e+00 3.787727076886749922e-01 3.644830122657169991e-01 7.351382976469184038e-01 -2.047266123394911597e-01 4.364121970282693330e-01 2.102290780020671379e-01 2.774434109497261325e-01 -8.915802667948451443e-01 3.864784868534549278e-01 -1.399023816927399688e-01 2.889751411782380819e-01 3.342435831581594963e-01 -4.201496655239053690e-01 4.837825301819038137e-01 3.256480413392023876e-01 -3.660644403083596066e-01 -3.251182028972071425e+00 2.800814545689170876e-01 1.162992098630507121e+00 1.431306174222494731e-01 -1.669915372354836003e-01 7.917928730768898360e-01 6.016835695993375532e-01 3.285471836282000124e-01 -5.006222715538355406e-03 3.328917378993418441e-01 1.900949018253892397e-01 6.590796068745010672e-01 6.792354431491341993e-01 4.868785928029071286e-01 -2.060814364080887917e-01 2.199018642122481104e-01 6.006944232109728832e-01 6.522454971663784740e-01 3.438389099795502446e-01 2.448314236066594929e-01 3.461916446049736473e-01 3.578129901295899473e-01 4.280807960059176409e-01 4.240799402134125540e-01 3.140513737995294652e-01 3.787726898498536277e-01 -3.456298537646151914e-01 1.483295515039257662e-01 3.288486418087279151e-01 3.210690497794167486e-01 2.072586545029642680e-01 7.201622425335991728e-01 1.296973397036998155e-01 2.518801941218828944e-01 3.317990229711558769e-01 7.277948630803598995e-01 1.924271378559281098e+00 4.654871344378499476e-01 4.735223641451945520e-01 4.814474968772542995e-01 3.115918742548152709e-01 -1.341726062766909422e+00 3.170565571414104000e-01 5.850683709987076764e-01 2.340438455719541899e+00 8.755924218504579359e-02 2.638462417191350107e-01 -3.856061488518258695e-01 1.305801113682768522e-01 2.663705347147617419e-01 -5.785729608655351131e-01 -8.926534929731274604e-01 6.021924322375308281e-01 1.585472117554085569e+00 6.881844404476324117e-02 6.862902526322508523e-01 3.161745051326116940e-01 3.266159724008331766e-01 2.671591496911064345e-01 7.614338104189315448e-01 7.375513353937582783e-01 -2.088147958920412162e-01 -1.755809219781168107e-01 5.482010782822289291e-02 2.598953376795975490e-01 2.145382303460741380e-01 -3.014145515905057235e-02 3.118381806995191408e+00 -2.880482290037175708e-01 2.096657163302999560e-01 1.143733993367146290e-01 8.102896234895109462e-01 2.498157535303575927e-01 4.890715927744709868e-01 1.634464033693415475e-01 4.258935278008065817e-01 -4.818480789690856025e-01 2.226925795180026979e-01 1.635783940620464672e-01 4.343415585979849558e-01 1.092741020585708656e+00 3.170044380602204392e-01 -1.456649674035934039e+00 1.842789966652386147e-01 1.229894640385505444e-01 1.403727629185514303e+00 3.210974634657680626e-01 2.175788125593896893e+00 2.878084285485597582e-01 2.540823293267628347e-01 3.041343206252594689e-01 3.010164145029513016e-01 3.382254918236272667e-01 3.120005644996279304e-01 6.756214356019654144e-01 4.198580385662551984e-01 1.699372208642569160e-01 8.639949620646708572e-01 7.163097369182713781e-01 7.179086663572734617e-01 -3.355400812569075408e-01 2.060820730194639905e-01 3.335198979745822578e-01 3.217975313589915287e-01 3.171922204958176339e-01 2.504244288038680599e-01 3.140032136769194682e-01 6.963720511286800585e-01 -1.559353844144849288e-01 3.190238960706450189e-01 4.415217400561873839e-01 3.999868217310666441e-01 -2.360818381674541222e-01 2.451982638348591814e-02 3.285409526824078497e-01 2.675003253016212668e-01 3.110093300761703761e-01 3.027476936314039691e-01 -2.389296737385532055e+00 4.589490073344798526e-01 -5.986995287768183127e-01 -2.139216488563337182e-01 2.011317917315237347e-01 2.974454601603841453e-01 3.216766760800473524e-01 3.110511047296906639e-01 1.208008027301604448e-01 9.186563645129529332e-02 3.168622168913744486e-01 4.584435962406029907e-01 3.883561593768254383e-01 3.197160616739490036e-01 1.881609623317456459e-01 -3.579129827897348237e-03 3.286173297336703047e-01 3.084287018825982996e-01 -2.506728420472648100e+00 6.856878842016359554e-01 6.011120109258936139e-01 9.558531860466367158e-01 -4.574203638532469696e-01 1.172372095687748361e+00 1.171949355102674950e-02 3.066366262284188071e-01 1.238499579169565434e+00 3.141463905234889720e-01 3.091288692419775219e-01 2.671592752250435132e-01 3.724656409917183608e-01 2.857782144908195265e-01 -4.823822525564061547e-01 2.832778306742663732e-01 2.755104844306960898e-01 8.154303019658692975e-01 2.956042206832829589e-01 3.164558650180378518e-01 2.375995801017313502e-01 3.086091309744285471e-01 -1.660376196347853162e+00 2.959265694377541944e-01 2.792597654541091323e-01 3.470995561325141976e-01 6.386159845022808257e-02 3.260838205206431639e-01 3.855838081671482120e-01 1.410085208881537433e-01 -7.778755077693513265e-01 2.792597705522334994e-01 4.748598747627134076e-01 -5.152795688259481643e-01 3.608902843761371271e-01 1.794588112946228220e-01 2.453211738687059718e-01 -3.257275683112140996e+00 4.485558336133128599e-01 9.249564680868268551e-01 3.176531256182534291e-01 3.096141903512043547e-01 3.111852660298857209e-01 3.198611391842829943e-01 3.073247395557711648e-01 3.107456411290572817e-01 3.525586297688647619e-01 1.164966891498157436e-01 6.660323982872713433e-01 1.085840757980501420e-01 4.928412842114220371e-01 4.925345880955699918e-01 3.971658902489013099e-01 -6.754890857101191193e-01 2.292399075514103490e+00 3.966712213216977978e-01 1.241824109383771413e+00 -1.391611145931813232e+00 3.154200436702481181e-01 2.319783228352944870e-01 3.538079315789036672e-01 1.173649466075922909e+00 5.116444970560311001e-01 8.158172880387511983e-01 2.840391544129701740e-01 6.690425103880700552e-01 2.712538132434381688e-01 3.161555770714192248e-01 -1.171638270758978084e+00 4.080370235002304113e-01 3.087897790816098720e-01 4.933563338682983579e-01 8.937713137815025410e-01 -3.641717562955799625e-01 3.159953309920202180e+00 4.959322106135297115e-01 1.266997689531151883e+00 -2.107688999679198094e-01 3.034787612493654030e-01 3.787724892119427866e-01 3.306291333671917965e-01 2.367023180140158667e-01 3.743697614492024761e-01 -1.307324137970873601e-01 1.171781146033340354e-01 5.619273248059393211e-01 2.600761330460621967e-01 9.558703310620589311e-02 2.458506001604149616e-01 4.232440675593315826e-01 4.280807858857826331e-01 2.594756093492054383e-01 3.240237046147114608e+00 3.665170934707960848e-01 6.531982687394635168e-01 5.355548503815846795e-01 2.221431157596888972e-01 4.281112090060776865e-01 3.072230483110675592e-01 2.935900712649577304e-01 3.107315532983351836e-01 -5.707788979585740607e-01 4.446891172058373698e-01 2.853299597582310554e-01 1.345789866165066628e-01 2.956558385831465907e-01 1.536120614023924746e+00 3.300439848765751583e-01 3.023189300716751515e-01 1.997114410788209504e+00 5.021528047659612470e-01 2.732320176389443356e-01 2.638631681538528007e-01 3.461072980519767639e-01 2.226922011587524619e-01 -2.061535495914603278e+00 2.605715677645136230e-01 1.540588648172804609e+00 -4.569652397136440836e-02 3.538828100579436420e-01 6.885025626559034828e-01 3.010655245097921262e-01 -7.230907104756311155e-01 4.045718702192276361e-01 3.103847181676273048e-01 4.414991872132586481e-01 -3.921696805597701951e-01 3.063630221193821002e-01 -2.251048198684965751e+00 -3.819817114806767049e-03 3.186386976228902657e-01 6.016377785229528596e-01 3.076939002392308775e-01 3.112702016443600339e-01 4.818984743882407940e-01 1.895710306019802449e-01 -1.030960580880298377e-01 -7.652975770361606367e-01 4.509312684861024466e-04 6.870990068513062043e-01 3.108921104673601499e-01 5.008565130357462980e-01 2.996603145200714691e-01 -4.330510163652801468e-03 3.126899115873404966e-01 2.443881627974990867e+00 6.888143163484278242e-01 2.469051852223055343e-01 -1.160115019523711988e+00 2.262304070395696753e-01 4.691762470566615661e+00 3.695297701155856318e-01 -1.554478780825903905e-01 5.704856756438960730e-01 -5.590529540889040305e+00 5.180934891190344116e-01 1.550718279005362854e+00 3.119898235328193437e-01 5.327784504324537540e-01 -4.449754217070843176e-01 4.257591891630165271e-01 3.089337768532587902e-01 2.876339650092172850e-01 2.318879232970887938e-01 2.934351095142047949e+00 -3.735065748829231036e-01 3.149474617515173880e-01 -1.916860361110722666e+00 2.968096318220190821e-01 -3.660644373220353076e-01 7.503806706407206706e-01 5.266465000032750643e-01 2.705454407721127885e-01 2.902673691031942282e-01 1.274694276563118178e+00 1.451044164043311380e-01 2.792599372259259027e-01 4.080346492775928646e-01 1.410085190922758802e-01 3.115497056396721587e-01 3.922300210326346570e-01 -6.124238989855375070e-01 3.132787022339880156e-01 5.530757552590702675e-01 3.888830979962741852e-01 1.680673336452587763e-01 3.130017719934545806e-01 4.874701645974842679e-01 5.266464622038833365e-01 4.455270012281689618e-01 3.141700473249802728e-01 1.836682058488478542e-01 4.152965849996291259e-01 3.424002829830650185e+00 3.041911286357986688e-01 1.332933973901616609e-01 4.280806978087488557e-01 8.453333267193665623e-01 4.673814514259514996e-01 -1.941420407028112971e-01 6.829424991945858281e-01 3.289802615744221170e-01 1.189170315444694898e-01 4.072760720195486295e-01 6.703717010932480624e-01 5.950460627343246989e-01 7.855646320931336524e-01 8.153007273205181704e-01 3.597474764935781888e-01 1.410085209281127794e-01 1.410086083128577750e-01 2.306447179204671738e-01 1.619616570122490995e-01 1.119960087295912565e+00 4.009319482263578593e-01 2.991438424777443927e-01 3.226361526802029589e-01 3.082827302878569098e-01 7.656779575170384877e-01 2.792601480980815287e-01 3.127715782934836763e-01 4.413204688039797929e-01 2.488513645339175961e-01 -6.356378533358569838e-01 3.134364506564807362e-01 3.033506290792516991e-01 3.816550260200742284e-01 6.891713021080999590e-01 7.087030208100691953e-01 1.410085201032740265e-01 8.922848513462278142e-02 3.174847447341310192e-01 4.875528182953651202e-01 -5.921859501639882284e-01 1.879400055732439456e-01 -3.516546520293839961e+00 1.969514159854514501e+00 6.351915543186674729e-01 -4.627498167893874803e-01 -5.553093999791368883e-03 2.055874676279366930e+00 3.130082699887500319e-01 6.417783644051879843e-01 -1.203801759219361688e-02 3.481292770378704438e-01 4.283568143055349053e-01 3.261408254600579038e-01 -4.885298101991554787e-01 3.261434318048209158e-01 2.060604060160238671e+00 3.193897678945765706e-01 -4.309976957455702307e-01 3.207089839186481051e-01 3.202675839144740744e-01 -1.455208841795615715e+00 3.046557918809887355e-01 3.636055852355895013e-01 4.031652473368498857e-01 1.522527507798239199e-01 3.126293524717889127e-01 2.108424589090738821e-01 3.113985792010464659e-01 -1.610363841119332451e-01 3.042451330157954770e-01 1.086301172973050816e-01 3.165116914063439424e-01 3.146008024158297722e-01 1.443676567809601581e-02 4.087900671066683755e-01 5.657962517828912796e-01 -1.389398154163079768e+00 -5.843784096658670713e-01 -1.123660183300788928e-01 9.867107602797252353e-02 2.299689446247014935e-01 4.305522664920447551e-01 3.620002963716196231e-01 7.301000096991686616e-01 -1.266978650413554675e-01 3.092830921770858277e-01 3.288902152341047769e-01 9.368220248712894049e-02 -1.608336030628902680e-01 3.357280642763819101e-01 4.580496058677117066e-01 4.795622890241403868e-01 2.956148727926281028e-01 2.685540170669546978e-01 3.143276284415845723e-01 2.523939776047852690e-01 3.074801921267087401e-01 5.019656664931217982e-01 3.931927548808882289e-01 3.107861891832048862e-01 6.829680382192317989e-01 3.330076863685814681e-01 7.366051315188508752e-01 3.649763448033201130e-02 5.348513015806011239e-01 2.513872663916932870e-01 -1.452017409809858828e+00 3.158466894457971352e-01 6.437844288445480068e-01 3.686218155785638273e-01 3.260377765994125765e-01 2.486266744672294970e-01 2.015455872948121174e-01 6.855140192449249437e-01 3.115404483890979459e-01 3.989053630495380531e-01 3.107143635556093297e-01 2.805916980427863305e-01 1.984366483540929149e-01 5.038952321200271811e-01 2.983343491158284566e-01 2.165521517353037606e-01 1.072148449713634794e-01 6.823483186460074790e-02 1.639669249808978213e+00 2.230294472233011194e-01 3.627821635955153501e-01 3.823811162134340136e-01 -8.452843710019087853e-01 3.786752824817857244e-01 2.754073829414268038e-01 4.313584914301777373e-01 -4.626777127644197268e-02 2.999148695674694332e-01 1.602460734501750750e+00 8.911397641981867457e-01 4.383185967586304965e-01 3.226668356122435743e-01 3.507151868830521435e-01 3.395508368901500318e-01 9.219694969077101288e-01 3.040410650304520512e+00 3.125951151416710982e-01 3.196437983449095660e-02 5.904313795635647288e-01 -2.045578496736985552e-01 3.079307081622095210e-01 3.168215970423796102e-01 1.071489238626293083e+00 3.122222473964580969e-01 -3.270889792889994374e-01 3.807200587739679731e-01 1.267384661217564046e-01 6.412219214955146018e-01 1.775910688053556896e+00 2.741293328016197184e-01 2.592746054875891826e-01 1.659595016903061548e+00 4.014944511079703293e-01 2.994353266372585254e-01 1.898566990827197098e-01 2.543809701737879680e-01 -4.929684566796953271e-03 4.981360317744517041e-01 2.402397279364745786e-01 7.289554222285377083e-01 2.679078497827826477e-01 2.545160679663422409e-01 3.097971838994496019e-01 4.351659009011911161e-01 3.579409483753061005e-01 2.583564546547953422e-01 9.013117568602644347e-01 5.099388342353187165e-01 4.656948717424915229e-01 2.624744523858928980e-01 2.677427440297324157e-01 3.161718490268720649e-01 5.883148057198166470e-01 7.730229063450143601e-01 3.597677384953735791e-01 3.012714947812841215e-01 5.174622934857594503e-01 3.112155776832017939e-01 7.229293649396832944e-01 2.524705427169770533e-01 4.609753111228060973e-01 -3.135798587468343057e-01 3.095659680491483767e-01 3.117152286218751733e-01 4.310731465879830693e-01 2.704945488172566526e-01 2.897901521441513251e-01 1.787095752495921896e+00 6.098971568024608852e-02 2.670502605067197055e-01 -1.862625486810735587e-01 1.644530636861156081e+00 1.150994778077734981e+00 4.447795920780867052e-02 -4.537067314308568244e-01 4.168377432258809634e-01 3.385598339143173208e-01 5.098173979808832135e-01 3.130171598855525650e-01 3.134765092269746756e-01 2.027845621643527552e-01 3.414984402932496055e-01 3.643087049946913125e-01 -5.562152011436482732e-03 -2.076125362692930187e-01 3.585006213251782370e-01 2.854367547316034592e-01 2.220121181261262289e-01 8.699274729338254408e-01 4.280807892321528141e-01 2.553587309301297847e-01 8.438584099238112257e-01 4.758302091217477270e-01 6.024078949184252796e-01 4.619784534445853241e-01 6.926619556317631377e-01 1.471674239485048608e+00 3.532753607303382171e-01 2.083296609740050709e+00 -2.363977013962730717e-02 1.448319476168159758e-01 3.111202187406844066e-01 2.613781875991016412e-01 3.519164396216162838e-01 3.197093841518456325e-01 3.161620066840923338e-01 3.108345361077403668e-01 3.620396408160395652e-01 1.955718929971873576e-01 -3.193173803822857981e-01 2.462176900251254186e-01 -7.258110123752693765e-02 3.140126668968253876e-01 4.414528555174952462e-01 4.280807891807408283e-01 2.142574761391264349e-01 1.982615662440765369e-01 -1.244645777151335064e+00 1.956906588088986876e+00 3.098145231493553142e-01 -7.268167378567444992e-01 2.973764009201380620e-01 3.073534976314438727e-01 3.098169114121538947e-01 -4.768488180520296105e+00 3.528416059353247203e+00 6.270009850061727397e-01 5.996548872447009237e-02 3.207007883029568962e-01 3.103858239176102152e-01 2.837283114550118723e-01 2.614757259994737737e+00 6.230512513906345529e-01 3.194951710887906637e-01 2.226925031811662903e-01 2.753258296681265760e-01 2.696918356372836612e-01 8.650350909826329815e-01 -3.764170435478034760e-01 -1.185660977706973096e+00 -1.212732050147003582e+00 3.106738303022443803e-01 3.069699441010113050e-01 7.229126660521545400e-01 3.676163937172706175e-01 1.387836801760494287e+00 4.770841932360184723e-01 3.080005262099688723e-01 2.999281410897284839e-01 3.330294790618745782e-01 3.111436935251439828e-01 3.145093411981693676e-01 6.469010773627840161e-01 2.698869302514871893e-01 6.570716130100928698e-01 2.250380472371704410e-01 3.911991406819202016e-02 3.146260112312762591e-01 1.866798673023065125e-01 3.555798456524414952e-01 2.728464692272646874e-01 6.545151811098409711e-01 5.266464824923845489e-01 3.909521498771881265e-01 3.171406366835775037e-01 3.114989179522106300e-01 2.649139773165259948e-01 1.602442754714958228e+00 1.883291738591012177e+00 3.137380261029168449e-01 3.660912493174801607e-01 3.074445767517421935e-01 1.619412532210394162e-01 2.296253880937996483e-01 3.051888026450808589e-01 2.936213229634748734e-01 3.242869253662781781e-01 7.994612712176559777e-01 8.806801787209317389e-01 2.340074856411844539e-01 1.863857395498650371e+00 2.680420288447750710e-01 -2.166170979652784490e-01 -2.730377631270551331e-01 -3.137224310629570523e-01 3.090837624212406376e-01 2.603190579273254590e-01 7.095280894999920207e-01 3.164568411706643603e-01 4.588317312074584597e-01 2.935881459977455199e-01 3.647021769162441807e-01 3.695602503556848495e-01 -1.289307456745798428e-02 1.018022926300102160e+00 3.351908515713462600e-01 4.273448963848145432e-01 3.160109923649773167e-01 3.586407401351167090e-01 2.954499719828179161e-01 3.917667203930906838e-01 -9.952275796004450559e-02 2.227811377801638681e-01 3.251353057957328541e-01 -4.943627996114965603e-03 4.280806696446459170e-01 1.108100870568809793e+00 9.574960006229980003e-01 -7.295353051889883478e-01 -3.660644403613276809e-01 6.545625881148232628e-01 -3.316557874161510266e+00 1.568626193019914794e+00 2.684870613236990389e-01 -5.863684125961473106e-03 3.086947146512755702e-01 8.878997198552078807e-01 3.097672501742096962e-01 4.080370287055503087e-01 -4.367837306910812845e-01 8.240862205667860430e-01 2.962115983353388327e-01 8.772829337826392182e-01 2.085959564960586210e+00 -3.762853107230428873e-01 -1.458118950665192814e+00 2.383436941376320950e-01 3.229844042423171691e-01 7.638439719258077742e-01 3.397715556987238594e-01 7.046148820056878925e-01 4.691199065570904603e-01 2.175840121318706188e-01 3.200186411614529547e-01 3.133162027123341797e-01 2.371197636023875954e-01 3.056466269161826621e-01 1.406229386128226233e+00 1.626981476662758386e+00 3.034707874730369626e-01 2.890503039374468508e-01 1.216383793611037073e-01 -2.428385150077400356e-01 2.124774659170180491e-01 -2.433606333161773133e-02 3.105212273603462081e-01 7.053711606580501670e-01 -4.872630276095914481e-01 2.778282316296428189e-01 2.864752175358430408e-01 1.529982297124129198e-01 3.131551604295211844e-01 2.268840542027157070e-01 3.092546467227029749e-01 3.091537510332262317e-01 8.901868564335013029e-03 2.733199081374632078e-01 4.373562682665883550e-01 1.118924630217250415e+00 1.104029367558572172e+00 9.278518427687209025e-01 1.976300589780509709e-01 7.823794229788121335e-01 1.414533959641759153e-01 4.799474507005370150e-01 -2.120260491043389095e+00 3.184022996797858940e-01 6.566994646015714698e-01 2.813894170732962885e-01 9.536448312314661502e-01 1.368188949064467419e+00 2.226925797944573904e-01 2.649249415791107842e-01 3.740816563577267218e-01 3.257478148461835921e-01 5.516141045088256423e-01 8.858428551182896404e-01 -7.835401380055704301e-01 1.849045808705942207e-01 7.232279631920494889e-02 3.319549922191193381e-01 3.420443303843359040e-01 7.701357970798913266e-01 -2.155475752604099904e-01 3.994819967952528139e-01 3.150676705798362565e-01 3.503797683295132304e-01 8.908478136699654604e-01 4.280811428097590632e-01 -2.128952285076186057e-01 8.591726963795692784e-01 -4.516990082704621517e-02 5.706420456909996330e-01 2.601300352279602435e-01 1.285468962864787734e+00 5.772832759387642731e-01 7.304532254331395080e-01 4.386748382521994949e-01 4.867438314523853116e-01 -5.532665732076985643e-01 2.469751736330005609e-01 7.615672897821568199e-01 3.037862219313475221e-01 6.260846799051794642e-01 2.615181634153621038e-01 3.145677207959516331e-01 7.261901249970892369e-01 1.438629739380826722e-01 -2.046179459313823390e+00 2.179428697011034921e-01 2.641516128431525834e-01 8.397143287616007923e-01 3.834552626070958925e-01 4.014740517812513398e-01 3.544842243636434631e-01 3.023784843635014541e-01 3.854118348500157887e-01 6.450677440148673558e-02 -1.621016078222167645e+00 7.542211217276657553e-01 2.524630513494625639e-01 3.162640773733584876e-01 2.060579054562839962e-01 8.224114746403931031e-01 3.117090656134656745e-01 -1.439734543644981823e-01 3.320600471232569295e-01 1.120491500385218719e+00 2.660170738792450584e-01 4.155498107877804159e-01 1.053532852664132102e+00 3.795179429617092093e-01 2.780146588205445024e+00 3.417025848126536425e-01 3.224467811670967410e-01 6.971548221890975228e-01 3.272726382132147283e-01 3.205247640827953992e-01 -2.098989123918267197e+00 4.266949860099792380e-01 3.338716030050036809e-01 5.158750431235710199e-01 3.162975480124038397e-01 2.192047864107732613e-01 -2.081568224592787730e-01 2.051407857106260391e+00 -5.196778073446988166e-01 8.284080662681370111e-01 3.109841913451454887e-01 3.133781587565158122e-01 8.078378736105691349e-01 3.546425831420267349e-01 1.331775588193838677e+00 1.936082557920762171e-01 3.478253039539289659e-01 -8.833847082304671083e-01 -1.332743780243260123e-01 -4.412077015944965708e-01 -3.946100276718161215e+00 2.950472096144698853e+00 3.890495041939244503e-02 3.089451274123229951e-01 -1.626310123219395720e+00 3.077132046594949766e-01 3.327889429209644478e-01 2.822486476006547118e-01 1.601096501828796204e-01 6.405046210616736069e-01 5.986150930299493078e-01 1.043526561470345948e+00 -3.660644406917817339e-01 -2.262215464827013744e-01 2.214541260201589590e-01 -1.186344895584666270e+00 2.625373208601556874e-01 -6.451051879619909002e-01 3.170645128755899544e-01 4.618413827888154799e-01 7.499139104262488031e-02 4.452893971751733515e-01 2.675518798519750385e-01 -6.363772911804080334e-02 2.170094090271755261e-01 2.929310280795681676e-01 3.617646183010823080e-01 3.077464896779288916e-01 3.074363761694127173e-01 -7.297467700519193468e-01 5.252385260524760069e-01 1.537715403912178980e+00 6.598133195055791433e-02 2.385969309972416907e-01 3.462819069450962517e-01 1.209042891108634388e+00 3.263602180508106687e-01 1.236386456780346754e-01 8.918335919321530580e-01 2.786319721103211466e-01 1.860856092007658891e+00 2.759382944050159381e-01 1.279493165762765505e+00 3.113831449488959624e-01 7.362011511192831925e-01 1.350184450238261613e+00 3.477161735287919164e-01 3.782971038340347536e-01 9.292521436483588415e-01 -1.881041170936849083e-01 -5.851460815485191869e-02 2.040908212215385154e-01 3.009309925079728942e-01 3.551263623633935662e-01 1.432899217124686819e-01 1.658039115730463031e-01 -3.684163264294962326e-01 1.292533951075034437e+00 2.852690629907532194e-01 3.092805129838744338e-01 -3.179072734478890716e+00 5.306437115282329753e-01 2.985905005159993908e-01 4.132017176079992304e-01 4.090330574979753053e-01 4.746340173420605657e-01 -1.083080491244109211e+00 6.185203340067089162e-01 2.833841013963060429e-01 3.166477543917171622e-01 1.031316246453128471e+00 4.575730322973377007e-01 3.167356088306467754e-01 -1.401355000054402389e+00 4.056470758491929063e-01 8.906948814946534787e-01 2.989506221099731409e-01 3.011553756740666388e-01 3.532302685947542042e-01 7.112415460729005767e-01 -6.658063126635369033e-02 3.112478934978914480e-01 3.322976657846294368e-01 8.299861592121775267e-02 6.741856781513394514e-01 3.058814702410175834e-01 7.151009852776862852e-01 1.715435632863386572e-01 6.894726477678205789e-01 -2.298330137097851777e-01 -1.507071798006671903e+00 3.092150712382133459e-01 -1.812828671237358760e-02 3.373198382867253486e-01 3.795053422708217217e-01 5.454221620236392870e-02 5.266464792238652048e-01 3.197229602749004362e-01 8.376481970893617790e-02 4.483200462410785181e-01 2.546258135376430198e-01 3.168694425958614724e-01 2.711636649177173730e-01 -8.362001852011423653e-01 3.038171955011789716e-01 3.222730973194981585e-01 3.221099199841602756e-01 -2.202730751967303668e-01 3.060537751275170804e-01 8.173881571453058825e-01 -5.571478693405845783e-01 1.114417244224799486e+00 6.113759366638062964e-01 2.495988838644224717e-01 3.122232467778926490e-01 -2.042994777658833083e+00 3.334090674088822648e-01 1.994982503747025904e-01 2.633167634978054727e-01 5.266465374162053736e-01 3.129098623323210981e-01 2.925341251003399923e-01 7.976247616105623661e-02 3.079980322138194393e-01 4.357949702949010518e-01 3.768287125993157738e-01 2.817023680503241700e-01 2.920340794842719023e-01 3.066997451868614388e-01 3.143285521927763893e-01 2.659261196690818618e-01 6.954034334962595765e-02 3.147073814443079320e-01 6.139942453331167505e-01 1.896149331111908198e-01 3.177744877873834306e-01 -1.361329848990675828e-01 1.623381772153508484e-01 5.795625167482187923e-01 4.461003322309913699e+00 3.406277897011982803e-01 9.402047902237183064e-02 5.521919587129486828e-01 1.913765001772527730e-01 1.551784671924878678e+00 3.539536130125702229e-01 6.466911297569190031e-01 3.141694938812965576e-01
