# 
#                 ----------------------------------------------------
#                 Data from a 3D direct N-body simulation. 
# 
#                 rows are i-particle; 
#                 coumns are :mass, tag, x ,y, z, vx, vy, vz, ax, ay, az
# 
#                 NTHU, Computational Physics 
# 
#                 ----------------------------------------------------
#                 Time = 0.0
0.000000000000000000e+00 1.000000000000000000e+00 2.000000000000000000e+00 3.000000000000000000e+00 4.000000000000000000e+00 5.000000000000000000e+00 6.000000000000000000e+00 7.000000000000000000e+00 8.000000000000000000e+00 9.000000000000000000e+00 1.000000000000000000e+01 1.100000000000000000e+01 1.200000000000000000e+01 1.300000000000000000e+01 1.400000000000000000e+01 1.500000000000000000e+01 1.600000000000000000e+01 1.700000000000000000e+01 1.800000000000000000e+01 1.900000000000000000e+01 2.000000000000000000e+01 2.100000000000000000e+01 2.200000000000000000e+01 2.300000000000000000e+01 2.400000000000000000e+01 2.500000000000000000e+01 2.600000000000000000e+01 2.700000000000000000e+01 2.800000000000000000e+01 2.900000000000000000e+01 3.000000000000000000e+01 3.100000000000000000e+01 3.200000000000000000e+01 3.300000000000000000e+01 3.400000000000000000e+01 3.500000000000000000e+01 3.600000000000000000e+01 3.700000000000000000e+01 3.800000000000000000e+01 3.900000000000000000e+01 4.000000000000000000e+01 4.100000000000000000e+01 4.200000000000000000e+01 4.300000000000000000e+01 4.400000000000000000e+01 4.500000000000000000e+01 4.600000000000000000e+01 4.700000000000000000e+01 4.800000000000000000e+01 4.900000000000000000e+01 5.000000000000000000e+01 5.100000000000000000e+01 5.200000000000000000e+01 5.300000000000000000e+01 5.400000000000000000e+01 5.500000000000000000e+01 5.600000000000000000e+01 5.700000000000000000e+01 5.800000000000000000e+01 5.900000000000000000e+01 6.000000000000000000e+01 6.100000000000000000e+01 6.200000000000000000e+01 6.300000000000000000e+01 6.400000000000000000e+01 6.500000000000000000e+01 6.600000000000000000e+01 6.700000000000000000e+01 6.800000000000000000e+01 6.900000000000000000e+01 7.000000000000000000e+01 7.100000000000000000e+01 7.200000000000000000e+01 7.300000000000000000e+01 7.400000000000000000e+01 7.500000000000000000e+01 7.600000000000000000e+01 7.700000000000000000e+01 7.800000000000000000e+01 7.900000000000000000e+01 8.000000000000000000e+01 8.100000000000000000e+01 8.200000000000000000e+01 8.300000000000000000e+01 8.400000000000000000e+01 8.500000000000000000e+01 8.600000000000000000e+01 8.700000000000000000e+01 8.800000000000000000e+01 8.900000000000000000e+01 9.000000000000000000e+01 9.100000000000000000e+01 9.200000000000000000e+01 9.300000000000000000e+01 9.400000000000000000e+01 9.500000000000000000e+01 9.600000000000000000e+01 9.700000000000000000e+01 9.800000000000000000e+01 9.900000000000000000e+01 1.000000000000000000e+02 1.010000000000000000e+02 1.020000000000000000e+02 1.030000000000000000e+02 1.040000000000000000e+02 1.050000000000000000e+02 1.060000000000000000e+02 1.070000000000000000e+02 1.080000000000000000e+02 1.090000000000000000e+02 1.100000000000000000e+02 1.110000000000000000e+02 1.120000000000000000e+02 1.130000000000000000e+02 1.140000000000000000e+02 1.150000000000000000e+02 1.160000000000000000e+02 1.170000000000000000e+02 1.180000000000000000e+02 1.190000000000000000e+02 1.200000000000000000e+02 1.210000000000000000e+02 1.220000000000000000e+02 1.230000000000000000e+02 1.240000000000000000e+02 1.250000000000000000e+02 1.260000000000000000e+02 1.270000000000000000e+02 1.280000000000000000e+02 1.290000000000000000e+02 1.300000000000000000e+02 1.310000000000000000e+02 1.320000000000000000e+02 1.330000000000000000e+02 1.340000000000000000e+02 1.350000000000000000e+02 1.360000000000000000e+02 1.370000000000000000e+02 1.380000000000000000e+02 1.390000000000000000e+02 1.400000000000000000e+02 1.410000000000000000e+02 1.420000000000000000e+02 1.430000000000000000e+02 1.440000000000000000e+02 1.450000000000000000e+02 1.460000000000000000e+02 1.470000000000000000e+02 1.480000000000000000e+02 1.490000000000000000e+02 1.500000000000000000e+02 1.510000000000000000e+02 1.520000000000000000e+02 1.530000000000000000e+02 1.540000000000000000e+02 1.550000000000000000e+02 1.560000000000000000e+02 1.570000000000000000e+02 1.580000000000000000e+02 1.590000000000000000e+02 1.600000000000000000e+02 1.610000000000000000e+02 1.620000000000000000e+02 1.630000000000000000e+02 1.640000000000000000e+02 1.650000000000000000e+02 1.660000000000000000e+02 1.670000000000000000e+02 1.680000000000000000e+02 1.690000000000000000e+02 1.700000000000000000e+02 1.710000000000000000e+02 1.720000000000000000e+02 1.730000000000000000e+02 1.740000000000000000e+02 1.750000000000000000e+02 1.760000000000000000e+02 1.770000000000000000e+02 1.780000000000000000e+02 1.790000000000000000e+02 1.800000000000000000e+02 1.810000000000000000e+02 1.820000000000000000e+02 1.830000000000000000e+02 1.840000000000000000e+02 1.850000000000000000e+02 1.860000000000000000e+02 1.870000000000000000e+02 1.880000000000000000e+02 1.890000000000000000e+02 1.900000000000000000e+02 1.910000000000000000e+02 1.920000000000000000e+02 1.930000000000000000e+02 1.940000000000000000e+02 1.950000000000000000e+02 1.960000000000000000e+02 1.970000000000000000e+02 1.980000000000000000e+02 1.990000000000000000e+02 2.000000000000000000e+02 2.010000000000000000e+02 2.020000000000000000e+02 2.030000000000000000e+02 2.040000000000000000e+02 2.050000000000000000e+02 2.060000000000000000e+02 2.070000000000000000e+02 2.080000000000000000e+02 2.090000000000000000e+02 2.100000000000000000e+02 2.110000000000000000e+02 2.120000000000000000e+02 2.130000000000000000e+02 2.140000000000000000e+02 2.150000000000000000e+02 2.160000000000000000e+02 2.170000000000000000e+02 2.180000000000000000e+02 2.190000000000000000e+02 2.200000000000000000e+02 2.210000000000000000e+02 2.220000000000000000e+02 2.230000000000000000e+02 2.240000000000000000e+02 2.250000000000000000e+02 2.260000000000000000e+02 2.270000000000000000e+02 2.280000000000000000e+02 2.290000000000000000e+02 2.300000000000000000e+02 2.310000000000000000e+02 2.320000000000000000e+02 2.330000000000000000e+02 2.340000000000000000e+02 2.350000000000000000e+02 2.360000000000000000e+02 2.370000000000000000e+02 2.380000000000000000e+02 2.390000000000000000e+02 2.400000000000000000e+02 2.410000000000000000e+02 2.420000000000000000e+02 2.430000000000000000e+02 2.440000000000000000e+02 2.450000000000000000e+02 2.460000000000000000e+02 2.470000000000000000e+02 2.480000000000000000e+02 2.490000000000000000e+02 2.500000000000000000e+02 2.510000000000000000e+02 2.520000000000000000e+02 2.530000000000000000e+02 2.540000000000000000e+02 2.550000000000000000e+02 2.560000000000000000e+02 2.570000000000000000e+02 2.580000000000000000e+02 2.590000000000000000e+02 2.600000000000000000e+02 2.610000000000000000e+02 2.620000000000000000e+02 2.630000000000000000e+02 2.640000000000000000e+02 2.650000000000000000e+02 2.660000000000000000e+02 2.670000000000000000e+02 2.680000000000000000e+02 2.690000000000000000e+02 2.700000000000000000e+02 2.710000000000000000e+02 2.720000000000000000e+02 2.730000000000000000e+02 2.740000000000000000e+02 2.750000000000000000e+02 2.760000000000000000e+02 2.770000000000000000e+02 2.780000000000000000e+02 2.790000000000000000e+02 2.800000000000000000e+02 2.810000000000000000e+02 2.820000000000000000e+02 2.830000000000000000e+02 2.840000000000000000e+02 2.850000000000000000e+02 2.860000000000000000e+02 2.870000000000000000e+02 2.880000000000000000e+02 2.890000000000000000e+02 2.900000000000000000e+02 2.910000000000000000e+02 2.920000000000000000e+02 2.930000000000000000e+02 2.940000000000000000e+02 2.950000000000000000e+02 2.960000000000000000e+02 2.970000000000000000e+02 2.980000000000000000e+02 2.990000000000000000e+02 3.000000000000000000e+02 3.010000000000000000e+02 3.020000000000000000e+02 3.030000000000000000e+02 3.040000000000000000e+02 3.050000000000000000e+02 3.060000000000000000e+02 3.070000000000000000e+02 3.080000000000000000e+02 3.090000000000000000e+02 3.100000000000000000e+02 3.110000000000000000e+02 3.120000000000000000e+02 3.130000000000000000e+02 3.140000000000000000e+02 3.150000000000000000e+02 3.160000000000000000e+02 3.170000000000000000e+02 3.180000000000000000e+02 3.190000000000000000e+02 3.200000000000000000e+02 3.210000000000000000e+02 3.220000000000000000e+02 3.230000000000000000e+02 3.240000000000000000e+02 3.250000000000000000e+02 3.260000000000000000e+02 3.270000000000000000e+02 3.280000000000000000e+02 3.290000000000000000e+02 3.300000000000000000e+02 3.310000000000000000e+02 3.320000000000000000e+02 3.330000000000000000e+02 3.340000000000000000e+02 3.350000000000000000e+02 3.360000000000000000e+02 3.370000000000000000e+02 3.380000000000000000e+02 3.390000000000000000e+02 3.400000000000000000e+02 3.410000000000000000e+02 3.420000000000000000e+02 3.430000000000000000e+02 3.440000000000000000e+02 3.450000000000000000e+02 3.460000000000000000e+02 3.470000000000000000e+02 3.480000000000000000e+02 3.490000000000000000e+02 3.500000000000000000e+02 3.510000000000000000e+02 3.520000000000000000e+02 3.530000000000000000e+02 3.540000000000000000e+02 3.550000000000000000e+02 3.560000000000000000e+02 3.570000000000000000e+02 3.580000000000000000e+02 3.590000000000000000e+02 3.600000000000000000e+02 3.610000000000000000e+02 3.620000000000000000e+02 3.630000000000000000e+02 3.640000000000000000e+02 3.650000000000000000e+02 3.660000000000000000e+02 3.670000000000000000e+02 3.680000000000000000e+02 3.690000000000000000e+02 3.700000000000000000e+02 3.710000000000000000e+02 3.720000000000000000e+02 3.730000000000000000e+02 3.740000000000000000e+02 3.750000000000000000e+02 3.760000000000000000e+02 3.770000000000000000e+02 3.780000000000000000e+02 3.790000000000000000e+02 3.800000000000000000e+02 3.810000000000000000e+02 3.820000000000000000e+02 3.830000000000000000e+02 3.840000000000000000e+02 3.850000000000000000e+02 3.860000000000000000e+02 3.870000000000000000e+02 3.880000000000000000e+02 3.890000000000000000e+02 3.900000000000000000e+02 3.910000000000000000e+02 3.920000000000000000e+02 3.930000000000000000e+02 3.940000000000000000e+02 3.950000000000000000e+02 3.960000000000000000e+02 3.970000000000000000e+02 3.980000000000000000e+02 3.990000000000000000e+02 4.000000000000000000e+02 4.010000000000000000e+02 4.020000000000000000e+02 4.030000000000000000e+02 4.040000000000000000e+02 4.050000000000000000e+02 4.060000000000000000e+02 4.070000000000000000e+02 4.080000000000000000e+02 4.090000000000000000e+02 4.100000000000000000e+02 4.110000000000000000e+02 4.120000000000000000e+02 4.130000000000000000e+02 4.140000000000000000e+02 4.150000000000000000e+02 4.160000000000000000e+02 4.170000000000000000e+02 4.180000000000000000e+02 4.190000000000000000e+02 4.200000000000000000e+02 4.210000000000000000e+02 4.220000000000000000e+02 4.230000000000000000e+02 4.240000000000000000e+02 4.250000000000000000e+02 4.260000000000000000e+02 4.270000000000000000e+02 4.280000000000000000e+02 4.290000000000000000e+02 4.300000000000000000e+02 4.310000000000000000e+02 4.320000000000000000e+02 4.330000000000000000e+02 4.340000000000000000e+02 4.350000000000000000e+02 4.360000000000000000e+02 4.370000000000000000e+02 4.380000000000000000e+02 4.390000000000000000e+02 4.400000000000000000e+02 4.410000000000000000e+02 4.420000000000000000e+02 4.430000000000000000e+02 4.440000000000000000e+02 4.450000000000000000e+02 4.460000000000000000e+02 4.470000000000000000e+02 4.480000000000000000e+02 4.490000000000000000e+02 4.500000000000000000e+02 4.510000000000000000e+02 4.520000000000000000e+02 4.530000000000000000e+02 4.540000000000000000e+02 4.550000000000000000e+02 4.560000000000000000e+02 4.570000000000000000e+02 4.580000000000000000e+02 4.590000000000000000e+02 4.600000000000000000e+02 4.610000000000000000e+02 4.620000000000000000e+02 4.630000000000000000e+02 4.640000000000000000e+02 4.650000000000000000e+02 4.660000000000000000e+02 4.670000000000000000e+02 4.680000000000000000e+02 4.690000000000000000e+02 4.700000000000000000e+02 4.710000000000000000e+02 4.720000000000000000e+02 4.730000000000000000e+02 4.740000000000000000e+02 4.750000000000000000e+02 4.760000000000000000e+02 4.770000000000000000e+02 4.780000000000000000e+02 4.790000000000000000e+02 4.800000000000000000e+02 4.810000000000000000e+02 4.820000000000000000e+02 4.830000000000000000e+02 4.840000000000000000e+02 4.850000000000000000e+02 4.860000000000000000e+02 4.870000000000000000e+02 4.880000000000000000e+02 4.890000000000000000e+02 4.900000000000000000e+02 4.910000000000000000e+02 4.920000000000000000e+02 4.930000000000000000e+02 4.940000000000000000e+02 4.950000000000000000e+02 4.960000000000000000e+02 4.970000000000000000e+02 4.980000000000000000e+02 4.990000000000000000e+02 5.000000000000000000e+02 5.010000000000000000e+02 5.020000000000000000e+02 5.030000000000000000e+02 5.040000000000000000e+02 5.050000000000000000e+02 5.060000000000000000e+02 5.070000000000000000e+02 5.080000000000000000e+02 5.090000000000000000e+02 5.100000000000000000e+02 5.110000000000000000e+02 5.120000000000000000e+02 5.130000000000000000e+02 5.140000000000000000e+02 5.150000000000000000e+02 5.160000000000000000e+02 5.170000000000000000e+02 5.180000000000000000e+02 5.190000000000000000e+02 5.200000000000000000e+02 5.210000000000000000e+02 5.220000000000000000e+02 5.230000000000000000e+02 5.240000000000000000e+02 5.250000000000000000e+02 5.260000000000000000e+02 5.270000000000000000e+02 5.280000000000000000e+02 5.290000000000000000e+02 5.300000000000000000e+02 5.310000000000000000e+02 5.320000000000000000e+02 5.330000000000000000e+02 5.340000000000000000e+02 5.350000000000000000e+02 5.360000000000000000e+02 5.370000000000000000e+02 5.380000000000000000e+02 5.390000000000000000e+02 5.400000000000000000e+02 5.410000000000000000e+02 5.420000000000000000e+02 5.430000000000000000e+02 5.440000000000000000e+02 5.450000000000000000e+02 5.460000000000000000e+02 5.470000000000000000e+02 5.480000000000000000e+02 5.490000000000000000e+02 5.500000000000000000e+02 5.510000000000000000e+02 5.520000000000000000e+02 5.530000000000000000e+02 5.540000000000000000e+02 5.550000000000000000e+02 5.560000000000000000e+02 5.570000000000000000e+02 5.580000000000000000e+02 5.590000000000000000e+02 5.600000000000000000e+02 5.610000000000000000e+02 5.620000000000000000e+02 5.630000000000000000e+02 5.640000000000000000e+02 5.650000000000000000e+02 5.660000000000000000e+02 5.670000000000000000e+02 5.680000000000000000e+02 5.690000000000000000e+02 5.700000000000000000e+02 5.710000000000000000e+02 5.720000000000000000e+02 5.730000000000000000e+02 5.740000000000000000e+02 5.750000000000000000e+02 5.760000000000000000e+02 5.770000000000000000e+02 5.780000000000000000e+02 5.790000000000000000e+02 5.800000000000000000e+02 5.810000000000000000e+02 5.820000000000000000e+02 5.830000000000000000e+02 5.840000000000000000e+02 5.850000000000000000e+02 5.860000000000000000e+02 5.870000000000000000e+02 5.880000000000000000e+02 5.890000000000000000e+02 5.900000000000000000e+02 5.910000000000000000e+02 5.920000000000000000e+02 5.930000000000000000e+02 5.940000000000000000e+02 5.950000000000000000e+02 5.960000000000000000e+02 5.970000000000000000e+02 5.980000000000000000e+02 5.990000000000000000e+02 6.000000000000000000e+02 6.010000000000000000e+02 6.020000000000000000e+02 6.030000000000000000e+02 6.040000000000000000e+02 6.050000000000000000e+02 6.060000000000000000e+02 6.070000000000000000e+02 6.080000000000000000e+02 6.090000000000000000e+02 6.100000000000000000e+02 6.110000000000000000e+02 6.120000000000000000e+02 6.130000000000000000e+02 6.140000000000000000e+02 6.150000000000000000e+02 6.160000000000000000e+02 6.170000000000000000e+02 6.180000000000000000e+02 6.190000000000000000e+02 6.200000000000000000e+02 6.210000000000000000e+02 6.220000000000000000e+02 6.230000000000000000e+02 6.240000000000000000e+02 6.250000000000000000e+02 6.260000000000000000e+02 6.270000000000000000e+02 6.280000000000000000e+02 6.290000000000000000e+02 6.300000000000000000e+02 6.310000000000000000e+02 6.320000000000000000e+02 6.330000000000000000e+02 6.340000000000000000e+02 6.350000000000000000e+02 6.360000000000000000e+02 6.370000000000000000e+02 6.380000000000000000e+02 6.390000000000000000e+02 6.400000000000000000e+02 6.410000000000000000e+02 6.420000000000000000e+02 6.430000000000000000e+02 6.440000000000000000e+02 6.450000000000000000e+02 6.460000000000000000e+02 6.470000000000000000e+02 6.480000000000000000e+02 6.490000000000000000e+02 6.500000000000000000e+02 6.510000000000000000e+02 6.520000000000000000e+02 6.530000000000000000e+02 6.540000000000000000e+02 6.550000000000000000e+02 6.560000000000000000e+02 6.570000000000000000e+02 6.580000000000000000e+02 6.590000000000000000e+02 6.600000000000000000e+02 6.610000000000000000e+02 6.620000000000000000e+02 6.630000000000000000e+02 6.640000000000000000e+02 6.650000000000000000e+02 6.660000000000000000e+02 6.670000000000000000e+02 6.680000000000000000e+02 6.690000000000000000e+02 6.700000000000000000e+02 6.710000000000000000e+02 6.720000000000000000e+02 6.730000000000000000e+02 6.740000000000000000e+02 6.750000000000000000e+02 6.760000000000000000e+02 6.770000000000000000e+02 6.780000000000000000e+02 6.790000000000000000e+02 6.800000000000000000e+02 6.810000000000000000e+02 6.820000000000000000e+02 6.830000000000000000e+02 6.840000000000000000e+02 6.850000000000000000e+02 6.860000000000000000e+02 6.870000000000000000e+02 6.880000000000000000e+02 6.890000000000000000e+02 6.900000000000000000e+02 6.910000000000000000e+02 6.920000000000000000e+02 6.930000000000000000e+02 6.940000000000000000e+02 6.950000000000000000e+02 6.960000000000000000e+02 6.970000000000000000e+02 6.980000000000000000e+02 6.990000000000000000e+02 7.000000000000000000e+02 7.010000000000000000e+02 7.020000000000000000e+02 7.030000000000000000e+02 7.040000000000000000e+02 7.050000000000000000e+02 7.060000000000000000e+02 7.070000000000000000e+02 7.080000000000000000e+02 7.090000000000000000e+02 7.100000000000000000e+02 7.110000000000000000e+02 7.120000000000000000e+02 7.130000000000000000e+02 7.140000000000000000e+02 7.150000000000000000e+02 7.160000000000000000e+02 7.170000000000000000e+02 7.180000000000000000e+02 7.190000000000000000e+02 7.200000000000000000e+02 7.210000000000000000e+02 7.220000000000000000e+02 7.230000000000000000e+02 7.240000000000000000e+02 7.250000000000000000e+02 7.260000000000000000e+02 7.270000000000000000e+02 7.280000000000000000e+02 7.290000000000000000e+02 7.300000000000000000e+02 7.310000000000000000e+02 7.320000000000000000e+02 7.330000000000000000e+02 7.340000000000000000e+02 7.350000000000000000e+02 7.360000000000000000e+02 7.370000000000000000e+02 7.380000000000000000e+02 7.390000000000000000e+02 7.400000000000000000e+02 7.410000000000000000e+02 7.420000000000000000e+02 7.430000000000000000e+02 7.440000000000000000e+02 7.450000000000000000e+02 7.460000000000000000e+02 7.470000000000000000e+02 7.480000000000000000e+02 7.490000000000000000e+02 7.500000000000000000e+02 7.510000000000000000e+02 7.520000000000000000e+02 7.530000000000000000e+02 7.540000000000000000e+02 7.550000000000000000e+02 7.560000000000000000e+02 7.570000000000000000e+02 7.580000000000000000e+02 7.590000000000000000e+02 7.600000000000000000e+02 7.610000000000000000e+02 7.620000000000000000e+02 7.630000000000000000e+02 7.640000000000000000e+02 7.650000000000000000e+02 7.660000000000000000e+02 7.670000000000000000e+02 7.680000000000000000e+02 7.690000000000000000e+02 7.700000000000000000e+02 7.710000000000000000e+02 7.720000000000000000e+02 7.730000000000000000e+02 7.740000000000000000e+02 7.750000000000000000e+02 7.760000000000000000e+02 7.770000000000000000e+02 7.780000000000000000e+02 7.790000000000000000e+02 7.800000000000000000e+02 7.810000000000000000e+02 7.820000000000000000e+02 7.830000000000000000e+02 7.840000000000000000e+02 7.850000000000000000e+02 7.860000000000000000e+02 7.870000000000000000e+02 7.880000000000000000e+02 7.890000000000000000e+02 7.900000000000000000e+02 7.910000000000000000e+02 7.920000000000000000e+02 7.930000000000000000e+02 7.940000000000000000e+02 7.950000000000000000e+02 7.960000000000000000e+02 7.970000000000000000e+02 7.980000000000000000e+02 7.990000000000000000e+02 8.000000000000000000e+02 8.010000000000000000e+02 8.020000000000000000e+02 8.030000000000000000e+02 8.040000000000000000e+02 8.050000000000000000e+02 8.060000000000000000e+02 8.070000000000000000e+02 8.080000000000000000e+02 8.090000000000000000e+02 8.100000000000000000e+02 8.110000000000000000e+02 8.120000000000000000e+02 8.130000000000000000e+02 8.140000000000000000e+02 8.150000000000000000e+02 8.160000000000000000e+02 8.170000000000000000e+02 8.180000000000000000e+02 8.190000000000000000e+02 8.200000000000000000e+02 8.210000000000000000e+02 8.220000000000000000e+02 8.230000000000000000e+02 8.240000000000000000e+02 8.250000000000000000e+02 8.260000000000000000e+02 8.270000000000000000e+02 8.280000000000000000e+02 8.290000000000000000e+02 8.300000000000000000e+02 8.310000000000000000e+02 8.320000000000000000e+02 8.330000000000000000e+02 8.340000000000000000e+02 8.350000000000000000e+02 8.360000000000000000e+02 8.370000000000000000e+02 8.380000000000000000e+02 8.390000000000000000e+02 8.400000000000000000e+02 8.410000000000000000e+02 8.420000000000000000e+02 8.430000000000000000e+02 8.440000000000000000e+02 8.450000000000000000e+02 8.460000000000000000e+02 8.470000000000000000e+02 8.480000000000000000e+02 8.490000000000000000e+02 8.500000000000000000e+02 8.510000000000000000e+02 8.520000000000000000e+02 8.530000000000000000e+02 8.540000000000000000e+02 8.550000000000000000e+02 8.560000000000000000e+02 8.570000000000000000e+02 8.580000000000000000e+02 8.590000000000000000e+02 8.600000000000000000e+02 8.610000000000000000e+02 8.620000000000000000e+02 8.630000000000000000e+02 8.640000000000000000e+02 8.650000000000000000e+02 8.660000000000000000e+02 8.670000000000000000e+02 8.680000000000000000e+02 8.690000000000000000e+02 8.700000000000000000e+02 8.710000000000000000e+02 8.720000000000000000e+02 8.730000000000000000e+02 8.740000000000000000e+02 8.750000000000000000e+02 8.760000000000000000e+02 8.770000000000000000e+02 8.780000000000000000e+02 8.790000000000000000e+02 8.800000000000000000e+02 8.810000000000000000e+02 8.820000000000000000e+02 8.830000000000000000e+02 8.840000000000000000e+02 8.850000000000000000e+02 8.860000000000000000e+02 8.870000000000000000e+02 8.880000000000000000e+02 8.890000000000000000e+02 8.900000000000000000e+02 8.910000000000000000e+02 8.920000000000000000e+02 8.930000000000000000e+02 8.940000000000000000e+02 8.950000000000000000e+02 8.960000000000000000e+02 8.970000000000000000e+02 8.980000000000000000e+02 8.990000000000000000e+02 9.000000000000000000e+02 9.010000000000000000e+02 9.020000000000000000e+02 9.030000000000000000e+02 9.040000000000000000e+02 9.050000000000000000e+02 9.060000000000000000e+02 9.070000000000000000e+02 9.080000000000000000e+02 9.090000000000000000e+02 9.100000000000000000e+02 9.110000000000000000e+02 9.120000000000000000e+02 9.130000000000000000e+02 9.140000000000000000e+02 9.150000000000000000e+02 9.160000000000000000e+02 9.170000000000000000e+02 9.180000000000000000e+02 9.190000000000000000e+02 9.200000000000000000e+02 9.210000000000000000e+02 9.220000000000000000e+02 9.230000000000000000e+02 9.240000000000000000e+02 9.250000000000000000e+02 9.260000000000000000e+02 9.270000000000000000e+02 9.280000000000000000e+02 9.290000000000000000e+02 9.300000000000000000e+02 9.310000000000000000e+02 9.320000000000000000e+02 9.330000000000000000e+02 9.340000000000000000e+02 9.350000000000000000e+02 9.360000000000000000e+02 9.370000000000000000e+02 9.380000000000000000e+02 9.390000000000000000e+02 9.400000000000000000e+02 9.410000000000000000e+02 9.420000000000000000e+02 9.430000000000000000e+02 9.440000000000000000e+02 9.450000000000000000e+02 9.460000000000000000e+02 9.470000000000000000e+02 9.480000000000000000e+02 9.490000000000000000e+02 9.500000000000000000e+02 9.510000000000000000e+02 9.520000000000000000e+02 9.530000000000000000e+02 9.540000000000000000e+02 9.550000000000000000e+02 9.560000000000000000e+02 9.570000000000000000e+02 9.580000000000000000e+02 9.590000000000000000e+02 9.600000000000000000e+02 9.610000000000000000e+02 9.620000000000000000e+02 9.630000000000000000e+02 9.640000000000000000e+02 9.650000000000000000e+02 9.660000000000000000e+02 9.670000000000000000e+02 9.680000000000000000e+02 9.690000000000000000e+02 9.700000000000000000e+02 9.710000000000000000e+02 9.720000000000000000e+02 9.730000000000000000e+02 9.740000000000000000e+02 9.750000000000000000e+02 9.760000000000000000e+02 9.770000000000000000e+02 9.780000000000000000e+02 9.790000000000000000e+02 9.800000000000000000e+02 9.810000000000000000e+02 9.820000000000000000e+02 9.830000000000000000e+02 9.840000000000000000e+02 9.850000000000000000e+02 9.860000000000000000e+02 9.870000000000000000e+02 9.880000000000000000e+02 9.890000000000000000e+02 9.900000000000000000e+02 9.910000000000000000e+02 9.920000000000000000e+02 9.930000000000000000e+02 9.940000000000000000e+02 9.950000000000000000e+02 9.960000000000000000e+02 9.970000000000000000e+02 9.980000000000000000e+02 9.990000000000000000e+02
1.000000000000000000e+00 1.000000000000000000e+00 1.000000000000000000e+00 1.000000000000000000e+00 1.000000000000000000e+00 1.000000000000000000e+00 1.000000000000000000e+00 1.000000000000000000e+00 1.000000000000000000e+00 1.000000000000000000e+00 1.000000000000000000e+00 1.000000000000000000e+00 1.000000000000000000e+00 1.000000000000000000e+00 1.000000000000000000e+00 1.000000000000000000e+00 1.000000000000000000e+00 1.000000000000000000e+00 1.000000000000000000e+00 1.000000000000000000e+00 1.000000000000000000e+00 1.000000000000000000e+00 1.000000000000000000e+00 1.000000000000000000e+00 1.000000000000000000e+00 1.000000000000000000e+00 1.000000000000000000e+00 1.000000000000000000e+00 1.000000000000000000e+00 1.000000000000000000e+00 1.000000000000000000e+00 1.000000000000000000e+00 1.000000000000000000e+00 1.000000000000000000e+00 1.000000000000000000e+00 1.000000000000000000e+00 1.000000000000000000e+00 1.000000000000000000e+00 1.000000000000000000e+00 1.000000000000000000e+00 1.000000000000000000e+00 1.000000000000000000e+00 1.000000000000000000e+00 1.000000000000000000e+00 1.000000000000000000e+00 1.000000000000000000e+00 1.000000000000000000e+00 1.000000000000000000e+00 1.000000000000000000e+00 1.000000000000000000e+00 1.000000000000000000e+00 1.000000000000000000e+00 1.000000000000000000e+00 1.000000000000000000e+00 1.000000000000000000e+00 1.000000000000000000e+00 1.000000000000000000e+00 1.000000000000000000e+00 1.000000000000000000e+00 1.000000000000000000e+00 1.000000000000000000e+00 1.000000000000000000e+00 1.000000000000000000e+00 1.000000000000000000e+00 1.000000000000000000e+00 1.000000000000000000e+00 1.000000000000000000e+00 1.000000000000000000e+00 1.000000000000000000e+00 1.000000000000000000e+00 1.000000000000000000e+00 1.000000000000000000e+00 1.000000000000000000e+00 1.000000000000000000e+00 1.000000000000000000e+00 1.000000000000000000e+00 1.000000000000000000e+00 1.000000000000000000e+00 1.000000000000000000e+00 1.000000000000000000e+00 1.000000000000000000e+00 1.000000000000000000e+00 1.000000000000000000e+00 1.000000000000000000e+00 1.000000000000000000e+00 1.000000000000000000e+00 1.000000000000000000e+00 1.000000000000000000e+00 1.000000000000000000e+00 1.000000000000000000e+00 1.000000000000000000e+00 1.000000000000000000e+00 1.000000000000000000e+00 1.000000000000000000e+00 1.000000000000000000e+00 1.000000000000000000e+00 1.000000000000000000e+00 1.000000000000000000e+00 1.000000000000000000e+00 1.000000000000000000e+00 1.000000000000000000e+00 1.000000000000000000e+00 1.000000000000000000e+00 1.000000000000000000e+00 1.000000000000000000e+00 1.000000000000000000e+00 1.000000000000000000e+00 1.000000000000000000e+00 1.000000000000000000e+00 1.000000000000000000e+00 1.000000000000000000e+00 1.000000000000000000e+00 1.000000000000000000e+00 1.000000000000000000e+00 1.000000000000000000e+00 1.000000000000000000e+00 1.000000000000000000e+00 1.000000000000000000e+00 1.000000000000000000e+00 1.000000000000000000e+00 1.000000000000000000e+00 1.000000000000000000e+00 1.000000000000000000e+00 1.000000000000000000e+00 1.000000000000000000e+00 1.000000000000000000e+00 1.000000000000000000e+00 1.000000000000000000e+00 1.000000000000000000e+00 1.000000000000000000e+00 1.000000000000000000e+00 1.000000000000000000e+00 1.000000000000000000e+00 1.000000000000000000e+00 1.000000000000000000e+00 1.000000000000000000e+00 1.000000000000000000e+00 1.000000000000000000e+00 1.000000000000000000e+00 1.000000000000000000e+00 1.000000000000000000e+00 1.000000000000000000e+00 1.000000000000000000e+00 1.000000000000000000e+00 1.000000000000000000e+00 1.000000000000000000e+00 1.000000000000000000e+00 1.000000000000000000e+00 1.000000000000000000e+00 1.000000000000000000e+00 1.000000000000000000e+00 1.000000000000000000e+00 1.000000000000000000e+00 1.000000000000000000e+00 1.000000000000000000e+00 1.000000000000000000e+00 1.000000000000000000e+00 1.000000000000000000e+00 1.000000000000000000e+00 1.000000000000000000e+00 1.000000000000000000e+00 1.000000000000000000e+00 1.000000000000000000e+00 1.000000000000000000e+00 1.000000000000000000e+00 1.000000000000000000e+00 1.000000000000000000e+00 1.000000000000000000e+00 1.000000000000000000e+00 1.000000000000000000e+00 1.000000000000000000e+00 1.000000000000000000e+00 1.000000000000000000e+00 1.000000000000000000e+00 1.000000000000000000e+00 1.000000000000000000e+00 1.000000000000000000e+00 1.000000000000000000e+00 1.000000000000000000e+00 1.000000000000000000e+00 1.000000000000000000e+00 1.000000000000000000e+00 1.000000000000000000e+00 1.000000000000000000e+00 1.000000000000000000e+00 1.000000000000000000e+00 1.000000000000000000e+00 1.000000000000000000e+00 1.000000000000000000e+00 1.000000000000000000e+00 1.000000000000000000e+00 1.000000000000000000e+00 1.000000000000000000e+00 1.000000000000000000e+00 1.000000000000000000e+00 1.000000000000000000e+00 1.000000000000000000e+00 1.000000000000000000e+00 1.000000000000000000e+00 1.000000000000000000e+00 1.000000000000000000e+00 1.000000000000000000e+00 1.000000000000000000e+00 1.000000000000000000e+00 1.000000000000000000e+00 1.000000000000000000e+00 1.000000000000000000e+00 1.000000000000000000e+00 1.000000000000000000e+00 1.000000000000000000e+00 1.000000000000000000e+00 1.000000000000000000e+00 1.000000000000000000e+00 1.000000000000000000e+00 1.000000000000000000e+00 1.000000000000000000e+00 1.000000000000000000e+00 1.000000000000000000e+00 1.000000000000000000e+00 1.000000000000000000e+00 1.000000000000000000e+00 1.000000000000000000e+00 1.000000000000000000e+00 1.000000000000000000e+00 1.000000000000000000e+00 1.000000000000000000e+00 1.000000000000000000e+00 1.000000000000000000e+00 1.000000000000000000e+00 1.000000000000000000e+00 1.000000000000000000e+00 1.000000000000000000e+00 1.000000000000000000e+00 1.000000000000000000e+00 1.000000000000000000e+00 1.000000000000000000e+00 1.000000000000000000e+00 1.000000000000000000e+00 1.000000000000000000e+00 1.000000000000000000e+00 1.000000000000000000e+00 1.000000000000000000e+00 1.000000000000000000e+00 1.000000000000000000e+00 1.000000000000000000e+00 1.000000000000000000e+00 1.000000000000000000e+00 1.000000000000000000e+00 1.000000000000000000e+00 1.000000000000000000e+00 1.000000000000000000e+00 1.000000000000000000e+00 1.000000000000000000e+00 1.000000000000000000e+00 1.000000000000000000e+00 1.000000000000000000e+00 1.000000000000000000e+00 1.000000000000000000e+00 1.000000000000000000e+00 1.000000000000000000e+00 1.000000000000000000e+00 1.000000000000000000e+00 1.000000000000000000e+00 1.000000000000000000e+00 1.000000000000000000e+00 1.000000000000000000e+00 1.000000000000000000e+00 1.000000000000000000e+00 1.000000000000000000e+00 1.000000000000000000e+00 1.000000000000000000e+00 1.000000000000000000e+00 1.000000000000000000e+00 1.000000000000000000e+00 1.000000000000000000e+00 1.000000000000000000e+00 1.000000000000000000e+00 1.000000000000000000e+00 1.000000000000000000e+00 1.000000000000000000e+00 1.000000000000000000e+00 1.000000000000000000e+00 1.000000000000000000e+00 1.000000000000000000e+00 1.000000000000000000e+00 1.000000000000000000e+00 1.000000000000000000e+00 1.000000000000000000e+00 1.000000000000000000e+00 1.000000000000000000e+00 1.000000000000000000e+00 1.000000000000000000e+00 1.000000000000000000e+00 1.000000000000000000e+00 1.000000000000000000e+00 1.000000000000000000e+00 1.000000000000000000e+00 1.000000000000000000e+00 1.000000000000000000e+00 1.000000000000000000e+00 1.000000000000000000e+00 1.000000000000000000e+00 1.000000000000000000e+00 1.000000000000000000e+00 1.000000000000000000e+00 1.000000000000000000e+00 1.000000000000000000e+00 1.000000000000000000e+00 1.000000000000000000e+00 1.000000000000000000e+00 1.000000000000000000e+00 1.000000000000000000e+00 1.000000000000000000e+00 1.000000000000000000e+00 1.000000000000000000e+00 1.000000000000000000e+00 1.000000000000000000e+00 1.000000000000000000e+00 1.000000000000000000e+00 1.000000000000000000e+00 1.000000000000000000e+00 1.000000000000000000e+00 1.000000000000000000e+00 1.000000000000000000e+00 1.000000000000000000e+00 1.000000000000000000e+00 1.000000000000000000e+00 1.000000000000000000e+00 1.000000000000000000e+00 1.000000000000000000e+00 1.000000000000000000e+00 1.000000000000000000e+00 1.000000000000000000e+00 1.000000000000000000e+00 1.000000000000000000e+00 1.000000000000000000e+00 1.000000000000000000e+00 1.000000000000000000e+00 1.000000000000000000e+00 1.000000000000000000e+00 1.000000000000000000e+00 1.000000000000000000e+00 1.000000000000000000e+00 1.000000000000000000e+00 1.000000000000000000e+00 1.000000000000000000e+00 1.000000000000000000e+00 1.000000000000000000e+00 1.000000000000000000e+00 1.000000000000000000e+00 1.000000000000000000e+00 1.000000000000000000e+00 1.000000000000000000e+00 1.000000000000000000e+00 1.000000000000000000e+00 1.000000000000000000e+00 1.000000000000000000e+00 1.000000000000000000e+00 1.000000000000000000e+00 1.000000000000000000e+00 1.000000000000000000e+00 1.000000000000000000e+00 1.000000000000000000e+00 1.000000000000000000e+00 1.000000000000000000e+00 1.000000000000000000e+00 1.000000000000000000e+00 1.000000000000000000e+00 1.000000000000000000e+00 1.000000000000000000e+00 1.000000000000000000e+00 1.000000000000000000e+00 1.000000000000000000e+00 1.000000000000000000e+00 1.000000000000000000e+00 1.000000000000000000e+00 1.000000000000000000e+00 1.000000000000000000e+00 1.000000000000000000e+00 1.000000000000000000e+00 1.000000000000000000e+00 1.000000000000000000e+00 1.000000000000000000e+00 1.000000000000000000e+00 1.000000000000000000e+00 1.000000000000000000e+00 1.000000000000000000e+00 1.000000000000000000e+00 1.000000000000000000e+00 1.000000000000000000e+00 1.000000000000000000e+00 1.000000000000000000e+00 1.000000000000000000e+00 1.000000000000000000e+00 1.000000000000000000e+00 1.000000000000000000e+00 1.000000000000000000e+00 1.000000000000000000e+00 1.000000000000000000e+00 1.000000000000000000e+00 1.000000000000000000e+00 1.000000000000000000e+00 1.000000000000000000e+00 1.000000000000000000e+00 1.000000000000000000e+00 1.000000000000000000e+00 1.000000000000000000e+00 1.000000000000000000e+00 1.000000000000000000e+00 1.000000000000000000e+00 1.000000000000000000e+00 1.000000000000000000e+00 1.000000000000000000e+00 1.000000000000000000e+00 1.000000000000000000e+00 1.000000000000000000e+00 1.000000000000000000e+00 1.000000000000000000e+00 1.000000000000000000e+00 1.000000000000000000e+00 1.000000000000000000e+00 1.000000000000000000e+00 1.000000000000000000e+00 1.000000000000000000e+00 1.000000000000000000e+00 1.000000000000000000e+00 1.000000000000000000e+00 1.000000000000000000e+00 1.000000000000000000e+00 1.000000000000000000e+00 1.000000000000000000e+00 1.000000000000000000e+00 1.000000000000000000e+00 1.000000000000000000e+00 1.000000000000000000e+00 1.000000000000000000e+00 1.000000000000000000e+00 1.000000000000000000e+00 1.000000000000000000e+00 1.000000000000000000e+00 1.000000000000000000e+00 1.000000000000000000e+00 1.000000000000000000e+00 1.000000000000000000e+00 1.000000000000000000e+00 1.000000000000000000e+00 1.000000000000000000e+00 1.000000000000000000e+00 1.000000000000000000e+00 1.000000000000000000e+00 1.000000000000000000e+00 1.000000000000000000e+00 1.000000000000000000e+00 1.000000000000000000e+00 1.000000000000000000e+00 1.000000000000000000e+00 1.000000000000000000e+00 1.000000000000000000e+00 1.000000000000000000e+00 1.000000000000000000e+00 1.000000000000000000e+00 1.000000000000000000e+00 1.000000000000000000e+00 1.000000000000000000e+00 1.000000000000000000e+00 1.000000000000000000e+00 1.000000000000000000e+00 1.000000000000000000e+00 1.000000000000000000e+00 1.000000000000000000e+00 1.000000000000000000e+00 1.000000000000000000e+00 1.000000000000000000e+00 1.000000000000000000e+00 1.000000000000000000e+00 1.000000000000000000e+00 1.000000000000000000e+00 1.000000000000000000e+00 1.000000000000000000e+00 1.000000000000000000e+00 1.000000000000000000e+00 1.000000000000000000e+00 1.000000000000000000e+00 1.000000000000000000e+00 1.000000000000000000e+00 1.000000000000000000e+00 1.000000000000000000e+00 1.000000000000000000e+00 1.000000000000000000e+00 1.000000000000000000e+00 1.000000000000000000e+00 1.000000000000000000e+00 1.000000000000000000e+00 1.000000000000000000e+00 1.000000000000000000e+00 1.000000000000000000e+00 1.000000000000000000e+00 1.000000000000000000e+00 1.000000000000000000e+00 1.000000000000000000e+00 1.000000000000000000e+00 1.000000000000000000e+00 1.000000000000000000e+00 1.000000000000000000e+00 1.000000000000000000e+00 1.000000000000000000e+00 1.000000000000000000e+00 1.000000000000000000e+00 1.000000000000000000e+00 1.000000000000000000e+00 1.000000000000000000e+00 1.000000000000000000e+00 1.000000000000000000e+00 1.000000000000000000e+00 1.000000000000000000e+00 1.000000000000000000e+00 1.000000000000000000e+00 1.000000000000000000e+00 1.000000000000000000e+00 1.000000000000000000e+00 1.000000000000000000e+00 1.000000000000000000e+00 1.000000000000000000e+00 1.000000000000000000e+00 1.000000000000000000e+00 1.000000000000000000e+00 1.000000000000000000e+00 1.000000000000000000e+00 1.000000000000000000e+00 1.000000000000000000e+00 1.000000000000000000e+00 1.000000000000000000e+00 1.000000000000000000e+00 1.000000000000000000e+00 1.000000000000000000e+00 1.000000000000000000e+00 1.000000000000000000e+00 1.000000000000000000e+00 1.000000000000000000e+00 1.000000000000000000e+00 1.000000000000000000e+00 1.000000000000000000e+00 1.000000000000000000e+00 1.000000000000000000e+00 1.000000000000000000e+00 1.000000000000000000e+00 1.000000000000000000e+00 1.000000000000000000e+00 1.000000000000000000e+00 1.000000000000000000e+00 1.000000000000000000e+00 1.000000000000000000e+00 1.000000000000000000e+00 1.000000000000000000e+00 1.000000000000000000e+00 1.000000000000000000e+00 1.000000000000000000e+00 1.000000000000000000e+00 1.000000000000000000e+00 1.000000000000000000e+00 1.000000000000000000e+00 1.000000000000000000e+00 1.000000000000000000e+00 1.000000000000000000e+00 1.000000000000000000e+00 1.000000000000000000e+00 1.000000000000000000e+00 1.000000000000000000e+00 1.000000000000000000e+00 1.000000000000000000e+00 1.000000000000000000e+00 1.000000000000000000e+00 1.000000000000000000e+00 1.000000000000000000e+00 1.000000000000000000e+00 1.000000000000000000e+00 1.000000000000000000e+00 1.000000000000000000e+00 1.000000000000000000e+00 1.000000000000000000e+00 1.000000000000000000e+00 1.000000000000000000e+00 1.000000000000000000e+00 1.000000000000000000e+00 1.000000000000000000e+00 1.000000000000000000e+00 1.000000000000000000e+00 1.000000000000000000e+00 1.000000000000000000e+00 1.000000000000000000e+00 1.000000000000000000e+00 1.000000000000000000e+00 1.000000000000000000e+00 1.000000000000000000e+00 1.000000000000000000e+00 1.000000000000000000e+00 1.000000000000000000e+00 1.000000000000000000e+00 1.000000000000000000e+00 1.000000000000000000e+00 1.000000000000000000e+00 1.000000000000000000e+00 1.000000000000000000e+00 1.000000000000000000e+00 1.000000000000000000e+00 1.000000000000000000e+00 1.000000000000000000e+00 1.000000000000000000e+00 1.000000000000000000e+00 1.000000000000000000e+00 1.000000000000000000e+00 1.000000000000000000e+00 1.000000000000000000e+00 1.000000000000000000e+00 1.000000000000000000e+00 1.000000000000000000e+00 1.000000000000000000e+00 1.000000000000000000e+00 1.000000000000000000e+00 1.000000000000000000e+00 1.000000000000000000e+00 1.000000000000000000e+00 1.000000000000000000e+00 1.000000000000000000e+00 1.000000000000000000e+00 1.000000000000000000e+00 1.000000000000000000e+00 1.000000000000000000e+00 1.000000000000000000e+00 1.000000000000000000e+00 1.000000000000000000e+00 1.000000000000000000e+00 1.000000000000000000e+00 1.000000000000000000e+00 1.000000000000000000e+00 1.000000000000000000e+00 1.000000000000000000e+00 1.000000000000000000e+00 1.000000000000000000e+00 1.000000000000000000e+00 1.000000000000000000e+00 1.000000000000000000e+00 1.000000000000000000e+00 1.000000000000000000e+00 1.000000000000000000e+00 1.000000000000000000e+00 1.000000000000000000e+00 1.000000000000000000e+00 1.000000000000000000e+00 1.000000000000000000e+00 1.000000000000000000e+00 1.000000000000000000e+00 1.000000000000000000e+00 1.000000000000000000e+00 1.000000000000000000e+00 1.000000000000000000e+00 1.000000000000000000e+00 1.000000000000000000e+00 1.000000000000000000e+00 1.000000000000000000e+00 1.000000000000000000e+00 1.000000000000000000e+00 1.000000000000000000e+00 1.000000000000000000e+00 1.000000000000000000e+00 1.000000000000000000e+00 1.000000000000000000e+00 1.000000000000000000e+00 1.000000000000000000e+00 1.000000000000000000e+00 1.000000000000000000e+00 1.000000000000000000e+00 1.000000000000000000e+00 1.000000000000000000e+00 1.000000000000000000e+00 1.000000000000000000e+00 1.000000000000000000e+00 1.000000000000000000e+00 1.000000000000000000e+00 1.000000000000000000e+00 1.000000000000000000e+00 1.000000000000000000e+00 1.000000000000000000e+00 1.000000000000000000e+00 1.000000000000000000e+00 1.000000000000000000e+00 1.000000000000000000e+00 1.000000000000000000e+00 1.000000000000000000e+00 1.000000000000000000e+00 1.000000000000000000e+00 1.000000000000000000e+00 1.000000000000000000e+00 1.000000000000000000e+00 1.000000000000000000e+00 1.000000000000000000e+00 1.000000000000000000e+00 1.000000000000000000e+00 1.000000000000000000e+00 1.000000000000000000e+00 1.000000000000000000e+00 1.000000000000000000e+00 1.000000000000000000e+00 1.000000000000000000e+00 1.000000000000000000e+00 1.000000000000000000e+00 1.000000000000000000e+00 1.000000000000000000e+00 1.000000000000000000e+00 1.000000000000000000e+00 1.000000000000000000e+00 1.000000000000000000e+00 1.000000000000000000e+00 1.000000000000000000e+00 1.000000000000000000e+00 1.000000000000000000e+00 1.000000000000000000e+00 1.000000000000000000e+00 1.000000000000000000e+00 1.000000000000000000e+00 1.000000000000000000e+00 1.000000000000000000e+00 1.000000000000000000e+00 1.000000000000000000e+00 1.000000000000000000e+00 1.000000000000000000e+00 1.000000000000000000e+00 1.000000000000000000e+00 1.000000000000000000e+00 1.000000000000000000e+00 1.000000000000000000e+00 1.000000000000000000e+00 1.000000000000000000e+00 1.000000000000000000e+00 1.000000000000000000e+00 1.000000000000000000e+00 1.000000000000000000e+00 1.000000000000000000e+00 1.000000000000000000e+00 1.000000000000000000e+00 1.000000000000000000e+00 1.000000000000000000e+00 1.000000000000000000e+00 1.000000000000000000e+00 1.000000000000000000e+00 1.000000000000000000e+00 1.000000000000000000e+00 1.000000000000000000e+00 1.000000000000000000e+00 1.000000000000000000e+00 1.000000000000000000e+00 1.000000000000000000e+00 1.000000000000000000e+00 1.000000000000000000e+00 1.000000000000000000e+00 1.000000000000000000e+00 1.000000000000000000e+00 1.000000000000000000e+00 1.000000000000000000e+00 1.000000000000000000e+00 1.000000000000000000e+00 1.000000000000000000e+00 1.000000000000000000e+00 1.000000000000000000e+00 1.000000000000000000e+00 1.000000000000000000e+00 1.000000000000000000e+00 1.000000000000000000e+00 1.000000000000000000e+00 1.000000000000000000e+00 1.000000000000000000e+00 1.000000000000000000e+00 1.000000000000000000e+00 1.000000000000000000e+00 1.000000000000000000e+00 1.000000000000000000e+00 1.000000000000000000e+00 1.000000000000000000e+00 1.000000000000000000e+00 1.000000000000000000e+00 1.000000000000000000e+00 1.000000000000000000e+00 1.000000000000000000e+00 1.000000000000000000e+00 1.000000000000000000e+00 1.000000000000000000e+00 1.000000000000000000e+00 1.000000000000000000e+00 1.000000000000000000e+00 1.000000000000000000e+00 1.000000000000000000e+00 1.000000000000000000e+00 1.000000000000000000e+00 1.000000000000000000e+00 1.000000000000000000e+00 1.000000000000000000e+00 1.000000000000000000e+00 1.000000000000000000e+00 1.000000000000000000e+00 1.000000000000000000e+00 1.000000000000000000e+00 1.000000000000000000e+00 1.000000000000000000e+00 1.000000000000000000e+00 1.000000000000000000e+00 1.000000000000000000e+00 1.000000000000000000e+00 1.000000000000000000e+00 1.000000000000000000e+00 1.000000000000000000e+00 1.000000000000000000e+00 1.000000000000000000e+00 1.000000000000000000e+00 1.000000000000000000e+00 1.000000000000000000e+00 1.000000000000000000e+00 1.000000000000000000e+00 1.000000000000000000e+00 1.000000000000000000e+00 1.000000000000000000e+00 1.000000000000000000e+00 1.000000000000000000e+00 1.000000000000000000e+00 1.000000000000000000e+00 1.000000000000000000e+00 1.000000000000000000e+00 1.000000000000000000e+00 1.000000000000000000e+00 1.000000000000000000e+00 1.000000000000000000e+00 1.000000000000000000e+00 1.000000000000000000e+00 1.000000000000000000e+00 1.000000000000000000e+00 1.000000000000000000e+00 1.000000000000000000e+00 1.000000000000000000e+00 1.000000000000000000e+00 1.000000000000000000e+00 1.000000000000000000e+00 1.000000000000000000e+00 1.000000000000000000e+00 1.000000000000000000e+00 1.000000000000000000e+00 1.000000000000000000e+00 1.000000000000000000e+00 1.000000000000000000e+00 1.000000000000000000e+00 1.000000000000000000e+00 1.000000000000000000e+00 1.000000000000000000e+00 1.000000000000000000e+00 1.000000000000000000e+00 1.000000000000000000e+00 1.000000000000000000e+00 1.000000000000000000e+00 1.000000000000000000e+00 1.000000000000000000e+00 1.000000000000000000e+00 1.000000000000000000e+00 1.000000000000000000e+00 1.000000000000000000e+00 1.000000000000000000e+00 1.000000000000000000e+00 1.000000000000000000e+00 1.000000000000000000e+00 1.000000000000000000e+00 1.000000000000000000e+00 1.000000000000000000e+00 1.000000000000000000e+00 1.000000000000000000e+00 1.000000000000000000e+00 1.000000000000000000e+00 1.000000000000000000e+00 1.000000000000000000e+00 1.000000000000000000e+00 1.000000000000000000e+00 1.000000000000000000e+00 1.000000000000000000e+00 1.000000000000000000e+00 1.000000000000000000e+00 1.000000000000000000e+00 1.000000000000000000e+00 1.000000000000000000e+00 1.000000000000000000e+00 1.000000000000000000e+00 1.000000000000000000e+00 1.000000000000000000e+00 1.000000000000000000e+00 1.000000000000000000e+00 1.000000000000000000e+00 1.000000000000000000e+00 1.000000000000000000e+00 1.000000000000000000e+00 1.000000000000000000e+00 1.000000000000000000e+00 1.000000000000000000e+00 1.000000000000000000e+00 1.000000000000000000e+00 1.000000000000000000e+00 1.000000000000000000e+00 1.000000000000000000e+00 1.000000000000000000e+00 1.000000000000000000e+00 1.000000000000000000e+00 1.000000000000000000e+00 1.000000000000000000e+00 1.000000000000000000e+00 1.000000000000000000e+00 1.000000000000000000e+00 1.000000000000000000e+00 1.000000000000000000e+00 1.000000000000000000e+00 1.000000000000000000e+00 1.000000000000000000e+00 1.000000000000000000e+00 1.000000000000000000e+00 1.000000000000000000e+00 1.000000000000000000e+00 1.000000000000000000e+00 1.000000000000000000e+00 1.000000000000000000e+00 1.000000000000000000e+00 1.000000000000000000e+00 1.000000000000000000e+00 1.000000000000000000e+00 1.000000000000000000e+00 1.000000000000000000e+00 1.000000000000000000e+00 1.000000000000000000e+00 1.000000000000000000e+00 1.000000000000000000e+00 1.000000000000000000e+00 1.000000000000000000e+00 1.000000000000000000e+00 1.000000000000000000e+00 1.000000000000000000e+00 1.000000000000000000e+00 1.000000000000000000e+00 1.000000000000000000e+00 1.000000000000000000e+00 1.000000000000000000e+00 1.000000000000000000e+00 1.000000000000000000e+00 1.000000000000000000e+00 1.000000000000000000e+00 1.000000000000000000e+00 1.000000000000000000e+00 1.000000000000000000e+00 1.000000000000000000e+00 1.000000000000000000e+00 1.000000000000000000e+00 1.000000000000000000e+00 1.000000000000000000e+00 1.000000000000000000e+00 1.000000000000000000e+00 1.000000000000000000e+00 1.000000000000000000e+00 1.000000000000000000e+00 1.000000000000000000e+00 1.000000000000000000e+00 1.000000000000000000e+00 1.000000000000000000e+00 1.000000000000000000e+00 1.000000000000000000e+00 1.000000000000000000e+00 1.000000000000000000e+00 1.000000000000000000e+00 1.000000000000000000e+00 1.000000000000000000e+00 1.000000000000000000e+00 1.000000000000000000e+00 1.000000000000000000e+00 1.000000000000000000e+00 1.000000000000000000e+00 1.000000000000000000e+00 1.000000000000000000e+00 1.000000000000000000e+00 1.000000000000000000e+00 1.000000000000000000e+00 1.000000000000000000e+00 1.000000000000000000e+00 1.000000000000000000e+00 1.000000000000000000e+00 1.000000000000000000e+00 1.000000000000000000e+00 1.000000000000000000e+00 1.000000000000000000e+00 1.000000000000000000e+00 1.000000000000000000e+00 1.000000000000000000e+00 1.000000000000000000e+00 1.000000000000000000e+00 1.000000000000000000e+00 1.000000000000000000e+00 1.000000000000000000e+00 1.000000000000000000e+00 1.000000000000000000e+00 1.000000000000000000e+00 1.000000000000000000e+00
3.476369184960840381e-02 5.105183737735241589e-01 -2.496992684394530315e-01 7.577598150074608130e-01 5.161297849815685845e-01 5.035195542785269041e-01 6.038223100962333278e-01 3.159147557777755577e-01 5.402964613583419728e-01 5.222872445683587328e-01 1.082001184566487639e+00 -7.043582104228869323e-01 1.408971717781188016e+00 4.572673522296004656e-01 5.148668070346895664e-01 3.995161200966524939e-01 8.741243403909947363e-01 9.782847356908270786e-01 7.217185154297333094e-01 5.215993490544723610e-01 3.828992150639644598e-01 9.862425392240028454e-01 3.948722754384066391e-01 5.072171431964590527e-01 8.594792044442745027e-02 6.701908632615819483e-01 3.837439214778470276e-01 6.792940485208212031e-01 5.559863553481816378e-01 1.590807635862567349e+00 5.054014954241762281e-01 6.092304065900718824e-01 7.190680188622883273e-01 5.241088333272979627e-01 7.016422678041681626e-01 4.532818260336022864e-01 5.158345699007268470e-01 1.806451204638438890e+00 -7.534975534916138473e-02 5.076000982543762419e-01 -1.844485607051705445e-01 -5.616298865823399211e-01 7.484599177022709382e-01 2.275995205481569639e-01 2.948741496552365615e-01 5.049277397083008490e-01 7.574997387655999503e-01 5.271008354134075757e-01 6.368730067758274771e-01 1.488122428661039012e-02 1.910216096527396490e-02 8.052348887879698935e-01 6.778794978115030290e-01 4.354814974816866857e-01 4.591168468217619592e-01 1.807847836232107097e-02 5.108048230748105656e-01 5.232161568826793063e-01 1.933532987960060179e-01 4.835998207254058046e-01 9.182109042756636530e-01 5.058498443137378064e-01 5.324492704378294139e-01 3.948724284868933010e-01 6.794486518725901814e-01 6.026730025855832062e-01 5.176479174401226180e-01 3.376728829981845426e-01 5.649330418479171501e-01 1.498554511571093158e-02 4.299581817656036309e-01 5.730147470354449712e-01 5.167645549670157878e-01 1.125902554717116665e-02 1.511850401993180881e+00 5.493347032289498388e-01 6.357184417968151369e-01 7.288426295119588838e-01 5.186643811900429890e-01 1.384736740905884611e+00 5.261752046736313249e-01 3.258981990528355133e-01 1.414020738098609176e+00 7.318679698975156800e-01 5.004261099325745255e-01 7.548153832234696381e-01 8.029979780051891280e-01 5.502543695909484223e-01 4.158879068946767510e-01 5.761371279712615978e-01 2.909492130234092588e-01 2.191933690216290920e+00 7.591224626212996762e-01 -6.559465538190263623e-04 5.000061640391714191e-01 4.739659983522851450e-01 5.624548505564717082e-01 4.788696225745329160e-01 1.896363975027396676e-01 6.615236026363657817e-01 1.615751512707786164e+00 6.892374333016203503e-01 5.466576474436735111e-01 6.791060318720695266e-01 8.593864214191426765e-01 -2.085943012504686056e+00 -1.225507465983625366e+00 5.377446123347471296e-01 6.009675858029829287e-01 9.706154204564825250e-01 5.697575419066266411e-01 4.334999635627440062e-01 1.702859717011599994e-01 4.944320119272840874e-01 5.234616702983504455e-01 4.970531845984368924e-01 4.766686383794889736e-01 5.294287128379894236e-01 9.437617783084075729e-01 5.173967882805662333e-01 1.306777459649044459e+00 5.485000227406147122e-01 6.034721418353474753e-01 -4.642952444813807644e-01 5.155199082367225571e-01 1.954039098969062360e+00 5.536341171320173782e-01 5.532664522121301109e-01 6.829918518548537820e-01 5.227002751651559365e-01 5.304796988140292324e-01 5.111158380134849244e-01 4.253763915285961317e-01 3.748898131035621750e-01 -3.117669482888177357e-01 -1.680444554778961208e-01 6.511012482846203486e-01 5.260144456385816569e-02 1.002514242302185332e+00 6.143500962061161363e-01 5.060091193077576044e-01 8.672109233423964669e-01 5.772195102746354722e-01 5.595931575237805822e-01 5.180848472392314275e-01 5.000567507774544840e-02 9.322400336558385181e-01 -5.060616812876694848e-02 4.414155515759741188e-01 -8.978796806389343077e-01 7.659900353413199303e-01 -2.923860917334729637e-01 5.049297712748569422e-01 5.615895720734233043e-01 4.534805236687819430e-01 5.198841396968517659e-01 1.968715310133241969e+00 -1.202243510752552536e-01 8.172928258018404835e-01 6.828937784270595612e-01 5.372117277817436420e-01 4.165307165517171950e-01 4.972233532200504014e-01 5.156544644114527953e-01 1.077226135306510235e+00 2.042108309481393269e-01 8.507964437348830566e-01 3.518372519227662143e-01 4.575598248205483554e-01 6.591496279623636489e-01 5.308078127941427971e-01 7.581384749667594569e-01 5.049363177620511678e-01 5.192662542363114531e-01 4.042974339282540686e-01 4.677574043768190082e-02 1.994121680227337323e-01 9.450394939701173280e-02 7.494399151148112281e-01 1.142699187576475817e+00 6.922162996521504796e-01 5.282839731245808634e-01 -1.751236842276735761e-01 4.388775022050594998e-01 6.038322231373715043e-01 5.433298365089569426e-01 5.123540758681354168e-01 5.069682430697010078e-01 2.809847219985789568e+00 5.426422382131299571e-01 5.461916544482946501e-01 -8.988950252877198066e-01 5.366418723077777120e-01 5.392664222040799427e-01 1.912496307739881551e-01 5.179893234242445299e-01 9.375093376108963872e-01 5.314150954654536241e-01 5.796498144235632255e-01 4.542364270010826321e-01 6.298857995424583800e-01 4.905817316774986891e-01 9.048913918338973295e-01 6.013438543669709091e-01 5.432226478646429157e-01 5.796497822376589504e-01 2.323066055431626531e-01 1.291417196812346013e+00 5.565338062316028678e-01 4.125879657104476461e-01 4.292797268222281470e-01 -8.674450688466571469e-02 4.857758670090277509e-01 1.573671657852890038e-01 5.098513675140011747e-01 5.100680835889696008e-01 5.187378428173714529e-01 5.168813220703050160e-01 5.180413898082903978e-01 5.200723230898447458e-01 4.370292455589586122e-01 5.854700998973072501e-01 -7.106917055937853611e-01 6.062401878098006014e-01 3.983145679096269376e-01 3.707153170580099188e-01 7.199849278019711252e-02 1.313215421190399468e+00 9.622805014772486398e-01 4.953358106165158259e-01 -1.031520625386155993e-01 1.058375930118813590e+00 5.157842649090955689e-01 4.481496799927184305e-01 6.039482292927769169e-01 4.112701780229165993e-01 3.113276450872627943e-01 1.798433372020643572e-01 -1.568783030165860071e-01 -9.114042675883059219e-02 4.092677942768329635e-01 5.324303497917356465e-01 -1.097920600497799132e-01 4.305152590805023660e-01 5.165914135535690788e-01 4.910976658718959054e-01 -9.839486236361222327e-02 7.551319445343064318e-01 -2.301177681601321190e+00 6.136454236055076672e-01 -6.166013761351538669e-01 4.977571649984622870e-01 5.158622867715435545e-01 3.948720562282292956e-01 4.756640073327738083e-01 5.656955284781979287e-01 5.431512138132575940e-01 7.664858293833466396e-01 5.580899318722070124e-01 1.693721245258158037e+00 6.799654661542079426e-01 6.892934558089587327e-01 4.715706288369599375e-01 3.623998819147511985e-01 9.182109445274471149e-01 4.232118691325671422e-01 2.692317842775935777e+00 4.925836379848825830e-01 2.298917354083714337e-01 7.371218535158858831e-01 5.047139580445256790e-01 9.177869508560261291e-01 5.184746399450002041e-01 5.662715468945901387e-01 5.174531439620618789e-01 1.111574064795950223e+00 7.698406896510514574e-01 8.613249458008362947e-01 8.072595600165568541e-01 4.903315876704791854e-01 6.804687551290032888e-01 5.188172173677619847e-01 3.825418260028607409e-01 -7.270228043955310193e-01 3.868735782572119697e-01 5.738301827795515564e-01 5.632732059127805169e-01 5.210342383608227435e-01 4.970531288619993160e-01 6.085093699856305438e-01 5.492038977924637022e-01 -8.569004832844158148e-01 7.318381769847198681e-01 5.497002271354167746e-01 8.230691138838572632e-03 5.455465135521267994e-01 1.852152343187585481e+00 5.047096983998377029e-01 5.156874323345567168e-01 4.414052754738280737e-01 -3.433496217670992667e+00 5.178727638139307698e-01 2.841035550320954783e+00 7.582922871717922009e-01 5.257533950999717653e-01 -5.757266120125621445e-01 5.150803790827448436e-01 5.170077577255313139e-01 4.417716727476911354e-01 4.513291569603877229e-01 3.562386311077658241e-01 6.443571888777852585e-01 3.142400509336192305e-01 5.213856784978260217e-01 5.154524738207173495e-01 3.515932555712675267e-01 5.295945104273225290e-01 7.582972346376499750e-01 5.187110862616172158e-01 1.202409591252590726e+00 1.351077053131234836e-02 2.223568867481414468e+00 2.647933264740278680e+00 5.071361973279154833e-01 -2.184159064304400932e-01 4.057337586327093848e-01 4.011465626147511787e-01 7.336825925848934338e-01 1.381165459899795556e+00 5.345844920476189310e-01 1.128159630269486735e+00 5.164099210979575805e-01 1.225804661173553606e-01 1.255033369235730945e+00 4.738671554138260134e-01 5.442652282017270693e-01 5.059175389978280979e-01 8.993398136681451938e-01 -3.743658067336296025e+00 1.638491012316993789e+00 5.091124729274132399e-01 6.371770325706346272e-01 5.183380985983577771e-01 1.806451196597352427e+00 3.021705758672807995e-01 5.538202780696614980e-01 5.241453026317141051e-01 4.909838469420643170e-01 1.376326459038019090e+00 5.691326589787411017e-01 5.796494999147716598e-01 4.305191529531559591e-01 6.013438554467910313e-01 5.310093751566914433e-01 5.683109773816500399e-01 8.981606790771095028e-01 5.150640494047649121e-01 3.846714698945926103e-01 1.766263941360285139e-01 6.613310642992942245e-01 5.183752682134977752e-01 3.528660509010636548e-01 5.538203159770361816e-01 6.527136100564241428e-01 5.149274023697891778e-01 1.026085802364143262e+00 9.676155214597809140e-01 1.141713345693130544e+00 5.180654331968393977e-01 2.240615775292036926e-01 9.182114290818398361e-01 -1.093645136183010597e-01 9.335385394199789966e-01 6.295024982250458923e-01 1.249052749449680935e-02 5.678826652836898026e-01 9.447594112474387851e-01 3.871624660227733772e-01 5.034276556186897400e-01 2.900733916498344223e-01 -3.359264890125127634e-01 -2.477399010702772575e+00 4.926725254381044139e-01 6.013438548516895077e-01 6.013438080793749307e-01 4.983555142580824993e-01 3.971149507500291720e-01 -2.237636742164625381e-01 3.036172780806697946e-01 5.132580598482109346e-01 6.985118488020831684e-01 5.177581649676969988e-01 1.041385169324714477e+00 5.796497580895491053e-01 5.175941520509507177e-01 4.869459143728535055e-01 2.751116453620178759e-01 6.567819654108174587e-01 5.171955983560888592e-01 5.176143985846918261e-01 5.295032878056857850e-01 2.932911949601189061e-01 1.678902295543156786e-02 6.013438541752849087e-01 6.610844047017309100e-01 5.156267467789932279e-01 4.051529341243657600e-01 8.591388348631378014e-01 7.293751460160162736e-01 5.638965092694852022e-01 1.870025807433372877e+00 5.052417405795276428e-01 -3.096334924377607489e+00 7.573459517794270957e-01 1.526610980598873457e+00 5.688180248326506483e-01 -1.079428546143274659e+00 7.874091162177395686e-01 4.460740982668153776e-01 5.256049411778082048e-01 5.380044410064067639e-01 -3.627819624816824295e-01 5.203060223856759148e-01 1.071675478800609760e+00 5.148454105497255462e-01 -3.680684550627424945e-01 5.163268050740574822e-01 5.187937957934491973e-01 7.849731358612193066e-01 5.080678272175125354e-01 5.689341779097020213e-01 -5.283626230901701248e-01 5.610030396392838847e-01 5.117103257037608488e-01 6.341083586454989707e-01 5.241089564497610764e-01 7.679119989989853234e-01 5.165786286359066448e-01 6.062210193570748418e-01 5.918718577394422864e-01 5.173131695786081785e-01 2.786431228861967480e-01 3.013033433695626040e-01 3.386137774380278964e-01 9.643790339942630574e-01 5.524608156895383093e-01 3.210761685399542209e+00 6.587213651630899891e-01 6.423289426972721428e-01 5.518894446591197100e-01 5.887373710683915240e-01 2.583656208511249039e-02 4.884199506657994072e-01 4.952510945005370591e-01 5.194909440206670892e-01 1.161378829022119419e+00 7.675873048707589907e-01 5.242349525935948718e-01 4.423331591793072115e-01 1.117929515197305657e+00 5.400133193982317170e-01 5.682368505047190599e-01 5.435172665762125765e-01 7.988557259084307915e-01 5.202626550962670127e-01 9.345240979885246491e-01 5.191543379660629176e-01 5.169586292719412501e-01 1.476479640822216111e-02 5.231200129222401962e-01 7.181931108964268069e-03 3.204661280163600412e-01 4.060811710622734827e-01 5.765986224188009990e-01 7.816331004165192331e-01 5.190320611207607238e-01 3.889549463969989573e-01 8.370121908769000141e-02 5.171479871088922042e-01 5.458525240899866349e-01 4.564894487472008211e-01 3.452823644550898768e-02 5.154548565699045293e-01 2.489250552040968845e-01 5.191047821223599978e-01 4.141628100354822761e-01 1.259009019042263366e+00 7.747044695767258959e-01 5.450720893182777749e-01 2.572942796540323984e-01 7.326748301508004824e-01 4.321642218842378647e-01 9.954744833576306684e-01 6.023380356860893459e-01 5.993703530798565327e-01 6.968968615866083516e-01 2.000561273536603402e+00 4.664325970107996433e-01 4.805930485511416550e-01 5.122974087535173693e-01 7.319549071848807653e-01 5.458800225062390155e-01 8.486007000348041451e-01 -5.751124927811446241e-01 3.572634940004384974e-01 5.122889399223566897e-01 4.278599298990576338e-01 3.827074105675944971e-01 -6.211363294121684531e-01 3.874928801489866403e-01 5.163252698211577840e-01 7.343192968303945412e-01 6.674855969866494432e-01 1.494260906556817314e+00 5.151009070051378869e-01 5.194509305647042607e-01 -7.095862225733835515e-01 5.164194215462194482e-01 1.223866922198586060e+00 7.120367774260277782e-01 2.732165200257652415e-01 2.541176354556736183e-01 -1.719005721681829524e+00 5.279492373091562163e-01 1.855103401443014832e-01 1.101793945049952761e+00 8.194084303746301812e-01 5.178481313990582757e-01 5.275654906175083481e-01 6.168010989755242646e-01 7.574165491761009061e-01 4.382169128619177179e-01 5.585106189518689312e-01 2.909152679881898962e-02 5.275353960425529509e-01 5.965268649458194128e-01 5.267928529368784973e-01 5.085224158798249405e-01 4.828521082636261230e-01 1.215730538331443400e+00 -1.025186733783875342e-01 -2.374096637137303734e-01 4.183590097864048341e-01 5.512665411579876773e-01 5.397454025664971677e-01 5.245302842182837377e-01 -8.617815363258251038e-01 3.175667015252654490e+00 5.329216176552703521e-01 4.453011110209795231e-01 4.287037288673041791e-01 5.146181638198636943e-01 5.106346551741394180e-01 5.589563491064670764e-01 3.258217803740003915e-01 5.974216220393155918e-01 5.178350104467812631e-01 5.702060315982799832e-01 3.423675508429216419e-01 4.135188757918897839e-01 5.576057887067625840e-01 4.056385280825212658e-01 5.123068302147375519e-01 5.513769559116526997e-01 6.646153101446735656e-01 1.013961509826608154e+00 2.322034328847305318e+00 5.303912518494874329e-01 4.975900914057023727e-01 4.157634963195037670e-01 4.882812961919634209e-01 3.695887699290612560e-01 5.141987312791438391e-01 5.108167768715529133e-01 5.128843371883131663e-01 5.397542609026879656e-01 4.788255025712056523e-01 7.578744423747529879e-01 3.653981145489942906e-01 4.486321364471865802e-01 4.441733143646262594e-01 5.284997085827185526e-01 1.146619739349402783e-01 9.182109284294113216e-01 5.674481257290597824e-01 1.124265296087828131e-01 1.911763022334748152e+00 2.903365372321725646e-01 4.202827712144704964e-01 5.915237669857765779e-01 6.349774528070009638e-02 5.330695765634314576e-01 1.517216067279098635e+00 7.839339561600990880e-01 7.387390064130781031e-01 5.164855577951802390e-01 5.479134313816582669e-01 4.584612980065435606e-01 6.591606926891934171e-01 5.445758240047595677e-01 5.177298644141897777e-01 -2.231205820477823731e-01 5.268893017514361121e-01 -1.500908398761803486e+00 4.838105427441146689e-01 5.076676858356703459e-01 5.072506159805520998e-01 4.413989411276907915e-01 9.182109285143807975e-01 2.203212519553496562e-01 5.353562057473383318e-01 1.345218513192743659e+00 -5.606733617062162889e-01 5.215104717451485294e-01 1.139641241615274803e+00 1.524081023258096135e+00 4.918889686634438374e-01 5.204998882307523278e-01 -5.658635476438460959e-02 -1.685655934187296756e+00 2.749651929821405605e-01 8.018185174866511167e-01 5.142375934239264978e-01 5.159823689279200432e-01 5.964439587978284107e-01 4.838367939229129555e-01 -4.102736837001280112e-01 8.220990555664343669e-01 4.970537596555811843e-01 3.302404349363198266e-01 5.449483067568153816e-01 -9.372301042590737777e-03 -1.701985120146145003e-01 1.797922874679777516e+00 4.134402514286862340e-01 5.173808410673178537e-01 5.171371002472159306e-01 3.255404472722727705e-01 5.721480767250208821e-01 -8.600569269424007679e-02 -1.184182445472910850e+00 5.152603255718369857e-01 5.405677455884569937e-01 5.115937124278636672e-01 6.125123842671815755e-01 5.088211851545861863e-01 5.455088462800643523e-01 5.578717296692248251e-01 5.706585839944648963e-01 1.033319994324625402e+00 7.219091164132740435e-01 5.087907603150557678e-01 5.988531831775845138e-01 4.639663895686716444e-01 4.486860763844038313e-01 3.796716490970533653e-02 5.538202910339150575e-01 4.708166462498870053e-01 4.994657286674589747e-01 7.580231757577617913e-01 9.031183985634481104e-01 8.485949249452470200e-01 -5.107920065953243105e-01 5.083221758783194044e-01 4.507999251901237403e-01 5.153540312707953763e-01 5.896103481789217726e-01 9.085712716837911485e-01 5.582753071609485307e-01 5.280369952463315197e-01 -2.624216378402427496e-01 -8.736832445720364992e-01 2.303331441003515501e+00 5.070700070961450256e-01 8.974299456915043605e-01 4.278775333648600077e-01 5.738105356064762130e-01 3.823425869897206231e-01 1.507041071305543489e-01 5.164630092470150480e-01 5.473117998391635597e-01 -5.092778844995804292e-03 5.134362264062665160e-01 4.331182936085909430e-01 5.126642851643146148e-01 6.261162030497432474e-01 5.202827714292036498e-01 6.150985439516601927e-01 4.098531261694577932e-01 5.200501583428092101e-01 4.336738858215269388e-01 5.109022847167399295e-01 4.152472635195706419e-01 5.373433662529066845e-01 -2.691687101672366467e-01 5.125431044057507934e-01 6.424678753361027228e-01 4.890118649841962983e-01 7.576956228938170890e-01 9.182108118017380249e-01 7.299888961978008295e-01 -6.005023629414388830e-01 9.855834955064539660e-01 1.806451204673182209e+00 4.944447754242787818e-01 4.638069863418470828e-01 1.079606263162218527e+00 5.670765429540480795e-01 7.577269206461010320e-01 5.161323220027598246e-01 1.839166997599995357e+00 5.196159210060005140e-01 4.305162001845669328e-01 1.234559963594171084e+00 -6.221361481324432646e-02 5.473676173773832643e-01 -1.604807147257885369e-01 -9.645809205708926193e-01 -1.699219410459046065e-01 7.732988686988579996e-01 5.716813046745308213e-01 5.094544155089473225e-01 -3.264967560255702117e-01 4.972312100252013756e-01 5.269660894371443888e-02 -3.849455474832459423e-01 5.046350070656149267e-01 5.160756444746738003e-01 5.268998455771066736e-01 5.479924614086458812e-01 5.264777930730750732e-01 9.111615268316443084e-01 -4.158740122660544158e-01 5.153717667333267416e-01 5.425097284361632965e-01 6.089147995635081356e-01 1.168281010558281707e+00 4.961211018194749411e-01 6.550045355514200196e-01 5.146343065412612994e-01 4.452375844922367570e-02 -3.632584607251788666e-01 5.389067487841489035e-01 5.454927298605518615e-01 6.813703368611500055e-01 5.151464964491546672e-01 3.502884348645320944e-01 5.191268299133546815e-01 5.153380047975747447e-01 3.745880718903495943e-01 5.233304352447437635e-01 8.395100885028194959e-01 2.561988527315358422e+00 -2.441796667348648531e-01 6.624672630779181448e-01 3.308047777038689019e-01 2.082984168451258722e-01 6.682626916337246481e-01 -5.720877465819481505e-02 -1.543922841238707599e+00 5.252858182998338954e-01 2.623693448418037200e+00 5.370195535705770684e-01 1.582186624559534516e-01 1.665302061522672683e-01 4.970531847141645421e-01 5.818868842022179022e-01 1.563954706137092643e+00 4.987980686973245148e-01 1.260880802575318205e-01 4.278292294257470818e-01 1.707289948505835930e+00 5.989166190503383280e-01 7.626344391862002192e-01 4.981950151200138510e-01 7.391475977188675106e-01 4.596991062286320262e-01 5.710897415502561580e-01 1.880472099252729345e-02 5.202867167927963665e-01 5.052807605444873396e-01 -5.751077789165698340e-01 -7.217742520539713325e-02 1.176618843843477702e+00 2.376121921364277856e-01 4.841270273820908465e-01 7.030024894855992912e-01 5.501632633018506136e-01 2.006911570109461973e+00 6.857560715549849695e-01 2.399534508551878428e-02 3.109830375406187897e-01 3.958791626349502102e-01 1.122271224600375872e+00 5.058712582524373946e-01 -2.745056282959469976e-02 5.040518803654444602e-01 -1.480252720608624811e-02 5.262184014505955076e-01 5.142025086671487832e-01 1.151132494278168982e-03 -4.719909482721865168e-02 6.670321687724041215e-01 5.790497018126700146e-01 5.762156997202680930e-01 2.416966050834701007e-01 4.426647263604847615e-01 5.042251133991667578e-01 5.227648751143574302e-01 5.444280767249289887e-01 4.793527575228775373e-01 6.088018803573306270e-01 1.017568120142253285e+00 3.136484851636906601e+00 9.366840733084652593e-01 5.202825096629045687e-01 6.239312028281459588e-01 2.149297346919384344e-01 5.138998809758726916e-01 8.494456032468605811e-01 4.989008867288994287e-01 1.316768725089588088e+00 4.494078481841674022e-01 -5.799059008311351349e-01 -1.787739682250810355e-02 4.088100501791455677e-01 6.135746368975224518e-01 5.288245836918417098e-01 5.106177189391594151e-01 4.474042492311561953e-02 5.044931761888998833e-01 4.211239979484336371e-01 -3.706457539392515432e+00 4.807409614875625681e-01 5.242321035378001426e-01 1.129793754130504091e+00 5.164077778962671283e-01 5.017692234674352436e-01 6.820658960261855031e-01 -8.893274618631488160e-01 -5.030967386214066916e-01 3.904320679706203140e-02 5.139537618789022932e-01 4.558173584193226380e-01 2.163197440161092611e-01 5.104183280327007077e-01 -3.393804038678193136e-01 6.012314760046030271e-01 5.089337116204351030e-01 6.952577862533056985e-01 5.453069353423335430e-01 4.712607787272583004e-01 1.544176935616518309e-01 -7.597536911172322327e-01 6.553696398673873880e-01 5.291616994308103727e-01 1.600725003908853306e-01 5.146428745167446195e-01 5.625269063791523694e-01 5.355096313438159061e-01 6.713077429976020971e-01 5.741315178411007247e-01 5.441414940836619696e-01 5.013550189947292290e-01 1.806451206281631139e+00 3.599712427852387320e-01 5.451933796371198904e-01 -1.229190647015417637e-01 5.498850676597868414e-01 6.299002931731573218e-01 5.298112552208240622e-01 4.920966292323234459e-01 3.553368150480897825e-01 9.390450760786058781e-01 1.206586890259911726e+00 5.563823126847109446e-01 5.814355127690971070e-01 5.964550836070812156e-01 4.731823165392480823e-01 5.038763389039212504e-01 5.167078511633376170e-01 9.855632745561776487e-01 7.122294187708934077e-01 -4.574942695334120457e-01 4.549908543380062897e-01 9.118748529047686624e-01 5.148160770404003328e-01 -2.090970565875547443e-02 5.259197955475055641e-01 1.357412774737433159e+00 -1.388747862027581437e-01 6.038833391049356347e-01 2.430751195583052693e-01 5.065435394095352262e-01 8.422220918120492117e-01 5.168429026888298194e-01 3.702283399315469681e-01 1.401626944497473160e+00 4.732335533691009455e-01 5.295342017434694348e-01 -6.654931618252135639e-01 4.494975324866467559e-01 1.041620375719737757e+00 6.066638885319595165e-01 8.006109645442334444e-02 9.722416416346985057e-01 -3.974092432073231262e-02 6.604305722493882813e-01 1.624217532126063457e+00 -8.594454963846979156e-01 5.749586076654832345e-01 5.164439933277831241e-01 -4.594986253084358818e-01 3.105050380487993089e-01 6.032581413408858451e-01 4.870113555550318329e-01 5.061657348981126736e-01 3.804510716099540613e-01 2.632400422743651491e-01 3.446351835435709776e-01 5.733816762669069478e-01 5.175691633042506234e-01 7.109919969889562895e-03 -1.135322324815059430e-01 5.117008606500395018e-01 1.064061254217714136e+00 4.702200236143901368e-01 -5.755746325188719759e-01 5.363288465968992780e-01 5.185057388346845375e-01 5.404766065933949148e-01 4.253581423832585723e-02 3.305065859720285326e-01 5.175237938423040696e-01 5.085383327474123361e-01 4.518164487402005491e-01 9.126206972284849409e-03 5.281200559283543150e-01 5.197781836255597199e-01 6.239239012873685208e-01 2.088567757526216262e+00 4.002749627898706877e-03 3.856065653267319315e-01 5.359718830442831150e-01 1.834815489938873778e+00 5.754074894748858471e-01 5.042829922988774083e-01 1.801613425250396874e-02 5.538202762630031195e-01 5.108427370392559785e-01 4.760312702685479125e-01 3.836580597488440936e-01 5.007226660177159783e-01 4.578415234694968583e-01 5.473532445866615692e-01 -5.358476973318587744e-01 5.153414387650757655e-01 5.433008755543585755e-01 5.461375755009223454e-01 1.121102547884068379e+00 5.271145949276508924e-01 -2.449748154222517460e-01 1.089158160822281118e+00 -1.272863505037615361e+00 -5.252665247716314934e-01 5.244673464429205900e-01 5.183118294857416153e-01 6.540274655103887058e-01 5.176995521495270092e-01 4.231366415464327124e-01 5.813006407612046900e-01 5.538202742187799954e-01 5.164698832817515850e-01 5.013342166002976441e-01 5.897285809517593957e-01 5.144686315600354165e-01 2.997393220995656637e-01 5.033379657187774248e-01 5.294113162758833369e-01 3.861998352753645003e-01 5.304133781760087540e-01 5.158620588784381678e-01 5.497030068320699625e-01 6.493923244898908154e-01 5.175546604442951004e-01 6.931153574311269550e-01 4.950756155018660731e-01 5.054002938250858890e-01 5.417339607121617329e-01 3.773884531974880940e-01 3.988713643635927730e-01 2.423889832429603874e+00 4.765782923954939299e-01 5.995205149941693623e-01 3.027779322143182017e-01 5.827326464517901261e-01 1.113409909525021169e+00 4.447785091406750713e-01 7.018361650236490945e-01 5.163251188410566961e-01
7.040673720123074020e-01 3.211474871792703856e-01 4.310517186109465437e-01 -1.203633696890124560e-03 3.096424386599769818e-01 3.199338228449998267e-01 5.340431200539464962e-01 4.255170655056795259e-01 2.956682229606692469e-01 3.205703835288321590e-01 2.055689403448185182e+00 1.717868276381429027e+00 -1.446856345573904967e+00 6.150765129250895802e-01 3.153690371624930378e-01 4.361280077038006686e-01 1.311346242306802301e-01 4.360494658051221606e-01 4.330250602177197483e-01 3.148014929083262081e-01 4.533115084625047309e-01 2.119749447229180017e+00 3.815725104164794934e-01 3.663735061800989512e-01 7.327044680503311813e-01 -2.096225134180683125e-01 4.396824074887211165e-01 2.136461255400394221e-01 2.781545903267807485e-01 -8.865921609204244769e-01 3.741864262404465125e-01 -1.368307309469956323e-01 2.889711986907688157e-01 3.233109394396530001e-01 -4.211558218336873827e-01 4.802818159930739572e-01 3.219274063551746945e-01 -3.624466905318133869e-01 -3.243673294546975949e+00 2.862806413150397189e-01 1.158171087252088949e+00 1.427279228667364397e-01 -1.666759873702745864e-01 7.917978764179712803e-01 6.065948959885860692e-01 3.271996697232944507e-01 -9.765570835903272275e-04 3.367792315018408589e-01 1.970883160839030646e-01 6.614551619203747901e-01 6.784645253311786250e-01 4.841319931353039174e-01 -2.128874227622184478e-01 2.172955088043325156e-01 6.014809131851672763e-01 6.526957864832730882e-01 3.492417595572728795e-01 2.466735879368343043e-01 3.463463011850537177e-01 3.586448154890750084e-01 4.274106781131947197e-01 4.198600379380243997e-01 3.100706985588908560e-01 3.815724913430702525e-01 -3.458982850029753142e-01 1.529444422632119660e-01 3.192418546538369206e-01 3.227719229797887390e-01 2.066145088745865166e-01 7.219966431655513439e-01 1.270960806246458075e-01 2.557341351252400141e-01 3.310933159756012656e-01 7.273495252410244749e-01 1.921212930603770852e+00 4.709378186063850613e-01 4.728975842840792976e-01 4.812365064488218214e-01 3.115995563394162726e-01 -1.339411581803196194e+00 3.166609627168809893e-01 5.905322405248936146e-01 2.332361987020062699e+00 9.046294158502941885e-02 2.657038286202239585e-01 -3.897394882709310227e-01 1.295601115341643850e-01 2.672626579472218156e-01 -5.777518341468615981e-01 -8.900255511582272350e-01 6.072132910197687305e-01 1.581720287831915206e+00 7.117922401282472666e-02 6.878692721721937353e-01 3.077807482597044175e-01 3.235186780649598748e-01 2.682309448608598546e-01 7.582240421556772914e-01 7.376789470760112266e-01 -2.143068635093614283e-01 -1.746841106982817138e-01 5.480965328477949844e-02 2.582641041479292743e-01 2.145994124345482201e-01 -2.624300381574217952e-02 3.111212917532101052e+00 -2.870783636056609134e-01 1.949184882220784676e-01 1.203103118861381798e-01 8.100060656005008131e-01 2.474191191427203562e-01 4.830156559617665435e-01 1.638633080784519525e-01 4.319324098968979064e-01 -4.829649987336607220e-01 2.183773829117218734e-01 1.744413161063102791e-01 4.338714066922442214e-01 1.081179034975225717e+00 3.102251815684037295e-01 -1.453994112441889586e+00 1.917077938787283831e-01 1.303801223930694531e-01 1.393765992666817777e+00 3.230701863721862632e-01 2.171703527081275453e+00 2.730494002246545704e-01 2.662421100840769994e-01 3.030204801919821334e-01 3.004121201460333568e-01 3.362961651110466521e-01 3.077161950783730560e-01 6.757112697838049131e-01 4.189711219887305438e-01 1.711960569535471433e-01 8.653372208538098187e-01 7.145594701958190020e-01 7.189174292235804842e-01 -3.348594301203688395e-01 2.049155451752322499e-01 3.429748144017957801e-01 3.217548755621242873e-01 3.104058572959031981e-01 2.563504213823787903e-01 3.130242128607356733e-01 6.956673324051713125e-01 -1.523810508255303564e-01 3.189770811893689606e-01 4.433877904439863515e-01 3.995083105007432578e-01 -2.408207451244022690e-01 2.406589607906270759e-02 3.271979423381893848e-01 2.664964598228877213e-01 3.168623062461840556e-01 3.019317212801169159e-01 -2.374808386815783656e+00 4.576007572801976675e-01 -5.972930740740958200e-01 -2.190043592518651772e-01 2.115202596159503901e-01 2.868911867729289078e-01 3.238297765950819418e-01 3.098233084835400608e-01 1.196144526542894382e-01 8.857059514902985986e-02 3.165137134558564935e-01 4.539353551576766899e-01 3.772839456878799291e-01 3.250571981038732350e-01 1.850776404613460047e-01 -6.504426598950871323e-04 3.272391517242353998e-01 3.127208561055593861e-01 -2.502396176390842442e+00 6.885730683189724699e-01 6.044738002648695208e-01 9.584328541349805830e-01 -4.569528016693573114e-01 1.172011086245158706e+00 8.033072465453554648e-03 3.067856664508841757e-01 1.237369250675506072e+00 3.082042455715358620e-01 3.086771385695957770e-01 2.637614635567550048e-01 3.719393095864814147e-01 2.902527763710851527e-01 -4.799383663602660444e-01 2.879931646843904014e-01 2.683298094638123521e-01 8.141531954883470812e-01 3.030432616500614573e-01 3.078748750323000438e-01 2.360867856587964830e-01 3.073467617290168707e-01 -1.655606714911418864e+00 2.941247280272418219e-01 2.682814882154252456e-01 3.492432214155430370e-01 6.821322861028955575e-02 3.132422494372268384e-01 3.848218116970378855e-01 1.396933702509506880e-01 -7.803828365136805667e-01 2.682815050726589101e-01 4.724535681087610461e-01 -5.140707714095037462e-01 3.618471142407392871e-01 1.756867278177569047e-01 2.472282576453080916e-01 -3.250202634381856193e+00 4.495334468468154543e-01 9.263302850568402302e-01 3.198342469333338434e-01 3.127909119877928523e-01 3.107133808199225022e-01 3.284292518162549857e-01 3.081131093966403833e-01 3.083423242294395794e-01 3.494807034730059159e-01 1.213463895296869044e-01 6.651957949468091380e-01 1.101376474314815501e-01 4.971437663787679484e-01 4.881397748643740986e-01 3.955826745919602261e-01 -6.715027988123061231e-01 2.286781994655830985e+00 3.950318762129930716e-01 1.240404656004005401e+00 -1.390180310905720695e+00 3.134713119005043680e-01 2.279911960285292971e-01 3.536276713358578738e-01 1.170861346035525274e+00 5.090593417611876115e-01 8.134071625633548797e-01 2.834600953462298456e-01 6.692702489884596595e-01 2.772521591975055655e-01 3.096777495930263524e-01 -1.168929159107331195e+00 4.043120182485570591e-01 3.089510763051518949e-01 4.915234656365268795e-01 8.960247242748157204e-01 -3.616749820074934285e-01 3.151410254648471021e+00 4.940085467414632725e-01 1.261852970504049987e+00 -2.000727068651913798e-01 3.136014849142286787e-01 3.815709872572339845e-01 3.278691679121376601e-01 2.371555318037323612e-01 3.749952580528164714e-01 -1.270117478120451338e-01 1.207478941367342573e-01 5.618123980938614093e-01 2.627372423374507715e-01 9.491435653417151785e-02 2.476262999846055579e-01 4.147853113872441710e-01 4.274106517896829049e-01 2.603395364612386964e-01 3.232275483270822924e+00 3.685667728291739387e-01 6.534705780686741461e-01 5.367960823296404893e-01 2.244329710720562310e-01 4.276931558895203933e-01 3.062770861275930789e-01 2.912853507183057467e-01 3.112498761373325151e-01 -5.643059850345280015e-01 4.479610419304546620e-01 2.853506530380666706e-01 1.327683069279468053e-01 2.889692040510541404e-01 1.533697541770376427e+00 3.202969293915001736e-01 3.000471081116360406e-01 1.995191072417243472e+00 5.010416604496888970e-01 2.789561404135924572e-01 2.639809217499027305e-01 3.443403685662569935e-01 2.183768202629448041e-01 -2.059642815342080713e+00 2.597360066282624613e-01 1.533542467410138554e+00 -4.072940473015990853e-02 3.490767760410624088e-01 6.918522744596429241e-01 2.956001214008083799e-01 -7.219504559232163832e-01 4.085362987786431144e-01 3.041948665163508037e-01 4.433562557686296923e-01 -3.906914051778568875e-01 2.973816862522613014e-01 -2.237785423089916126e+00 -4.580541043228537976e-04 3.087633516668050748e-01 6.021532568422874876e-01 3.082644476270289813e-01 3.114065689545126858e-01 4.795829823215133070e-01 1.922950211748515326e-01 -1.055349694201178912e-01 -7.639235768703713791e-01 9.774105121573297382e-04 6.867230906888367459e-01 3.175302952526860012e-01 5.000707191385623807e-01 2.941710493930785320e-01 -5.575181995530907510e-04 3.073854728944902526e-01 2.439347751804457953e+00 6.904131158423736370e-01 2.468686561717839956e-01 -1.157199178239813664e+00 2.248153427600996512e-01 4.679908407690423822e+00 3.646730099696265937e-01 -1.510665528949509118e-01 5.702844849106711855e-01 -5.577763550510507429e+00 5.163646158678828479e-01 1.547034898397248392e+00 3.097642477016943618e-01 5.337449798496753939e-01 -4.437159134084111001e-01 4.220912700004513796e-01 3.144322001819830903e-01 2.842986750654655226e-01 2.339656890359899377e-01 2.927065952611889177e+00 -3.723469666522712385e-01 3.184845291203950435e-01 -1.914254386973525346e+00 2.997036567042428712e-01 -3.624466864851432768e-01 7.493136591290729953e-01 5.296237071799900775e-01 2.736905415603398950e-01 2.933210609834858706e-01 1.275917503191690061e+00 1.439396895455008207e-01 2.682817262979168005e-01 4.043078158059278948e-01 1.396933691706521152e-01 3.050497193801901541e-01 3.928521189902612343e-01 -6.109644541954872832e-01 3.134880127852702203e-01 5.516339590194629938e-01 3.869997260616545032e-01 1.674703421147170912e-01 3.112857748436380634e-01 4.843915536868805272e-01 5.296236836437480111e-01 4.380584368874375634e-01 3.121250189087028670e-01 1.857502253878931253e-01 4.191627844331445307e-01 3.412683484942975021e+00 3.031979466514508337e-01 1.365359486495359986e-01 4.274100284014684670e-01 8.462501470566958783e-01 4.670234350604907658e-01 -1.939663482614336076e-01 6.832094924912738287e-01 3.194485599608469228e-01 1.181430910666937117e-01 4.054858151349484685e-01 6.688335199293058420e-01 6.021865820486239640e-01 7.842166654739001208e-01 8.144165518376759172e-01 3.641078444760794675e-01 1.396933703305741348e-01 1.396934451186522264e-01 2.336247973510576503e-01 1.563975438728304468e-01 1.119981279702127130e+00 4.023470364030770074e-01 3.061585094137110330e-01 3.282217147023099302e-01 3.089762676330921609e-01 7.677087921126831693e-01 2.682817587321739139e-01 3.121394911787392368e-01 4.420232397101119259e-01 2.540679697521961988e-01 -6.350020443302398787e-01 3.047564761887434082e-01 3.034166993648494404e-01 3.804557414409429072e-01 6.909372314450924479e-01 7.129607098191595993e-01 1.396933700021044666e-01 8.435536552245415098e-02 3.188145077151349205e-01 4.830522348345838712e-01 -5.918523130321295955e-01 1.899374959149098818e-01 -3.508783568881803649e+00 1.962663610690567717e+00 6.348334573622633759e-01 -4.602843014565591306e-01 -1.275212257634800606e-03 2.052341084550089345e+00 3.120600429635660422e-01 6.406356689552158423e-01 -6.337203938974547875e-03 3.425307430673668052e-01 4.315085560628698635e-01 3.201677611300289272e-01 -4.810796082015542652e-01 3.046272978971665824e-01 2.056732442484350720e+00 3.316339496294978262e-01 -4.273963403366595748e-01 3.246710703050146862e-01 3.200321600552255563e-01 -1.454119307342991663e+00 3.144685695046733342e-01 3.621683463214183663e-01 4.031207990927774265e-01 1.577620814410510552e-01 3.163163056362076619e-01 2.122591687121325732e-01 3.189382016509682005e-01 -1.609977874980348667e-01 3.159831135676107738e-01 1.101934926660405878e-01 3.192617032277471623e-01 3.151109372732772140e-01 1.517233053593322785e-02 4.123766006233731685e-01 5.720481687501439705e-01 -1.385437693027910644e+00 -5.748860057041143001e-01 -1.115652938791605736e-01 9.366083344766204521e-02 2.378912246490461624e-01 4.299576319200731356e-01 3.621527534245980173e-01 7.306732495589040033e-01 -1.245080635439890920e-01 3.065451263817713934e-01 3.282178282728385743e-01 9.346759844784240101e-02 -1.607280481663552196e-01 3.329388965853984916e-01 4.563783909066659872e-01 4.794880343310259363e-01 3.011700304648113891e-01 2.663808373456789669e-01 3.166626605859892973e-01 2.532395531469576744e-01 3.078923526107580355e-01 5.034400851872768978e-01 4.012040502379589091e-01 3.098585850993907376e-01 6.828715444500510490e-01 3.323335407559939725e-01 7.364061422420085101e-01 4.289427298187339921e-02 5.301079571896446518e-01 2.470296555923302273e-01 -1.449634844480661044e+00 3.171793164780169483e-01 6.443005717286073297e-01 3.707489004949247047e-01 3.172993158141496073e-01 2.503281905345599023e-01 2.070467072681876075e-01 6.860329373055014113e-01 3.150937009947684109e-01 3.955785835662159466e-01 3.121366543101656843e-01 2.815950227984376220e-01 2.006173964928434361e-01 5.064523150246792449e-01 2.947828252206744493e-01 2.220077128376370668e-01 1.155592746514878671e-01 6.491126590612335268e-02 1.636336244232524439e+00 2.319603849777929772e-01 3.645371966680583387e-01 3.814563864668422677e-01 -8.427838416303158331e-01 3.851783390636606130e-01 2.820200888511321669e-01 4.426549247272025811e-01 -4.128569195221030302e-02 3.050318530200373246e-01 1.592103749106640542e+00 8.906901875469631635e-01 4.338743432709324388e-01 3.174747995918962840e-01 3.547108677205000338e-01 3.381379852466793179e-01 9.205717779728249672e-01 3.034352450758347697e+00 3.134644440537417975e-01 3.446450115455523128e-02 5.909944922867264028e-01 -2.005779630723538987e-01 3.085155978980793079e-01 3.196432144516410667e-01 1.069605858369210294e+00 3.125188430241975235e-01 -3.250007734624290601e-01 3.795828283326089791e-01 1.254584033966489320e-01 6.435170418667417458e-01 1.766448549802281276e+00 2.828201116711817620e-01 2.568912959314662570e-01 1.657942760348159128e+00 4.027619277792535701e-01 3.130282943048929845e-01 1.961757052067963913e-01 2.641230311191027913e-01 -6.827864362001110840e-04 4.937874775363834678e-01 2.396840759379321451e-01 7.295986997379723116e-01 2.672747757874839869e-01 2.622176158695809778e-01 3.074192433785390421e-01 4.396521114528546548e-01 3.456979010441483813e-01 2.577497272106724080e-01 9.035789898235908613e-01 5.090660817546567296e-01 4.594511407011122039e-01 2.632072732653889524e-01 2.726277431620570124e-01 3.110925261730306812e-01 5.877776582185069154e-01 7.722022626759236230e-01 3.574047016746799699e-01 2.986035698519859394e-01 5.079814927220763776e-01 3.081081029502971136e-01 7.253778893286971785e-01 2.451682564421011068e-01 4.587526438894436454e-01 -3.141980448547891380e-01 3.121653488194601200e-01 3.054787189838427675e-01 4.286802198599255487e-01 2.782100400600356904e-01 2.808181639719371514e-01 1.782701312115647196e+00 6.779928025087876564e-02 2.669928733533780685e-01 -1.824194865648547381e-01 1.639782503354503040e+00 1.149584303422905629e+00 4.641212121451048639e-02 -4.548853601429000415e-01 4.128400561190752049e-01 3.455984236948594912e-01 5.112613573134693334e-01 3.115771821685193177e-01 3.122506805925983064e-01 2.007791610771736124e-01 3.421382000933666512e-01 3.680921611938821059e-01 -1.120114475218291546e-03 -2.043376187020581325e-01 3.629446194540282278e-01 2.926381034417741556e-01 2.190311497084756753e-01 8.685166888489926906e-01 4.274106635128863685e-01 2.496878360535766395e-01 8.419478575914364216e-01 4.758839926405492027e-01 6.072750567831001201e-01 4.608431781575337838e-01 6.919036198395056569e-01 1.470258319814788495e+00 3.462430702461067877e-01 2.078497520061655557e+00 -2.324104701334922876e-02 1.435868606496250588e-01 3.102097035292284422e-01 2.591794656905948568e-01 3.485060677850924105e-01 3.250421888407131754e-01 3.136999747696494478e-01 3.091100218456935833e-01 3.611384162346945592e-01 1.933103493722196642e-01 -3.153026253398338863e-01 2.459319148487429385e-01 -7.363570765122696982e-02 3.186502032822698949e-01 4.432946964492969766e-01 4.274106634612584443e-01 2.124767459718908402e-01 1.981506985924271769e-01 -1.238730726364357881e+00 1.953478198329176241e+00 3.104102676546930395e-01 -7.232469242016164035e-01 2.974368048858111457e-01 3.072794942328598289e-01 3.135155067930785466e-01 -4.758023378060565634e+00 3.521819206854241546e+00 6.261328634592855380e-01 6.440927687411202029e-02 3.184213164201787349e-01 3.151764832516602555e-01 2.869943446579915625e-01 2.609667865252101926e+00 6.221428402461632867e-01 3.195763711758656256e-01 2.183772277484355984e-01 2.719459216563098747e-01 2.656973736213705251e-01 8.660402619480700448e-01 -3.767264869405345662e-01 -1.180687635090194920e+00 -1.209732831898656213e+00 3.100964326350755806e-01 3.130859246679018604e-01 7.210009038277861437e-01 3.654714916642634592e-01 1.375882489285989774e+00 4.755260025886992592e-01 3.077981421033281761e-01 3.012151374146651017e-01 3.339513465765412970e-01 3.064999470525633929e-01 3.184162905313514536e-01 6.475971479815366694e-01 2.715140645738555736e-01 6.558506732220727997e-01 2.240389804947924002e-01 3.688821543742989290e-02 3.183918423737094328e-01 1.880662653933137807e-01 3.563720962874351028e-01 2.792257764233320172e-01 6.581591902666237281e-01 5.296236864288396129e-01 4.020251664558586180e-01 3.329698059283231482e-01 3.122678312266224943e-01 2.637889652868055657e-01 1.592081871866773524e+00 1.877006110365762925e+00 3.180436721755958152e-01 3.675561932393779374e-01 3.071619076276294047e-01 1.621817955218707585e-01 2.305002528417891272e-01 2.906036374888860685e-01 2.905999562742216935e-01 3.238580630350090805e-01 7.982718641218898847e-01 8.789510894236854943e-01 2.329939495313886610e-01 1.860557149016449863e+00 2.590361668602862988e-01 -2.098718130610450761e-01 -2.730213180628872638e-01 -3.147871854221515608e-01 3.084079462264597282e-01 2.592214103029212291e-01 7.090751257598398860e-01 3.144445151150173090e-01 4.590469140724501851e-01 2.884822214534296658e-01 3.671348414127888482e-01 3.776262681818856604e-01 -7.037516869347955339e-03 1.018727482296156284e+00 3.336316216297487980e-01 4.347388851710362601e-01 3.157087795466106406e-01 3.594541492495147428e-01 2.992534219354449632e-01 3.912147100827860768e-01 -1.016302295786412901e-01 2.228515045565984953e-01 3.279416939784676743e-01 -1.057444435001425771e-03 4.274107175553362725e-01 1.109384120100814330e+00 9.558909928183846327e-01 -7.305446789004091945e-01 -3.624466906058341209e-01 6.534586494607199647e-01 -3.309519365884821429e+00 1.566956229993842875e+00 2.668497862185725822e-01 -1.571071295228865933e-03 3.123421260360652596e-01 8.858944169012157310e-01 3.147543421235723393e-01 4.043118974311032399e-01 -4.366356659223840087e-01 8.248089665890316891e-01 2.894540956128288101e-01 8.788309165602127271e-01 2.082802296216191618e+00 -3.766402856823433121e-01 -1.454657225065522752e+00 2.400695799789537843e-01 3.246095603316581646e-01 7.654425012962946528e-01 3.438975508661152314e-01 7.045276159724084275e-01 4.691144633086169469e-01 2.085567806639590516e-01 3.186427672735159811e-01 3.115944362885735286e-01 2.331046778453469692e-01 3.117999901141513264e-01 1.402921338356367009e+00 1.622413225484678145e+00 3.043683871571338240e-01 2.790798182464584998e-01 1.112125448190643406e-01 -2.420252115081606981e-01 2.109223055080956533e-01 -2.052089549777746588e-02 3.126228212367170300e-01 7.059587065084191870e-01 -4.799004373669813472e-01 2.792146485202192108e-01 2.896792069975664408e-01 1.531633935358290011e-01 3.206941737174959228e-01 2.315759465211129353e-01 3.085396659163615607e-01 3.116554525255189612e-01 4.591562203280767640e-03 2.705796450414549303e-01 4.378275574949622162e-01 1.117084984552888072e+00 1.103242151841695051e+00 9.292623398330648321e-01 1.967081660828596534e-01 7.809521762387212629e-01 1.395245802394267376e-01 4.773694901235034371e-01 -2.113179817653386472e+00 3.141121099186446330e-01 6.560043981027462445e-01 2.794619194347543467e-01 9.543077834333767440e-01 1.366660222654613399e+00 2.183773835528512175e-01 2.677989298401292073e-01 3.738708405039876115e-01 3.156623205648038666e-01 5.520794832412194708e-01 8.775997112031937997e-01 -7.795787954212077819e-01 1.793346074305018079e-01 7.796484979993165143e-02 3.294710105036667835e-01 3.422163537819098988e-01 7.704817302339554974e-01 -2.094995607782165203e-01 3.982159691126899714e-01 3.077113710239197109e-01 3.454081423937488404e-01 8.903174998319680622e-01 4.274345697891354101e-01 -2.118637738269553983e-01 8.592391665831864422e-01 -4.556040878810010269e-02 5.712853797076431484e-01 2.590421985094165658e-01 1.284074889794722729e+00 5.741435155519462041e-01 7.309102642947454820e-01 4.387688369013768019e-01 4.864442721763033162e-01 -5.491095373211426489e-01 2.508372525327287050e-01 7.621819286367823576e-01 3.071933924346431088e-01 6.280652684204788283e-01 2.592633015217729597e-01 3.125283065438257957e-01 7.272991329621545376e-01 1.416112245306972717e-01 -2.042903394678460494e+00 2.232663813999291869e-01 2.668029755358739541e-01 8.294971456456325942e-01 3.873537164418413559e-01 4.030992565705803221e-01 3.461211803605483417e-01 2.961362312059411805e-01 3.832275295230304080e-01 6.024770420509684837e-02 -1.619474370057164325e+00 7.530106536702997344e-01 2.537382615228387928e-01 3.232958452207890798e-01 2.033358567589294286e-01 8.226630329746060788e-01 3.082527754458398439e-01 -1.424390810571218580e-01 3.300043611803604171e-01 1.119818275935697605e+00 2.672982478405757090e-01 4.154403012308897081e-01 1.054895137539813676e+00 3.737069922655674725e-01 2.772284321591050649e+00 3.418107764652465463e-01 3.246080230823680801e-01 6.954757113406208058e-01 3.147748504535565761e-01 3.169398208551907348e-01 -2.090209668666410892e+00 4.222398444637316950e-01 3.331412716450878331e-01 5.154609593171383120e-01 3.183127159964704855e-01 2.255211259633731480e-01 -2.119540990134214098e-01 2.047709686057698431e+00 -5.198072791522840852e-01 8.285677385406249318e-01 3.117429843851028393e-01 3.213992285421588546e-01 8.027755212753364678e-01 3.590493438733344256e-01 1.329966836909987737e+00 1.899607718264138267e-01 3.389256142607927624e-01 -8.828297483765974452e-01 -1.331864455402433922e-01 -4.236761131428016247e-01 -3.932082728052401777e+00 2.944237094737180094e+00 4.183748777808541514e-02 3.144647554041175574e-01 -1.621599671885078031e+00 3.063722377937786456e-01 3.198922914793494443e-01 2.800435141935256889e-01 1.574998778407982469e-01 6.402062653932826253e-01 5.979361622334862236e-01 1.037296264988382788e+00 -3.624466914892488512e-01 -2.248729058283650273e-01 2.191274919630697149e-01 -1.184897325951452585e+00 2.656164332056850097e-01 -6.434484807652040006e-01 3.045124106913772444e-01 4.638647620279764960e-01 7.115974691377613404e-02 4.434498034945878464e-01 2.681586375138406142e-01 -6.852977188389031138e-02 2.141634669383825351e-01 2.940663379758535201e-01 3.608096564137951989e-01 3.027178197067473264e-01 3.077040125907991031e-01 -7.307154081871362061e-01 5.309414232334184192e-01 1.536462946903617066e+00 6.478902535430913767e-02 2.389655800088202608e-01 3.600860871464973134e-01 1.209638764379898479e+00 3.243697355320795395e-01 1.274183427100966937e-01 8.925293443317804387e-01 2.837395171605491262e-01 1.857446105032552808e+00 2.823329102526591083e-01 1.269622846689554496e+00 3.189396451882576811e-01 7.363523977498281914e-01 1.349223823850639770e+00 3.413374131219656382e-01 3.855784107960379403e-01 9.267863495641935900e-01 -1.881703616114147604e-01 -5.748429205014271570e-02 1.989808200215326672e-01 3.003551822694376372e-01 3.540668615177009482e-01 1.430545823662091875e-01 1.727390011231964284e-01 -3.662494296713441067e-01 1.292550553913332179e+00 2.825874359861426099e-01 3.067438190071045678e-01 -3.169615373612026943e+00 5.263257199788128338e-01 3.083891019168285563e-01 4.192816349303987167e-01 4.128511955957437918e-01 4.786216334150740770e-01 -1.078267180747257026e+00 6.162761386635318139e-01 2.818016835134836695e-01 3.117471378762393663e-01 1.032646707200163716e+00 4.562461157574516091e-01 3.133894805065586819e-01 -1.399187338517074108e+00 4.112522513510907807e-01 8.901716168474398394e-01 2.947852979615069313e-01 3.109874053931307447e-01 3.572782077076576690e-01 7.105116466193145408e-01 -6.870347988965058716e-02 3.087981330242169919e-01 3.265494202734753326e-01 8.120535074267527798e-02 6.760764149882032559e-01 3.182385389403491471e-01 7.178601811060881799e-01 1.711878701762310495e-01 6.889585684634340623e-01 -2.275505767040767457e-01 -1.506396551511139048e+00 3.140190671523720445e-01 -1.776769415232471935e-02 3.371071454223921182e-01 3.788180249039222458e-01 5.456223865297470110e-02 5.296236980578676867e-01 3.138104908359312661e-01 8.401265617600081614e-02 4.502165125783118560e-01 2.510945433159402773e-01 3.212820809322685101e-01 2.719218688558659447e-01 -8.328454748516067596e-01 3.080502634016776820e-01 3.319682223822723044e-01 3.167096513915247380e-01 -2.071473540492211329e-01 3.064681014323942243e-01 8.148790863721139255e-01 -5.500791652641668916e-01 1.111657627750482602e+00 6.103104268916574870e-01 2.474424366176879719e-01 3.096057809878311473e-01 -2.040174807767459075e+00 3.335410120557923963e-01 1.963533594952690808e-01 2.589485892176160431e-01 5.296237243333627998e-01 3.130047944263822934e-01 2.862145323921400086e-01 8.319530744494102459e-02 3.089296721883624253e-01 4.359317159804290132e-01 3.836488712445886295e-01 2.966594932630448045e-01 2.931714426801117490e-01 3.069179413282372981e-01 3.138548220347409101e-01 2.663746889968562903e-01 6.305857552448854153e-02 3.177137407336805275e-01 6.116557572393448439e-01 1.932370150237584794e-01 3.200834904380943646e-01 -1.344981481348763441e-01 1.585075326626421144e-01 5.714913841194630972e-01 4.447576994542855822e+00 3.363447271306910791e-01 9.804138235868477269e-02 5.492683259109512051e-01 1.938575420792320314e-01 1.549420394843432414e+00 3.553763654315500453e-01 6.482748218433539433e-01 3.076909628767167115e-01
