# 
#                 ----------------------------------------------------
#                 Data from a 3D direct N-body simulation. 
# 
#                 rows are i-particle; 
#                 coumns are :mass, tag, x ,y, z, vx, vy, vz, ax, ay, az
# 
#                 NTHU, Computational Physics 
# 
#                 ----------------------------------------------------
#                 Time = 0.0
0.000000000000000000e+00 1.000000000000000000e+00 2.000000000000000000e+00 3.000000000000000000e+00 4.000000000000000000e+00 5.000000000000000000e+00 6.000000000000000000e+00 7.000000000000000000e+00 8.000000000000000000e+00 9.000000000000000000e+00 1.000000000000000000e+01 1.100000000000000000e+01 1.200000000000000000e+01 1.300000000000000000e+01 1.400000000000000000e+01 1.500000000000000000e+01 1.600000000000000000e+01 1.700000000000000000e+01 1.800000000000000000e+01 1.900000000000000000e+01 2.000000000000000000e+01 2.100000000000000000e+01 2.200000000000000000e+01 2.300000000000000000e+01 2.400000000000000000e+01 2.500000000000000000e+01 2.600000000000000000e+01 2.700000000000000000e+01 2.800000000000000000e+01 2.900000000000000000e+01 3.000000000000000000e+01 3.100000000000000000e+01 3.200000000000000000e+01 3.300000000000000000e+01 3.400000000000000000e+01 3.500000000000000000e+01 3.600000000000000000e+01 3.700000000000000000e+01 3.800000000000000000e+01 3.900000000000000000e+01 4.000000000000000000e+01 4.100000000000000000e+01 4.200000000000000000e+01 4.300000000000000000e+01 4.400000000000000000e+01 4.500000000000000000e+01 4.600000000000000000e+01 4.700000000000000000e+01 4.800000000000000000e+01 4.900000000000000000e+01 5.000000000000000000e+01 5.100000000000000000e+01 5.200000000000000000e+01 5.300000000000000000e+01 5.400000000000000000e+01 5.500000000000000000e+01 5.600000000000000000e+01 5.700000000000000000e+01 5.800000000000000000e+01 5.900000000000000000e+01 6.000000000000000000e+01 6.100000000000000000e+01 6.200000000000000000e+01 6.300000000000000000e+01 6.400000000000000000e+01 6.500000000000000000e+01 6.600000000000000000e+01 6.700000000000000000e+01 6.800000000000000000e+01 6.900000000000000000e+01 7.000000000000000000e+01 7.100000000000000000e+01 7.200000000000000000e+01 7.300000000000000000e+01 7.400000000000000000e+01 7.500000000000000000e+01 7.600000000000000000e+01 7.700000000000000000e+01 7.800000000000000000e+01 7.900000000000000000e+01 8.000000000000000000e+01 8.100000000000000000e+01 8.200000000000000000e+01 8.300000000000000000e+01 8.400000000000000000e+01 8.500000000000000000e+01 8.600000000000000000e+01 8.700000000000000000e+01 8.800000000000000000e+01 8.900000000000000000e+01 9.000000000000000000e+01 9.100000000000000000e+01 9.200000000000000000e+01 9.300000000000000000e+01 9.400000000000000000e+01 9.500000000000000000e+01 9.600000000000000000e+01 9.700000000000000000e+01 9.800000000000000000e+01 9.900000000000000000e+01 1.000000000000000000e+02 1.010000000000000000e+02 1.020000000000000000e+02 1.030000000000000000e+02 1.040000000000000000e+02 1.050000000000000000e+02 1.060000000000000000e+02 1.070000000000000000e+02 1.080000000000000000e+02 1.090000000000000000e+02 1.100000000000000000e+02 1.110000000000000000e+02 1.120000000000000000e+02 1.130000000000000000e+02 1.140000000000000000e+02 1.150000000000000000e+02 1.160000000000000000e+02 1.170000000000000000e+02 1.180000000000000000e+02 1.190000000000000000e+02 1.200000000000000000e+02 1.210000000000000000e+02 1.220000000000000000e+02 1.230000000000000000e+02 1.240000000000000000e+02 1.250000000000000000e+02 1.260000000000000000e+02 1.270000000000000000e+02 1.280000000000000000e+02 1.290000000000000000e+02 1.300000000000000000e+02 1.310000000000000000e+02 1.320000000000000000e+02 1.330000000000000000e+02 1.340000000000000000e+02 1.350000000000000000e+02 1.360000000000000000e+02 1.370000000000000000e+02 1.380000000000000000e+02 1.390000000000000000e+02 1.400000000000000000e+02 1.410000000000000000e+02 1.420000000000000000e+02 1.430000000000000000e+02 1.440000000000000000e+02 1.450000000000000000e+02 1.460000000000000000e+02 1.470000000000000000e+02 1.480000000000000000e+02 1.490000000000000000e+02 1.500000000000000000e+02 1.510000000000000000e+02 1.520000000000000000e+02 1.530000000000000000e+02 1.540000000000000000e+02 1.550000000000000000e+02 1.560000000000000000e+02 1.570000000000000000e+02 1.580000000000000000e+02 1.590000000000000000e+02 1.600000000000000000e+02 1.610000000000000000e+02 1.620000000000000000e+02 1.630000000000000000e+02 1.640000000000000000e+02 1.650000000000000000e+02 1.660000000000000000e+02 1.670000000000000000e+02 1.680000000000000000e+02 1.690000000000000000e+02 1.700000000000000000e+02 1.710000000000000000e+02 1.720000000000000000e+02 1.730000000000000000e+02 1.740000000000000000e+02 1.750000000000000000e+02 1.760000000000000000e+02 1.770000000000000000e+02 1.780000000000000000e+02 1.790000000000000000e+02 1.800000000000000000e+02 1.810000000000000000e+02 1.820000000000000000e+02 1.830000000000000000e+02 1.840000000000000000e+02 1.850000000000000000e+02 1.860000000000000000e+02 1.870000000000000000e+02 1.880000000000000000e+02 1.890000000000000000e+02 1.900000000000000000e+02 1.910000000000000000e+02 1.920000000000000000e+02 1.930000000000000000e+02 1.940000000000000000e+02 1.950000000000000000e+02 1.960000000000000000e+02 1.970000000000000000e+02 1.980000000000000000e+02 1.990000000000000000e+02 2.000000000000000000e+02 2.010000000000000000e+02 2.020000000000000000e+02 2.030000000000000000e+02 2.040000000000000000e+02 2.050000000000000000e+02 2.060000000000000000e+02 2.070000000000000000e+02 2.080000000000000000e+02 2.090000000000000000e+02 2.100000000000000000e+02 2.110000000000000000e+02 2.120000000000000000e+02 2.130000000000000000e+02 2.140000000000000000e+02 2.150000000000000000e+02 2.160000000000000000e+02 2.170000000000000000e+02 2.180000000000000000e+02 2.190000000000000000e+02 2.200000000000000000e+02 2.210000000000000000e+02 2.220000000000000000e+02 2.230000000000000000e+02 2.240000000000000000e+02 2.250000000000000000e+02 2.260000000000000000e+02 2.270000000000000000e+02 2.280000000000000000e+02 2.290000000000000000e+02 2.300000000000000000e+02 2.310000000000000000e+02 2.320000000000000000e+02 2.330000000000000000e+02 2.340000000000000000e+02 2.350000000000000000e+02 2.360000000000000000e+02 2.370000000000000000e+02 2.380000000000000000e+02 2.390000000000000000e+02 2.400000000000000000e+02 2.410000000000000000e+02 2.420000000000000000e+02 2.430000000000000000e+02 2.440000000000000000e+02 2.450000000000000000e+02 2.460000000000000000e+02 2.470000000000000000e+02 2.480000000000000000e+02 2.490000000000000000e+02 2.500000000000000000e+02 2.510000000000000000e+02 2.520000000000000000e+02 2.530000000000000000e+02 2.540000000000000000e+02 2.550000000000000000e+02 2.560000000000000000e+02 2.570000000000000000e+02 2.580000000000000000e+02 2.590000000000000000e+02 2.600000000000000000e+02 2.610000000000000000e+02 2.620000000000000000e+02 2.630000000000000000e+02 2.640000000000000000e+02 2.650000000000000000e+02 2.660000000000000000e+02 2.670000000000000000e+02 2.680000000000000000e+02 2.690000000000000000e+02 2.700000000000000000e+02 2.710000000000000000e+02 2.720000000000000000e+02 2.730000000000000000e+02 2.740000000000000000e+02 2.750000000000000000e+02 2.760000000000000000e+02 2.770000000000000000e+02 2.780000000000000000e+02 2.790000000000000000e+02 2.800000000000000000e+02 2.810000000000000000e+02 2.820000000000000000e+02 2.830000000000000000e+02 2.840000000000000000e+02 2.850000000000000000e+02 2.860000000000000000e+02 2.870000000000000000e+02 2.880000000000000000e+02 2.890000000000000000e+02 2.900000000000000000e+02 2.910000000000000000e+02 2.920000000000000000e+02 2.930000000000000000e+02 2.940000000000000000e+02 2.950000000000000000e+02 2.960000000000000000e+02 2.970000000000000000e+02 2.980000000000000000e+02 2.990000000000000000e+02 3.000000000000000000e+02 3.010000000000000000e+02 3.020000000000000000e+02 3.030000000000000000e+02 3.040000000000000000e+02 3.050000000000000000e+02 3.060000000000000000e+02 3.070000000000000000e+02 3.080000000000000000e+02 3.090000000000000000e+02 3.100000000000000000e+02 3.110000000000000000e+02 3.120000000000000000e+02 3.130000000000000000e+02 3.140000000000000000e+02 3.150000000000000000e+02 3.160000000000000000e+02 3.170000000000000000e+02 3.180000000000000000e+02 3.190000000000000000e+02 3.200000000000000000e+02 3.210000000000000000e+02 3.220000000000000000e+02 3.230000000000000000e+02 3.240000000000000000e+02 3.250000000000000000e+02 3.260000000000000000e+02 3.270000000000000000e+02 3.280000000000000000e+02 3.290000000000000000e+02 3.300000000000000000e+02 3.310000000000000000e+02 3.320000000000000000e+02 3.330000000000000000e+02 3.340000000000000000e+02 3.350000000000000000e+02 3.360000000000000000e+02 3.370000000000000000e+02 3.380000000000000000e+02 3.390000000000000000e+02 3.400000000000000000e+02 3.410000000000000000e+02 3.420000000000000000e+02 3.430000000000000000e+02 3.440000000000000000e+02 3.450000000000000000e+02 3.460000000000000000e+02 3.470000000000000000e+02 3.480000000000000000e+02 3.490000000000000000e+02 3.500000000000000000e+02 3.510000000000000000e+02 3.520000000000000000e+02 3.530000000000000000e+02 3.540000000000000000e+02 3.550000000000000000e+02 3.560000000000000000e+02 3.570000000000000000e+02 3.580000000000000000e+02 3.590000000000000000e+02 3.600000000000000000e+02 3.610000000000000000e+02 3.620000000000000000e+02 3.630000000000000000e+02 3.640000000000000000e+02 3.650000000000000000e+02 3.660000000000000000e+02 3.670000000000000000e+02 3.680000000000000000e+02 3.690000000000000000e+02 3.700000000000000000e+02 3.710000000000000000e+02 3.720000000000000000e+02 3.730000000000000000e+02 3.740000000000000000e+02 3.750000000000000000e+02 3.760000000000000000e+02 3.770000000000000000e+02 3.780000000000000000e+02 3.790000000000000000e+02 3.800000000000000000e+02 3.810000000000000000e+02 3.820000000000000000e+02 3.830000000000000000e+02 3.840000000000000000e+02 3.850000000000000000e+02 3.860000000000000000e+02 3.870000000000000000e+02 3.880000000000000000e+02 3.890000000000000000e+02 3.900000000000000000e+02 3.910000000000000000e+02 3.920000000000000000e+02 3.930000000000000000e+02 3.940000000000000000e+02 3.950000000000000000e+02 3.960000000000000000e+02 3.970000000000000000e+02 3.980000000000000000e+02 3.990000000000000000e+02 4.000000000000000000e+02 4.010000000000000000e+02 4.020000000000000000e+02 4.030000000000000000e+02 4.040000000000000000e+02 4.050000000000000000e+02 4.060000000000000000e+02 4.070000000000000000e+02 4.080000000000000000e+02 4.090000000000000000e+02 4.100000000000000000e+02 4.110000000000000000e+02 4.120000000000000000e+02 4.130000000000000000e+02 4.140000000000000000e+02 4.150000000000000000e+02 4.160000000000000000e+02 4.170000000000000000e+02 4.180000000000000000e+02 4.190000000000000000e+02 4.200000000000000000e+02 4.210000000000000000e+02 4.220000000000000000e+02 4.230000000000000000e+02 4.240000000000000000e+02 4.250000000000000000e+02 4.260000000000000000e+02 4.270000000000000000e+02 4.280000000000000000e+02 4.290000000000000000e+02 4.300000000000000000e+02 4.310000000000000000e+02 4.320000000000000000e+02 4.330000000000000000e+02 4.340000000000000000e+02 4.350000000000000000e+02 4.360000000000000000e+02 4.370000000000000000e+02 4.380000000000000000e+02 4.390000000000000000e+02 4.400000000000000000e+02 4.410000000000000000e+02 4.420000000000000000e+02 4.430000000000000000e+02 4.440000000000000000e+02 4.450000000000000000e+02 4.460000000000000000e+02 4.470000000000000000e+02 4.480000000000000000e+02 4.490000000000000000e+02 4.500000000000000000e+02 4.510000000000000000e+02 4.520000000000000000e+02 4.530000000000000000e+02 4.540000000000000000e+02 4.550000000000000000e+02 4.560000000000000000e+02 4.570000000000000000e+02 4.580000000000000000e+02 4.590000000000000000e+02 4.600000000000000000e+02 4.610000000000000000e+02 4.620000000000000000e+02 4.630000000000000000e+02 4.640000000000000000e+02 4.650000000000000000e+02 4.660000000000000000e+02 4.670000000000000000e+02 4.680000000000000000e+02 4.690000000000000000e+02 4.700000000000000000e+02 4.710000000000000000e+02 4.720000000000000000e+02 4.730000000000000000e+02 4.740000000000000000e+02 4.750000000000000000e+02 4.760000000000000000e+02 4.770000000000000000e+02 4.780000000000000000e+02 4.790000000000000000e+02 4.800000000000000000e+02 4.810000000000000000e+02 4.820000000000000000e+02 4.830000000000000000e+02 4.840000000000000000e+02 4.850000000000000000e+02 4.860000000000000000e+02 4.870000000000000000e+02 4.880000000000000000e+02 4.890000000000000000e+02 4.900000000000000000e+02 4.910000000000000000e+02 4.920000000000000000e+02 4.930000000000000000e+02 4.940000000000000000e+02 4.950000000000000000e+02 4.960000000000000000e+02 4.970000000000000000e+02 4.980000000000000000e+02 4.990000000000000000e+02 5.000000000000000000e+02 5.010000000000000000e+02 5.020000000000000000e+02 5.030000000000000000e+02 5.040000000000000000e+02 5.050000000000000000e+02 5.060000000000000000e+02 5.070000000000000000e+02 5.080000000000000000e+02 5.090000000000000000e+02 5.100000000000000000e+02 5.110000000000000000e+02 5.120000000000000000e+02 5.130000000000000000e+02 5.140000000000000000e+02 5.150000000000000000e+02 5.160000000000000000e+02 5.170000000000000000e+02 5.180000000000000000e+02 5.190000000000000000e+02 5.200000000000000000e+02 5.210000000000000000e+02 5.220000000000000000e+02 5.230000000000000000e+02 5.240000000000000000e+02 5.250000000000000000e+02 5.260000000000000000e+02 5.270000000000000000e+02 5.280000000000000000e+02 5.290000000000000000e+02 5.300000000000000000e+02 5.310000000000000000e+02 5.320000000000000000e+02 5.330000000000000000e+02 5.340000000000000000e+02 5.350000000000000000e+02 5.360000000000000000e+02 5.370000000000000000e+02 5.380000000000000000e+02 5.390000000000000000e+02 5.400000000000000000e+02 5.410000000000000000e+02 5.420000000000000000e+02 5.430000000000000000e+02 5.440000000000000000e+02 5.450000000000000000e+02 5.460000000000000000e+02 5.470000000000000000e+02 5.480000000000000000e+02 5.490000000000000000e+02 5.500000000000000000e+02 5.510000000000000000e+02 5.520000000000000000e+02 5.530000000000000000e+02 5.540000000000000000e+02 5.550000000000000000e+02 5.560000000000000000e+02 5.570000000000000000e+02 5.580000000000000000e+02 5.590000000000000000e+02 5.600000000000000000e+02 5.610000000000000000e+02 5.620000000000000000e+02 5.630000000000000000e+02 5.640000000000000000e+02 5.650000000000000000e+02 5.660000000000000000e+02 5.670000000000000000e+02 5.680000000000000000e+02 5.690000000000000000e+02 5.700000000000000000e+02 5.710000000000000000e+02 5.720000000000000000e+02 5.730000000000000000e+02 5.740000000000000000e+02 5.750000000000000000e+02 5.760000000000000000e+02 5.770000000000000000e+02 5.780000000000000000e+02 5.790000000000000000e+02 5.800000000000000000e+02 5.810000000000000000e+02 5.820000000000000000e+02 5.830000000000000000e+02 5.840000000000000000e+02 5.850000000000000000e+02 5.860000000000000000e+02 5.870000000000000000e+02 5.880000000000000000e+02 5.890000000000000000e+02 5.900000000000000000e+02 5.910000000000000000e+02 5.920000000000000000e+02 5.930000000000000000e+02 5.940000000000000000e+02 5.950000000000000000e+02 5.960000000000000000e+02 5.970000000000000000e+02 5.980000000000000000e+02 5.990000000000000000e+02 6.000000000000000000e+02 6.010000000000000000e+02 6.020000000000000000e+02 6.030000000000000000e+02 6.040000000000000000e+02 6.050000000000000000e+02 6.060000000000000000e+02 6.070000000000000000e+02 6.080000000000000000e+02 6.090000000000000000e+02 6.100000000000000000e+02 6.110000000000000000e+02 6.120000000000000000e+02 6.130000000000000000e+02 6.140000000000000000e+02 6.150000000000000000e+02 6.160000000000000000e+02 6.170000000000000000e+02 6.180000000000000000e+02 6.190000000000000000e+02 6.200000000000000000e+02 6.210000000000000000e+02 6.220000000000000000e+02 6.230000000000000000e+02 6.240000000000000000e+02 6.250000000000000000e+02 6.260000000000000000e+02 6.270000000000000000e+02 6.280000000000000000e+02 6.290000000000000000e+02 6.300000000000000000e+02 6.310000000000000000e+02 6.320000000000000000e+02 6.330000000000000000e+02 6.340000000000000000e+02 6.350000000000000000e+02 6.360000000000000000e+02 6.370000000000000000e+02 6.380000000000000000e+02 6.390000000000000000e+02 6.400000000000000000e+02 6.410000000000000000e+02 6.420000000000000000e+02 6.430000000000000000e+02 6.440000000000000000e+02 6.450000000000000000e+02 6.460000000000000000e+02 6.470000000000000000e+02 6.480000000000000000e+02 6.490000000000000000e+02 6.500000000000000000e+02 6.510000000000000000e+02 6.520000000000000000e+02 6.530000000000000000e+02 6.540000000000000000e+02 6.550000000000000000e+02 6.560000000000000000e+02 6.570000000000000000e+02 6.580000000000000000e+02 6.590000000000000000e+02 6.600000000000000000e+02 6.610000000000000000e+02 6.620000000000000000e+02 6.630000000000000000e+02 6.640000000000000000e+02 6.650000000000000000e+02 6.660000000000000000e+02 6.670000000000000000e+02 6.680000000000000000e+02 6.690000000000000000e+02 6.700000000000000000e+02 6.710000000000000000e+02 6.720000000000000000e+02 6.730000000000000000e+02 6.740000000000000000e+02 6.750000000000000000e+02 6.760000000000000000e+02 6.770000000000000000e+02 6.780000000000000000e+02 6.790000000000000000e+02 6.800000000000000000e+02 6.810000000000000000e+02 6.820000000000000000e+02 6.830000000000000000e+02 6.840000000000000000e+02 6.850000000000000000e+02 6.860000000000000000e+02 6.870000000000000000e+02 6.880000000000000000e+02 6.890000000000000000e+02 6.900000000000000000e+02 6.910000000000000000e+02 6.920000000000000000e+02 6.930000000000000000e+02 6.940000000000000000e+02 6.950000000000000000e+02 6.960000000000000000e+02 6.970000000000000000e+02 6.980000000000000000e+02 6.990000000000000000e+02 7.000000000000000000e+02 7.010000000000000000e+02 7.020000000000000000e+02 7.030000000000000000e+02 7.040000000000000000e+02 7.050000000000000000e+02 7.060000000000000000e+02 7.070000000000000000e+02 7.080000000000000000e+02 7.090000000000000000e+02 7.100000000000000000e+02 7.110000000000000000e+02 7.120000000000000000e+02 7.130000000000000000e+02 7.140000000000000000e+02 7.150000000000000000e+02 7.160000000000000000e+02 7.170000000000000000e+02 7.180000000000000000e+02 7.190000000000000000e+02 7.200000000000000000e+02 7.210000000000000000e+02 7.220000000000000000e+02 7.230000000000000000e+02 7.240000000000000000e+02 7.250000000000000000e+02 7.260000000000000000e+02 7.270000000000000000e+02 7.280000000000000000e+02 7.290000000000000000e+02 7.300000000000000000e+02 7.310000000000000000e+02 7.320000000000000000e+02 7.330000000000000000e+02 7.340000000000000000e+02 7.350000000000000000e+02 7.360000000000000000e+02 7.370000000000000000e+02 7.380000000000000000e+02 7.390000000000000000e+02 7.400000000000000000e+02 7.410000000000000000e+02 7.420000000000000000e+02 7.430000000000000000e+02 7.440000000000000000e+02 7.450000000000000000e+02 7.460000000000000000e+02 7.470000000000000000e+02 7.480000000000000000e+02 7.490000000000000000e+02 7.500000000000000000e+02 7.510000000000000000e+02 7.520000000000000000e+02 7.530000000000000000e+02 7.540000000000000000e+02 7.550000000000000000e+02 7.560000000000000000e+02 7.570000000000000000e+02 7.580000000000000000e+02 7.590000000000000000e+02 7.600000000000000000e+02 7.610000000000000000e+02 7.620000000000000000e+02 7.630000000000000000e+02 7.640000000000000000e+02 7.650000000000000000e+02 7.660000000000000000e+02 7.670000000000000000e+02 7.680000000000000000e+02 7.690000000000000000e+02 7.700000000000000000e+02 7.710000000000000000e+02 7.720000000000000000e+02 7.730000000000000000e+02 7.740000000000000000e+02 7.750000000000000000e+02 7.760000000000000000e+02 7.770000000000000000e+02 7.780000000000000000e+02 7.790000000000000000e+02 7.800000000000000000e+02 7.810000000000000000e+02 7.820000000000000000e+02 7.830000000000000000e+02 7.840000000000000000e+02 7.850000000000000000e+02 7.860000000000000000e+02 7.870000000000000000e+02 7.880000000000000000e+02 7.890000000000000000e+02 7.900000000000000000e+02 7.910000000000000000e+02 7.920000000000000000e+02 7.930000000000000000e+02 7.940000000000000000e+02 7.950000000000000000e+02 7.960000000000000000e+02 7.970000000000000000e+02 7.980000000000000000e+02 7.990000000000000000e+02 8.000000000000000000e+02 8.010000000000000000e+02 8.020000000000000000e+02 8.030000000000000000e+02 8.040000000000000000e+02 8.050000000000000000e+02 8.060000000000000000e+02 8.070000000000000000e+02 8.080000000000000000e+02 8.090000000000000000e+02 8.100000000000000000e+02 8.110000000000000000e+02 8.120000000000000000e+02 8.130000000000000000e+02 8.140000000000000000e+02 8.150000000000000000e+02 8.160000000000000000e+02 8.170000000000000000e+02 8.180000000000000000e+02 8.190000000000000000e+02 8.200000000000000000e+02 8.210000000000000000e+02 8.220000000000000000e+02 8.230000000000000000e+02 8.240000000000000000e+02 8.250000000000000000e+02 8.260000000000000000e+02 8.270000000000000000e+02 8.280000000000000000e+02 8.290000000000000000e+02 8.300000000000000000e+02 8.310000000000000000e+02 8.320000000000000000e+02 8.330000000000000000e+02 8.340000000000000000e+02 8.350000000000000000e+02 8.360000000000000000e+02 8.370000000000000000e+02 8.380000000000000000e+02 8.390000000000000000e+02 8.400000000000000000e+02 8.410000000000000000e+02 8.420000000000000000e+02 8.430000000000000000e+02 8.440000000000000000e+02 8.450000000000000000e+02 8.460000000000000000e+02 8.470000000000000000e+02 8.480000000000000000e+02 8.490000000000000000e+02 8.500000000000000000e+02 8.510000000000000000e+02 8.520000000000000000e+02 8.530000000000000000e+02 8.540000000000000000e+02 8.550000000000000000e+02 8.560000000000000000e+02 8.570000000000000000e+02 8.580000000000000000e+02 8.590000000000000000e+02 8.600000000000000000e+02 8.610000000000000000e+02 8.620000000000000000e+02 8.630000000000000000e+02 8.640000000000000000e+02 8.650000000000000000e+02 8.660000000000000000e+02 8.670000000000000000e+02 8.680000000000000000e+02 8.690000000000000000e+02 8.700000000000000000e+02 8.710000000000000000e+02 8.720000000000000000e+02 8.730000000000000000e+02 8.740000000000000000e+02 8.750000000000000000e+02 8.760000000000000000e+02 8.770000000000000000e+02 8.780000000000000000e+02 8.790000000000000000e+02 8.800000000000000000e+02 8.810000000000000000e+02 8.820000000000000000e+02 8.830000000000000000e+02 8.840000000000000000e+02 8.850000000000000000e+02 8.860000000000000000e+02 8.870000000000000000e+02 8.880000000000000000e+02 8.890000000000000000e+02 8.900000000000000000e+02 8.910000000000000000e+02 8.920000000000000000e+02 8.930000000000000000e+02 8.940000000000000000e+02 8.950000000000000000e+02 8.960000000000000000e+02 8.970000000000000000e+02 8.980000000000000000e+02 8.990000000000000000e+02 9.000000000000000000e+02 9.010000000000000000e+02 9.020000000000000000e+02 9.030000000000000000e+02 9.040000000000000000e+02 9.050000000000000000e+02 9.060000000000000000e+02 9.070000000000000000e+02 9.080000000000000000e+02 9.090000000000000000e+02 9.100000000000000000e+02 9.110000000000000000e+02 9.120000000000000000e+02 9.130000000000000000e+02 9.140000000000000000e+02 9.150000000000000000e+02 9.160000000000000000e+02 9.170000000000000000e+02 9.180000000000000000e+02 9.190000000000000000e+02 9.200000000000000000e+02 9.210000000000000000e+02 9.220000000000000000e+02 9.230000000000000000e+02 9.240000000000000000e+02 9.250000000000000000e+02 9.260000000000000000e+02 9.270000000000000000e+02 9.280000000000000000e+02 9.290000000000000000e+02 9.300000000000000000e+02 9.310000000000000000e+02 9.320000000000000000e+02 9.330000000000000000e+02 9.340000000000000000e+02 9.350000000000000000e+02 9.360000000000000000e+02 9.370000000000000000e+02 9.380000000000000000e+02 9.390000000000000000e+02 9.400000000000000000e+02 9.410000000000000000e+02 9.420000000000000000e+02 9.430000000000000000e+02 9.440000000000000000e+02 9.450000000000000000e+02 9.460000000000000000e+02 9.470000000000000000e+02 9.480000000000000000e+02 9.490000000000000000e+02 9.500000000000000000e+02 9.510000000000000000e+02 9.520000000000000000e+02 9.530000000000000000e+02 9.540000000000000000e+02 9.550000000000000000e+02 9.560000000000000000e+02 9.570000000000000000e+02 9.580000000000000000e+02 9.590000000000000000e+02 9.600000000000000000e+02 9.610000000000000000e+02 9.620000000000000000e+02 9.630000000000000000e+02 9.640000000000000000e+02 9.650000000000000000e+02 9.660000000000000000e+02 9.670000000000000000e+02 9.680000000000000000e+02 9.690000000000000000e+02 9.700000000000000000e+02 9.710000000000000000e+02 9.720000000000000000e+02 9.730000000000000000e+02 9.740000000000000000e+02 9.750000000000000000e+02 9.760000000000000000e+02 9.770000000000000000e+02 9.780000000000000000e+02 9.790000000000000000e+02 9.800000000000000000e+02 9.810000000000000000e+02 9.820000000000000000e+02 9.830000000000000000e+02 9.840000000000000000e+02 9.850000000000000000e+02 9.860000000000000000e+02 9.870000000000000000e+02 9.880000000000000000e+02 9.890000000000000000e+02 9.900000000000000000e+02 9.910000000000000000e+02 9.920000000000000000e+02 9.930000000000000000e+02 9.940000000000000000e+02 9.950000000000000000e+02 9.960000000000000000e+02 9.970000000000000000e+02 9.980000000000000000e+02 9.990000000000000000e+02
1.000000000000000000e+00 1.000000000000000000e+00 1.000000000000000000e+00 1.000000000000000000e+00 1.000000000000000000e+00 1.000000000000000000e+00 1.000000000000000000e+00 1.000000000000000000e+00 1.000000000000000000e+00 1.000000000000000000e+00 1.000000000000000000e+00 1.000000000000000000e+00 1.000000000000000000e+00 1.000000000000000000e+00 1.000000000000000000e+00 1.000000000000000000e+00 1.000000000000000000e+00 1.000000000000000000e+00 1.000000000000000000e+00 1.000000000000000000e+00 1.000000000000000000e+00 1.000000000000000000e+00 1.000000000000000000e+00 1.000000000000000000e+00 1.000000000000000000e+00 1.000000000000000000e+00 1.000000000000000000e+00 1.000000000000000000e+00 1.000000000000000000e+00 1.000000000000000000e+00 1.000000000000000000e+00 1.000000000000000000e+00 1.000000000000000000e+00 1.000000000000000000e+00 1.000000000000000000e+00 1.000000000000000000e+00 1.000000000000000000e+00 1.000000000000000000e+00 1.000000000000000000e+00 1.000000000000000000e+00 1.000000000000000000e+00 1.000000000000000000e+00 1.000000000000000000e+00 1.000000000000000000e+00 1.000000000000000000e+00 1.000000000000000000e+00 1.000000000000000000e+00 1.000000000000000000e+00 1.000000000000000000e+00 1.000000000000000000e+00 1.000000000000000000e+00 1.000000000000000000e+00 1.000000000000000000e+00 1.000000000000000000e+00 1.000000000000000000e+00 1.000000000000000000e+00 1.000000000000000000e+00 1.000000000000000000e+00 1.000000000000000000e+00 1.000000000000000000e+00 1.000000000000000000e+00 1.000000000000000000e+00 1.000000000000000000e+00 1.000000000000000000e+00 1.000000000000000000e+00 1.000000000000000000e+00 1.000000000000000000e+00 1.000000000000000000e+00 1.000000000000000000e+00 1.000000000000000000e+00 1.000000000000000000e+00 1.000000000000000000e+00 1.000000000000000000e+00 1.000000000000000000e+00 1.000000000000000000e+00 1.000000000000000000e+00 1.000000000000000000e+00 1.000000000000000000e+00 1.000000000000000000e+00 1.000000000000000000e+00 1.000000000000000000e+00 1.000000000000000000e+00 1.000000000000000000e+00 1.000000000000000000e+00 1.000000000000000000e+00 1.000000000000000000e+00 1.000000000000000000e+00 1.000000000000000000e+00 1.000000000000000000e+00 1.000000000000000000e+00 1.000000000000000000e+00 1.000000000000000000e+00 1.000000000000000000e+00 1.000000000000000000e+00 1.000000000000000000e+00 1.000000000000000000e+00 1.000000000000000000e+00 1.000000000000000000e+00 1.000000000000000000e+00 1.000000000000000000e+00 1.000000000000000000e+00 1.000000000000000000e+00 1.000000000000000000e+00 1.000000000000000000e+00 1.000000000000000000e+00 1.000000000000000000e+00 1.000000000000000000e+00 1.000000000000000000e+00 1.000000000000000000e+00 1.000000000000000000e+00 1.000000000000000000e+00 1.000000000000000000e+00 1.000000000000000000e+00 1.000000000000000000e+00 1.000000000000000000e+00 1.000000000000000000e+00 1.000000000000000000e+00 1.000000000000000000e+00 1.000000000000000000e+00 1.000000000000000000e+00 1.000000000000000000e+00 1.000000000000000000e+00 1.000000000000000000e+00 1.000000000000000000e+00 1.000000000000000000e+00 1.000000000000000000e+00 1.000000000000000000e+00 1.000000000000000000e+00 1.000000000000000000e+00 1.000000000000000000e+00 1.000000000000000000e+00 1.000000000000000000e+00 1.000000000000000000e+00 1.000000000000000000e+00 1.000000000000000000e+00 1.000000000000000000e+00 1.000000000000000000e+00 1.000000000000000000e+00 1.000000000000000000e+00 1.000000000000000000e+00 1.000000000000000000e+00 1.000000000000000000e+00 1.000000000000000000e+00 1.000000000000000000e+00 1.000000000000000000e+00 1.000000000000000000e+00 1.000000000000000000e+00 1.000000000000000000e+00 1.000000000000000000e+00 1.000000000000000000e+00 1.000000000000000000e+00 1.000000000000000000e+00 1.000000000000000000e+00 1.000000000000000000e+00 1.000000000000000000e+00 1.000000000000000000e+00 1.000000000000000000e+00 1.000000000000000000e+00 1.000000000000000000e+00 1.000000000000000000e+00 1.000000000000000000e+00 1.000000000000000000e+00 1.000000000000000000e+00 1.000000000000000000e+00 1.000000000000000000e+00 1.000000000000000000e+00 1.000000000000000000e+00 1.000000000000000000e+00 1.000000000000000000e+00 1.000000000000000000e+00 1.000000000000000000e+00 1.000000000000000000e+00 1.000000000000000000e+00 1.000000000000000000e+00 1.000000000000000000e+00 1.000000000000000000e+00 1.000000000000000000e+00 1.000000000000000000e+00 1.000000000000000000e+00 1.000000000000000000e+00 1.000000000000000000e+00 1.000000000000000000e+00 1.000000000000000000e+00 1.000000000000000000e+00 1.000000000000000000e+00 1.000000000000000000e+00 1.000000000000000000e+00 1.000000000000000000e+00 1.000000000000000000e+00 1.000000000000000000e+00 1.000000000000000000e+00 1.000000000000000000e+00 1.000000000000000000e+00 1.000000000000000000e+00 1.000000000000000000e+00 1.000000000000000000e+00 1.000000000000000000e+00 1.000000000000000000e+00 1.000000000000000000e+00 1.000000000000000000e+00 1.000000000000000000e+00 1.000000000000000000e+00 1.000000000000000000e+00 1.000000000000000000e+00 1.000000000000000000e+00 1.000000000000000000e+00 1.000000000000000000e+00 1.000000000000000000e+00 1.000000000000000000e+00 1.000000000000000000e+00 1.000000000000000000e+00 1.000000000000000000e+00 1.000000000000000000e+00 1.000000000000000000e+00 1.000000000000000000e+00 1.000000000000000000e+00 1.000000000000000000e+00 1.000000000000000000e+00 1.000000000000000000e+00 1.000000000000000000e+00 1.000000000000000000e+00 1.000000000000000000e+00 1.000000000000000000e+00 1.000000000000000000e+00 1.000000000000000000e+00 1.000000000000000000e+00 1.000000000000000000e+00 1.000000000000000000e+00 1.000000000000000000e+00 1.000000000000000000e+00 1.000000000000000000e+00 1.000000000000000000e+00 1.000000000000000000e+00 1.000000000000000000e+00 1.000000000000000000e+00 1.000000000000000000e+00 1.000000000000000000e+00 1.000000000000000000e+00 1.000000000000000000e+00 1.000000000000000000e+00 1.000000000000000000e+00 1.000000000000000000e+00 1.000000000000000000e+00 1.000000000000000000e+00 1.000000000000000000e+00 1.000000000000000000e+00 1.000000000000000000e+00 1.000000000000000000e+00 1.000000000000000000e+00 1.000000000000000000e+00 1.000000000000000000e+00 1.000000000000000000e+00 1.000000000000000000e+00 1.000000000000000000e+00 1.000000000000000000e+00 1.000000000000000000e+00 1.000000000000000000e+00 1.000000000000000000e+00 1.000000000000000000e+00 1.000000000000000000e+00 1.000000000000000000e+00 1.000000000000000000e+00 1.000000000000000000e+00 1.000000000000000000e+00 1.000000000000000000e+00 1.000000000000000000e+00 1.000000000000000000e+00 1.000000000000000000e+00 1.000000000000000000e+00 1.000000000000000000e+00 1.000000000000000000e+00 1.000000000000000000e+00 1.000000000000000000e+00 1.000000000000000000e+00 1.000000000000000000e+00 1.000000000000000000e+00 1.000000000000000000e+00 1.000000000000000000e+00 1.000000000000000000e+00 1.000000000000000000e+00 1.000000000000000000e+00 1.000000000000000000e+00 1.000000000000000000e+00 1.000000000000000000e+00 1.000000000000000000e+00 1.000000000000000000e+00 1.000000000000000000e+00 1.000000000000000000e+00 1.000000000000000000e+00 1.000000000000000000e+00 1.000000000000000000e+00 1.000000000000000000e+00 1.000000000000000000e+00 1.000000000000000000e+00 1.000000000000000000e+00 1.000000000000000000e+00 1.000000000000000000e+00 1.000000000000000000e+00 1.000000000000000000e+00 1.000000000000000000e+00 1.000000000000000000e+00 1.000000000000000000e+00 1.000000000000000000e+00 1.000000000000000000e+00 1.000000000000000000e+00 1.000000000000000000e+00 1.000000000000000000e+00 1.000000000000000000e+00 1.000000000000000000e+00 1.000000000000000000e+00 1.000000000000000000e+00 1.000000000000000000e+00 1.000000000000000000e+00 1.000000000000000000e+00 1.000000000000000000e+00 1.000000000000000000e+00 1.000000000000000000e+00 1.000000000000000000e+00 1.000000000000000000e+00 1.000000000000000000e+00 1.000000000000000000e+00 1.000000000000000000e+00 1.000000000000000000e+00 1.000000000000000000e+00 1.000000000000000000e+00 1.000000000000000000e+00 1.000000000000000000e+00 1.000000000000000000e+00 1.000000000000000000e+00 1.000000000000000000e+00 1.000000000000000000e+00 1.000000000000000000e+00 1.000000000000000000e+00 1.000000000000000000e+00 1.000000000000000000e+00 1.000000000000000000e+00 1.000000000000000000e+00 1.000000000000000000e+00 1.000000000000000000e+00 1.000000000000000000e+00 1.000000000000000000e+00 1.000000000000000000e+00 1.000000000000000000e+00 1.000000000000000000e+00 1.000000000000000000e+00 1.000000000000000000e+00 1.000000000000000000e+00 1.000000000000000000e+00 1.000000000000000000e+00 1.000000000000000000e+00 1.000000000000000000e+00 1.000000000000000000e+00 1.000000000000000000e+00 1.000000000000000000e+00 1.000000000000000000e+00 1.000000000000000000e+00 1.000000000000000000e+00 1.000000000000000000e+00 1.000000000000000000e+00 1.000000000000000000e+00 1.000000000000000000e+00 1.000000000000000000e+00 1.000000000000000000e+00 1.000000000000000000e+00 1.000000000000000000e+00 1.000000000000000000e+00 1.000000000000000000e+00 1.000000000000000000e+00 1.000000000000000000e+00 1.000000000000000000e+00 1.000000000000000000e+00 1.000000000000000000e+00 1.000000000000000000e+00 1.000000000000000000e+00 1.000000000000000000e+00 1.000000000000000000e+00 1.000000000000000000e+00 1.000000000000000000e+00 1.000000000000000000e+00 1.000000000000000000e+00 1.000000000000000000e+00 1.000000000000000000e+00 1.000000000000000000e+00 1.000000000000000000e+00 1.000000000000000000e+00 1.000000000000000000e+00 1.000000000000000000e+00 1.000000000000000000e+00 1.000000000000000000e+00 1.000000000000000000e+00 1.000000000000000000e+00 1.000000000000000000e+00 1.000000000000000000e+00 1.000000000000000000e+00 1.000000000000000000e+00 1.000000000000000000e+00 1.000000000000000000e+00 1.000000000000000000e+00 1.000000000000000000e+00 1.000000000000000000e+00 1.000000000000000000e+00 1.000000000000000000e+00 1.000000000000000000e+00 1.000000000000000000e+00 1.000000000000000000e+00 1.000000000000000000e+00 1.000000000000000000e+00 1.000000000000000000e+00 1.000000000000000000e+00 1.000000000000000000e+00 1.000000000000000000e+00 1.000000000000000000e+00 1.000000000000000000e+00 1.000000000000000000e+00 1.000000000000000000e+00 1.000000000000000000e+00 1.000000000000000000e+00 1.000000000000000000e+00 1.000000000000000000e+00 1.000000000000000000e+00 1.000000000000000000e+00 1.000000000000000000e+00 1.000000000000000000e+00 1.000000000000000000e+00 1.000000000000000000e+00 1.000000000000000000e+00 1.000000000000000000e+00 1.000000000000000000e+00 1.000000000000000000e+00 1.000000000000000000e+00 1.000000000000000000e+00 1.000000000000000000e+00 1.000000000000000000e+00 1.000000000000000000e+00 1.000000000000000000e+00 1.000000000000000000e+00 1.000000000000000000e+00 1.000000000000000000e+00 1.000000000000000000e+00 1.000000000000000000e+00 1.000000000000000000e+00 1.000000000000000000e+00 1.000000000000000000e+00 1.000000000000000000e+00 1.000000000000000000e+00 1.000000000000000000e+00 1.000000000000000000e+00 1.000000000000000000e+00 1.000000000000000000e+00 1.000000000000000000e+00 1.000000000000000000e+00 1.000000000000000000e+00 1.000000000000000000e+00 1.000000000000000000e+00 1.000000000000000000e+00 1.000000000000000000e+00 1.000000000000000000e+00 1.000000000000000000e+00 1.000000000000000000e+00 1.000000000000000000e+00 1.000000000000000000e+00 1.000000000000000000e+00 1.000000000000000000e+00 1.000000000000000000e+00 1.000000000000000000e+00 1.000000000000000000e+00 1.000000000000000000e+00 1.000000000000000000e+00 1.000000000000000000e+00 1.000000000000000000e+00 1.000000000000000000e+00 1.000000000000000000e+00 1.000000000000000000e+00 1.000000000000000000e+00 1.000000000000000000e+00 1.000000000000000000e+00 1.000000000000000000e+00 1.000000000000000000e+00 1.000000000000000000e+00 1.000000000000000000e+00 1.000000000000000000e+00 1.000000000000000000e+00 1.000000000000000000e+00 1.000000000000000000e+00 1.000000000000000000e+00 1.000000000000000000e+00 1.000000000000000000e+00 1.000000000000000000e+00 1.000000000000000000e+00 1.000000000000000000e+00 1.000000000000000000e+00 1.000000000000000000e+00 1.000000000000000000e+00 1.000000000000000000e+00 1.000000000000000000e+00 1.000000000000000000e+00 1.000000000000000000e+00 1.000000000000000000e+00 1.000000000000000000e+00 1.000000000000000000e+00 1.000000000000000000e+00 1.000000000000000000e+00 1.000000000000000000e+00 1.000000000000000000e+00 1.000000000000000000e+00 1.000000000000000000e+00 1.000000000000000000e+00 1.000000000000000000e+00 1.000000000000000000e+00 1.000000000000000000e+00 1.000000000000000000e+00 1.000000000000000000e+00 1.000000000000000000e+00 1.000000000000000000e+00 1.000000000000000000e+00 1.000000000000000000e+00 1.000000000000000000e+00 1.000000000000000000e+00 1.000000000000000000e+00 1.000000000000000000e+00 1.000000000000000000e+00 1.000000000000000000e+00 1.000000000000000000e+00 1.000000000000000000e+00 1.000000000000000000e+00 1.000000000000000000e+00 1.000000000000000000e+00 1.000000000000000000e+00 1.000000000000000000e+00 1.000000000000000000e+00 1.000000000000000000e+00 1.000000000000000000e+00 1.000000000000000000e+00 1.000000000000000000e+00 1.000000000000000000e+00 1.000000000000000000e+00 1.000000000000000000e+00 1.000000000000000000e+00 1.000000000000000000e+00 1.000000000000000000e+00 1.000000000000000000e+00 1.000000000000000000e+00 1.000000000000000000e+00 1.000000000000000000e+00 1.000000000000000000e+00 1.000000000000000000e+00 1.000000000000000000e+00 1.000000000000000000e+00 1.000000000000000000e+00 1.000000000000000000e+00 1.000000000000000000e+00 1.000000000000000000e+00 1.000000000000000000e+00 1.000000000000000000e+00 1.000000000000000000e+00 1.000000000000000000e+00 1.000000000000000000e+00 1.000000000000000000e+00 1.000000000000000000e+00 1.000000000000000000e+00 1.000000000000000000e+00 1.000000000000000000e+00 1.000000000000000000e+00 1.000000000000000000e+00 1.000000000000000000e+00 1.000000000000000000e+00 1.000000000000000000e+00 1.000000000000000000e+00 1.000000000000000000e+00 1.000000000000000000e+00 1.000000000000000000e+00 1.000000000000000000e+00 1.000000000000000000e+00 1.000000000000000000e+00 1.000000000000000000e+00 1.000000000000000000e+00 1.000000000000000000e+00 1.000000000000000000e+00 1.000000000000000000e+00 1.000000000000000000e+00 1.000000000000000000e+00 1.000000000000000000e+00 1.000000000000000000e+00 1.000000000000000000e+00 1.000000000000000000e+00 1.000000000000000000e+00 1.000000000000000000e+00 1.000000000000000000e+00 1.000000000000000000e+00 1.000000000000000000e+00 1.000000000000000000e+00 1.000000000000000000e+00 1.000000000000000000e+00 1.000000000000000000e+00 1.000000000000000000e+00 1.000000000000000000e+00 1.000000000000000000e+00 1.000000000000000000e+00 1.000000000000000000e+00 1.000000000000000000e+00 1.000000000000000000e+00 1.000000000000000000e+00 1.000000000000000000e+00 1.000000000000000000e+00 1.000000000000000000e+00 1.000000000000000000e+00 1.000000000000000000e+00 1.000000000000000000e+00 1.000000000000000000e+00 1.000000000000000000e+00 1.000000000000000000e+00 1.000000000000000000e+00 1.000000000000000000e+00 1.000000000000000000e+00 1.000000000000000000e+00 1.000000000000000000e+00 1.000000000000000000e+00 1.000000000000000000e+00 1.000000000000000000e+00 1.000000000000000000e+00 1.000000000000000000e+00 1.000000000000000000e+00 1.000000000000000000e+00 1.000000000000000000e+00 1.000000000000000000e+00 1.000000000000000000e+00 1.000000000000000000e+00 1.000000000000000000e+00 1.000000000000000000e+00 1.000000000000000000e+00 1.000000000000000000e+00 1.000000000000000000e+00 1.000000000000000000e+00 1.000000000000000000e+00 1.000000000000000000e+00 1.000000000000000000e+00 1.000000000000000000e+00 1.000000000000000000e+00 1.000000000000000000e+00 1.000000000000000000e+00 1.000000000000000000e+00 1.000000000000000000e+00 1.000000000000000000e+00 1.000000000000000000e+00 1.000000000000000000e+00 1.000000000000000000e+00 1.000000000000000000e+00 1.000000000000000000e+00 1.000000000000000000e+00 1.000000000000000000e+00 1.000000000000000000e+00 1.000000000000000000e+00 1.000000000000000000e+00 1.000000000000000000e+00 1.000000000000000000e+00 1.000000000000000000e+00 1.000000000000000000e+00 1.000000000000000000e+00 1.000000000000000000e+00 1.000000000000000000e+00 1.000000000000000000e+00 1.000000000000000000e+00 1.000000000000000000e+00 1.000000000000000000e+00 1.000000000000000000e+00 1.000000000000000000e+00 1.000000000000000000e+00 1.000000000000000000e+00 1.000000000000000000e+00 1.000000000000000000e+00 1.000000000000000000e+00 1.000000000000000000e+00 1.000000000000000000e+00 1.000000000000000000e+00 1.000000000000000000e+00 1.000000000000000000e+00 1.000000000000000000e+00 1.000000000000000000e+00 1.000000000000000000e+00 1.000000000000000000e+00 1.000000000000000000e+00 1.000000000000000000e+00 1.000000000000000000e+00 1.000000000000000000e+00 1.000000000000000000e+00 1.000000000000000000e+00 1.000000000000000000e+00 1.000000000000000000e+00 1.000000000000000000e+00 1.000000000000000000e+00 1.000000000000000000e+00 1.000000000000000000e+00 1.000000000000000000e+00 1.000000000000000000e+00 1.000000000000000000e+00 1.000000000000000000e+00 1.000000000000000000e+00 1.000000000000000000e+00 1.000000000000000000e+00 1.000000000000000000e+00 1.000000000000000000e+00 1.000000000000000000e+00 1.000000000000000000e+00 1.000000000000000000e+00 1.000000000000000000e+00 1.000000000000000000e+00 1.000000000000000000e+00 1.000000000000000000e+00 1.000000000000000000e+00 1.000000000000000000e+00 1.000000000000000000e+00 1.000000000000000000e+00 1.000000000000000000e+00 1.000000000000000000e+00 1.000000000000000000e+00 1.000000000000000000e+00 1.000000000000000000e+00 1.000000000000000000e+00 1.000000000000000000e+00 1.000000000000000000e+00 1.000000000000000000e+00 1.000000000000000000e+00 1.000000000000000000e+00 1.000000000000000000e+00 1.000000000000000000e+00 1.000000000000000000e+00 1.000000000000000000e+00 1.000000000000000000e+00 1.000000000000000000e+00 1.000000000000000000e+00 1.000000000000000000e+00 1.000000000000000000e+00 1.000000000000000000e+00 1.000000000000000000e+00 1.000000000000000000e+00 1.000000000000000000e+00 1.000000000000000000e+00 1.000000000000000000e+00 1.000000000000000000e+00 1.000000000000000000e+00 1.000000000000000000e+00 1.000000000000000000e+00 1.000000000000000000e+00 1.000000000000000000e+00 1.000000000000000000e+00 1.000000000000000000e+00 1.000000000000000000e+00 1.000000000000000000e+00 1.000000000000000000e+00 1.000000000000000000e+00 1.000000000000000000e+00 1.000000000000000000e+00 1.000000000000000000e+00 1.000000000000000000e+00 1.000000000000000000e+00 1.000000000000000000e+00 1.000000000000000000e+00 1.000000000000000000e+00 1.000000000000000000e+00 1.000000000000000000e+00 1.000000000000000000e+00 1.000000000000000000e+00 1.000000000000000000e+00 1.000000000000000000e+00 1.000000000000000000e+00 1.000000000000000000e+00 1.000000000000000000e+00 1.000000000000000000e+00 1.000000000000000000e+00 1.000000000000000000e+00 1.000000000000000000e+00 1.000000000000000000e+00 1.000000000000000000e+00 1.000000000000000000e+00 1.000000000000000000e+00 1.000000000000000000e+00 1.000000000000000000e+00 1.000000000000000000e+00 1.000000000000000000e+00 1.000000000000000000e+00 1.000000000000000000e+00 1.000000000000000000e+00 1.000000000000000000e+00 1.000000000000000000e+00 1.000000000000000000e+00 1.000000000000000000e+00 1.000000000000000000e+00 1.000000000000000000e+00 1.000000000000000000e+00 1.000000000000000000e+00 1.000000000000000000e+00 1.000000000000000000e+00 1.000000000000000000e+00 1.000000000000000000e+00 1.000000000000000000e+00 1.000000000000000000e+00 1.000000000000000000e+00 1.000000000000000000e+00 1.000000000000000000e+00 1.000000000000000000e+00 1.000000000000000000e+00 1.000000000000000000e+00 1.000000000000000000e+00 1.000000000000000000e+00 1.000000000000000000e+00 1.000000000000000000e+00 1.000000000000000000e+00 1.000000000000000000e+00 1.000000000000000000e+00 1.000000000000000000e+00 1.000000000000000000e+00 1.000000000000000000e+00 1.000000000000000000e+00 1.000000000000000000e+00 1.000000000000000000e+00 1.000000000000000000e+00 1.000000000000000000e+00 1.000000000000000000e+00 1.000000000000000000e+00 1.000000000000000000e+00 1.000000000000000000e+00 1.000000000000000000e+00 1.000000000000000000e+00 1.000000000000000000e+00 1.000000000000000000e+00 1.000000000000000000e+00 1.000000000000000000e+00 1.000000000000000000e+00 1.000000000000000000e+00 1.000000000000000000e+00 1.000000000000000000e+00 1.000000000000000000e+00 1.000000000000000000e+00 1.000000000000000000e+00 1.000000000000000000e+00 1.000000000000000000e+00 1.000000000000000000e+00 1.000000000000000000e+00 1.000000000000000000e+00 1.000000000000000000e+00 1.000000000000000000e+00 1.000000000000000000e+00 1.000000000000000000e+00 1.000000000000000000e+00 1.000000000000000000e+00 1.000000000000000000e+00 1.000000000000000000e+00 1.000000000000000000e+00 1.000000000000000000e+00 1.000000000000000000e+00 1.000000000000000000e+00 1.000000000000000000e+00 1.000000000000000000e+00 1.000000000000000000e+00 1.000000000000000000e+00 1.000000000000000000e+00 1.000000000000000000e+00 1.000000000000000000e+00 1.000000000000000000e+00 1.000000000000000000e+00 1.000000000000000000e+00 1.000000000000000000e+00 1.000000000000000000e+00 1.000000000000000000e+00 1.000000000000000000e+00 1.000000000000000000e+00 1.000000000000000000e+00 1.000000000000000000e+00 1.000000000000000000e+00 1.000000000000000000e+00 1.000000000000000000e+00 1.000000000000000000e+00 1.000000000000000000e+00 1.000000000000000000e+00 1.000000000000000000e+00 1.000000000000000000e+00 1.000000000000000000e+00 1.000000000000000000e+00 1.000000000000000000e+00 1.000000000000000000e+00 1.000000000000000000e+00 1.000000000000000000e+00 1.000000000000000000e+00 1.000000000000000000e+00 1.000000000000000000e+00 1.000000000000000000e+00 1.000000000000000000e+00 1.000000000000000000e+00 1.000000000000000000e+00 1.000000000000000000e+00 1.000000000000000000e+00 1.000000000000000000e+00 1.000000000000000000e+00 1.000000000000000000e+00 1.000000000000000000e+00 1.000000000000000000e+00 1.000000000000000000e+00 1.000000000000000000e+00 1.000000000000000000e+00 1.000000000000000000e+00 1.000000000000000000e+00 1.000000000000000000e+00 1.000000000000000000e+00 1.000000000000000000e+00 1.000000000000000000e+00 1.000000000000000000e+00 1.000000000000000000e+00 1.000000000000000000e+00 1.000000000000000000e+00 1.000000000000000000e+00 1.000000000000000000e+00 1.000000000000000000e+00 1.000000000000000000e+00 1.000000000000000000e+00 1.000000000000000000e+00 1.000000000000000000e+00 1.000000000000000000e+00 1.000000000000000000e+00 1.000000000000000000e+00 1.000000000000000000e+00 1.000000000000000000e+00 1.000000000000000000e+00 1.000000000000000000e+00 1.000000000000000000e+00 1.000000000000000000e+00 1.000000000000000000e+00 1.000000000000000000e+00 1.000000000000000000e+00 1.000000000000000000e+00 1.000000000000000000e+00 1.000000000000000000e+00 1.000000000000000000e+00 1.000000000000000000e+00 1.000000000000000000e+00 1.000000000000000000e+00 1.000000000000000000e+00 1.000000000000000000e+00 1.000000000000000000e+00 1.000000000000000000e+00 1.000000000000000000e+00 1.000000000000000000e+00 1.000000000000000000e+00 1.000000000000000000e+00 1.000000000000000000e+00 1.000000000000000000e+00 1.000000000000000000e+00 1.000000000000000000e+00 1.000000000000000000e+00 1.000000000000000000e+00 1.000000000000000000e+00 1.000000000000000000e+00 1.000000000000000000e+00 1.000000000000000000e+00 1.000000000000000000e+00 1.000000000000000000e+00 1.000000000000000000e+00 1.000000000000000000e+00 1.000000000000000000e+00 1.000000000000000000e+00 1.000000000000000000e+00 1.000000000000000000e+00 1.000000000000000000e+00 1.000000000000000000e+00 1.000000000000000000e+00 1.000000000000000000e+00 1.000000000000000000e+00 1.000000000000000000e+00 1.000000000000000000e+00 1.000000000000000000e+00 1.000000000000000000e+00 1.000000000000000000e+00 1.000000000000000000e+00 1.000000000000000000e+00 1.000000000000000000e+00 1.000000000000000000e+00 1.000000000000000000e+00 1.000000000000000000e+00 1.000000000000000000e+00 1.000000000000000000e+00 1.000000000000000000e+00 1.000000000000000000e+00 1.000000000000000000e+00 1.000000000000000000e+00 1.000000000000000000e+00 1.000000000000000000e+00 1.000000000000000000e+00 1.000000000000000000e+00 1.000000000000000000e+00 1.000000000000000000e+00 1.000000000000000000e+00 1.000000000000000000e+00 1.000000000000000000e+00 1.000000000000000000e+00 1.000000000000000000e+00 1.000000000000000000e+00 1.000000000000000000e+00 1.000000000000000000e+00 1.000000000000000000e+00 1.000000000000000000e+00 1.000000000000000000e+00
-4.554779784305488730e-03 5.552137091456299522e-01 -1.905063295334804563e-01 7.177467896203273412e-01 5.146735199964584950e-01 5.851735128794806062e-01 6.459815727275070030e-01 2.519140158539949770e-01 5.190466390352542758e-01 5.019940782227432230e-01 1.075474589803786296e+00 -6.649866136765320013e-01 1.387701098971419578e+00 4.444384939851285243e-01 5.117037003203405154e-01 4.046482269574841473e-01 9.161106950739057453e-01 9.689155948118082229e-01 6.495933122378679814e-01 5.205796215073075217e-01 4.421531956520627915e-01 9.744604319303772355e-01 5.021469925206936136e-01 4.628552579615192175e-01 1.189220482650219096e-01 6.854425536334487479e-01 3.590596810021639551e-01 5.650987791730679444e-01 5.277937178973526322e-01 1.529974346728693924e+00 5.358837846879203060e-01 6.136491368672961633e-01 7.212866169986781317e-01 4.882009783863164865e-01 7.157352697977820144e-01 4.535950632747554612e-01 5.647820069642179863e-01 1.728669663524200484e+00 -6.122648864039667571e-02 4.908028990893879562e-01 -1.287511717795010169e-01 -5.582434182412620016e-01 7.513693827985463702e-01 2.226260142083331950e-01 2.590753730533188470e-01 5.195247305734829180e-01 7.181353775337113721e-01 5.272140233206330517e-01 5.533806295800087760e-01 2.717092830106519752e-02 9.543676312627393660e-03 8.483357916053829717e-01 6.677187219220910297e-01 4.840101000721320768e-01 4.505184225880414783e-01 1.508587771702214059e-02 4.891557562241979906e-01 5.471356047178759230e-01 1.843147881211011363e-01 4.801429463057830804e-01 9.074423297702595148e-01 5.558020633689372270e-01 4.674906302876662423e-01 5.021469452099673880e-01 6.833117328798613554e-01 5.127936291715825545e-01 5.100243733329962170e-01 2.822072944749897672e-01 5.296976508613557844e-01 -1.121418747033975198e-02 4.072777678380191113e-01 4.651138406989884233e-01 5.237031859775076459e-01 4.196575236186203539e-02 1.489405605205063265e+00 5.599125946750249661e-01 6.314711192520683358e-01 7.445721142823691352e-01 5.103861343461710831e-01 1.378035784926281870e+00 5.428162755302891052e-01 2.818480849592803206e-01 1.362645832207868946e+00 6.631843170885627359e-01 4.867602658410773997e-01 7.580630288768845926e-01 8.172312791135016852e-01 5.407285555691189183e-01 4.023134841924583260e-01 5.753055364390866622e-01 2.619840442769700850e-01 2.126877889973030289e+00 7.044436452414616356e-01 -5.853187865082898345e-02 5.539375323165771636e-01 5.927408326465144484e-01 5.187354918619083710e-01 4.708679099933077983e-01 1.895516501440937529e-01 6.922455856882937519e-01 1.570083534034269590e+00 6.864671215809448057e-01 5.389293833332167161e-01 7.848452405178558688e-01 8.578197387730401857e-01 -1.996882361831339159e+00 -1.187797971020787990e+00 5.492262378442994697e-01 5.479115182712281928e-01 9.732150918706975462e-01 5.191288605026905811e-01 4.783110021232129250e-01 1.670156119807720829e-01 4.689422720010029133e-01 5.165081966056608298e-01 5.169704654814728517e-01 5.261154030460974962e-01 5.512229277470063193e-01 8.581460445183969332e-01 5.145605417283583005e-01 1.289105761951249818e+00 5.646048151638155543e-01 5.293104186783184062e-01 -3.410766369567182488e-01 5.114867607635910085e-01 1.917723488040224522e+00 5.511132793449112777e-01 4.740635588763669195e-01 6.866805866813601167e-01 5.026527825657874926e-01 5.516708535265645308e-01 5.155930964415815776e-01 4.090603640949171949e-01 2.536040441736300832e-01 -2.024137961780645423e-01 -1.520580209247779646e-01 6.139051088105705878e-01 3.679668100053848367e-02 9.899363272373151723e-01 6.830390597219057058e-01 4.954699232551003640e-01 8.549779112859502428e-01 6.527868598712682768e-01 5.927587303140522401e-01 5.036810649751420899e-01 2.290161222030083488e-02 8.598769262295659077e-01 1.262380715419550992e-01 4.816847799160762778e-01 -8.553162909463998265e-01 7.804002050834097926e-01 -2.995612779277564974e-01 5.195252504849756647e-01 5.273326906075660458e-01 5.048487886850836492e-01 5.182846351443551880e-01 1.861353335346307425e+00 -4.990960981612774239e-02 8.069157507582459532e-01 6.998612266729326015e-01 5.107948366529571071e-01 4.288975961410234627e-01 5.070032045962550304e-01 5.091015035107526732e-01 1.092154091745406896e+00 1.416973415571815831e-01 8.434042535381236494e-01 4.494395760177422594e-01 6.040195615956130970e-01 5.997012373764863957e-01 4.251586707362371986e-01 7.157653249847405474e-01 5.195217179489172166e-01 5.081571395533084345e-01 4.065889523485297641e-01 1.746725400104491219e-02 1.746882497931205036e-01 7.478018263536130583e-02 7.371101911591751987e-01 1.139492516244589693e+00 7.190231934515586287e-01 5.024696988508554618e-01 -1.873703147112660561e-01 4.694672250523633239e-01 6.781568599483167592e-01 5.221709243666620148e-01 5.262745666608389383e-01 4.987142285242377460e-01 2.718332824574908102e+00 5.280269561570503090e-01 5.072792361023622520e-01 -8.571354911316907410e-01 5.264451952405903024e-01 5.726357263907698725e-01 1.767951583562030193e-01 5.060738299416345232e-01 9.242678230519743021e-01 5.253222240094037598e-01 6.898210039164371921e-01 4.234220932348740640e-01 6.125802472555333944e-01 5.515552966308433502e-01 9.700291992931950880e-01 5.992888175699931930e-01 5.432554052488375307e-01 6.898210362185165367e-01 2.944033413176664893e-01 1.275754812098400359e+00 5.078623562157162930e-01 3.528688637434979625e-01 4.480222189612468320e-01 -6.185998094536353242e-02 4.697532614075899948e-01 1.647041295005102768e-01 5.276154794637264445e-01 5.065067070214558376e-01 5.167679414310766273e-01 5.233426448024263156e-01 5.067149136409444532e-01 5.048213096078327800e-01 4.539072847785646236e-01 6.144154772369843087e-01 -6.915519369715024123e-01 5.599907163593946802e-01 3.101893845899965640e-01 4.044105101942484515e-01 1.681857425185656896e-01 1.269788800015652086e+00 9.464874192842323009e-01 5.027815388318551681e-01 -1.048007903007513453e-01 1.044043766543526930e+00 5.130221594539094987e-01 4.548430040914969719e-01 4.578854521748371154e-01 4.184594125730579650e-01 4.315517502384202397e-01 2.031117837221565470e-01 -1.433863899602854097e-01 -1.250542523494498348e-01 3.028788592945529934e-01 5.125306855719625743e-01 -9.625645336800767171e-02 4.828566687736548513e-01 5.138205289332442582e-01 4.490219336021521457e-01 -1.054679744028056976e-01 7.413448588818243312e-01 -2.186451995149332195e+00 5.841907837052636721e-01 -5.344560924420065362e-01 4.960775925717999524e-01 5.112929537183382722e-01 5.021469004242212764e-01 4.754267072160835439e-01 5.269759924308113908e-01 5.146036007618270958e-01 7.275013461414122640e-01 5.348960799589791426e-01 1.679400471242215254e+00 6.703679725575172332e-01 6.978807335843679738e-01 5.150917776809105231e-01 3.506928086980805048e-01 9.074423644230437125e-01 3.719208137768905686e-01 2.612618406105537083e+00 5.649713646721632454e-01 2.447356954141548802e-01 6.707247487420759935e-01 5.048729144670786040e-01 9.068205655438704715e-01 5.043970463907000434e-01 5.301145002991967115e-01 5.099419508075930807e-01 1.049021934736139139e+00 7.591005544594140453e-01 8.679754697053392309e-01 8.116437042909201427e-01 3.315330691665351326e-01 6.732097659961600034e-01 5.635408502950728371e-01 3.987606486847514731e-01 -6.938037409120134669e-01 3.808758430597261602e-01 7.043254202515665252e-01 5.450920347825217727e-01 5.313907982730607937e-01 5.169704647579157486e-01 6.060735610870433554e-01 5.364519901449432693e-01 -7.517368303683776842e-01 6.800899033432067364e-01 5.140239731062770101e-01 5.869784428957477984e-02 5.331179190452857153e-01 1.838520395402015506e+00 4.921528110648101806e-01 5.034482970913958244e-01 4.816922093761570323e-01 -3.320091088128289236e+00 5.203888992946696934e-01 2.678561995864430223e+00 7.163305995422201145e-01 4.937953888744360254e-01 -5.826697679405838937e-01 5.099225772771124321e-01 5.075157214191216015e-01 4.315749869204975053e-01 4.656137149235028971e-01 3.888930938477709875e-01 6.339734603823981018e-01 3.150317246131381088e-01 5.162761616136855025e-01 5.236380840195932196e-01 3.737498218524842319e-01 5.020374442298850548e-01 7.167705451491691582e-01 5.123807965649255225e-01 1.184581241635034976e+00 1.447890161513796375e-02 2.196219873505135922e+00 2.589764096941528315e+00 5.587447646148554492e-01 -1.909707391971208201e-01 4.838686496651211644e-01 4.062672335390652423e-01 7.190420482564472415e-01 1.355258555102341722e+00 5.394836508944708120e-01 1.115094589111421230e+00 5.069629673571269812e-01 1.307512072245822499e-01 1.241054522465328436e+00 3.817393083323680769e-01 4.985861654939391929e-01 5.433472489953140583e-01 8.641229990809382588e-01 -3.583974180501213080e+00 1.604642832228643234e+00 5.507747194035476079e-01 6.402350760643563676e-01 5.052451234288815041e-01 1.728669657450252251e+00 3.124091037088839173e-01 5.321750090367318720e-01 4.824528427863770119e-01 4.265377553313391412e-01 1.383906625981817129e+00 6.310645763700116762e-01 6.898210035667348139e-01 4.828530021910975023e-01 5.992888183487189435e-01 6.632215112895972764e-01 5.582968174526785621e-01 8.868393311222284581e-01 5.100556402641458487e-01 3.995524272331804072e-01 2.461174015916311464e-01 6.359938647030561887e-01 5.150661221162489145e-01 4.844836640554004425e-01 5.321750076005150598e-01 6.589110747936854917e-01 5.088594054587338711e-01 9.831905948096170134e-01 1.009002378148120549e+00 1.113395787027976036e+00 5.225306360396290151e-01 2.502922639168267405e-01 9.074430361408133416e-01 -1.085535944135594816e-01 9.327956518075637415e-01 6.262562583001826111e-01 1.454432348226343021e-02 5.462056421958746411e-01 1.008768842328423343e+00 3.937127843427866147e-01 5.362699123802859846e-01 2.636191874401722091e-01 -3.276170116651636599e-01 -2.400014186335300170e+00 4.650563491586210407e-01 5.992888175410651108e-01 5.992887656042619193e-01 5.229197625080629352e-01 4.744930758267063009e-01 -2.006005719040604152e-01 3.475752306260657121e-01 4.997712684813725992e-01 6.255646011918011284e-01 5.105711440213915875e-01 1.066464568759274867e+00 6.898208332897652895e-01 5.120493667458460019e-01 4.689832360975159098e-01 2.658766145772775702e-01 6.445701215586481236e-01 5.328696094764900915e-01 5.149393118801240954e-01 5.625705692797945412e-01 2.653784919472247372e-01 2.789582641433460339e-02 5.992888184024653953e-01 6.543578870365975853e-01 5.092343230301296098e-01 4.572203067051638370e-01 8.564853228634237148e-01 6.358964954352773757e-01 5.627414094664762167e-01 1.791792845554942115e+00 5.279257469240729028e-01 -2.939446543235587850e+00 7.179468680993763563e-01 1.493606467863140663e+00 5.208825348027822377e-01 -1.025209050771094921e+00 6.840328874571164341e-01 4.800261257338673260e-01 5.121340922200002810e-01 5.397678675584616226e-01 -2.453709411756130332e-01 5.129358361571003666e-01 1.061561004776522266e+00 6.368179789405610247e-01 -3.072823563744456199e-01 5.202524775723774697e-01 5.044769947980329849e-01 7.614686901311554790e-01 5.235604103581417146e-01 4.980594454165823692e-01 -4.957119319613999542e-01 5.621284466175184846e-01 5.104293340932790635e-01 7.204538696355140548e-01 4.976462252073072801e-01 7.631211017669408125e-01 5.105118324736345192e-01 5.600617130084276640e-01 7.437930079677808060e-01 5.521158496901366064e-01 3.557889344812244503e-01 2.573994426997322504e-01 3.041813367847632232e-01 9.503523849617189212e-01 5.431974962387422501e-01 3.134974305183686472e+00 6.607033387094100041e-01 5.885607540678187144e-01 5.620445789182108021e-01 6.421861870619078871e-01 2.744385644934453986e-02 4.819286211984392665e-01 6.019840878576059318e-01 5.193401457456975345e-01 1.166250788525883486e+00 7.633510577862665514e-01 5.273628159318426434e-01 4.553895885931869558e-01 1.112867364266976411e+00 5.298184803052105041e-01 5.257163489536089696e-01 5.245211874905501004e-01 6.919952547122165676e-01 5.142141829118316299e-01 9.135394767511063607e-01 4.739709986105007933e-01 5.094473602625887443e-01 1.327392426875976909e-02 5.389540919998055957e-01 4.135502297658846804e-02 3.754228490615909575e-01 4.230496067296872775e-01 5.424346236328159154e-01 7.682897140365073652e-01 5.046204767407802549e-01 4.050382140957720645e-01 3.870678664027811522e-02 5.729758976226122513e-01 5.356537134455655602e-01 5.318557288272157679e-01 4.272774949141875528e-02 5.119324064950607767e-01 2.489854668378376212e-01 5.092039817976828919e-01 4.386720391266784591e-01 1.246613696080571376e+00 7.937260554798775125e-01 5.061706928369965608e-01 2.837708987553909101e-01 5.980419487865908934e-01 4.161580358189813089e-01 9.832695950842197385e-01 5.718878448735763564e-01 5.124535426935482585e-01 6.804130129453007658e-01 1.954574165436515631e+00 4.533925252252343774e-01 4.031177105272963912e-01 5.138364313137461226e-01 6.798068380904189745e-01 4.354631122454211689e-01 8.149183985514761863e-01 -5.585868079072091597e-01 3.111460005359166225e-01 5.540427593704657649e-01 4.444880619987312542e-01 3.783104221960154612e-01 -5.908427081208449394e-01 3.912839220557333131e-01 5.133172766460020187e-01 7.389008197042936654e-01 6.628140628882199792e-01 1.396713943076813624e+00 5.104636179372588067e-01 5.177915740121128430e-01 -6.708747732105470041e-01 4.895251698144881258e-01 1.189491119823266052e+00 6.875995467174308429e-01 2.464584116385827584e-01 2.925242749756920002e-01 -1.521405903342926802e+00 4.889384610926963970e-01 1.969618729621781528e-01 1.088659089937775049e+00 8.103692504690498399e-01 5.167304856105977562e-01 5.054039165273426226e-01 6.091904498841383964e-01 7.176603597855806260e-01 4.808474323381828341e-01 5.670203315845265823e-01 2.556482595567080920e-02 5.312580475324300000e-01 6.202633196130462601e-01 6.668120364500642605e-01 4.943392021624422594e-01 5.966906243877113658e-01 1.174772473247491789e+00 -1.116836343772666246e-01 -2.233586053327969723e-01 4.665384469157570768e-01 5.416834440827781316e-01 5.644530200653957719e-01 5.273408501350582700e-01 -8.207098035818861659e-01 3.099826051137631655e+00 5.929309722698766771e-01 4.634354217503937612e-01 4.145867569275410447e-01 5.110788714353040607e-01 5.178301167099589319e-01 6.475849507627989832e-01 3.285010605609139933e-01 5.718487044838420630e-01 5.124536263387107216e-01 6.629822412706339874e-01 3.830991479728361737e-01 5.615293357743709191e-01 5.225114706525370023e-01 4.064608131148921277e-01 4.598882194979876936e-01 5.419569502363680291e-01 6.370072088181912839e-01 9.946417375822628193e-01 2.280076071905749124e+00 5.870708522923278050e-01 4.929651656492743950e-01 5.618877614285165967e-01 5.471905850120765136e-01 3.648297330302263664e-01 5.115799973652656041e-01 5.098187102074333010e-01 5.575673381685118946e-01 4.897054915305364964e-01 4.937673471615019460e-01 7.172904167072075010e-01 3.714067837748117884e-01 5.945915441931191037e-01 5.453427709265254997e-01 5.919432295795337140e-01 1.292714501387368931e-01 9.074423470243431211e-01 5.392255061233971469e-01 1.573673329733039361e-01 1.905452349085760000e+00 2.618981973802789742e-01 4.798705351286559617e-01 5.826178794486425172e-01 5.956832449977386007e-02 5.435992957697720618e-01 1.491171692170969898e+00 7.384859265506137360e-01 7.994125844246645629e-01 5.118711569723614074e-01 5.362777704165134773e-01 5.153331510236380808e-01 5.996962613426136679e-01 5.184868266359672351e-01 5.100398150809172249e-01 -1.391786150785981613e-01 6.005745316604226280e-01 -1.332189147792601780e+00 5.412732350358577804e-01 4.881101279279496108e-01 5.494335724789637387e-01 4.817051021670150646e-01 9.074423469893213579e-01 2.303635707966903146e-01 5.676092243322541364e-01 1.299987104890422351e+00 -5.242328819575825527e-01 5.033517389605839387e-01 1.109264531786809949e+00 1.461411444066159415e+00 3.760626729089568410e-01 5.057878541046779697e-01 -4.116973042824279005e-02 -1.624974226091486784e+00 2.860177152851144933e-01 7.090175537053348132e-01 5.270814038485621689e-01 5.071384435203888374e-01 4.620964322358028786e-01 4.895833538597057499e-01 -3.822723084095764334e-01 8.055496219652734657e-01 5.169704708452214081e-01 3.485501717177051373e-01 5.360649441225633360e-01 -2.696509154824036983e-02 -1.773807520858703413e-01 1.738885935416136785e+00 4.179950774306218642e-01 4.288637716185403348e-01 5.068349954512080258e-01 3.342728047281918746e-01 6.280942642409383936e-01 2.745320927031444109e-03 -9.432146149730982199e-01 5.093173060603148894e-01 5.146426637492146350e-01 4.700632686240677760e-01 5.749807430223089488e-01 5.506088254848838792e-01 5.401512047128377292e-01 5.170512792232117016e-01 5.834387041174398103e-01 1.021178810936226311e+00 7.289269791871243465e-01 5.506297553155217184e-01 5.325938784861878883e-01 4.851540692153349932e-01 4.325299806108569567e-01 -2.440288686155337502e-03 5.321750085355229087e-01 5.726718395583375587e-01 4.618022796019604082e-01 7.363198924344279694e-01 9.854808604030946828e-01 8.149097915385967728e-01 -4.536854035103251581e-01 5.503932639531374793e-01 5.432165190841964364e-01 5.045969024174190576e-01 5.663626152774758893e-01 8.922023231972099344e-01 5.433519795656334139e-01 4.963358369354529676e-01 -1.851597323417300822e-01 -8.280569593757201030e-01 2.233070535456028960e+00 5.266955796814573043e-01 8.842712858001141596e-01 4.998886938880859332e-01 5.641428879234229310e-01 3.555044140635532091e-01 1.484159688249664932e-01 5.103938484544073839e-01 5.375614225324878426e-01 6.754130127768445679e-03 5.113832391934880484e-01 4.255457890278142585e-01 5.116497355307012551e-01 7.702518100817767888e-01 4.986409252059360586e-01 5.792359337625535565e-01 3.813001888326103539e-01 5.621958637890790422e-01 3.337430708279859326e-01 5.117081092167798939e-01 4.658746102148109136e-01 5.219252700102888776e-01 -2.996301716889341327e-01 5.047254628733224280e-01 6.430750571522281245e-01 5.326576744981416089e-01 7.180147114457100521e-01 9.074420574743996548e-01 7.365299040159669630e-01 -5.735098742949451545e-01 9.954275631028265403e-01 1.728669663547346858e+00 4.711225488859455690e-01 4.638977343583041146e-01 1.064707687330029184e+00 5.266615998822067324e-01 7.181746677890704644e-01 5.090063856670122844e-01 1.765027378397816760e+00 5.056676328112028607e-01 4.828564809324679685e-01 1.234222401073870934e+00 -4.821968679803866065e-02 5.314069106617893556e-01 -1.691807287979839869e-01 -9.247162392355242622e-01 -1.776179131403430311e-01 7.807748899132846976e-01 5.287360953662324503e-01 5.833378109039131232e-01 -3.371777474838525968e-01 4.975166654276052536e-01 1.072338773518015202e-03 -3.361584641629946080e-01 4.519293954798780932e-01 5.087090163163505707e-01 5.136980247490033902e-01 5.693444303243722082e-01 5.643837407269479689e-01 8.982607461304553675e-01 -3.689399913941536213e-01 5.150918801045063500e-01 5.602892475891475543e-01 6.316779405875577735e-01 1.154681427700535279e+00 5.237064322859531496e-01 5.967416317560471084e-01 5.171527339689484526e-01 1.602955227754085735e-02 -2.453262269627673742e-01 5.029161500175046706e-01 5.177203732287894988e-01 6.522335672975227983e-01 4.876093653667982197e-01 3.331686893798756488e-01 5.107941748014176442e-01 5.055112989393446554e-01 3.256949182426486233e-01 5.068192242306798212e-01 8.362802826524992073e-01 2.502685922260605711e+00 -2.328039838752712642e-01 6.693008799531746655e-01 3.477397884125561500e-01 2.275944000993457283e-01 6.899653407930776972e-01 -5.580987783161329985e-02 -1.462612847836257890e+00 5.238265142100134719e-01 2.563101182486123175e+00 5.131883908891748947e-01 1.430482358072055482e-01 1.854397216281646887e-01 5.169704654619778905e-01 5.458998655530076238e-01 1.526653826959079030e+00 4.874495921409543464e-01 1.253939497473307296e-01 4.502836310315497248e-01 1.648267765104419524e+00 5.614032910950227384e-01 6.915385445336620363e-01 4.903006315119204928e-01 7.433862014708432220e-01 4.512919283825327366e-01 5.597063912148988463e-01 8.128849265966534010e-03 5.129567059609687618e-01 5.727346672432317432e-01 -5.582402304745294197e-01 -1.708127768565133667e-02 1.165108915648431553e+00 2.341453215014358546e-01 4.957795839316637143e-01 6.618115919015729043e-01 5.385591469946505727e-01 1.978866526544579063e+00 7.115376699408157979e-01 2.657935937401208204e-02 2.488583105549409535e-01 4.113394476276073797e-01 1.085194873409348171e+00 5.565929938455224102e-01 -1.758503178283662288e-02 4.889888118589630350e-01 -2.645109195216268846e-02 5.232346916141645821e-01 5.152103236248406493e-01 1.290813931579270699e-02 -7.739845010338201881e-02 6.634696178585934856e-01 6.191756476925835972e-01 5.202106707637378369e-01 3.259049367834436217e-01 5.486327732061078155e-01 4.791635464964378865e-01 5.645514844725506576e-01 5.446830956517613176e-01 4.832189470058620429e-01 6.490015631023031695e-01 1.011450304626601238e+00 3.064008540113541734e+00 8.767225434222150060e-01 5.219149016083863835e-01 6.578905506979805251e-01 2.095255774138554961e-01 5.089241330521013795e-01 8.298524787450882734e-01 4.788798375750033531e-01 1.315447837358187932e+00 5.482169285709761475e-01 -5.576984363806257727e-01 -8.718586957250864036e-03 4.249603211216814169e-01 6.099566206610239627e-01 5.606862605235125585e-01 5.031768025505395370e-01 -1.098217021924186194e-02 4.731372803293421581e-01 3.942393443040506096e-01 -3.495369409377589776e+00 4.946669568323331379e-01 5.332659876908217855e-01 1.113232262718717447e+00 5.163350562514719133e-01 6.016086892984188195e-01 6.793718542244182590e-01 -8.505035373970551982e-01 -5.076506144569145063e-01 6.009602450510709293e-02 5.077230915053158045e-01 4.028581736492060639e-01 2.289655617978722246e-01 4.855594502486051400e-01 -3.267225123755919669e-01 6.683063557665661625e-01 5.670762616386131327e-01 6.926615931365560641e-01 5.319633557366935106e-01 4.791301738973124391e-01 1.693816331910590611e-01 -7.191420929259945138e-01 6.454802066185756360e-01 5.412245683973928578e-01 1.686425421872207731e-01 5.101231676403893411e-01 5.860750014739254388e-01 4.943887035048749046e-01 6.669208450047803272e-01 5.638658306711140655e-01 5.342452756643332190e-01 4.965943381511702670e-01 1.728669663058308936e+00 3.757636377900350766e-01 5.528003260997285118e-01 -9.868089531694031191e-02 5.279551033005498439e-01 6.163709475633676327e-01 5.210865211168699274e-01 5.056880718802474473e-01 3.467357688255892079e-01 8.837112109642062396e-01 1.166522394163449050e+00 5.577706716696470002e-01 5.452262720999897505e-01 5.946582970903436793e-01 4.728356579613312571e-01 5.193070287135442831e-01 5.085176684510014367e-01 9.954765254208227665e-01 7.351097502775898462e-01 -4.444774416961169150e-01 4.396391337459632509e-01 9.220007024876698543e-01 4.813557640814933869e-01 5.294519277283976297e-03 5.377282220219762321e-01 1.133312841103706337e+00 -1.379927400090722733e-01 5.173706965318654039e-01 2.558664987018613446e-01 5.397995489415727821e-01 7.974124398103876743e-01 5.073281076658229249e-01 3.654632291689498547e-01 1.385330444736432520e+00 5.389225379557526230e-01 5.169760622077768097e-01 -5.949998565283751706e-01 4.653707814483420968e-01 1.044839075886108803e+00 5.764965413965886798e-01 1.158979032201938597e-01 9.349070905458707337e-01 -7.082760522360929956e-02 5.118206253674495443e-01 1.571165089134140880e+00 -8.454836910179358567e-01 5.270658450432149644e-01 5.119727523715155160e-01 -4.264249780688699754e-01 3.496183545493348754e-01 5.435583653685356342e-01 4.601541675061917580e-01 5.354897641120185403e-01 3.422848830722932667e-01 2.644998480381581807e-01 3.494786714164467845e-01 5.252149873921873047e-01 5.129735608643485323e-01 2.589027723879273185e-03 -3.823762848378689516e-02 5.197149141474399769e-01 1.056350309005151367e+00 3.781565127902151713e-01 -5.583976424036244390e-01 5.457746084096150030e-01 5.098641637428507067e-01 4.638878531797077098e-01 1.958343169055855662e-02 3.468486175788809689e-01 5.115572113192822234e-01 4.960935617936783615e-01 4.572984199311701525e-01 5.082104020119423277e-02 4.433491054567355039e-01 4.993574728960244458e-01 6.668904528964080258e-01 2.055609226384002675e+00 3.304678464743741884e-02 3.800524247222699659e-01 4.773905684809978678e-01 1.799731135755490152e+00 4.909661351006039953e-01 5.224921730238365480e-01 1.423202335097806942e-02 5.321750067763482139e-01 5.002716371945903351e-01 4.680436543762941937e-01 3.836846845489058078e-01 5.170951853362788508e-01 5.821942511649512708e-01 5.249776769992965386e-01 -4.944729625699731401e-01 5.043679580925325423e-01 5.028755180826636195e-01 5.251311349522131966e-01 9.120973859239283055e-01 5.195805114402839431e-01 -2.368390691043520402e-01 1.027812581366957856e+00 -1.200488116117489623e+00 -4.950734973493163826e-01 4.998941760871633000e-01 5.056804798393124134e-01 6.470869470858737760e-01 5.246620817013262217e-01 3.472636863857883061e-01 6.354114259507482876e-01 5.321750103260742826e-01 5.078452832551969554e-01 6.161645434244718000e-01 5.670915273953300861e-01 5.079656467075780446e-01 2.786726994287841430e-01 4.880588514851858517e-01 4.395080669056742884e-01 3.543715883941237488e-01 5.196802935009273705e-01 5.114954142353204114e-01 5.407957823631555083e-01 6.284129535080805740e-01 5.053837064810674518e-01 6.393194724800372875e-01 4.687622117077029360e-01 4.911249781113515844e-01 5.481333159739725236e-01 3.187874349237773686e-01 4.693369376991664566e-01 2.340172441687092153e+00 5.923878379602635080e-01 5.510268725881760643e-01 3.350064825725890261e-01 5.726486657663683033e-01 1.101830008332033373e+00 5.908198890337175158e-01 7.184146470413540486e-01 5.116411702032339637e-01
6.819029695462459628e-01 2.424043381138460962e-01 4.004876095501581079e-01 6.300815055057290559e-02 3.079206130235026539e-01 2.825489656284629891e-01 5.238494364655019719e-01 4.614436445103466955e-01 2.116363777937475266e-01 3.032863204535675150e-01 2.013478086014178103e+00 1.687925177377625596e+00 -1.401270454375233010e+00 6.206927848723411412e-01 3.111726084937155856e-01 3.656405465229865537e-01 1.280306345280869396e-01 4.178371577618310018e-01 4.493159677946845232e-01 2.871720034306009528e-01 4.724605097391061936e-01 2.065358148969441920e+00 4.056407198015282156e-01 3.507822255667545908e-01 6.962046594911360797e-01 -2.767799582270294989e-01 4.746532618993271613e-01 2.762214198601240511e-01 2.880757461298744659e-01 -8.189887519177853070e-01 2.185532485411842141e-01 -8.549086182690876501e-02 2.897526926216329457e-01 2.592998064300496286e-01 -4.304165823697351234e-01 4.007678138299711756e-01 3.105931438490945329e-01 -3.133883843888058407e-01 -3.147517735778415204e+00 2.842203631639072525e-01 1.092479604032057905e+00 1.376193101594788692e-01 -1.619218878523142058e-01 7.911863244965647857e-01 6.684188392155773206e-01 2.756671293203848405e-01 6.253508243333762151e-02 3.003100690035448439e-01 2.948462837241892509e-01 7.304139824349153987e-01 7.033985610330042437e-01 4.404283260739059735e-01 -2.978804323888242234e-01 1.954880816516535724e-01 6.043093545512245868e-01 7.031395940551611323e-01 3.159723585014341807e-01 2.904594944293071301e-01 3.485520945192212006e-01 3.269679741159914332e-01 4.213040427277808253e-01 3.157563315573631568e-01 3.327172824934069850e-01 4.056407270366001461e-01 -3.448494163020494607e-01 2.446782367521849744e-01 2.944154968626576108e-01 3.457850453052751516e-01 2.860238330220794545e-01 7.298285090461074098e-01 1.204212229529943862e-01 3.434506023243154016e-01 2.878948759033286287e-01 7.048952694020043097e-01 1.879820912201245475e+00 5.252356866242593458e-01 4.644560595500360489e-01 4.775478362201546756e-01 3.167972190097693153e-01 -1.307421830851728028e+00 2.708781402784480874e-01 6.578072734436535285e-01 2.222951233436159857e+00 1.436928643019911578e-01 2.895748046934027986e-01 -4.412872480703473599e-01 1.150181069456101407e-01 2.944626201854286807e-01 -5.660342164207186055e-01 -8.538922730405505979e-01 6.678096398936105293e-01 1.530907818873936899e+00 1.200310627012726450e-01 7.124751049606402598e-01 3.121110990911429850e-01 2.885064941577072939e-01 2.861694534873047147e-01 7.121476987789342461e-01 7.393350621267912315e-01 -2.751811006710054852e-01 -1.618956337117925248e-01 5.761177694056773824e-02 2.860482682825825629e-01 2.181757356256739944e-01 3.011674406789516256e-02 3.014346199567510709e+00 -2.739379579976349843e-01 3.425076948320498332e-02 2.406571563792402890e-01 8.052980410353368645e-01 2.257909762569714762e-01 3.593862807293403683e-01 1.742088669698295400e-01 4.891905812004448961e-01 -4.973583633449465968e-01 2.121691517121644666e-01 3.820542967872520013e-01 3.518752669055716376e-01 9.223511388088617702e-01 3.181337861473458872e-01 -1.417903231605626146e+00 2.918555052250143000e-01 2.700994925071193986e-01 1.258448463678329299e+00 3.060150582624003301e-01 2.116527568884380095e+00 1.556387603098163541e-01 3.889285232257446712e-01 2.892590819155607118e-01 3.294806212623171415e-01 2.377689807157760682e-01 3.130783152027548089e-01 6.690404997503606177e-01 3.933155411534224877e-01 1.887861064225855867e-01 8.898729750863578758e-01 6.865335744636912318e-01 7.266601776989655148e-01 -3.254736148220332970e-01 1.951875222738035098e-01 2.852091430410909623e-01 3.211723498542807254e-01 2.073687013810045776e-01 3.418056465966942681e-01 3.216852473634502774e-01 7.002545840912527408e-01 -9.902681259479484410e-02 3.182073431162473209e-01 4.423168271400960694e-01 3.930549425921589513e-01 -3.007231079625410364e-01 1.919874229851677855e-02 2.756679150589861904e-01 2.982541522076919138e-01 3.831575754389444644e-01 3.009692099119801179e-01 -2.178884613496471445e+00 4.394286209555585132e-01 -5.782442127251381514e-01 -2.735418448931051238e-01 3.956450098108822977e-01 1.693959363700580645e-01 2.940747543299575550e-01 3.186210059302032049e-01 1.039369942104545197e-01 4.772554945322507458e-02 3.133432820993158341e-01 3.778085919756737909e-01 2.365976093951988046e-01 3.765275817583069728e-01 1.989275508751503496e-01 6.050166938754636403e-02 2.756936868425091669e-01 3.121609622440795206e-01 -2.443459077792083711e+00 7.214951958023816392e-01 6.463449762516567665e-01 9.896459634889136492e-01 -4.500246175645217228e-01 1.166288656675022128e+00 -2.937462600344017613e-02 3.514531726599723349e-01 1.221210529688990132e+00 2.426869107940830550e-01 3.021791572751147958e-01 2.584824262978108744e-01 2.595353435824893085e-01 3.034381900888677985e-01 -4.467925572268534040e-01 3.884015642568198756e-01 1.811668840061068098e-01 7.965049077783242781e-01 3.169860649720727119e-01 2.084130900059608937e-01 2.161852768320900731e-01 3.164009688322989011e-01 -1.590460523325423869e+00 2.922223641035243125e-01 1.634759166866427138e-01 3.444033504963143755e-01 1.464458481828845582e-01 3.126394963252695502e-01 3.719107348158532944e-01 1.228956725265388655e-01 -8.121279916901739115e-01 1.634758994798999332e-01 4.373563347589870531e-01 -4.976394112508918388e-01 2.957311630985365869e-01 1.506747719407630082e-01 2.731573568886158654e-01 -3.149368669435210766e+00 4.226041713593771121e-01 9.414260069603008763e-01 3.151085011368189859e-01 3.181621384527149043e-01 3.064326158998831318e-01 2.956620933419563113e-01 3.243516612907140217e-01 3.191069942849292240e-01 3.095603175759268910e-01 2.231782185103158012e-01 6.536202895486467046e-01 1.672875654009512436e-01 5.335561444056934333e-01 4.255190209441049864e-01 3.747386277253116904e-01 -6.163862003478383089e-01 2.210760963426015469e+00 3.706830509990756695e-01 1.221130641713594089e+00 -1.370476079967796634e+00 3.133758501264693463e-01 1.989693395555973687e-01 3.437465945067899042e-01 1.130265865023182048e+00 4.549525858952255808e-01 7.808065177903378284e-01 2.757042229220398322e-01 6.704934374522180107e-01 3.603621183806554606e-01 3.401845622756956011e-01 -1.133210033788730309e+00 3.150152627429362862e-01 3.113694931022330525e-01 4.491806859112454919e-01 9.257846779962475292e-01 -3.253831444437369491e-01 3.035917210861268423e+00 4.405316161769201044e-01 1.191629853099819947e+00 -4.797477725549093713e-02 2.976843771781933490e-01 4.056408236436997994e-01 2.973977776131000450e-01 3.099320580472558762e-01 3.334127449868690141e-01 -6.723513184054945302e-02 1.786799951859300573e-01 5.600429590256156276e-01 2.973018600845025450e-01 9.053660577696578948e-02 2.881917874320565898e-01 2.926032133735745333e-01 4.213040074924881973e-01 2.748790422657350074e-01 3.124631077006867486e+00 3.827706218442187280e-01 6.569468869374340825e-01 5.441569668858783348e-01 3.686077867721051504e-01 4.218095118951545319e-01 3.213964625202389014e-01 2.755645692380479517e-01 3.160055707873384301e-01 -4.760596772054581649e-01 4.854369156328647850e-01 2.855686345109877400e-01 1.096558248783535694e-01 2.246545236930645728e-01 1.500874482488566697e+00 2.173521306051513780e-01 2.694519754256873845e-01 1.968892874802425030e+00 4.860240504135928674e-01 3.719162603796714595e-01 2.828698533844282159e-01 3.209719439153991827e-01 2.121691523122179734e-01 -2.032642119509263878e+00 2.883927710905176411e-01 1.437818839976791940e+00 3.049343381573681178e-02 1.931228068177902046e-01 7.189367464893475779e-01 2.454626178858167473e-01 -7.059261761538737634e-01 4.515022454773522931e-01 3.199057837430533957e-01 4.423397936959810317e-01 -3.706946611317140094e-01 2.987453919774302191e-01 -2.058547621332060373e+00 6.110383011060404462e-02 3.392160446436144339e-01 6.089630969680991379e-01 3.159865992659078859e-01 3.168250706200801403e-01 4.281713735965460566e-01 2.355183158758993589e-01 -1.325671826051188218e-01 -7.451177975194170910e-01 8.202034273946759782e-03 6.761982125255583398e-01 2.965134619879404299e-01 4.692972925352321134e-01 3.134780655690475037e-01 6.180890360631344227e-02 3.102159510077691085e-01 2.378047644124155813e+00 6.921653282577326927e-01 2.463665048249657763e-01 -1.117572144154286518e+00 2.266691782614008721e-01 4.519706083913540340e+00 3.053605332207610101e-01 -8.713837522606605879e-02 5.672111324250725950e-01 -5.405378349386810832e+00 4.928052960455480136e-01 1.497453846307026604e+00 3.224356013554687816e-01 5.460267654922199565e-01 -4.263408444968782574e-01 3.273416013868782337e-01 2.801678301372437230e-01 3.633290419224791123e-01 2.628040648898745668e-01 2.828638775808960393e+00 -3.566657413630845985e-01 2.469617626811212718e-01 -1.879003300020210876e+00 2.789546280953774104e-01 -3.133883832913105238e-01 7.342937680576837600e-01 5.618676772503484740e-01 3.748387473925649527e-01 3.579591526983098571e-01 1.291350227265331441e+00 1.325478008311175848e-01 1.634759178514508249e-01 3.150201321095552620e-01 1.228956710048436235e-01 2.342011607594711720e-01 4.002147297968806083e-01 -5.905525732903660341e-01 3.149536642759791505e-01 5.220402330638708177e-01 3.593453248090400787e-01 1.786802279712601249e-01 3.054369165288575161e-01 4.208647582705541956e-01 5.618676768430028723e-01 3.213681046676255537e-01 3.141277085312847994e-01 2.145035569541271503e-01 4.693578930777521641e-01 3.259545542043771782e+00 2.847828857389513857e-01 1.834359291217395882e-01 4.213029390221809667e-01 8.584401816359427118e-01 4.610440282452046845e-01 -1.869114114307248165e-01 6.999250285054036125e-01 2.161318138896953234e-01 1.102554454699352371e-01 3.809166607431803686e-01 6.409475297751439093e-01 6.754570720612493862e-01 7.658996538135404153e-01 8.024543312721120758e-01 3.894421903262614282e-01 1.228956725888226825e-01 1.228957562155983396e-01 3.763086457634978177e-01 9.691320406782860664e-02 1.120014721971166916e+00 4.197651719747968468e-01 3.035244156760987244e-01 3.974190238372014017e-01 3.121289433389421997e-01 7.933591849364830528e-01 1.634763644572559405e-01 3.131594818407620884e-01 4.283829515390557563e-01 3.251028624414742385e-01 -6.267192214297399033e-01 2.915539994770892651e-01 2.969359814495982630e-01 3.455424629570008066e-01 7.072289852400641674e-01 7.509563068163551680e-01 1.228956710328126256e-01 2.297187172528833074e-02 3.112300255927069603e-01 3.860502736781855071e-01 -5.878175447199472936e-01 2.291789918936512627e-01 -3.403906049155680513e+00 1.870027784170395613e+00 6.124918763277508171e-01 -4.269555259357185606e-01 6.313904008751633490e-02 2.008084518954790010e+00 3.224760834594618819e-01 6.251791365944459056e-01 8.228980434462129789e-02 2.610939638404782270e-01 4.698482626324976263e-01 3.254981246376587589e-01 -3.791260952850646904e-01 2.910808900374458608e-01 2.004432627306714565e+00 3.417648941388053418e-01 -3.782504538308499864e-01 2.322066762739388446e-01 3.275993146829211389e-01 -1.429618824431567292e+00 2.646751981960292488e-01 2.537191419949375581e-01 4.024853802259318325e-01 2.514494922260576137e-01 3.166682687879998070e-01 2.503998868346471451e-01 3.294275241779670571e-01 -1.595316479173478907e-01 3.134691036797510044e-01 1.672276863102862554e-01 3.454024013794433912e-01 2.549623189994577044e-01 3.539750642314595103e-02 4.592953814650239663e-01 6.495086168690987760e-01 -1.331887451218319862e+00 -4.445114589297114449e-01 -1.007349032772908576e-01 2.710677250299971600e-02 3.418025238245638864e-01 4.215177914251859725e-01 3.621378075900498206e-01 7.087672322204403574e-01 -8.378862391812388899e-02 3.288528360863781641e-01 2.959607044411488586e-01 9.115377777238144186e-02 -1.598692996999063753e-01 3.402544801080490400e-01 4.197211908812097381e-01 4.780739436179787805e-01 3.139042001381250890e-01 3.014632057259416520e-01 3.110786082566792676e-01 2.640685609194422523e-01 3.032871119776319735e-01 5.186002513711578388e-01 4.237425622099711409e-01 3.170745407738883026e-01 7.010236731515366859e-01 2.791931205310562158e-01 7.012512628423638317e-01 1.352456583244866506e-01 4.594748546028927794e-01 2.119990388740049525e-01 -1.421338054406037887e+00 3.281976418453934619e-01 6.371321340708036018e-01 3.988031551033133781e-01 2.508324510363833526e-01 2.784258317848489761e-01 3.525827571477461175e-01 7.159483141383897742e-01 3.095012245999232969e-01 3.478770679713432679e-01 3.175455048490239407e-01 3.013440139009795904e-01 2.302372721185929061e-01 5.330675808128880755e-01 3.036856711240915052e-01 2.966375095101673187e-01 2.420097316744682647e-01 3.140293038127558306e-02 1.591105318103682276e+00 3.605672595991125107e-01 3.757446417543108819e-01 3.690635577752057750e-01 -8.090109462507891758e-01 4.481653482053128967e-01 3.673391820162896781e-01 5.518586890668119027e-01 3.085112934863998985e-02 3.399005143225238279e-01 1.450658952539798818e+00 8.833332965788712743e-01 3.671694175407192451e-01 2.593194334306149207e-01 4.035645853295628527e-01 3.144807838547036827e-01 9.010990304420213315e-01 2.952537310461510245e+00 3.070838033353087693e-01 7.395173879801926475e-02 5.975748424227446121e-01 -1.458923651358336737e-01 3.125476147310406461e-01 3.225984518958475156e-01 1.043441317393095202e+00 3.499672775893303278e-01 -2.966928255001408110e-01 3.639527031221152509e-01 1.090126859878467747e-01 6.693743182498089750e-01 1.638453465568380008e+00 3.858193413087679935e-01 2.280236922301497327e-01 1.635118362974463446e+00 4.200872249843062289e-01 2.780549035435015970e-01 3.117521184701816384e-01 3.935739858285908221e-01 6.260065468080047713e-02 3.931769476221771420e-01 2.322832745461255455e-01 7.087415649786590333e-01 3.577405891013623607e-01 3.633374410986310310e-01 2.965561173143234086e-01 4.569207699068608686e-01 2.595398287285817784e-01 2.496247108199701192e-01 9.317499981047201452e-01 4.972350830952684264e-01 3.484801617216703451e-01 2.906407058474289040e-01 3.247717794143734626e-01 3.372215385811198063e-01 5.805829745967749922e-01 7.606110257865678070e-01 2.878919854605396789e-01 2.675127550487393369e-01 3.588436774493126702e-01 3.209999993135900231e-01 7.504432170344020880e-01 2.027684427583629767e-01 4.270913666106093687e-01 -3.171037368725588279e-01 3.117273382798321779e-01 2.125474051610591053e-01 3.954175195122764941e-01 3.468142659688915885e-01 2.318910754774634597e-01 1.723232874009781979e+00 1.711267432173370351e-01 2.930542095266138736e-01 -1.278736205000309545e-01 1.574552687874969159e+00 1.130333803129189185e+00 9.511417977347103037e-02 -4.663224009606562470e-01 2.675513039653712455e-01 3.056687832793497650e-01 5.110521942917853888e-01 3.152782979861969426e-01 3.210984387075028201e-01 2.117537521368680342e-01 3.140857531467718400e-01 3.425742057028892673e-01 6.324869103443193918e-02 -1.527367188331847647e-01 3.851005030363368609e-01 3.933323425248286265e-01 1.818468882101502426e-01 8.493848220741186950e-01 4.213040250997265868e-01 2.144230155880117450e-01 8.117184423023092732e-01 4.764093613720735698e-01 6.682879105614195625e-01 4.080540905038528843e-01 6.816674111884428733e-01 1.450833402226186175e+00 3.051028709379927095e-01 2.010220706665589052e+00 -6.686300771338692626e-03 1.283216604607182731e-01 3.094605790882744012e-01 2.855089798613474339e-01 3.024611797960023440e-01 3.765535460476496232e-01 3.196167965482461515e-01 3.106446032132109125e-01 3.488774485936763092e-01 1.813544521361780681e-01 -2.610370747475189157e-01 3.291547901533612985e-01 -7.630725962111999106e-02 2.478028131338767814e-01 4.423765835274003910e-01 4.213040250731248104e-01 1.919776000128207705e-01 2.787990442526868673e-01 -1.157963377860447007e+00 1.907102897349784776e+00 3.167101574218044724e-01 -6.735602243191792793e-01 2.983133525343212300e-01 3.183954512194966946e-01 3.145682348492530589e-01 -4.616644036118606742e+00 3.432574177061362697e+00 6.143699271449583055e-01 1.335219540063109500e-01 3.507606528293361059e-01 3.176353095744447463e-01 3.467042669923715015e-01 2.540939777731005211e+00 6.098582253319629887e-01 3.212271665089975747e-01 2.121691420000625106e-01 2.291239407932474936e-01 2.963549560420696838e-01 8.791966885672591880e-01 -3.802940004992608203e-01 -1.113090313867932002e+00 -1.168071298092450583e+00 3.241108152360596129e-01 3.130696167849038036e-01 6.950163170355631026e-01 3.161920193925767397e-01 1.212725912583945131e+00 4.544234536803171687e-01 3.231628196651245566e-01 3.267781670362155388e-01 2.873319467976064301e-01 2.632160638367272987e-01 2.467066115239061053e-01 6.542893095997358577e-01 2.916975924293663813e-01 6.241167891880848861e-01 2.106857174331701055e-01 1.450659587695025607e-02 2.468334106747021861e-01 2.356228461089730497e-01 3.147247012647257369e-01 3.779428725527749777e-01 7.248442014491595087e-01 5.618676730340390613e-01 5.007345671186380631e-01 3.955487827622951036e-01 3.223418269631159738e-01 2.494940895213509369e-01 1.450682833652075399e+00 1.792006137951560829e+00 2.463014293009808398e-01 3.143804683075367423e-01 3.237368934595673542e-01 1.982627208999614143e-01 2.431864027913782644e-01 1.785548434286494679e-01 3.443926023126452352e-01 3.185658000893755171e-01 7.821459367263021711e-01 8.554028924108917353e-01 2.716389295393081826e-01 1.815958662154375958e+00 1.555899276514189078e-01 -1.165703037773729023e-01 -2.682812096407696800e-01 -3.285090904043385662e-01 3.106755873958522152e-01 2.872681989791361912e-01 7.024761691158770693e-01 3.058600424325730871e-01 4.411728199826615016e-01 3.080841191156805658e-01 3.803634327422134587e-01 4.035265663403045933e-01 7.637440136663602164e-02 1.023333497809248094e+00 3.072709511992822717e-01 5.103779115040110170e-01 3.146111246784691895e-01 3.601317639260069869e-01 3.147558215933449199e-01 3.841150201329308622e-01 -1.293224399370145605e-01 2.239401438317997484e-01 3.055001866825189927e-01 6.240437350953430967e-02 4.213043173583899681e-01 1.125309827592464451e+00 9.341768072061364947e-01 -7.423532159332779656e-01 -3.133883843672209957e-01 6.305608226128557314e-01 -3.214385748401035414e+00 1.544430982420625709e+00 3.003162438009858715e-01 6.342964841111635443e-02 3.094192087053350693e-01 8.586150184169811794e-01 3.145543315427409281e-01 3.150158214099026410e-01 -4.345910175544179244e-01 8.299628625308095309e-01 2.761896545693773852e-01 8.907393620540077217e-01 2.040038437871948496e+00 -3.802519279552032949e-01 -1.412988605602253145e+00 3.015536856724328474e-01 2.233153343554635240e-01 7.866900884781452552e-01 3.154468798674102126e-01 6.965121540859087190e-01 4.688742937556141244e-01 1.214738866363013620e-01 3.297849634017268050e-01 3.442971600538435872e-01 2.259553855367890940e-01 3.759176727213816571e-01 1.358163741544014202e+00 1.560373752530975100e+00 3.134209972888815643e-01 2.646524590114710529e-01 -5.290127160301043643e-03 -2.295421108065326399e-01 1.931731664788722824e-01 3.863028897632457548e-02 3.093190269386442148e-01 7.000654301405725422e-01 -3.797934799119975224e-01 3.235383854768196232e-01 3.252261318666069823e-01 1.650550833477050505e-01 3.290941154058328877e-01 2.980714486421533471e-01 3.116482223412577190e-01 3.162501710047104231e-01 -4.323307574170184159e-02 2.362345613520001331e-01 4.440014867836466483e-01 1.092157744769206351e+00 1.092379346126146178e+00 9.431998996621164810e-01 1.995062744450363246e-01 7.567562095339606110e-01 1.130855486955803374e-01 4.420213563225928177e-01 -2.017377085078460919e+00 3.057382550964371504e-01 6.466165358494931903e-01 3.014375005502301641e-01 9.593020280553714585e-01 1.345182939872631156e+00 2.121691514542418389e-01 3.128386738475295581e-01 3.709365916501309313e-01 1.806808711866565165e-01 5.595519454607802423e-01 7.584011456096911852e-01 -7.253611478415455949e-01 1.404711955282417768e-01 1.585461956136955675e-01 3.249323928123693528e-01 3.446016897071392249e-01 7.652711623047813161e-01 -1.204782466241505756e-01 3.811200661042065119e-01 3.104107559075660050e-01 2.480636786822976447e-01 8.835257212576523855e-01 4.183464304025169556e-01 -1.992096141018123712e-01 8.590827105739352598e-01 -3.986821688364119293e-02 5.704959507347400205e-01 2.875188862780710952e-01 1.265116491627120698e+00 5.207373490303424113e-01 7.088235879476443291e-01 4.315616902028962532e-01 4.704559098715445642e-01 -4.910563204659544878e-01 3.000115029818332668e-01 7.616174662918050453e-01 2.893030419782627871e-01 6.547711887229410443e-01 3.557539732328763860e-01 3.085380434639942160e-01 7.329156030220438378e-01 1.125321690432466853e-01 -1.997617332220675612e+00 3.370845761092624571e-01 2.880795063328177585e-01 6.853359623922705701e-01 3.632584825680757468e-01 3.759805258671580219e-01 2.331789457065653048e-01 2.377025242556519979e-01 3.533238777576874767e-01 1.015981950773310952e-02 -1.598169946721583523e+00 7.371490894485805967e-01 2.720186825693445831e-01 2.952866190368630406e-01 1.818667765738887776e-01 8.240666732006108885e-01 3.203394219744909455e-01 -1.197862831039353537e-01 3.070007197880333938e-01 1.110320507603710150e+00 3.267032511543034312e-01 4.139726813010722317e-01 1.069407431135812603e+00 2.875302637069406808e-01 2.665996474389704218e+00 2.657743776697500948e-01 3.293976917449174535e-01 6.930236746965552364e-01 3.181579401095111503e-01 2.760104919525155909e-01 -1.971609852439635269e+00 3.430461174718082429e-01 2.826043927753492113e-01 5.098222939244729801e-01 3.044034060592527013e-01 3.743741186293844114e-01 -2.723898718337939284e-01 1.997721366326107306e+00 -5.205154419452958647e-01 8.252477456597097083e-01 3.170857014168897980e-01 4.105152744585701674e-01 7.290767975367612452e-01 3.345604178546122132e-01 1.304620439431517731e+00 1.446989877796711066e-01 2.845973407016907930e-01 -8.735515837198539746e-01 -1.221573734160283226e-01 -1.817827369870863574e-01 -3.742692970196117130e+00 2.859822183568038856e+00 9.968003084976075068e-02 2.693622390765492702e-01 -1.557191907139455767e+00 3.212925885377113655e-01 1.539103728078453359e-01 3.384518899359347799e-01 1.255914289306296894e-01 6.359228857454380934e-01 5.878788983307372540e-01 9.516320166648698509e-01 -3.133883842364319494e-01 -2.055429948611011692e-01 2.096737637653302011e-01 -1.164090764206169082e+00 2.830905325085136259e-01 -6.205356918254407717e-01 3.469453255369573386e-01 4.888267060394990149e-01 3.079347834789162089e-02 4.038959696765522245e-01 2.763803793192718405e-01 -1.241787898021292080e-01 2.102801747187297288e-01 3.092095484649546866e-01 3.372339881829565789e-01 3.089009086252728076e-01 3.153145702097355230e-01 -7.423263636331928206e-01 5.947209447420499506e-01 1.518826711794076356e+00 4.979667372658574259e-02 2.438504572366963219e-01 4.098738932549780278e-01 1.216927281043806097e+00 2.749920533571418302e-01 1.788375743904817849e-01 8.984847874302839266e-01 3.442413484287393799e-01 1.810362359189449988e+00 4.100570836938190467e-01 1.133805295082621178e+00 3.221820329606319144e-01 7.366652953464999376e-01 1.336053857973651837e+00 3.186435761736443051e-01 3.902330645294856959e-01 8.929523087567630135e-01 -1.805537820463982701e-01 -4.365312619213352480e-02 1.304176074091941695e-01 2.931845428705145973e-01 3.392632160051340939e-01 1.406276394995415457e-01 2.855218269199916170e-01 -3.366032408813618426e-01 1.292310772793284546e+00 2.828725562965442308e-01 3.124473449180790730e-01 -3.041671863620305949e+00 4.546968545950975105e-01 4.000061746802543450e-01 4.777133832831082505e-01 4.356594824012415823e-01 5.110954839925074822e-01 -1.012068739769406367e+00 5.762745889897475937e-01 2.832940588218392231e-01 3.118374812376238370e-01 1.051486855674481191e+00 4.370662021224445137e-01 2.962456742386035402e-01 -1.369605553660108610e+00 4.745768078178105864e-01 8.834896962940179677e-01 2.889521361884525574e-01 3.156236853515730356e-01 2.713586037894277769e-01 6.935243079372606090e-01 -9.199563153014027328e-02 3.101037419881296775e-01 3.381205811545436313e-01 6.335576944734432059e-02 7.268302747671512298e-01 3.567260817252770888e-01 7.489045026745165812e-01 1.839984696817937582e-01 6.819487280525783346e-01 -1.945132766291761961e-01 -1.496355997402695204e+00 3.389607654618883026e-01 -1.281377002884627296e-02 2.963744025333246435e-01 2.701850841877859177e-01 5.806736021903391443e-02 5.618676749862927533e-01 3.237445126924016758e-01 9.037038938289886081e-02 4.574419318338872054e-01 3.577559472139540953e-01 2.770450911058867649e-01 2.764079677533418655e-01 -7.867957412594830391e-01 3.210653605253647735e-01 2.890607820151859242e-01 3.570672942566058272e-01 -2.836682610727982168e-02 3.077852196102243143e-01 7.804358048228894340e-01 -4.534789312197411992e-01 1.074349483594275512e+00 5.959194128765270548e-01 3.625782825724450098e-01 3.203375181873445166e-01 -2.002345035233827009e+00 2.902701210704531354e-01 1.765430455145629574e-01 2.172999016218006840e-01 5.618676706975568313e-01 3.167050970941968635e-01 2.627959353287413480e-01 1.485131215484019884e-01 3.144860848759831740e-01 4.340553818202498859e-01 4.280881340102478116e-01 4.048139311766718595e-01 3.090019575617650727e-01 3.186502261835077454e-01 3.062075025676009865e-01 2.934280857545638610e-01 -7.977055905053804727e-03 3.152222723882971978e-01 5.658307500095781650e-01 2.425245054237395448e-01 2.748547062630667392e-01 -1.112210129095173861e-01 1.102152930458055596e-01 4.396713734204588109e-01 4.266232682506244878e+00 2.444775919341597159e-01 1.621722963493030800e-01 4.939227402643629472e-01 2.366369732564655437e-01 1.517319150315158849e+00 2.826147631968724538e-01 6.681840343920892877e-01 3.177301978610033717e-01
