# 
#                 ----------------------------------------------------
#                 Data from a 3D direct N-body simulation. 
# 
#                 rows are i-particle; 
#                 coumns are :mass, tag, x ,y, z, vx, vy, vz, ax, ay, az
# 
#                 NTHU, Computational Physics 
# 
#                 ----------------------------------------------------
#                 Time = 0.0
0.000000000000000000e+00 1.000000000000000000e+00 2.000000000000000000e+00 3.000000000000000000e+00 4.000000000000000000e+00 5.000000000000000000e+00 6.000000000000000000e+00 7.000000000000000000e+00 8.000000000000000000e+00 9.000000000000000000e+00 1.000000000000000000e+01 1.100000000000000000e+01 1.200000000000000000e+01 1.300000000000000000e+01 1.400000000000000000e+01 1.500000000000000000e+01 1.600000000000000000e+01 1.700000000000000000e+01 1.800000000000000000e+01 1.900000000000000000e+01 2.000000000000000000e+01 2.100000000000000000e+01 2.200000000000000000e+01 2.300000000000000000e+01 2.400000000000000000e+01 2.500000000000000000e+01 2.600000000000000000e+01 2.700000000000000000e+01 2.800000000000000000e+01 2.900000000000000000e+01 3.000000000000000000e+01 3.100000000000000000e+01 3.200000000000000000e+01 3.300000000000000000e+01 3.400000000000000000e+01 3.500000000000000000e+01 3.600000000000000000e+01 3.700000000000000000e+01 3.800000000000000000e+01 3.900000000000000000e+01 4.000000000000000000e+01 4.100000000000000000e+01 4.200000000000000000e+01 4.300000000000000000e+01 4.400000000000000000e+01 4.500000000000000000e+01 4.600000000000000000e+01 4.700000000000000000e+01 4.800000000000000000e+01 4.900000000000000000e+01 5.000000000000000000e+01 5.100000000000000000e+01 5.200000000000000000e+01 5.300000000000000000e+01 5.400000000000000000e+01 5.500000000000000000e+01 5.600000000000000000e+01 5.700000000000000000e+01 5.800000000000000000e+01 5.900000000000000000e+01 6.000000000000000000e+01 6.100000000000000000e+01 6.200000000000000000e+01 6.300000000000000000e+01 6.400000000000000000e+01 6.500000000000000000e+01 6.600000000000000000e+01 6.700000000000000000e+01 6.800000000000000000e+01 6.900000000000000000e+01 7.000000000000000000e+01 7.100000000000000000e+01 7.200000000000000000e+01 7.300000000000000000e+01 7.400000000000000000e+01 7.500000000000000000e+01 7.600000000000000000e+01 7.700000000000000000e+01 7.800000000000000000e+01 7.900000000000000000e+01 8.000000000000000000e+01 8.100000000000000000e+01 8.200000000000000000e+01 8.300000000000000000e+01 8.400000000000000000e+01 8.500000000000000000e+01 8.600000000000000000e+01 8.700000000000000000e+01 8.800000000000000000e+01 8.900000000000000000e+01 9.000000000000000000e+01 9.100000000000000000e+01 9.200000000000000000e+01 9.300000000000000000e+01 9.400000000000000000e+01 9.500000000000000000e+01 9.600000000000000000e+01 9.700000000000000000e+01 9.800000000000000000e+01 9.900000000000000000e+01 1.000000000000000000e+02 1.010000000000000000e+02 1.020000000000000000e+02 1.030000000000000000e+02 1.040000000000000000e+02 1.050000000000000000e+02 1.060000000000000000e+02 1.070000000000000000e+02 1.080000000000000000e+02 1.090000000000000000e+02 1.100000000000000000e+02 1.110000000000000000e+02 1.120000000000000000e+02 1.130000000000000000e+02 1.140000000000000000e+02 1.150000000000000000e+02 1.160000000000000000e+02 1.170000000000000000e+02 1.180000000000000000e+02 1.190000000000000000e+02 1.200000000000000000e+02 1.210000000000000000e+02 1.220000000000000000e+02 1.230000000000000000e+02 1.240000000000000000e+02 1.250000000000000000e+02 1.260000000000000000e+02 1.270000000000000000e+02 1.280000000000000000e+02 1.290000000000000000e+02 1.300000000000000000e+02 1.310000000000000000e+02 1.320000000000000000e+02 1.330000000000000000e+02 1.340000000000000000e+02 1.350000000000000000e+02 1.360000000000000000e+02 1.370000000000000000e+02 1.380000000000000000e+02 1.390000000000000000e+02 1.400000000000000000e+02 1.410000000000000000e+02 1.420000000000000000e+02 1.430000000000000000e+02 1.440000000000000000e+02 1.450000000000000000e+02 1.460000000000000000e+02 1.470000000000000000e+02 1.480000000000000000e+02 1.490000000000000000e+02 1.500000000000000000e+02 1.510000000000000000e+02 1.520000000000000000e+02 1.530000000000000000e+02 1.540000000000000000e+02 1.550000000000000000e+02 1.560000000000000000e+02 1.570000000000000000e+02 1.580000000000000000e+02 1.590000000000000000e+02 1.600000000000000000e+02 1.610000000000000000e+02 1.620000000000000000e+02 1.630000000000000000e+02 1.640000000000000000e+02 1.650000000000000000e+02 1.660000000000000000e+02 1.670000000000000000e+02 1.680000000000000000e+02 1.690000000000000000e+02 1.700000000000000000e+02 1.710000000000000000e+02 1.720000000000000000e+02 1.730000000000000000e+02 1.740000000000000000e+02 1.750000000000000000e+02 1.760000000000000000e+02 1.770000000000000000e+02 1.780000000000000000e+02 1.790000000000000000e+02 1.800000000000000000e+02 1.810000000000000000e+02 1.820000000000000000e+02 1.830000000000000000e+02 1.840000000000000000e+02 1.850000000000000000e+02 1.860000000000000000e+02 1.870000000000000000e+02 1.880000000000000000e+02 1.890000000000000000e+02 1.900000000000000000e+02 1.910000000000000000e+02 1.920000000000000000e+02 1.930000000000000000e+02 1.940000000000000000e+02 1.950000000000000000e+02 1.960000000000000000e+02 1.970000000000000000e+02 1.980000000000000000e+02 1.990000000000000000e+02 2.000000000000000000e+02 2.010000000000000000e+02 2.020000000000000000e+02 2.030000000000000000e+02 2.040000000000000000e+02 2.050000000000000000e+02 2.060000000000000000e+02 2.070000000000000000e+02 2.080000000000000000e+02 2.090000000000000000e+02 2.100000000000000000e+02 2.110000000000000000e+02 2.120000000000000000e+02 2.130000000000000000e+02 2.140000000000000000e+02 2.150000000000000000e+02 2.160000000000000000e+02 2.170000000000000000e+02 2.180000000000000000e+02 2.190000000000000000e+02 2.200000000000000000e+02 2.210000000000000000e+02 2.220000000000000000e+02 2.230000000000000000e+02 2.240000000000000000e+02 2.250000000000000000e+02 2.260000000000000000e+02 2.270000000000000000e+02 2.280000000000000000e+02 2.290000000000000000e+02 2.300000000000000000e+02 2.310000000000000000e+02 2.320000000000000000e+02 2.330000000000000000e+02 2.340000000000000000e+02 2.350000000000000000e+02 2.360000000000000000e+02 2.370000000000000000e+02 2.380000000000000000e+02 2.390000000000000000e+02 2.400000000000000000e+02 2.410000000000000000e+02 2.420000000000000000e+02 2.430000000000000000e+02 2.440000000000000000e+02 2.450000000000000000e+02 2.460000000000000000e+02 2.470000000000000000e+02 2.480000000000000000e+02 2.490000000000000000e+02 2.500000000000000000e+02 2.510000000000000000e+02 2.520000000000000000e+02 2.530000000000000000e+02 2.540000000000000000e+02 2.550000000000000000e+02 2.560000000000000000e+02 2.570000000000000000e+02 2.580000000000000000e+02 2.590000000000000000e+02 2.600000000000000000e+02 2.610000000000000000e+02 2.620000000000000000e+02 2.630000000000000000e+02 2.640000000000000000e+02 2.650000000000000000e+02 2.660000000000000000e+02 2.670000000000000000e+02 2.680000000000000000e+02 2.690000000000000000e+02 2.700000000000000000e+02 2.710000000000000000e+02 2.720000000000000000e+02 2.730000000000000000e+02 2.740000000000000000e+02 2.750000000000000000e+02 2.760000000000000000e+02 2.770000000000000000e+02 2.780000000000000000e+02 2.790000000000000000e+02 2.800000000000000000e+02 2.810000000000000000e+02 2.820000000000000000e+02 2.830000000000000000e+02 2.840000000000000000e+02 2.850000000000000000e+02 2.860000000000000000e+02 2.870000000000000000e+02 2.880000000000000000e+02 2.890000000000000000e+02 2.900000000000000000e+02 2.910000000000000000e+02 2.920000000000000000e+02 2.930000000000000000e+02 2.940000000000000000e+02 2.950000000000000000e+02 2.960000000000000000e+02 2.970000000000000000e+02 2.980000000000000000e+02 2.990000000000000000e+02 3.000000000000000000e+02 3.010000000000000000e+02 3.020000000000000000e+02 3.030000000000000000e+02 3.040000000000000000e+02 3.050000000000000000e+02 3.060000000000000000e+02 3.070000000000000000e+02 3.080000000000000000e+02 3.090000000000000000e+02 3.100000000000000000e+02 3.110000000000000000e+02 3.120000000000000000e+02 3.130000000000000000e+02 3.140000000000000000e+02 3.150000000000000000e+02 3.160000000000000000e+02 3.170000000000000000e+02 3.180000000000000000e+02 3.190000000000000000e+02 3.200000000000000000e+02 3.210000000000000000e+02 3.220000000000000000e+02 3.230000000000000000e+02 3.240000000000000000e+02 3.250000000000000000e+02 3.260000000000000000e+02 3.270000000000000000e+02 3.280000000000000000e+02 3.290000000000000000e+02 3.300000000000000000e+02 3.310000000000000000e+02 3.320000000000000000e+02 3.330000000000000000e+02 3.340000000000000000e+02 3.350000000000000000e+02 3.360000000000000000e+02 3.370000000000000000e+02 3.380000000000000000e+02 3.390000000000000000e+02 3.400000000000000000e+02 3.410000000000000000e+02 3.420000000000000000e+02 3.430000000000000000e+02 3.440000000000000000e+02 3.450000000000000000e+02 3.460000000000000000e+02 3.470000000000000000e+02 3.480000000000000000e+02 3.490000000000000000e+02 3.500000000000000000e+02 3.510000000000000000e+02 3.520000000000000000e+02 3.530000000000000000e+02 3.540000000000000000e+02 3.550000000000000000e+02 3.560000000000000000e+02 3.570000000000000000e+02 3.580000000000000000e+02 3.590000000000000000e+02 3.600000000000000000e+02 3.610000000000000000e+02 3.620000000000000000e+02 3.630000000000000000e+02 3.640000000000000000e+02 3.650000000000000000e+02 3.660000000000000000e+02 3.670000000000000000e+02 3.680000000000000000e+02 3.690000000000000000e+02 3.700000000000000000e+02 3.710000000000000000e+02 3.720000000000000000e+02 3.730000000000000000e+02 3.740000000000000000e+02 3.750000000000000000e+02 3.760000000000000000e+02 3.770000000000000000e+02 3.780000000000000000e+02 3.790000000000000000e+02 3.800000000000000000e+02 3.810000000000000000e+02 3.820000000000000000e+02 3.830000000000000000e+02 3.840000000000000000e+02 3.850000000000000000e+02 3.860000000000000000e+02 3.870000000000000000e+02 3.880000000000000000e+02 3.890000000000000000e+02 3.900000000000000000e+02 3.910000000000000000e+02 3.920000000000000000e+02 3.930000000000000000e+02 3.940000000000000000e+02 3.950000000000000000e+02 3.960000000000000000e+02 3.970000000000000000e+02 3.980000000000000000e+02 3.990000000000000000e+02 4.000000000000000000e+02 4.010000000000000000e+02 4.020000000000000000e+02 4.030000000000000000e+02 4.040000000000000000e+02 4.050000000000000000e+02 4.060000000000000000e+02 4.070000000000000000e+02 4.080000000000000000e+02 4.090000000000000000e+02 4.100000000000000000e+02 4.110000000000000000e+02 4.120000000000000000e+02 4.130000000000000000e+02 4.140000000000000000e+02 4.150000000000000000e+02 4.160000000000000000e+02 4.170000000000000000e+02 4.180000000000000000e+02 4.190000000000000000e+02 4.200000000000000000e+02 4.210000000000000000e+02 4.220000000000000000e+02 4.230000000000000000e+02 4.240000000000000000e+02 4.250000000000000000e+02 4.260000000000000000e+02 4.270000000000000000e+02 4.280000000000000000e+02 4.290000000000000000e+02 4.300000000000000000e+02 4.310000000000000000e+02 4.320000000000000000e+02 4.330000000000000000e+02 4.340000000000000000e+02 4.350000000000000000e+02 4.360000000000000000e+02 4.370000000000000000e+02 4.380000000000000000e+02 4.390000000000000000e+02 4.400000000000000000e+02 4.410000000000000000e+02 4.420000000000000000e+02 4.430000000000000000e+02 4.440000000000000000e+02 4.450000000000000000e+02 4.460000000000000000e+02 4.470000000000000000e+02 4.480000000000000000e+02 4.490000000000000000e+02 4.500000000000000000e+02 4.510000000000000000e+02 4.520000000000000000e+02 4.530000000000000000e+02 4.540000000000000000e+02 4.550000000000000000e+02 4.560000000000000000e+02 4.570000000000000000e+02 4.580000000000000000e+02 4.590000000000000000e+02 4.600000000000000000e+02 4.610000000000000000e+02 4.620000000000000000e+02 4.630000000000000000e+02 4.640000000000000000e+02 4.650000000000000000e+02 4.660000000000000000e+02 4.670000000000000000e+02 4.680000000000000000e+02 4.690000000000000000e+02 4.700000000000000000e+02 4.710000000000000000e+02 4.720000000000000000e+02 4.730000000000000000e+02 4.740000000000000000e+02 4.750000000000000000e+02 4.760000000000000000e+02 4.770000000000000000e+02 4.780000000000000000e+02 4.790000000000000000e+02 4.800000000000000000e+02 4.810000000000000000e+02 4.820000000000000000e+02 4.830000000000000000e+02 4.840000000000000000e+02 4.850000000000000000e+02 4.860000000000000000e+02 4.870000000000000000e+02 4.880000000000000000e+02 4.890000000000000000e+02 4.900000000000000000e+02 4.910000000000000000e+02 4.920000000000000000e+02 4.930000000000000000e+02 4.940000000000000000e+02 4.950000000000000000e+02 4.960000000000000000e+02 4.970000000000000000e+02 4.980000000000000000e+02 4.990000000000000000e+02 5.000000000000000000e+02 5.010000000000000000e+02 5.020000000000000000e+02 5.030000000000000000e+02 5.040000000000000000e+02 5.050000000000000000e+02 5.060000000000000000e+02 5.070000000000000000e+02 5.080000000000000000e+02 5.090000000000000000e+02 5.100000000000000000e+02 5.110000000000000000e+02 5.120000000000000000e+02 5.130000000000000000e+02 5.140000000000000000e+02 5.150000000000000000e+02 5.160000000000000000e+02 5.170000000000000000e+02 5.180000000000000000e+02 5.190000000000000000e+02 5.200000000000000000e+02 5.210000000000000000e+02 5.220000000000000000e+02 5.230000000000000000e+02 5.240000000000000000e+02 5.250000000000000000e+02 5.260000000000000000e+02 5.270000000000000000e+02 5.280000000000000000e+02 5.290000000000000000e+02 5.300000000000000000e+02 5.310000000000000000e+02 5.320000000000000000e+02 5.330000000000000000e+02 5.340000000000000000e+02 5.350000000000000000e+02 5.360000000000000000e+02 5.370000000000000000e+02 5.380000000000000000e+02 5.390000000000000000e+02 5.400000000000000000e+02 5.410000000000000000e+02 5.420000000000000000e+02 5.430000000000000000e+02 5.440000000000000000e+02 5.450000000000000000e+02 5.460000000000000000e+02 5.470000000000000000e+02 5.480000000000000000e+02 5.490000000000000000e+02 5.500000000000000000e+02 5.510000000000000000e+02 5.520000000000000000e+02 5.530000000000000000e+02 5.540000000000000000e+02 5.550000000000000000e+02 5.560000000000000000e+02 5.570000000000000000e+02 5.580000000000000000e+02 5.590000000000000000e+02 5.600000000000000000e+02 5.610000000000000000e+02 5.620000000000000000e+02 5.630000000000000000e+02 5.640000000000000000e+02 5.650000000000000000e+02 5.660000000000000000e+02 5.670000000000000000e+02 5.680000000000000000e+02 5.690000000000000000e+02 5.700000000000000000e+02 5.710000000000000000e+02 5.720000000000000000e+02 5.730000000000000000e+02 5.740000000000000000e+02 5.750000000000000000e+02 5.760000000000000000e+02 5.770000000000000000e+02 5.780000000000000000e+02 5.790000000000000000e+02 5.800000000000000000e+02 5.810000000000000000e+02 5.820000000000000000e+02 5.830000000000000000e+02 5.840000000000000000e+02 5.850000000000000000e+02 5.860000000000000000e+02 5.870000000000000000e+02 5.880000000000000000e+02 5.890000000000000000e+02 5.900000000000000000e+02 5.910000000000000000e+02 5.920000000000000000e+02 5.930000000000000000e+02 5.940000000000000000e+02 5.950000000000000000e+02 5.960000000000000000e+02 5.970000000000000000e+02 5.980000000000000000e+02 5.990000000000000000e+02 6.000000000000000000e+02 6.010000000000000000e+02 6.020000000000000000e+02 6.030000000000000000e+02 6.040000000000000000e+02 6.050000000000000000e+02 6.060000000000000000e+02 6.070000000000000000e+02 6.080000000000000000e+02 6.090000000000000000e+02 6.100000000000000000e+02 6.110000000000000000e+02 6.120000000000000000e+02 6.130000000000000000e+02 6.140000000000000000e+02 6.150000000000000000e+02 6.160000000000000000e+02 6.170000000000000000e+02 6.180000000000000000e+02 6.190000000000000000e+02 6.200000000000000000e+02 6.210000000000000000e+02 6.220000000000000000e+02 6.230000000000000000e+02 6.240000000000000000e+02 6.250000000000000000e+02 6.260000000000000000e+02 6.270000000000000000e+02 6.280000000000000000e+02 6.290000000000000000e+02 6.300000000000000000e+02 6.310000000000000000e+02 6.320000000000000000e+02 6.330000000000000000e+02 6.340000000000000000e+02 6.350000000000000000e+02 6.360000000000000000e+02 6.370000000000000000e+02 6.380000000000000000e+02 6.390000000000000000e+02 6.400000000000000000e+02 6.410000000000000000e+02 6.420000000000000000e+02 6.430000000000000000e+02 6.440000000000000000e+02 6.450000000000000000e+02 6.460000000000000000e+02 6.470000000000000000e+02 6.480000000000000000e+02 6.490000000000000000e+02 6.500000000000000000e+02 6.510000000000000000e+02 6.520000000000000000e+02 6.530000000000000000e+02 6.540000000000000000e+02 6.550000000000000000e+02 6.560000000000000000e+02 6.570000000000000000e+02 6.580000000000000000e+02 6.590000000000000000e+02 6.600000000000000000e+02 6.610000000000000000e+02 6.620000000000000000e+02 6.630000000000000000e+02 6.640000000000000000e+02 6.650000000000000000e+02 6.660000000000000000e+02 6.670000000000000000e+02 6.680000000000000000e+02 6.690000000000000000e+02 6.700000000000000000e+02 6.710000000000000000e+02 6.720000000000000000e+02 6.730000000000000000e+02 6.740000000000000000e+02 6.750000000000000000e+02 6.760000000000000000e+02 6.770000000000000000e+02 6.780000000000000000e+02 6.790000000000000000e+02 6.800000000000000000e+02 6.810000000000000000e+02 6.820000000000000000e+02 6.830000000000000000e+02 6.840000000000000000e+02 6.850000000000000000e+02 6.860000000000000000e+02 6.870000000000000000e+02 6.880000000000000000e+02 6.890000000000000000e+02 6.900000000000000000e+02 6.910000000000000000e+02 6.920000000000000000e+02 6.930000000000000000e+02 6.940000000000000000e+02 6.950000000000000000e+02 6.960000000000000000e+02 6.970000000000000000e+02 6.980000000000000000e+02 6.990000000000000000e+02 7.000000000000000000e+02 7.010000000000000000e+02 7.020000000000000000e+02 7.030000000000000000e+02 7.040000000000000000e+02 7.050000000000000000e+02 7.060000000000000000e+02 7.070000000000000000e+02 7.080000000000000000e+02 7.090000000000000000e+02 7.100000000000000000e+02 7.110000000000000000e+02 7.120000000000000000e+02 7.130000000000000000e+02 7.140000000000000000e+02 7.150000000000000000e+02 7.160000000000000000e+02 7.170000000000000000e+02 7.180000000000000000e+02 7.190000000000000000e+02 7.200000000000000000e+02 7.210000000000000000e+02 7.220000000000000000e+02 7.230000000000000000e+02 7.240000000000000000e+02 7.250000000000000000e+02 7.260000000000000000e+02 7.270000000000000000e+02 7.280000000000000000e+02 7.290000000000000000e+02 7.300000000000000000e+02 7.310000000000000000e+02 7.320000000000000000e+02 7.330000000000000000e+02 7.340000000000000000e+02 7.350000000000000000e+02 7.360000000000000000e+02 7.370000000000000000e+02 7.380000000000000000e+02 7.390000000000000000e+02 7.400000000000000000e+02 7.410000000000000000e+02 7.420000000000000000e+02 7.430000000000000000e+02 7.440000000000000000e+02 7.450000000000000000e+02 7.460000000000000000e+02 7.470000000000000000e+02 7.480000000000000000e+02 7.490000000000000000e+02 7.500000000000000000e+02 7.510000000000000000e+02 7.520000000000000000e+02 7.530000000000000000e+02 7.540000000000000000e+02 7.550000000000000000e+02 7.560000000000000000e+02 7.570000000000000000e+02 7.580000000000000000e+02 7.590000000000000000e+02 7.600000000000000000e+02 7.610000000000000000e+02 7.620000000000000000e+02 7.630000000000000000e+02 7.640000000000000000e+02 7.650000000000000000e+02 7.660000000000000000e+02 7.670000000000000000e+02 7.680000000000000000e+02 7.690000000000000000e+02 7.700000000000000000e+02 7.710000000000000000e+02 7.720000000000000000e+02 7.730000000000000000e+02 7.740000000000000000e+02 7.750000000000000000e+02 7.760000000000000000e+02 7.770000000000000000e+02 7.780000000000000000e+02 7.790000000000000000e+02 7.800000000000000000e+02 7.810000000000000000e+02 7.820000000000000000e+02 7.830000000000000000e+02 7.840000000000000000e+02 7.850000000000000000e+02 7.860000000000000000e+02 7.870000000000000000e+02 7.880000000000000000e+02 7.890000000000000000e+02 7.900000000000000000e+02 7.910000000000000000e+02 7.920000000000000000e+02 7.930000000000000000e+02 7.940000000000000000e+02 7.950000000000000000e+02 7.960000000000000000e+02 7.970000000000000000e+02 7.980000000000000000e+02 7.990000000000000000e+02 8.000000000000000000e+02 8.010000000000000000e+02 8.020000000000000000e+02 8.030000000000000000e+02 8.040000000000000000e+02 8.050000000000000000e+02 8.060000000000000000e+02 8.070000000000000000e+02 8.080000000000000000e+02 8.090000000000000000e+02 8.100000000000000000e+02 8.110000000000000000e+02 8.120000000000000000e+02 8.130000000000000000e+02 8.140000000000000000e+02 8.150000000000000000e+02 8.160000000000000000e+02 8.170000000000000000e+02 8.180000000000000000e+02 8.190000000000000000e+02 8.200000000000000000e+02 8.210000000000000000e+02 8.220000000000000000e+02 8.230000000000000000e+02 8.240000000000000000e+02 8.250000000000000000e+02 8.260000000000000000e+02 8.270000000000000000e+02 8.280000000000000000e+02 8.290000000000000000e+02 8.300000000000000000e+02 8.310000000000000000e+02 8.320000000000000000e+02 8.330000000000000000e+02 8.340000000000000000e+02 8.350000000000000000e+02 8.360000000000000000e+02 8.370000000000000000e+02 8.380000000000000000e+02 8.390000000000000000e+02 8.400000000000000000e+02 8.410000000000000000e+02 8.420000000000000000e+02 8.430000000000000000e+02 8.440000000000000000e+02 8.450000000000000000e+02 8.460000000000000000e+02 8.470000000000000000e+02 8.480000000000000000e+02 8.490000000000000000e+02 8.500000000000000000e+02 8.510000000000000000e+02 8.520000000000000000e+02 8.530000000000000000e+02 8.540000000000000000e+02 8.550000000000000000e+02 8.560000000000000000e+02 8.570000000000000000e+02 8.580000000000000000e+02 8.590000000000000000e+02 8.600000000000000000e+02 8.610000000000000000e+02 8.620000000000000000e+02 8.630000000000000000e+02 8.640000000000000000e+02 8.650000000000000000e+02 8.660000000000000000e+02 8.670000000000000000e+02 8.680000000000000000e+02 8.690000000000000000e+02 8.700000000000000000e+02 8.710000000000000000e+02 8.720000000000000000e+02 8.730000000000000000e+02 8.740000000000000000e+02 8.750000000000000000e+02 8.760000000000000000e+02 8.770000000000000000e+02 8.780000000000000000e+02 8.790000000000000000e+02 8.800000000000000000e+02 8.810000000000000000e+02 8.820000000000000000e+02 8.830000000000000000e+02 8.840000000000000000e+02 8.850000000000000000e+02 8.860000000000000000e+02 8.870000000000000000e+02 8.880000000000000000e+02 8.890000000000000000e+02 8.900000000000000000e+02 8.910000000000000000e+02 8.920000000000000000e+02 8.930000000000000000e+02 8.940000000000000000e+02 8.950000000000000000e+02 8.960000000000000000e+02 8.970000000000000000e+02 8.980000000000000000e+02 8.990000000000000000e+02 9.000000000000000000e+02 9.010000000000000000e+02 9.020000000000000000e+02 9.030000000000000000e+02 9.040000000000000000e+02 9.050000000000000000e+02 9.060000000000000000e+02 9.070000000000000000e+02 9.080000000000000000e+02 9.090000000000000000e+02 9.100000000000000000e+02 9.110000000000000000e+02 9.120000000000000000e+02 9.130000000000000000e+02 9.140000000000000000e+02 9.150000000000000000e+02 9.160000000000000000e+02 9.170000000000000000e+02 9.180000000000000000e+02 9.190000000000000000e+02 9.200000000000000000e+02 9.210000000000000000e+02 9.220000000000000000e+02 9.230000000000000000e+02 9.240000000000000000e+02 9.250000000000000000e+02 9.260000000000000000e+02 9.270000000000000000e+02 9.280000000000000000e+02 9.290000000000000000e+02 9.300000000000000000e+02 9.310000000000000000e+02 9.320000000000000000e+02 9.330000000000000000e+02 9.340000000000000000e+02 9.350000000000000000e+02 9.360000000000000000e+02 9.370000000000000000e+02 9.380000000000000000e+02 9.390000000000000000e+02 9.400000000000000000e+02 9.410000000000000000e+02 9.420000000000000000e+02 9.430000000000000000e+02 9.440000000000000000e+02 9.450000000000000000e+02 9.460000000000000000e+02 9.470000000000000000e+02 9.480000000000000000e+02 9.490000000000000000e+02 9.500000000000000000e+02 9.510000000000000000e+02 9.520000000000000000e+02 9.530000000000000000e+02 9.540000000000000000e+02 9.550000000000000000e+02 9.560000000000000000e+02 9.570000000000000000e+02 9.580000000000000000e+02 9.590000000000000000e+02 9.600000000000000000e+02 9.610000000000000000e+02 9.620000000000000000e+02 9.630000000000000000e+02 9.640000000000000000e+02 9.650000000000000000e+02 9.660000000000000000e+02 9.670000000000000000e+02 9.680000000000000000e+02 9.690000000000000000e+02 9.700000000000000000e+02 9.710000000000000000e+02 9.720000000000000000e+02 9.730000000000000000e+02 9.740000000000000000e+02 9.750000000000000000e+02 9.760000000000000000e+02 9.770000000000000000e+02 9.780000000000000000e+02 9.790000000000000000e+02 9.800000000000000000e+02 9.810000000000000000e+02 9.820000000000000000e+02 9.830000000000000000e+02 9.840000000000000000e+02 9.850000000000000000e+02 9.860000000000000000e+02 9.870000000000000000e+02 9.880000000000000000e+02 9.890000000000000000e+02 9.900000000000000000e+02 9.910000000000000000e+02 9.920000000000000000e+02 9.930000000000000000e+02 9.940000000000000000e+02 9.950000000000000000e+02 9.960000000000000000e+02 9.970000000000000000e+02 9.980000000000000000e+02 9.990000000000000000e+02
1.000000000000000000e+00 1.000000000000000000e+00 1.000000000000000000e+00 1.000000000000000000e+00 1.000000000000000000e+00 1.000000000000000000e+00 1.000000000000000000e+00 1.000000000000000000e+00 1.000000000000000000e+00 1.000000000000000000e+00 1.000000000000000000e+00 1.000000000000000000e+00 1.000000000000000000e+00 1.000000000000000000e+00 1.000000000000000000e+00 1.000000000000000000e+00 1.000000000000000000e+00 1.000000000000000000e+00 1.000000000000000000e+00 1.000000000000000000e+00 1.000000000000000000e+00 1.000000000000000000e+00 1.000000000000000000e+00 1.000000000000000000e+00 1.000000000000000000e+00 1.000000000000000000e+00 1.000000000000000000e+00 1.000000000000000000e+00 1.000000000000000000e+00 1.000000000000000000e+00 1.000000000000000000e+00 1.000000000000000000e+00 1.000000000000000000e+00 1.000000000000000000e+00 1.000000000000000000e+00 1.000000000000000000e+00 1.000000000000000000e+00 1.000000000000000000e+00 1.000000000000000000e+00 1.000000000000000000e+00 1.000000000000000000e+00 1.000000000000000000e+00 1.000000000000000000e+00 1.000000000000000000e+00 1.000000000000000000e+00 1.000000000000000000e+00 1.000000000000000000e+00 1.000000000000000000e+00 1.000000000000000000e+00 1.000000000000000000e+00 1.000000000000000000e+00 1.000000000000000000e+00 1.000000000000000000e+00 1.000000000000000000e+00 1.000000000000000000e+00 1.000000000000000000e+00 1.000000000000000000e+00 1.000000000000000000e+00 1.000000000000000000e+00 1.000000000000000000e+00 1.000000000000000000e+00 1.000000000000000000e+00 1.000000000000000000e+00 1.000000000000000000e+00 1.000000000000000000e+00 1.000000000000000000e+00 1.000000000000000000e+00 1.000000000000000000e+00 1.000000000000000000e+00 1.000000000000000000e+00 1.000000000000000000e+00 1.000000000000000000e+00 1.000000000000000000e+00 1.000000000000000000e+00 1.000000000000000000e+00 1.000000000000000000e+00 1.000000000000000000e+00 1.000000000000000000e+00 1.000000000000000000e+00 1.000000000000000000e+00 1.000000000000000000e+00 1.000000000000000000e+00 1.000000000000000000e+00 1.000000000000000000e+00 1.000000000000000000e+00 1.000000000000000000e+00 1.000000000000000000e+00 1.000000000000000000e+00 1.000000000000000000e+00 1.000000000000000000e+00 1.000000000000000000e+00 1.000000000000000000e+00 1.000000000000000000e+00 1.000000000000000000e+00 1.000000000000000000e+00 1.000000000000000000e+00 1.000000000000000000e+00 1.000000000000000000e+00 1.000000000000000000e+00 1.000000000000000000e+00 1.000000000000000000e+00 1.000000000000000000e+00 1.000000000000000000e+00 1.000000000000000000e+00 1.000000000000000000e+00 1.000000000000000000e+00 1.000000000000000000e+00 1.000000000000000000e+00 1.000000000000000000e+00 1.000000000000000000e+00 1.000000000000000000e+00 1.000000000000000000e+00 1.000000000000000000e+00 1.000000000000000000e+00 1.000000000000000000e+00 1.000000000000000000e+00 1.000000000000000000e+00 1.000000000000000000e+00 1.000000000000000000e+00 1.000000000000000000e+00 1.000000000000000000e+00 1.000000000000000000e+00 1.000000000000000000e+00 1.000000000000000000e+00 1.000000000000000000e+00 1.000000000000000000e+00 1.000000000000000000e+00 1.000000000000000000e+00 1.000000000000000000e+00 1.000000000000000000e+00 1.000000000000000000e+00 1.000000000000000000e+00 1.000000000000000000e+00 1.000000000000000000e+00 1.000000000000000000e+00 1.000000000000000000e+00 1.000000000000000000e+00 1.000000000000000000e+00 1.000000000000000000e+00 1.000000000000000000e+00 1.000000000000000000e+00 1.000000000000000000e+00 1.000000000000000000e+00 1.000000000000000000e+00 1.000000000000000000e+00 1.000000000000000000e+00 1.000000000000000000e+00 1.000000000000000000e+00 1.000000000000000000e+00 1.000000000000000000e+00 1.000000000000000000e+00 1.000000000000000000e+00 1.000000000000000000e+00 1.000000000000000000e+00 1.000000000000000000e+00 1.000000000000000000e+00 1.000000000000000000e+00 1.000000000000000000e+00 1.000000000000000000e+00 1.000000000000000000e+00 1.000000000000000000e+00 1.000000000000000000e+00 1.000000000000000000e+00 1.000000000000000000e+00 1.000000000000000000e+00 1.000000000000000000e+00 1.000000000000000000e+00 1.000000000000000000e+00 1.000000000000000000e+00 1.000000000000000000e+00 1.000000000000000000e+00 1.000000000000000000e+00 1.000000000000000000e+00 1.000000000000000000e+00 1.000000000000000000e+00 1.000000000000000000e+00 1.000000000000000000e+00 1.000000000000000000e+00 1.000000000000000000e+00 1.000000000000000000e+00 1.000000000000000000e+00 1.000000000000000000e+00 1.000000000000000000e+00 1.000000000000000000e+00 1.000000000000000000e+00 1.000000000000000000e+00 1.000000000000000000e+00 1.000000000000000000e+00 1.000000000000000000e+00 1.000000000000000000e+00 1.000000000000000000e+00 1.000000000000000000e+00 1.000000000000000000e+00 1.000000000000000000e+00 1.000000000000000000e+00 1.000000000000000000e+00 1.000000000000000000e+00 1.000000000000000000e+00 1.000000000000000000e+00 1.000000000000000000e+00 1.000000000000000000e+00 1.000000000000000000e+00 1.000000000000000000e+00 1.000000000000000000e+00 1.000000000000000000e+00 1.000000000000000000e+00 1.000000000000000000e+00 1.000000000000000000e+00 1.000000000000000000e+00 1.000000000000000000e+00 1.000000000000000000e+00 1.000000000000000000e+00 1.000000000000000000e+00 1.000000000000000000e+00 1.000000000000000000e+00 1.000000000000000000e+00 1.000000000000000000e+00 1.000000000000000000e+00 1.000000000000000000e+00 1.000000000000000000e+00 1.000000000000000000e+00 1.000000000000000000e+00 1.000000000000000000e+00 1.000000000000000000e+00 1.000000000000000000e+00 1.000000000000000000e+00 1.000000000000000000e+00 1.000000000000000000e+00 1.000000000000000000e+00 1.000000000000000000e+00 1.000000000000000000e+00 1.000000000000000000e+00 1.000000000000000000e+00 1.000000000000000000e+00 1.000000000000000000e+00 1.000000000000000000e+00 1.000000000000000000e+00 1.000000000000000000e+00 1.000000000000000000e+00 1.000000000000000000e+00 1.000000000000000000e+00 1.000000000000000000e+00 1.000000000000000000e+00 1.000000000000000000e+00 1.000000000000000000e+00 1.000000000000000000e+00 1.000000000000000000e+00 1.000000000000000000e+00 1.000000000000000000e+00 1.000000000000000000e+00 1.000000000000000000e+00 1.000000000000000000e+00 1.000000000000000000e+00 1.000000000000000000e+00 1.000000000000000000e+00 1.000000000000000000e+00 1.000000000000000000e+00 1.000000000000000000e+00 1.000000000000000000e+00 1.000000000000000000e+00 1.000000000000000000e+00 1.000000000000000000e+00 1.000000000000000000e+00 1.000000000000000000e+00 1.000000000000000000e+00 1.000000000000000000e+00 1.000000000000000000e+00 1.000000000000000000e+00 1.000000000000000000e+00 1.000000000000000000e+00 1.000000000000000000e+00 1.000000000000000000e+00 1.000000000000000000e+00 1.000000000000000000e+00 1.000000000000000000e+00 1.000000000000000000e+00 1.000000000000000000e+00 1.000000000000000000e+00 1.000000000000000000e+00 1.000000000000000000e+00 1.000000000000000000e+00 1.000000000000000000e+00 1.000000000000000000e+00 1.000000000000000000e+00 1.000000000000000000e+00 1.000000000000000000e+00 1.000000000000000000e+00 1.000000000000000000e+00 1.000000000000000000e+00 1.000000000000000000e+00 1.000000000000000000e+00 1.000000000000000000e+00 1.000000000000000000e+00 1.000000000000000000e+00 1.000000000000000000e+00 1.000000000000000000e+00 1.000000000000000000e+00 1.000000000000000000e+00 1.000000000000000000e+00 1.000000000000000000e+00 1.000000000000000000e+00 1.000000000000000000e+00 1.000000000000000000e+00 1.000000000000000000e+00 1.000000000000000000e+00 1.000000000000000000e+00 1.000000000000000000e+00 1.000000000000000000e+00 1.000000000000000000e+00 1.000000000000000000e+00 1.000000000000000000e+00 1.000000000000000000e+00 1.000000000000000000e+00 1.000000000000000000e+00 1.000000000000000000e+00 1.000000000000000000e+00 1.000000000000000000e+00 1.000000000000000000e+00 1.000000000000000000e+00 1.000000000000000000e+00 1.000000000000000000e+00 1.000000000000000000e+00 1.000000000000000000e+00 1.000000000000000000e+00 1.000000000000000000e+00 1.000000000000000000e+00 1.000000000000000000e+00 1.000000000000000000e+00 1.000000000000000000e+00 1.000000000000000000e+00 1.000000000000000000e+00 1.000000000000000000e+00 1.000000000000000000e+00 1.000000000000000000e+00 1.000000000000000000e+00 1.000000000000000000e+00 1.000000000000000000e+00 1.000000000000000000e+00 1.000000000000000000e+00 1.000000000000000000e+00 1.000000000000000000e+00 1.000000000000000000e+00 1.000000000000000000e+00 1.000000000000000000e+00 1.000000000000000000e+00 1.000000000000000000e+00 1.000000000000000000e+00 1.000000000000000000e+00 1.000000000000000000e+00 1.000000000000000000e+00 1.000000000000000000e+00 1.000000000000000000e+00 1.000000000000000000e+00 1.000000000000000000e+00 1.000000000000000000e+00 1.000000000000000000e+00 1.000000000000000000e+00 1.000000000000000000e+00 1.000000000000000000e+00 1.000000000000000000e+00 1.000000000000000000e+00 1.000000000000000000e+00 1.000000000000000000e+00 1.000000000000000000e+00 1.000000000000000000e+00 1.000000000000000000e+00 1.000000000000000000e+00 1.000000000000000000e+00 1.000000000000000000e+00 1.000000000000000000e+00 1.000000000000000000e+00 1.000000000000000000e+00 1.000000000000000000e+00 1.000000000000000000e+00 1.000000000000000000e+00 1.000000000000000000e+00 1.000000000000000000e+00 1.000000000000000000e+00 1.000000000000000000e+00 1.000000000000000000e+00 1.000000000000000000e+00 1.000000000000000000e+00 1.000000000000000000e+00 1.000000000000000000e+00 1.000000000000000000e+00 1.000000000000000000e+00 1.000000000000000000e+00 1.000000000000000000e+00 1.000000000000000000e+00 1.000000000000000000e+00 1.000000000000000000e+00 1.000000000000000000e+00 1.000000000000000000e+00 1.000000000000000000e+00 1.000000000000000000e+00 1.000000000000000000e+00 1.000000000000000000e+00 1.000000000000000000e+00 1.000000000000000000e+00 1.000000000000000000e+00 1.000000000000000000e+00 1.000000000000000000e+00 1.000000000000000000e+00 1.000000000000000000e+00 1.000000000000000000e+00 1.000000000000000000e+00 1.000000000000000000e+00 1.000000000000000000e+00 1.000000000000000000e+00 1.000000000000000000e+00 1.000000000000000000e+00 1.000000000000000000e+00 1.000000000000000000e+00 1.000000000000000000e+00 1.000000000000000000e+00 1.000000000000000000e+00 1.000000000000000000e+00 1.000000000000000000e+00 1.000000000000000000e+00 1.000000000000000000e+00 1.000000000000000000e+00 1.000000000000000000e+00 1.000000000000000000e+00 1.000000000000000000e+00 1.000000000000000000e+00 1.000000000000000000e+00 1.000000000000000000e+00 1.000000000000000000e+00 1.000000000000000000e+00 1.000000000000000000e+00 1.000000000000000000e+00 1.000000000000000000e+00 1.000000000000000000e+00 1.000000000000000000e+00 1.000000000000000000e+00 1.000000000000000000e+00 1.000000000000000000e+00 1.000000000000000000e+00 1.000000000000000000e+00 1.000000000000000000e+00 1.000000000000000000e+00 1.000000000000000000e+00 1.000000000000000000e+00 1.000000000000000000e+00 1.000000000000000000e+00 1.000000000000000000e+00 1.000000000000000000e+00 1.000000000000000000e+00 1.000000000000000000e+00 1.000000000000000000e+00 1.000000000000000000e+00 1.000000000000000000e+00 1.000000000000000000e+00 1.000000000000000000e+00 1.000000000000000000e+00 1.000000000000000000e+00 1.000000000000000000e+00 1.000000000000000000e+00 1.000000000000000000e+00 1.000000000000000000e+00 1.000000000000000000e+00 1.000000000000000000e+00 1.000000000000000000e+00 1.000000000000000000e+00 1.000000000000000000e+00 1.000000000000000000e+00 1.000000000000000000e+00 1.000000000000000000e+00 1.000000000000000000e+00 1.000000000000000000e+00 1.000000000000000000e+00 1.000000000000000000e+00 1.000000000000000000e+00 1.000000000000000000e+00 1.000000000000000000e+00 1.000000000000000000e+00 1.000000000000000000e+00 1.000000000000000000e+00 1.000000000000000000e+00 1.000000000000000000e+00 1.000000000000000000e+00 1.000000000000000000e+00 1.000000000000000000e+00 1.000000000000000000e+00 1.000000000000000000e+00 1.000000000000000000e+00 1.000000000000000000e+00 1.000000000000000000e+00 1.000000000000000000e+00 1.000000000000000000e+00 1.000000000000000000e+00 1.000000000000000000e+00 1.000000000000000000e+00 1.000000000000000000e+00 1.000000000000000000e+00 1.000000000000000000e+00 1.000000000000000000e+00 1.000000000000000000e+00 1.000000000000000000e+00 1.000000000000000000e+00 1.000000000000000000e+00 1.000000000000000000e+00 1.000000000000000000e+00 1.000000000000000000e+00 1.000000000000000000e+00 1.000000000000000000e+00 1.000000000000000000e+00 1.000000000000000000e+00 1.000000000000000000e+00 1.000000000000000000e+00 1.000000000000000000e+00 1.000000000000000000e+00 1.000000000000000000e+00 1.000000000000000000e+00 1.000000000000000000e+00 1.000000000000000000e+00 1.000000000000000000e+00 1.000000000000000000e+00 1.000000000000000000e+00 1.000000000000000000e+00 1.000000000000000000e+00 1.000000000000000000e+00 1.000000000000000000e+00 1.000000000000000000e+00 1.000000000000000000e+00 1.000000000000000000e+00 1.000000000000000000e+00 1.000000000000000000e+00 1.000000000000000000e+00 1.000000000000000000e+00 1.000000000000000000e+00 1.000000000000000000e+00 1.000000000000000000e+00 1.000000000000000000e+00 1.000000000000000000e+00 1.000000000000000000e+00 1.000000000000000000e+00 1.000000000000000000e+00 1.000000000000000000e+00 1.000000000000000000e+00 1.000000000000000000e+00 1.000000000000000000e+00 1.000000000000000000e+00 1.000000000000000000e+00 1.000000000000000000e+00 1.000000000000000000e+00 1.000000000000000000e+00 1.000000000000000000e+00 1.000000000000000000e+00 1.000000000000000000e+00 1.000000000000000000e+00 1.000000000000000000e+00 1.000000000000000000e+00 1.000000000000000000e+00 1.000000000000000000e+00 1.000000000000000000e+00 1.000000000000000000e+00 1.000000000000000000e+00 1.000000000000000000e+00 1.000000000000000000e+00 1.000000000000000000e+00 1.000000000000000000e+00 1.000000000000000000e+00 1.000000000000000000e+00 1.000000000000000000e+00 1.000000000000000000e+00 1.000000000000000000e+00 1.000000000000000000e+00 1.000000000000000000e+00 1.000000000000000000e+00 1.000000000000000000e+00 1.000000000000000000e+00 1.000000000000000000e+00 1.000000000000000000e+00 1.000000000000000000e+00 1.000000000000000000e+00 1.000000000000000000e+00 1.000000000000000000e+00 1.000000000000000000e+00 1.000000000000000000e+00 1.000000000000000000e+00 1.000000000000000000e+00 1.000000000000000000e+00 1.000000000000000000e+00 1.000000000000000000e+00 1.000000000000000000e+00 1.000000000000000000e+00 1.000000000000000000e+00 1.000000000000000000e+00 1.000000000000000000e+00 1.000000000000000000e+00 1.000000000000000000e+00 1.000000000000000000e+00 1.000000000000000000e+00 1.000000000000000000e+00 1.000000000000000000e+00 1.000000000000000000e+00 1.000000000000000000e+00 1.000000000000000000e+00 1.000000000000000000e+00 1.000000000000000000e+00 1.000000000000000000e+00 1.000000000000000000e+00 1.000000000000000000e+00 1.000000000000000000e+00 1.000000000000000000e+00 1.000000000000000000e+00 1.000000000000000000e+00 1.000000000000000000e+00 1.000000000000000000e+00 1.000000000000000000e+00 1.000000000000000000e+00 1.000000000000000000e+00 1.000000000000000000e+00 1.000000000000000000e+00 1.000000000000000000e+00 1.000000000000000000e+00 1.000000000000000000e+00 1.000000000000000000e+00 1.000000000000000000e+00 1.000000000000000000e+00 1.000000000000000000e+00 1.000000000000000000e+00 1.000000000000000000e+00 1.000000000000000000e+00 1.000000000000000000e+00 1.000000000000000000e+00 1.000000000000000000e+00 1.000000000000000000e+00 1.000000000000000000e+00 1.000000000000000000e+00 1.000000000000000000e+00 1.000000000000000000e+00 1.000000000000000000e+00 1.000000000000000000e+00 1.000000000000000000e+00 1.000000000000000000e+00 1.000000000000000000e+00 1.000000000000000000e+00 1.000000000000000000e+00 1.000000000000000000e+00 1.000000000000000000e+00 1.000000000000000000e+00 1.000000000000000000e+00 1.000000000000000000e+00 1.000000000000000000e+00 1.000000000000000000e+00 1.000000000000000000e+00 1.000000000000000000e+00 1.000000000000000000e+00 1.000000000000000000e+00 1.000000000000000000e+00 1.000000000000000000e+00 1.000000000000000000e+00 1.000000000000000000e+00 1.000000000000000000e+00 1.000000000000000000e+00 1.000000000000000000e+00 1.000000000000000000e+00 1.000000000000000000e+00 1.000000000000000000e+00 1.000000000000000000e+00 1.000000000000000000e+00 1.000000000000000000e+00 1.000000000000000000e+00 1.000000000000000000e+00 1.000000000000000000e+00 1.000000000000000000e+00 1.000000000000000000e+00 1.000000000000000000e+00 1.000000000000000000e+00 1.000000000000000000e+00 1.000000000000000000e+00 1.000000000000000000e+00 1.000000000000000000e+00 1.000000000000000000e+00 1.000000000000000000e+00 1.000000000000000000e+00 1.000000000000000000e+00 1.000000000000000000e+00 1.000000000000000000e+00 1.000000000000000000e+00 1.000000000000000000e+00 1.000000000000000000e+00 1.000000000000000000e+00 1.000000000000000000e+00 1.000000000000000000e+00 1.000000000000000000e+00 1.000000000000000000e+00 1.000000000000000000e+00 1.000000000000000000e+00 1.000000000000000000e+00 1.000000000000000000e+00 1.000000000000000000e+00 1.000000000000000000e+00 1.000000000000000000e+00 1.000000000000000000e+00 1.000000000000000000e+00 1.000000000000000000e+00 1.000000000000000000e+00 1.000000000000000000e+00 1.000000000000000000e+00 1.000000000000000000e+00 1.000000000000000000e+00 1.000000000000000000e+00 1.000000000000000000e+00 1.000000000000000000e+00 1.000000000000000000e+00 1.000000000000000000e+00 1.000000000000000000e+00 1.000000000000000000e+00 1.000000000000000000e+00 1.000000000000000000e+00 1.000000000000000000e+00 1.000000000000000000e+00 1.000000000000000000e+00 1.000000000000000000e+00 1.000000000000000000e+00 1.000000000000000000e+00 1.000000000000000000e+00 1.000000000000000000e+00 1.000000000000000000e+00 1.000000000000000000e+00 1.000000000000000000e+00 1.000000000000000000e+00 1.000000000000000000e+00 1.000000000000000000e+00 1.000000000000000000e+00 1.000000000000000000e+00 1.000000000000000000e+00 1.000000000000000000e+00 1.000000000000000000e+00 1.000000000000000000e+00 1.000000000000000000e+00 1.000000000000000000e+00 1.000000000000000000e+00 1.000000000000000000e+00 1.000000000000000000e+00 1.000000000000000000e+00 1.000000000000000000e+00 1.000000000000000000e+00 1.000000000000000000e+00 1.000000000000000000e+00 1.000000000000000000e+00 1.000000000000000000e+00 1.000000000000000000e+00 1.000000000000000000e+00 1.000000000000000000e+00 1.000000000000000000e+00 1.000000000000000000e+00 1.000000000000000000e+00 1.000000000000000000e+00 1.000000000000000000e+00 1.000000000000000000e+00 1.000000000000000000e+00 1.000000000000000000e+00 1.000000000000000000e+00 1.000000000000000000e+00 1.000000000000000000e+00 1.000000000000000000e+00 1.000000000000000000e+00 1.000000000000000000e+00 1.000000000000000000e+00 1.000000000000000000e+00 1.000000000000000000e+00 1.000000000000000000e+00 1.000000000000000000e+00 1.000000000000000000e+00 1.000000000000000000e+00 1.000000000000000000e+00 1.000000000000000000e+00 1.000000000000000000e+00 1.000000000000000000e+00 1.000000000000000000e+00 1.000000000000000000e+00 1.000000000000000000e+00 1.000000000000000000e+00 1.000000000000000000e+00 1.000000000000000000e+00 1.000000000000000000e+00 1.000000000000000000e+00 1.000000000000000000e+00 1.000000000000000000e+00 1.000000000000000000e+00 1.000000000000000000e+00 1.000000000000000000e+00 1.000000000000000000e+00 1.000000000000000000e+00 1.000000000000000000e+00 1.000000000000000000e+00 1.000000000000000000e+00 1.000000000000000000e+00 1.000000000000000000e+00 1.000000000000000000e+00 1.000000000000000000e+00 1.000000000000000000e+00 1.000000000000000000e+00 1.000000000000000000e+00 1.000000000000000000e+00 1.000000000000000000e+00 1.000000000000000000e+00 1.000000000000000000e+00 1.000000000000000000e+00 1.000000000000000000e+00 1.000000000000000000e+00 1.000000000000000000e+00 1.000000000000000000e+00 1.000000000000000000e+00 1.000000000000000000e+00 1.000000000000000000e+00 1.000000000000000000e+00 1.000000000000000000e+00 1.000000000000000000e+00 1.000000000000000000e+00 1.000000000000000000e+00 1.000000000000000000e+00 1.000000000000000000e+00 1.000000000000000000e+00 1.000000000000000000e+00 1.000000000000000000e+00 1.000000000000000000e+00 1.000000000000000000e+00 1.000000000000000000e+00 1.000000000000000000e+00 1.000000000000000000e+00 1.000000000000000000e+00 1.000000000000000000e+00 1.000000000000000000e+00 1.000000000000000000e+00 1.000000000000000000e+00 1.000000000000000000e+00 1.000000000000000000e+00 1.000000000000000000e+00 1.000000000000000000e+00 1.000000000000000000e+00 1.000000000000000000e+00 1.000000000000000000e+00 1.000000000000000000e+00 1.000000000000000000e+00 1.000000000000000000e+00 1.000000000000000000e+00 1.000000000000000000e+00 1.000000000000000000e+00 1.000000000000000000e+00 1.000000000000000000e+00 1.000000000000000000e+00 1.000000000000000000e+00 1.000000000000000000e+00 1.000000000000000000e+00 1.000000000000000000e+00 1.000000000000000000e+00 1.000000000000000000e+00 1.000000000000000000e+00 1.000000000000000000e+00 1.000000000000000000e+00 1.000000000000000000e+00 1.000000000000000000e+00 1.000000000000000000e+00 1.000000000000000000e+00 1.000000000000000000e+00 1.000000000000000000e+00 1.000000000000000000e+00 1.000000000000000000e+00 1.000000000000000000e+00 1.000000000000000000e+00 1.000000000000000000e+00 1.000000000000000000e+00 1.000000000000000000e+00 1.000000000000000000e+00 1.000000000000000000e+00 1.000000000000000000e+00 1.000000000000000000e+00 1.000000000000000000e+00 1.000000000000000000e+00 1.000000000000000000e+00 1.000000000000000000e+00 1.000000000000000000e+00 1.000000000000000000e+00 1.000000000000000000e+00 1.000000000000000000e+00 1.000000000000000000e+00 1.000000000000000000e+00 1.000000000000000000e+00 1.000000000000000000e+00 1.000000000000000000e+00 1.000000000000000000e+00 1.000000000000000000e+00 1.000000000000000000e+00 1.000000000000000000e+00 1.000000000000000000e+00 1.000000000000000000e+00 1.000000000000000000e+00 1.000000000000000000e+00 1.000000000000000000e+00 1.000000000000000000e+00 1.000000000000000000e+00 1.000000000000000000e+00 1.000000000000000000e+00 1.000000000000000000e+00 1.000000000000000000e+00 1.000000000000000000e+00 1.000000000000000000e+00 1.000000000000000000e+00 1.000000000000000000e+00 1.000000000000000000e+00 1.000000000000000000e+00 1.000000000000000000e+00 1.000000000000000000e+00 1.000000000000000000e+00 1.000000000000000000e+00 1.000000000000000000e+00 1.000000000000000000e+00 1.000000000000000000e+00 1.000000000000000000e+00 1.000000000000000000e+00 1.000000000000000000e+00 1.000000000000000000e+00 1.000000000000000000e+00 1.000000000000000000e+00 1.000000000000000000e+00 1.000000000000000000e+00 1.000000000000000000e+00 1.000000000000000000e+00 1.000000000000000000e+00 1.000000000000000000e+00 1.000000000000000000e+00 1.000000000000000000e+00 1.000000000000000000e+00 1.000000000000000000e+00 1.000000000000000000e+00 1.000000000000000000e+00 1.000000000000000000e+00 1.000000000000000000e+00 1.000000000000000000e+00 1.000000000000000000e+00 1.000000000000000000e+00 1.000000000000000000e+00 1.000000000000000000e+00 1.000000000000000000e+00 1.000000000000000000e+00 1.000000000000000000e+00 1.000000000000000000e+00 1.000000000000000000e+00 1.000000000000000000e+00 1.000000000000000000e+00 1.000000000000000000e+00 1.000000000000000000e+00 1.000000000000000000e+00 1.000000000000000000e+00 1.000000000000000000e+00 1.000000000000000000e+00 1.000000000000000000e+00 1.000000000000000000e+00 1.000000000000000000e+00 1.000000000000000000e+00 1.000000000000000000e+00 1.000000000000000000e+00 1.000000000000000000e+00 1.000000000000000000e+00 1.000000000000000000e+00 1.000000000000000000e+00 1.000000000000000000e+00 1.000000000000000000e+00 1.000000000000000000e+00 1.000000000000000000e+00 1.000000000000000000e+00 1.000000000000000000e+00 1.000000000000000000e+00 1.000000000000000000e+00 1.000000000000000000e+00 1.000000000000000000e+00 1.000000000000000000e+00 1.000000000000000000e+00 1.000000000000000000e+00 1.000000000000000000e+00 1.000000000000000000e+00 1.000000000000000000e+00 1.000000000000000000e+00 1.000000000000000000e+00 1.000000000000000000e+00 1.000000000000000000e+00 1.000000000000000000e+00 1.000000000000000000e+00 1.000000000000000000e+00 1.000000000000000000e+00 1.000000000000000000e+00 1.000000000000000000e+00 1.000000000000000000e+00 1.000000000000000000e+00 1.000000000000000000e+00 1.000000000000000000e+00 1.000000000000000000e+00 1.000000000000000000e+00 1.000000000000000000e+00 1.000000000000000000e+00 1.000000000000000000e+00 1.000000000000000000e+00 1.000000000000000000e+00 1.000000000000000000e+00 1.000000000000000000e+00
4.656410886073583145e-03 4.930030745816342264e-01 7.481072664042134335e-01 4.727764703516403877e-01 5.029315986942993755e-01 5.081376663825413198e-01 6.969782110928156582e-01 2.341017654531152570e-01 5.162222695025442398e-01 5.047481776672448905e-01 1.024589719148923717e+00 -3.628482231039183992e-01 1.203517662023034562e+00 4.982712713752129874e-01 4.820585588354715512e-01 5.833388916731547802e-01 9.931873419114487511e-01 6.904907702469518238e-01 2.052881117956658896e-01 4.988912802413624226e-01 3.484986066900994661e-01 8.857234995305084402e-01 3.397230805392623121e-01 5.156811159458418725e-01 7.113399477975363983e-01 7.889010296123586397e-01 4.721170918794129756e-01 6.382865641655364186e-01 5.290358798238926630e-01 1.050170283960041751e+00 5.568751085371640430e-01 3.222469905007870894e-01 8.280158691378396441e-01 5.107888585152080552e-01 7.535702187097030880e-01 5.385052732701166578e-01 4.535629760291295387e-01 1.096530113917388638e+00 9.437558710398086248e-02 5.014269521151650810e-01 3.659003517834336638e-01 -4.336496582116478593e-01 7.534408243796842930e-01 1.953439889416910824e-01 2.305953862225619266e-01 4.606735568048146989e-01 4.725758627278763280e-01 5.159907767287722491e-01 5.948881840517877828e-01 1.497660897567099428e-02 2.502072017102624155e-02 3.146069565426685144e-01 5.477061183527037747e-01 5.325172472033005144e-01 5.036033405446743716e-01 -5.424553359488068147e-03 5.226869429434138903e-01 5.511209691775299513e-01 1.570391929984271684e-01 4.809049525800686009e-01 7.832691787362431324e-01 5.450403968238021202e-01 5.413529833181844886e-01 3.397230362610189069e-01 6.257883921328738497e-01 6.473995743472132913e-01 4.998755974040857142e-01 6.895707485042827933e-01 4.718022949735585780e-01 -1.901175726857033330e-02 5.194532508391616066e-01 5.275495843076607461e-01 5.135236908123420596e-01 3.619341007106816055e-02 1.314497093575216047e+00 6.451416078934366638e-01 5.998381848319489507e-01 7.858733337683552200e-01 5.070818694013912165e-01 1.298453349426366810e+00 5.235268949502885905e-01 1.606227113939676099e-01 9.605174195079264621e-01 5.848348963510818788e-01 4.717429340624659240e-01 7.418427912567938654e-01 8.527606734464842075e-01 5.238371692314341965e-01 3.172330649585135554e-01 5.669934192722348998e-01 2.331682599921685028e-01 1.622509603181070625e+00 5.096032634813232320e-01 4.860824076574198765e-02 3.207699272311162475e-01 4.925014424508332711e-01 4.899194133520420880e-01 5.917084629957862774e-01 2.129990547213116425e-01 7.842028634630830997e-01 1.086767245479086652e+00 5.496733244575990884e-01 5.061236052688361520e-01 1.083408062532225102e+00 1.618875094475167309e-01 -1.321073681472035632e+00 -8.954601789640180831e-01 5.589440325788396224e-01 5.432006639206973242e-01 9.355730536166713129e-01 4.486664916489874755e-01 5.612515845639408640e-01 7.904431646567022796e-01 4.995729070807887195e-01 4.618290614281866380e-01 5.966654364643880770e-01 3.733541125392245696e-01 5.198992349400145541e-01 5.237502116897848614e-01 5.817184792708119945e-01 1.146298068512536794e+00 3.272793641369343143e-01 4.730221122009988788e-01 5.744391947394923426e-01 5.564848299779122653e-01 1.642041258702226614e+00 5.251683476893553859e-01 4.812556596670871101e-01 4.893866041117239107e-01 5.156473021942161727e-01 5.040956609865259175e-01 5.244780559613717585e-01 4.309535550370199863e-01 1.680528477222176520e-01 4.815035809987464055e-01 -3.938398356083093466e-02 7.710967545263358591e-01 9.263430069769845732e-03 8.940856223911362033e-01 5.018036463145296722e-01 5.025449563705224332e-01 7.227267461088013878e-01 6.206040269325230341e-01 6.410503134227162336e-01 4.773646799985017952e-01 -1.508315739878505514e-02 5.046525526610901036e-01 4.824931598786334486e-01 5.481682491284867176e-01 -5.331023770312091070e-01 7.331659732908064608e-01 -1.657952519638408451e-01 4.605844852146487312e-01 5.219354151189022906e-01 8.207816856399100525e-01 5.166680362176975239e-01 1.034276623906076109e+00 5.417045647687703802e-01 8.120746713701350039e-01 7.736969681739500615e-01 5.622129372369302214e-01 4.006244717409558342e-01 5.128010770317108502e-01 5.112456204429446371e-01 1.140837165042928536e+00 -1.173345382582313412e-01 7.670206682009291788e-01 5.029621707698834765e-01 4.488653488819002724e-01 3.898501554564672844e-01 5.049693738544076549e-01 4.723485216283760946e-01 4.606426387327893224e-01 5.168535215386272919e-01 4.256378529325068327e-01 8.170794659788313541e-02 1.397860123270646959e-01 4.417306703392672590e-02 6.287400395788544927e-01 1.071268199955181410e+00 4.817006166689298263e-01 5.665575210288581465e-01 -2.381263477664455064e-01 6.068858417819301687e-01 6.358729176742137223e-01 4.124300403198469245e-01 4.937697195285329355e-01 5.065135474980425601e-01 1.992081947477963855e+00 8.410248238410101829e-01 5.845465586184100948e-01 -4.466403914352098381e-01 5.080237558195193071e-01 4.980238971567174655e-01 1.128028516257779112e-01 5.737908032578392659e-01 8.129830624169989139e-01 5.027812200731702763e-01 4.890666180315208500e-01 5.520015692479219860e-01 5.536535728456725147e-01 5.241420604687425655e-01 1.047807244945670790e+00 5.722322763960399072e-01 5.411939044854432446e-01 4.890665831270065156e-01 4.655493740163740846e-01 1.143987153612268104e+00 4.936513630110981876e-01 5.497813071928544515e-01 3.700777019671079304e-01 7.880797788335476561e-02 5.179233604582824668e-01 3.094741092126541693e-01 4.966980320518475378e-01 5.157423534718411640e-01 5.316394291103359038e-01 4.996799880798202254e-01 4.710302738945245093e-01 4.877565164550881627e-01 5.308332759968167336e-01 6.018963219393030917e-01 -4.644544757781577382e-01 5.299031557786478830e-01 5.868154443171693657e-01 5.572215848316631748e-01 4.972789335993305637e-01 8.321470785885509702e-01 8.237711020950686525e-01 8.014981013868921478e-01 -1.120990696513657764e-01 9.275783048320329627e-01 4.984031804414699729e-01 6.535946608903930866e-01 -6.003975123229639277e-02 4.896755950954078673e-01 4.287074793144273754e-01 3.818712474392116363e-01 -3.638327346254587730e-02 -1.735008566619150316e-01 4.278474381106079916e-01 5.052169316253369846e-01 2.442499040756300130e-02 5.573976586968354408e-01 5.056659422903249101e-01 1.035122670503151987e+00 -1.174372851802834156e-01 4.860191815024713091e-01 -1.311271929661462554e+00 5.048703157943217334e-01 1.818817957087171255e-01 5.003412719248736540e-01 5.223619471062153075e-01 3.397226753311188840e-01 5.277507127690169719e-01 5.213410152829538458e-01 5.192240841424020648e-01 4.866992379382145684e-01 6.325321536093808650e-01 1.508151927577539686e+00 5.473583451349630646e-01 4.941722721027030918e-01 3.782222677850193282e-01 7.457483791929810923e-01 7.798117720691641885e-01 5.275898052255245663e-01 2.003767774983057137e+00 4.676878064434457083e-01 3.570446759517886259e-01 8.104162612572699542e-01 5.066390814346706239e-01 7.803322197756896728e-01 5.324024781107571380e-01 5.238721570751658785e-01 5.068507367901029514e-01 4.847644487310763806e-01 1.886473229514167571e-01 8.867539195698296295e-01 8.487834846486933538e-01 -8.336954956562810104e-02 6.181285528530795492e-01 5.173750498215149429e-01 5.498708034799604238e-01 -4.285562179904166547e-01 3.489234427658911564e-01 8.513513266585178707e-01 4.704958244146515423e-01 4.963769296306977385e-01 5.966654221301335159e-01 6.303474898008527560e-01 5.199444149555288996e-01 1.115325255588278663e-01 4.639980529533525577e-01 5.304372097373409867e-01 3.933484291213758255e-02 5.257054296783122416e-01 1.676673077953510171e+00 7.169400692897655025e-01 5.137434169750545454e-01 5.483334038397154053e-01 -2.451782547334918405e+00 5.144544565950367465e-01 1.438234596050361080e+00 4.711397043386960082e-01 4.999684969033046378e-01 -5.707047258907814724e-01 4.977035989739548305e-01 5.098280223442431813e-01 6.737910999623256680e-01 5.156638852702477571e-01 6.949475471443429253e-01 5.631643784678421749e-01 3.280901954580132673e-01 4.926104620434842429e-01 4.303406673246839564e-01 5.094325904010034156e-01 4.997649923718541776e-01 4.718906555095332411e-01 4.986256846969431833e-01 1.048114090334230308e+00 9.804084284780323691e-03 1.961996981018574671e+00 2.122957048310773143e+00 5.587691088848898424e-01 1.739089750015943014e-02 5.010093859502229297e-01 4.657268229161716788e-01 5.714410224954709072e-01 1.159999573221765612e+00 5.593654277897512905e-01 1.010660339554879883e+00 5.020777760006612800e-01 2.935627500935741319e-01 1.172121707993942552e+00 4.265104381489413510e-01 4.228979283117911825e-01 5.019079375939577981e-01 5.150017883189623724e-01 -2.373436314053289919e+00 1.347636883769892213e+00 5.223382350568736010e-01 6.531064011591122265e-01 5.150375172044447947e-01 1.096530089139959641e+00 4.063077681098656302e-01 5.240743683907259642e-01 2.615051960521117547e-01 3.986144941695044519e-01 1.382365930339209958e+00 3.439893049062749397e-01 4.890666861282271238e-01 5.573963048800034681e-01 5.722322726214402744e-01 5.077665096708083858e-01 4.621854732830056323e-01 7.733586570145313255e-01 5.233773795738920764e-01 4.786970900492426573e-01 5.502840653621163813e-01 4.762107956602592562e-01 5.018678902882220960e-01 3.884802683989957428e-01 5.240744784845914328e-01 5.281598876801233411e-01 5.023298505479893983e-01 4.670416528147052215e-01 1.075603925980562536e+00 8.943193715106476649e-01 5.000197661251118975e-01 6.642884045013919270e-01 7.737428531587122738e-01 -5.765091577320020921e-02 8.488065773335443653e-01 4.985569894792383216e-01 1.059828716449565458e-02 5.649625738756409721e-01 1.113379484479939174e+00 5.378362295825965811e-01 3.976871582367459967e-01 2.255466817586597172e-01 -2.456426377742843281e-01 -1.805714318120573036e+00 4.011302031847340799e-01 5.722322764036353870e-01 5.722322763960456804e-01 5.142205779581285885e-01 3.454828405498873711e-01 -1.458194609260466366e-02 4.873321343014386797e-01 5.052551752728848822e-01 1.621722495183460511e-01 4.990799136114469348e-01 1.158963560778138779e+00 4.890666041036160205e-01 5.017065951285584191e-01 5.040932695741532354e-01 5.507993188400714946e-01 5.490779964007060920e-01 4.930659898172984335e-01 5.799433799034892090e-01 7.284726028930093022e-01 5.051945383438362080e-01 4.911267503505036686e-02 5.722322765750276208e-01 5.883030805203253166e-01 5.030616658669917474e-01 7.976819401017555267e-01 7.620470930207321469e-01 5.435296154907941490e-01 5.529120439309895829e-01 1.190854385882593292e+00 4.162103352219643226e-01 -1.744246483640252920e+00 4.719799087337446242e-01 1.271325972439474095e+00 5.376253096537847442e-01 -5.962171545999763733e-01 4.775155431753377311e-01 2.938388741798731441e-01 7.232439994478018219e-01 5.154187239120406883e-01 6.764928434566362947e-01 5.087402298393376432e-01 9.845458713433943299e-01 4.888653723184943067e-01 2.198813069021028077e-01 5.057723057473800798e-01 4.779257531258085945e-01 7.022434960865026055e-01 5.002707664567636048e-01 8.190211775817155537e-01 -1.122788607150492918e-01 5.495036476218411181e-01 5.008170552119552976e-01 4.642846665567543774e-01 5.148261228968703529e-01 7.276771688595703447e-01 4.943435493424870875e-01 5.296936245594338066e-01 8.709459604565332747e-01 5.166697179010829588e-01 3.011843435340433306e-01 8.586231092431774459e-02 1.243870845377526846e-01 8.431956655098482578e-01 4.971456011885907467e-01 2.559325798622539505e+00 6.047345378766040280e-01 4.827957540055533014e-01 5.909096738557723105e-01 7.842276176668545595e-01 1.059699372658207475e-02 5.077766339549126817e-01 4.983883592944960417e-01 5.486954177790628329e-01 1.097661088909474447e+00 7.270951132449676724e-01 5.089167021335019303e-01 3.658008299947005937e-01 9.620637308542917543e-01 5.488591661531593280e-01 5.072206826010730030e-01 4.914304705801988971e-01 5.820914996261483676e-01 5.000652654890320736e-01 7.494264683128405435e-01 5.194098673078263451e-01 4.992457213430688268e-01 6.119602258704753828e-03 5.008327689000091620e-01 3.357286216143536700e-02 5.289902127165931889e-01 5.128249529166410969e-01 5.109259907367184050e-01 6.933607477558629828e-01 5.066461526422184614e-01 5.629774755361049987e-01 8.047081169919446941e-02 5.005990127592372385e-01 5.145178864597643731e-01 3.740614697104543418e-01 1.036810343544778898e-02 4.897797095415082347e-01 7.151873218417215128e-01 5.077666287495473663e-01 5.784618086622161925e-01 8.861181511297421265e-01 3.394679113742850585e-01 4.761098832983594598e-01 5.299218370063094596e-01 4.728398498412759166e-01 5.131108496325943458e-01 8.845003029850463383e-01 4.942852316730991236e-01 6.684727390217735099e-01 5.878205114551094956e-01 1.607448113920183719e+00 5.478832437813819789e-01 5.416946627882012200e-01 5.797760473858092345e-01 4.646603902238236050e-01 3.884843753767862617e-01 4.555211183952286302e-01 -4.030044166572483433e-01 6.367273377910006582e-01 5.542748001340527253e-01 4.858824064766428807e-01 3.887919935050493381e-01 -2.739010422863635275e-01 4.201369005358127628e-01 5.095478171342734397e-01 4.536633867012115351e-01 6.007464931200277025e-01 4.412439449749874232e-01 5.034315013727945765e-01 4.839752676860025193e-01 -2.878618041783050363e-01 5.672509502922344904e-01 9.210618968981594268e-01 5.907158678170602029e-01 9.450668163773537356e-02 5.687235495229786553e-01 1.629585336968940312e-02 4.169384854969812593e-01 6.433950044458157658e-01 9.778618360748250193e-01 8.398737337460229213e-01 4.675445937290379494e-01 5.340513706837601848e-01 1.475904351575765550e-01 4.726992390837316815e-01 4.551158977700353603e-01 6.606526081029755471e-01 2.025273802726882538e-02 6.386760639826083441e-01 6.334637037092609724e-01 4.665009265879352385e-01 5.124512921329866799e-01 6.625243713238754273e-01 3.539226705705259546e-01 -1.107548638185956724e-01 -1.119422055386561365e-01 4.776986808383386629e-01 4.936229097789931464e-01 5.357159840012498675e-01 4.590797284430825353e-01 -5.103702493322090916e-01 2.516942544942844862e+00 2.461545567463466755e-01 4.657367695458348722e-01 9.819562457427428726e-01 5.146651762860603441e-01 5.072627174412429607e-01 5.000271894743908430e-01 5.056144743609168879e-01 4.273604819475562699e-01 4.991634027680144081e-01 6.023116721502900228e-01 4.063904926072102186e-01 5.424708256161199227e-01 5.488760832350869645e-01 4.139001401893285248e-01 5.920342493305930098e-01 5.149564453672609288e-01 5.133957014023842191e-01 8.078287642103795241e-01 1.932354609124698364e+00 3.892346370477230977e-01 4.843365129950351622e-01 5.628400157149129335e-01 3.739394980461926421e-01 4.785275506115865829e-01 4.936406856075494232e-01 4.998499008532007459e-01 3.855063344156904881e-01 5.290129262586454884e-01 5.383627833551215547e-01 4.721684378818454819e-01 6.069100406616273480e-01 4.162313086393571449e-01 9.780094605069317160e-01 9.220724490315395094e-01 2.439968143973286485e-01 7.810729107809027960e-01 5.161778763602332676e-01 4.636447134869261522e-01 1.773180434517673376e+00 2.369258957440833480e-01 5.016698076334279444e-01 5.158582997692897631e-01 3.570032825036296986e-02 5.134159766717386608e-01 1.267517382129827119e+00 5.065840891554520553e-01 9.329390909349267735e-01 4.979290479514404399e-01 5.259202317327950071e-01 4.881740282894670990e-01 3.898436382247467691e-01 5.116152491539472935e-01 5.063941945963484903e-01 4.569351870342198696e-01 4.291230651187744050e-01 -3.815652136043391762e-02 4.765802091367823401e-01 4.859146220129897387e-01 5.235868609569607202e-01 5.484006121132019018e-01 7.811109781668702512e-01 6.536102791216613639e-01 6.380607149215112850e-01 9.153487300659932657e-01 -2.464683531556433049e-01 4.896904209141869080e-01 8.066946255539828581e-01 9.378965743846791048e-01 4.812591780850789536e-01 4.934994400887151578e-01 7.566105114437149393e-02 -1.159995644809901583e+00 3.703584438182226934e-01 5.766180209270176382e-01 6.433482668568829554e-01 5.069073035808315808e-01 5.806713319540749429e-01 5.327818361460193719e-01 -1.653293299670554883e-01 7.739837804224343198e-01 5.966654823284822662e-01 6.901745559038391375e-01 5.094504070598802059e-01 -1.297845476515247509e-01 -1.801650545395720726e-01 1.259344881754505874e+00 4.622793991634147059e-01 4.393640880683865046e-01 4.999826951647829421e-01 4.021499524371077716e-01 5.360573124199661255e-01 6.334644706979818407e-01 7.631473612220350811e-01 5.067845622248678961e-01 4.795278203618747459e-01 5.422167528368666556e-01 4.958226777051232270e-01 5.271067059750932371e-01 4.431413576161102319e-01 5.230509363866613359e-01 5.357869898654183949e-01 8.973502525278714836e-01 4.180748497164388788e-01 5.216401036988421724e-01 4.940934537455806130e-01 4.974095753268527598e-01 5.898126373765352204e-01 3.264517141345292528e-02 5.240743809675302289e-01 5.249946313933561148e-01 5.220266993371631692e-01 6.476397381784001483e-01 1.200729838809111660e+00 4.555561948953936735e-01 -1.478116162747442758e-02 5.437065517402888126e-01 4.705299551526053725e-01 5.153972386857421650e-01 5.207811047202788313e-01 4.469620717391815101e-01 4.590849257087972202e-01 5.240219916417362400e-01 8.070460302389994567e-01 -4.837784380778517579e-01 1.657317681833696321e+00 5.398740710820733035e-01 7.845819621057450455e-01 3.686322036876268360e-01 4.248142644031204229e-01 3.159676671068356590e-01 1.574936160702455068e-01 4.995606308003167628e-01 5.436834530188040526e-01 5.754292269312327734e-02 4.996936428200370317e-01 5.458076184152794719e-01 5.164693652161566062e-01 1.041095338849218566e+00 4.851021259839108923e-01 3.511214764157866708e-01 2.380608099095729013e-01 5.410125454092924446e-01 2.065966447736168610e-01 5.035258574610267379e-01 6.016942820948714132e-01 5.267529482995307877e-01 -4.503638219197813597e-01 4.515796042753151829e-01 5.881523371325806382e-01 5.349694507626532314e-01 4.718030438284959160e-01 7.765218621277004685e-01 7.573711971984240510e-01 -3.652585948803191984e-01 1.020468000644548123e+00 1.096530109191171887e+00 5.898851797800990227e-01 4.646961882137675137e-01 9.492400300656768097e-01 5.261271671233667124e-01 4.723029355330646273e-01 5.083447485646380715e-01 1.167029573642540230e+00 4.967343440813890565e-01 5.573952969056881201e-01 1.160368933425751647e+00 -5.271808295703737934e-02 7.259947744512446066e-01 -7.936742271675720217e-02 -6.170858385461869267e-01 -1.796104697327422783e-01 6.944406506665731227e-01 5.077958024161683959e-01 4.254234379249969278e-01 -3.276952402753091631e-01 5.375762167282863713e-01 -1.459649377688928759e-02 2.100765725722435473e-01 4.370305550615751211e-01 5.056724152005060979e-01 5.192886679346163659e-01 5.090863024110012791e-01 5.465201889549351488e-01 7.969757742396716971e-01 3.631078652891674141e-03 5.015239172400365320e-01 3.967613336519680289e-01 6.145534289003319328e-01 1.044961098779515929e+00 2.990108771594522930e-01 6.619074315898901828e-01 5.692078941461022890e-01 8.298802826293344426e-02 6.763665707222160650e-01 5.348772684993788884e-01 5.087111446851286800e-01 4.982799713311334422e-01 5.460510394816263657e-01 5.823242885279572567e-01 5.077495913238434522e-01 4.825662087013138368e-01 2.969158617298898184e-01 3.617630537138821767e-01 7.919013176675343546e-01 2.038929833299463201e+00 -1.324938372839761236e-01 6.282988778833121790e-01 5.088777106285926610e-01 4.827107309709492422e-01 7.313182440359317082e-01 1.688121911726705726e-01 -8.370131971810097493e-01 5.159035421627764517e-01 2.102917319812801278e+00 5.048397498294737717e-01 1.774518649649126922e-01 3.365140045072145258e-01 5.966654416176573328e-01 6.840254368424893983e-01 1.208454063718185312e+00 3.816166463973811318e-01 8.613127459044991885e-02 6.054587935738310334e-01 1.132051876930543433e+00 4.292332209956914446e-01 5.272862824471447052e-01 5.050569937276864207e-01 8.191487221715572087e-01 6.044560635737573628e-01 4.224831226175151944e-01 -2.010835587053534657e-02 4.734256384885796032e-01 5.176628683135598985e-01 -4.025943441776578258e-01 5.161712083258233053e-01 1.044009913601602335e+00 2.404397490286271089e-01 2.805936030614534227e-01 8.596042875138213413e-01 5.335285347039377957e-01 1.750199396697092569e+00 4.682482452440832055e-01 1.684983968987755626e-02 6.436045310270346320e-01 4.567403585906772423e-01 6.414969620903235858e-01 5.036728034763685580e-01 6.820651155846955971e-02 5.018333727566781644e-01 -8.019285775161580365e-02 4.990750109234792231e-01 5.495943980812725282e-01 -3.570863277473832614e-03 -8.753105569375009554e-02 6.000249501982508615e-01 4.888709951087302774e-01 5.311171557378154828e-01 4.611282683797418569e-01 6.590526917673351637e-01 5.324448025171184540e-01 5.678458015704571649e-01 6.038142375374484505e-01 5.405619268092414220e-01 7.008595825789035727e-01 9.582852702437880676e-01 2.521391826573132988e+00 3.608332953634196261e-01 5.283289909072483859e-01 5.325306023085707441e-01 1.500547626538139279e-01 4.996507129084389875e-01 5.299530366862433839e-01 5.243866002696164763e-01 1.279131121714512709e+00 4.018162466297423574e-01 -3.813942532285785614e-01 6.335048687189749617e-02 6.477488418803585279e-01 5.825200276142579181e-01 4.932358090458425770e-01 5.076578896005894403e-01 5.680264457854192900e-02 5.083209685504858077e-01 4.678200560282027021e-01 -1.897047257347874050e+00 5.570492011319002623e-01 5.174873328457127997e-01 9.820853070508687166e-01 5.299276260969972840e-01 6.423058110284300959e-01 7.843594094190301513e-01 -5.549480829497716039e-01 -4.629248791100405436e-01 1.221227695848892993e-02 5.178221366246679169e-01 5.077164449255529011e-01 9.642326522855599880e-01 4.920036940206699572e-01 -1.788145960388952682e-01 9.035229912232780602e-01 5.251615561554778822e-01 6.617761753534502356e-01 5.016084023797543479e-01 4.538513375882755607e-01 2.831317661412102726e-01 -4.054625865215497060e-01 4.028227180698185084e-01 5.048112072867749767e-01 2.500414364372503528e-01 4.619831648961321147e-01 4.145292978901411463e-01 5.034125516884673246e-01 4.707370747196363281e-01 4.979627179246005619e-01 4.529073449358582137e-01 5.211016526155869411e-01 1.096530115226737490e+00 5.199323265284448992e-01 4.679023707153999179e-01 7.597496425573635470e-02 5.299511838609805014e-01 5.299373247813146115e-01 5.056777516145438689e-01 4.095276593065955706e-01 3.920918246219664560e-01 6.849341705646595502e-01 3.115157719971114458e-01 5.461285612478584683e-01 5.237883122209187059e-01 5.282314830825447505e-01 5.356081041762144057e-01 5.079510299875819035e-01 5.078146371367990852e-01 1.020350797871361737e+00 4.631038558552243445e-01 -3.121432424477729728e-01 3.500580889531120787e-01 8.318087650684066192e-01 4.710441655760749802e-01 2.082691133208739442e-01 5.216216461355376310e-01 1.806664230501668633e-01 -2.459925326555099240e-02 8.016248762019686502e-01 3.601377163833115458e-01 4.586857244962745384e-01 5.158110755858589247e-01 5.294208197515385406e-01 3.818749913996065670e-01 1.249623446457800213e+00 5.376463822659663938e-01 4.367092018002238230e-01 3.432664895068223559e-02 3.035704397559303436e-01 1.052872016653344955e+00 3.825790803571971210e-01 5.594073668532552057e-01 3.788082332410094288e-01 -2.198077702530074062e-01 5.489655795998281684e-01 1.116949399621193217e+00 -6.995853539306869928e-01 5.423657822998466660e-01 5.241646356770011117e-01 -1.712598160730047225e-01 5.223851929631162516e-01 4.369029989284606286e-01 5.599115922058097716e-01 5.113612565245971853e-01 5.121725431734641676e-01 3.034243452648298089e-01 5.314203335164159325e-01 5.188446256223109287e-01 5.193969807733295196e-01 6.554477367270719612e-02 9.744063063492802712e-01 5.005975974787960636e-01 9.889621076950995127e-01 5.409626999036308836e-01 -4.055411971162189988e-01 7.078714421369161069e-01 4.942682163188775180e-01 3.193012252414469399e-01 -2.703981881058967369e-03 6.283967288352646507e-01 5.010886228039812540e-01 5.041421814397895051e-01 4.127149343328669895e-01 1.005922264754153389e-02 5.081627584095792516e-01 3.729070365631328987e-01 5.496745535595395360e-01 1.790201263377498186e+00 5.870564118424050903e-01 3.433466431267664376e-01 5.063041863198532999e-01 1.515640229053754728e+00 2.045670929670914961e-01 5.071846752262418878e-01 5.915538575623816575e-01 5.240743690067387606e-01 4.982691181709182904e-01 5.361566040892061791e-01 4.555123406422747490e-01 4.898321745148804252e-01 5.400343495358039814e-01 4.713315385697441906e-01 -1.301491647593482903e-01 5.189970591843217074e-01 5.782470897439090374e-01 5.302454283753951225e-01 5.237804075042662433e-01 5.042070480873606098e-01 -9.238361537587497230e-02 3.967359333711015235e-01 -6.444827444728105093e-01 -2.652038184738072513e-01 5.139855497455366740e-01 4.919510152132379743e-01 5.920066901075846655e-01 5.263056923898790096e-01 4.092596357996695078e-01 4.272504384929449728e-01 5.240743658060227350e-01 5.060422381180559315e-01 5.767980689195705279e-01 5.502729859119359634e-01 4.960709635216267732e-01 8.736167105526992938e-01 5.752293244941899530e-01 4.618956481382303081e-01 1.701303748510042124e-01 4.985936627888965522e-01 5.041756035860079921e-01 5.170939420619644622e-01 4.088769288799387058e-01 5.173571193734076701e-01 7.148528450521894895e-01 7.014386312604650175e-01 5.000302936082352545e-01 5.641909566018442623e-01 1.387834116222810554e-01 6.869453421805215010e-01 1.707317952265940075e+00 5.134806503008192413e-01 2.664414334845160992e-01 6.377313456492627042e-01 4.832485122766668750e-01 1.018432923177117422e+00 4.780534602533036970e-01 7.944680223817348619e-01 5.079010439190361215e-01
7.162721118718164970e-01 3.397928108769679989e-01 4.398575221355663367e-01 4.627153140865353231e-01 3.280102990780203731e-01 2.929642613956545683e-01 3.132193870102208955e-01 5.326390583058769890e-01 3.920214784565804189e-01 3.235331032602182799e-01 1.687027583896398619e+00 1.455248534730694265e+00 -1.013127927038741660e+00 3.305642313346830452e-01 3.753455793655753325e-01 2.603384429342751050e-01 2.021617716575274948e-01 3.707971041145928792e-01 1.760397259006405979e-01 3.368390649764154698e-01 4.599078924484428788e-01 1.652270449682692322e+00 2.684836114990027389e-01 2.970629875126772346e-01 2.041867036202217878e-01 -5.622764558498812848e-01 3.312285388603070646e-01 2.153495094641370011e-01 2.686639479582274559e-01 -2.880017601948707817e-01 2.773607574596758663e-01 4.128315512623088046e-01 3.597673645904287953e-01 3.109193173609193783e-01 -2.812628434693639767e-01 2.783430910649724588e-01 3.829069272260249290e-01 7.412826444697109829e-02 -2.398170829140106708e+00 3.348747181809794693e-01 5.077842935447023365e-01 1.214691998631811237e-01 -8.928929161222703970e-02 7.097879294031216313e-01 8.953213862621258734e-01 3.967882928085175731e-01 4.638380516928160557e-01 3.139661422310249805e-01 2.165160881122857595e-01 8.028676330716848497e-01 7.679309613706544191e-01 2.433422252443085410e-01 -6.702243935814590214e-01 2.527003126465602878e-01 3.250508390691658756e-01 7.224609382323854412e-01 2.745047788261325561e-01 2.023504882550568595e-01 3.711647435873811074e-01 3.615960212277348207e-01 3.498392564172017605e-01 3.798684999139862462e-01 2.844591743552273289e-01 2.684834104114282027e-01 -2.818818628341401844e-02 2.390075575856065448e-01 3.245482573319103392e-01 1.966003355538912256e-01 4.162488255602211362e-01 8.336370310546078466e-01 1.867942793860577211e-01 2.696326904116443934e-01 2.813559423512971280e-01 7.843471640874328799e-01 1.561511791994687703e+00 1.979001733287665821e-01 4.005458388268731684e-01 3.998112979865244276e-01 3.012899437822771365e-01 -1.017143689999491896e+00 3.051049486038667213e-01 9.263744705687537717e-01 1.366339562986131906e+00 1.797704743411456529e-01 4.062248837170737148e-01 -6.705471852431317270e-01 -9.506075584921062221e-03 2.883183318465570300e-01 -4.348226289426441737e-01 -5.339513354955143232e-01 8.962251857845175973e-01 1.136443569546830235e+00 3.323597854211335356e-01 7.818593455190909758e-01 5.469799302553535192e-01 3.645315076543856891e-01 2.295024017113807269e-01 3.017478758749416179e-01 7.783419509869420327e-01 -5.652806444583263756e-01 -6.511381475752343884e-03 1.886444677554692528e-01 3.154326524727686376e-01 2.814843043778405551e-01 3.312445304691900017e-01 2.279530181452154469e+00 -1.717929228659066387e-01 -5.422858237294354566e-01 2.403580072000020829e-01 7.134962805343815218e-01 4.025005544394349433e-01 2.490344304268371778e-01 4.197588365923790588e-01 3.174694452281042745e-01 -5.589331732571723999e-01 2.249103489840363901e-01 5.667033939908950879e-01 1.189701900802895979e-01 -1.898604014929925754e-01 3.139832418820198146e-01 -1.130194029790235088e+00 2.936113749405832585e-01 3.550046695126616303e-01 1.291871192255107381e-01 2.406127922874921887e-01 1.699256381757582091e+00 2.248645333385126122e-01 2.914050698247577786e-01 3.397527318708190580e-01 2.928182638283199912e-01 3.145197563426895826e-01 2.828138094852424289e-01 3.610417922295721671e-01 1.543454438489298697e-01 3.518568875090864467e-01 9.268087776400403266e-01 9.428045299432251392e-02 7.907388313458546536e-01 -2.430812172185004838e-01 3.092396452838659382e-01 3.122270596334886239e-01 3.186276329005391927e-01 2.905821859043482003e-01 3.305893158626826422e-01 2.985217091411426771e-01 7.394472267225709050e-01 6.605415222654681395e-01 3.187658110729794658e-01 3.809190983101100048e-01 3.450624271103245322e-01 -5.174514408511849961e-01 5.250424489089906138e-02 3.967104159624722515e-01 2.917695934243795808e-01 4.956132237559392473e-01 3.141789573186550277e-01 -6.710176608752105309e-01 3.010739768992752308e-01 -4.938570625966628436e-01 -5.705188985673622648e-01 2.826426158422917223e-01 2.556177362118879914e-01 2.833110384596626563e-01 3.148419084079869257e-01 1.603365188290334364e-02 -1.152879858503466498e-01 3.871303405307162659e-01 2.212082316016697470e-01 4.421824650720485583e-01 2.668865617182585859e-01 7.252575679474368986e-01 4.639647438677962366e-01 3.968800302046884276e-01 3.024825421259722535e-01 -1.969508817228188713e+00 7.211374158088873498e-01 8.213514061322434445e-01 1.039242379457369303e+00 -3.522927202678780567e-01 1.067678312706859423e+00 3.465796297393918257e-01 2.742908482587285146e-01 1.037666977960366443e+00 2.854466820535315752e-01 2.884692990271254254e-01 4.835547683161947607e-01 3.448181748195400798e-01 3.123929471019000759e-01 -1.857487020257938826e-01 1.353575213817940492e-01 4.958160840073880804e-01 6.348296051141878449e-01 3.131212335934536739e-01 3.899977526125757432e-01 9.131157649665083698e-02 3.410191047149902510e-01 -1.043554963544909953e+00 3.263120814890537735e-01 3.510190307596289250e-01 2.543713870744686578e-01 3.142315601142143811e-01 3.033101714502353663e-01 2.260186063085020958e-01 4.955258197932180253e-02 -9.359150465856594936e-01 3.510194536609314575e-01 3.668295378090589143e-01 -3.662033247208343334e-01 3.438224322349376361e-01 3.288988128436675096e-01 4.606708606399538275e-01 -2.407993855646398451e+00 2.894887056050130525e-01 8.632407508378491245e-01 3.316837163129190413e-01 2.794102777487316169e-01 2.657926311637024419e-01 3.279398015847091452e-01 2.917505726800548316e-01 3.190488463681105391e-01 2.694944999260623364e-01 3.806990089001323629e-01 5.501843788647243771e-01 3.296325035659920522e-01 2.892495829459439949e-01 2.200664735862080390e-01 3.376206463457327445e-01 -7.725387479365061760e-02 1.624233935550576824e+00 -6.441886528186435701e-02 1.068506876040102416e+00 -1.195929463161422124e+00 3.192250848451775869e-01 2.047217198735366006e-01 2.677592605790543034e-01 5.128883639647491277e-01 -2.125793504368979903e-01 5.301262412689078385e-01 2.218075320994436772e-01 5.843990200073431174e-01 5.818399448984630240e-01 3.046738060439389550e-01 -8.991894662685031570e-01 2.378138631414114523e-01 3.021927869099944597e-01 4.078132932421359852e-02 1.053164127620092705e+00 4.028124336861361177e-01 2.154956223998255815e+00 4.556992136287332240e-01 5.792198817138896061e-01 4.163516825096932883e-01 3.038421823824054013e-01 2.684826209102221251e-01 2.548577570739030129e-01 2.863938646914327979e-01 3.775283497271247346e-01 2.998968065230269708e-01 3.647352493514893768e-01 5.321044504492518090e-01 2.387672513044865330e-01 3.916633626905672849e-01 3.938914277639182226e-01 4.626911201705268817e-01 3.533781455552648665e-01 2.136987362324248851e-01 2.302877398871612691e+00 2.755371005663283523e-01 6.709426428170741641e-01 7.954438100183884933e-03 3.278680270130557295e-01 3.533008671963154268e-01 2.657354157633504688e-01 2.865726781879572305e-01 3.131856195739182724e-01 3.631465827919294620e-01 2.280250972409065546e-01 2.831563683233972450e-01 -1.456767465728502770e-02 8.577783811901025512e-02 1.246297110895454585e+00 3.346035150461866281e-01 5.143947227586394277e-02 1.748853290220883538e+00 3.725242482860282589e-01 7.175480882758134005e-01 4.080703992125945812e-01 3.252056350461959289e-01 2.249105016472369989e-01 -1.691904644971194083e+00 2.935896311348047405e-01 6.536428682820100144e-01 4.809865001530779782e-01 -4.103026607020227035e-01 7.326047041035237406e-01 3.058678619121535380e-01 -5.446852843115952414e-01 1.704760371956023923e-01 3.219285818854000225e-01 3.805641610929373364e-01 -2.174916114499903519e-01 3.045194102436835637e-01 -6.915719536489995933e-01 4.629890084589992072e-01 3.139427305019955039e-01 6.477803948910606513e-01 3.211191111177906232e-01 3.035785525827455755e-01 2.743791450671803078e-01 3.265873470919861132e-01 -1.859312901844717425e-02 -5.865789775810559270e-01 7.057356661098740380e-02 3.507446276381089856e-01 3.502511454600319429e-01 3.057034490643780744e-01 3.257910295457831507e-01 4.642642328187294720e-01 3.170819968689522206e-01 1.910638210845056806e+00 7.912348267270963298e-01 2.426718266944708491e-01 -8.008530062780810921e-01 2.389784426377176696e-01 3.302118904550418232e+00 3.265870497581925269e-01 2.152561131931591543e-01 5.273124264260912186e-01 -4.106084908551583368e+00 3.050932138538033911e-01 1.139937415417035194e+00 3.219305042863926380e-01 5.807389164693743666e-01 -3.466289863473954735e-01 4.045613591116939967e-01 4.188486351858903278e-01 3.121266166074373460e-01 3.164177642387482892e-01 2.082679984106116322e+00 -2.368318897838048998e-01 2.817887098574732296e-01 -1.618756140587098047e+00 3.124833365744656977e-01 7.412829320779634745e-02 5.699670019834763846e-01 2.580508669184581882e-01 4.314009116303830216e-01 4.292508684787611495e-01 1.343798239813918549e+00 4.130805539901977186e-01 3.510187173343668476e-01 2.378188789813966975e-01 4.955258434167476855e-02 1.441432443590421886e-01 4.197080630460567341e-01 -4.572808042462586098e-01 2.853728218198641198e-01 5.366138809036237189e-01 2.911606733620392129e-01 3.576294831297886501e-01 3.142226213769318544e-01 1.267290411545518025e-01 2.580509201657551488e-01 4.834771574773586433e-01 3.136039526314527426e-01 2.958818464689165206e-01 7.231901137849235939e-01 2.080881824818114900e+00 3.190987617147528210e-01 4.685854680492170243e-01 3.500057998621634581e-01 9.390829347163015539e-01 3.714482556401705327e-01 3.495994895278836667e-01 7.836791535117041407e-01 1.176761733053692527e-01 1.574396898148676394e-01 2.868189892242282157e-01 2.959273353143060947e-01 8.828094371913525196e-01 6.221191631867587502e-01 7.106963463546871473e-01 3.775721565642963795e-01 4.955258193852040555e-02 4.955258197969744649e-02 2.831899917657842436e-01 4.812194786153939363e-01 1.102454359545445683e+00 -1.354160101841407338e-01 3.177338646387888876e-01 4.185372947592385096e-01 3.164008148862481051e-01 9.020217768349366727e-01 3.510196106317632903e-01 3.292919751784525451e-01 3.086435889788450848e-01 1.575113661084036887e-01 -5.003861483514511210e-01 5.007225110766710952e-01 3.087664171126414114e-01 2.645087925451146127e-01 3.032157705609843656e-01 7.604087590544578168e-01 4.955258149055345035e-02 -3.136041230958539483e-01 3.254368171012133604e-01 -2.106704724298105041e-02 -4.549911789406329010e-01 2.752992860503665762e-01 -2.609773533341264606e+00 1.159070032982082887e+00 3.504109941836926478e-01 -1.728256979965408502e-01 4.637052349007401153e-01 1.575756048634473938e+00 3.229892983392789185e-01 5.075789162308061986e-01 8.159269313378483268e-01 5.057148019536783501e-01 1.618402944245104225e-01 3.072455675408498621e-01 5.894644156080873776e-01 3.053012774015521069e-01 1.608858729697238532e+00 3.265716148782136785e-01 5.364230327232587248e-02 3.334083246991955130e-01 3.517077888088117055e-01 -1.171916325517717627e+00 3.090519551234978124e-01 3.176852236471971319e-02 3.909224411956363499e-01 1.946039422985171852e-01 3.187822264299305375e-01 2.714809508114180425e-01 2.979508147407543550e-01 -1.382015093363936631e-01 3.237055389181715537e-01 3.297515406786668546e-01 3.297223423607981152e-01 2.901588210367609388e-01 6.904397659883463323e-01 7.053597066091976675e-01 8.499398827980820803e-01 -9.230426841844039387e-01 5.124619567710461121e-01 -1.782978842913048034e-02 -3.231441153276001788e-01 2.620744898270811474e-01 3.521843529654667404e-01 3.295474502335009603e-01 7.945915911913060681e-01 3.054403615818661599e-01 3.377073634317757644e-01 2.483536860601130436e-01 1.063749458647173241e-01 -1.373750179533917704e-01 3.165147625860446623e-01 4.937888258873316949e-01 4.348709156554604882e-01 2.881220580707729573e-01 2.873136634179535576e-01 3.072055122708791663e-01 4.831482799856584021e-01 3.360899401165017286e-01 4.675916300074414167e-01 2.872412511203813468e-01 3.188126805132421304e-01 7.876604171789354236e-01 3.135609139791437627e-01 7.823859776516667308e-01 1.049780712408427547e-01 3.176327734895730281e-01 3.237434840275148495e-01 -1.169778897023621145e+00 3.023047862991484203e-01 1.867707696960979880e-01 5.292925625180273652e-01 3.083865862855434403e-01 2.912567508208170342e-01 5.392507200237705023e-01 7.690592434318153092e-01 3.071658036849013729e-01 2.567164725080769427e-01 3.166691383515320424e-01 1.927544485014255973e-03 4.306295155167259026e-01 1.835523824933712189e-01 3.323670975319488186e-01 1.065053709038320251e-01 3.244883170093504909e-01 1.241827040425123596e-01 1.233655611215529246e+00 2.787009177498143142e-01 2.445331658418822274e-01 2.857814218201601975e-01 -5.539438683877135894e-01 3.895819498768153255e-01 2.057020044644710666e-01 2.547029722135816243e-01 4.802704163703293561e-01 4.427636003622362759e-01 1.141275814720109916e-01 8.213879525114013980e-01 4.599428637632826944e-01 1.673376728898823829e-01 3.744416530203967253e-01 4.191791870249405583e-01 7.140738483523272340e-01 2.335283259271041523e+00 3.026826622003639389e-01 4.309163231422285523e-01 5.940632545808456344e-01 3.757916951295787733e-01 3.105096431253062117e-01 3.709321822673795621e-01 7.925014924636346603e-01 2.156579668721985421e-01 -7.370045275870382162e-02 2.688277866256233994e-01 3.818097393760649244e-02 1.582947269119981681e-01 6.405845142966091199e-01 3.462457727153451792e-01 4.521139980594613417e-01 1.432404623585407100e+00 4.737182066063482244e-01 3.715580916538777090e-01 3.568978016989792224e-01 3.560841454934715045e-01 4.628101885616742184e-01 3.628304536602019459e-01 2.060235033022573270e-01 7.895143363952997762e-01 2.039506378045070345e-01 3.723442017261512360e-01 3.324719989851302460e-01 3.280414571332763707e-01 1.756997174455908195e-01 3.190292917039577181e-01 9.650214031836508166e-01 4.053433214984709099e-01 3.316752399460858869e-01 2.600344529190460330e-01 1.797426008446425527e-01 3.656080586238692476e-01 5.304658540813331769e-01 6.222399146998316422e-01 3.683298696339560863e-01 3.082777016295323858e-01 3.956971987531260893e-01 3.196727527353233622e-01 3.089303170783930241e-01 4.350590355795924125e-01 3.862311543685648108e-01 8.467091619053163098e-02 3.175905149920295600e-01 3.326590343651911752e-01 5.416611289382564642e-01 3.760581600939691960e-01 2.597940179143394812e-01 1.264797887157983469e+00 3.535981431671524344e-01 2.788677632369822024e-01 2.893822241022093733e-01 9.871132658993924114e-01 9.708434581659053375e-01 1.424246236817972577e-01 -2.786723251391264311e-01 -1.761557332809773890e-01 5.254649869027107068e-01 4.402477645926113348e-01 3.209780480570944006e-01 2.940100352982569776e-01 3.416341988346432990e-01 2.509526844048337590e-01 3.660417050186067223e-01 4.632442711407819269e-01 2.214563855046718099e-01 4.505121921185903378e-01 7.783040679275430307e-01 -6.477585073095568774e-03 6.980752706811783614e-01 3.517743363289310143e-01 2.941941191852853743e-01 5.872823466706308254e-02 4.679110648404510298e-01 8.988793088953858090e-01 2.953600691915728715e-01 6.047950846647183187e-01 1.284110353293624440e+00 3.208765277661579374e-01 1.593457834138557461e+00 5.876228866103532233e-01 1.149973328993038474e-01 3.165490172751118103e-01 2.830646261065813962e-01 3.907142655856629676e-01 2.668737139169845562e-01 3.182417371835251640e-01 3.258483135109721540e-01 3.717695052245056919e-01 3.528991143661430741e-01 1.566760746024397633e-01 3.799952687575465782e-01 4.648446623352056051e-01 2.830138470706076714e-01 3.800581454707153140e-01 3.517192309634648018e-01 2.427601669947663521e-01 3.300093393077032089e-01 -4.710094977178244657e-01 1.551958226511996886e+00 3.123257095456093424e-01 -1.726443288972412671e-01 3.053441137365788816e-01 3.430196712096746925e-01 3.175178946673333225e-01 -3.546251271883734457e+00 2.748218335083389974e+00 5.240550904341887417e-01 2.634168162937749469e-01 1.571419683850436289e-01 3.219214667427679477e-01 2.424833668155815802e-01 2.022669647099571311e+00 5.160538819289033352e-01 3.904025631543487362e-01 2.249104277378808636e-01 7.464293960664905025e-01 3.034321682055589053e-01 9.348019103246106853e-01 -3.542188193172972621e-01 -5.674548614211203379e-01 -7.690401990071443761e-01 4.610508015441074081e-02 3.269178348395545552e-01 4.863319896822837496e-01 1.744253435485615400e-01 1.783357986025205510e-01 2.026407099161125491e-01 3.360822014981089678e-01 3.970991373342332986e-01 2.813240823099398269e-01 3.120871644003674339e-01 2.920043828619733883e-01 4.666838637683181634e-01 2.845087281590391592e-01 2.160369126543345841e-01 1.228188295462877694e-01 4.670110472486230790e-01 2.856602587702976592e-01 3.115637242810038732e-01 3.441542832199190882e-01 3.201324372276279639e-01 7.978472340164296517e-01 2.580508706168702648e-01 2.623200776260095068e-01 3.110297466323231896e-01 2.149297053499289734e-01 1.940777468687763241e-01 1.140953822208481683e-01 1.140006547542697479e+00 2.883435424078382159e-01 3.461028968814081619e-01 3.028339437478984042e-01 2.892853690496437480e-01 1.428076739655003702e-01 1.145427475895037933e-01 2.988642524189319416e-01 2.498902612117433752e-01 6.560182832514155349e-01 6.624749409514103515e-01 2.266672864450812730e-01 1.477365896624759367e+00 3.428581793218172802e-01 2.570271345002618779e-01 1.083761350721747230e-01 -3.933806160218154546e-01 3.235174980308900827e-01 2.849082013349409914e-01 8.083702159311413338e-01 3.297131956485618298e-01 2.315078312511510694e-01 3.012749827294322058e-01 2.818088821774136221e-01 3.248865556699839230e-01 6.618971355888894070e-01 7.640806925188832199e-01 2.410474455150732886e-01 5.092078665964954176e-01 3.181855835216473860e-01 5.695929351522911743e-02 2.716806256558895183e-01 3.479230022599704708e-01 -2.914196997872779971e-01 2.167078171976336565e-01 2.745607146798721421e-01 4.633661026689529505e-01 3.514701272338572879e-01 1.169114132073781676e+00 7.676222410536411855e-01 -7.356692920145196934e-01 7.412825434015773984e-02 2.332923656561221859e-01 -2.490965577374192996e+00 1.372574243939183924e+00 2.852793377317336398e-01 4.631392695103543899e-01 3.216617627002569257e-01 6.350048813111215384e-01 3.210160866500365584e-01 2.378201354944207702e-01 -3.407578415572806163e-01 6.903302824691202044e-01 -1.638158071867198279e-02 9.218918818060746201e-01 1.708668421662601578e+00 -3.543141260154444305e-01 -1.152601150974307931e+00 2.987161982372279478e-01 5.603165489042686298e-01 9.240550516336792919e-01 2.808701599259614268e-01 7.378446896406480882e-01 4.372388007152162581e-01 3.402161776451861352e-01 3.134637618896414790e-01 3.103311305561445299e-01 3.124106785922845519e-01 9.057552934275665824e-02 1.013393065371053892e+00 1.063219718218939125e+00 3.206495532048492247e-01 4.452271482693209714e-01 -1.677473952331567097e-01 -8.152695331876413931e-02 5.238052379237352341e-01 2.785485903213075209e-01 2.243233406180645262e-01 7.041361432038362178e-01 5.897274571665829246e-01 2.732903679994034829e-01 3.071473231996139086e-01 3.419276632948711203e-01 3.280520661379824343e-01 3.385846815827363021e-01 3.129227564440604237e-01 3.214646842829347317e-01 4.770827661134020847e-02 3.736451415215301664e-01 4.766071304038975165e-01 8.978678626643078475e-01 9.930750017760029413e-01 7.325996777579018016e-01 3.080327389088625134e-01 3.707607076187309225e-01 -3.391754394524816585e-02 1.824436521611485229e-01 -1.280525534515119412e+00 2.989516318632150504e-01 5.757227493246003247e-01 3.125692509683949960e-01 7.541254828589084580e-01 1.133434396797324828e+00 2.249103014017720670e-01 3.549578288137901494e-02 3.455666520251866047e-01 4.051481784201732550e-01 6.786710136954700046e-01 2.515602261351883029e-01 -2.557647937121902415e-01 5.351635188326684389e-01 4.197033435761528541e-01 3.127278577241922042e-01 3.383385531107869770e-01 2.411531976758385099e-01 2.604151705272079731e-01 2.582532748451110138e-01 3.321007543144408047e-01 2.869558452072585863e-01 8.193106397012717146e-01 3.006347288107845683e-01 -1.373819401364337611e-01 7.852316141266119098e-01 4.073493599762925688e-01 2.195576408982141403e-01 2.904160482079921612e-01 1.112941244717873923e+00 -3.885877365770513958e-03 7.871847404536674864e-01 3.480597607725579579e-01 3.585003694575618627e-01 1.574709165600528815e-01 3.557242374056329148e-01 6.705309892361545065e-01 3.084262408128525812e-01 8.611454163506588877e-01 3.173651625464725123e-01 2.709493489009716649e-01 8.046918773332560892e-01 -1.762288313210609927e-02 -1.679214907086743036e+00 4.241141871043559997e-01 2.661594316128944038e-01 3.500158615941527107e-01 6.095910407125481045e-01 2.711857807024675715e-01 2.607617244335014850e-01 2.080078809567176279e-01 2.298559814138481927e-01 8.623452136586458316e-02 -1.405253924052657810e+00 6.667984514906654114e-01 3.472435540541201626e-01 2.706789945010138476e-01 2.675248770248203067e-01 7.344228629890189319e-01 3.158064262832782076e-01 2.687996026620048662e-01 2.959295966586760196e-01 1.013547126307287272e+00 3.793396204350202305e-01 4.035169122985037271e-01 1.084508500974736611e+00 3.266617119047497408e-01 1.855078107898394890e+00 3.342952267405735478e-01 3.047955292171418140e-01 7.318637807386977334e-01 3.104856324283441493e-01 3.720542771929443160e-01 -1.073408855967420639e+00 2.967247600959895815e-01 2.924871593304658179e-01 4.643036806472019551e-01 2.997231632685449787e-01 2.755843070936901951e-01 -5.794461839864460950e-01 1.617416790618500633e+00 -4.628290958317315407e-01 5.659162182680035347e-01 2.543853851251544063e-01 1.736724043488905578e-01 3.418793203086292753e-01 3.216272420382131347e-01 1.049548687227835453e+00 -7.196579850121093136e-02 2.807708692233743530e-01 -6.867019116891227570e-01 5.851251896620440762e-01 3.655368510185061370e-01 -2.306251531059845927e+00 2.207012538769599352e+00 2.941649408508851815e-01 3.186932694072329153e-01 -1.013910306214583112e+00 3.779186913437657669e-01 -2.737188531988622719e-02 3.252230755168847853e-01 4.102125311903420113e-01 5.871796921381505774e-01 4.383249643409056762e-01 2.665421801830121784e-01 7.412827337607832967e-02 8.081645314531975266e-02 3.667453748965511795e-01 -9.451489871263124565e-01 2.866874587662642249e-01 -4.947065357861257784e-01 3.190859642535092688e-01 1.277107951371074801e-01 3.793095633022116053e-01 2.774373503705789834e-01 3.513834815736099348e-01 7.116096663484886009e-02 2.722684202107954476e-01 3.451173060256341740e-01 2.181201710155531992e-01 3.075008821271095205e-01 3.129369817336087323e-01 -7.357131234896336913e-01 3.222508595840595791e-01 1.338033295650912224e+00 -3.471607517865976048e-03 2.743912446853237763e-01 4.122985843918238191e-01 1.221579282914158959e+00 2.873347075498952630e-01 2.604988505140468646e-01 9.220172251739011671e-01 1.560340198207279816e-01 1.379711777997966626e+00 3.567214841629555155e-01 3.604579954465014779e-01 2.636832824438523071e-01 5.980341419583120599e-01 1.224264445645240063e+00 2.644140901821830369e-01 4.648533222123734099e-01 5.897890415825518540e-01 4.798286824268348516e-01 5.539507873211038658e-02 -2.404699820138340161e-01 3.441708052714048671e-01 5.014045834491190901e-01 1.592963865099085163e-01 4.879859246031436060e-01 -7.902421835681529283e-02 1.260888253365020306e+00 2.783145117004564018e-01 2.821978282327424759e-01 -2.059302936456629318e+00 3.432114566760677832e-01 3.216339911981642152e-01 2.767140495940892397e-01 -1.264500648104835423e-01 2.605143265110559936e-01 -4.123082226682207030e-01 1.643780554904316904e-01 2.804565351689228270e-01 3.220186807884059532e-01 1.117072734637034381e+00 2.002297962620418204e-01 3.254840777580564892e-01 -1.125424968731567610e+00 2.618860916400947425e-01 8.184953432276216301e-01 7.037532895353112439e-01 3.179733100345550345e-01 -1.852623167922794745e-01 7.366415606569611807e-01 1.534139117375473704e-01 3.112836872616264183e-01 3.213601583234294568e-01 5.451964840642598009e-01 7.972956981362782081e-01 3.276754529512466707e-01 6.384955215867615941e-01 2.980981339380412987e-01 6.248417117986446723e-01 3.716957508727473658e-01 -1.361211847198969815e+00 3.262441506211285480e-01 3.009808157504177684e-02 4.444988451140108876e-01 3.038736151207988567e-01 3.331675513206214245e-01 2.580508617139980476e-01 3.214520051663783962e-01 2.358980598853022137e-01 4.049369511691773837e-01 3.194815664295647673e-01 2.391553980895190223e-01 4.077394048040351993e-01 -3.829313463806282569e-01 2.859950115946919835e-01 3.187041764270704958e-01 2.943442133733434884e-01 3.048354206686001988e-01 3.185444994015366738e-01 4.862441948806662806e-01 3.739458433626905998e-01 7.896933862460240316e-01 4.872935805905472262e-01 2.859127373109481285e-01 3.135667551287840138e-01 -1.672703792867351602e+00 2.885923583687588501e-01 3.986614425925780192e-01 3.360618760177069286e-01 2.580508734200545051e-01 3.139418279079324581e-01 2.867939432396355848e-01 3.579016399538723081e-01 3.300658050449922776e-01 2.270089724600029280e-01 2.677298791617649387e-01 3.455804782846032541e-01 4.372136168336390738e-01 3.168340114043599609e-01 3.162148965051967409e-01 2.847472831684786931e-01 1.872222424365748150e-01 2.924121660792250998e-01 2.051622161582596360e-01 1.397504412099181970e-01 3.336023280085670395e-01 2.134419338957053158e-01 -1.333448011187012353e-02 -3.377748569981454674e-01 2.895644672134512376e+00 2.955446271877045228e-01 6.612379149803110368e-01 1.726324803269834174e-01 3.438215879775901596e-01 1.258009897202109428e+00 4.035778052703252738e-01 7.526783256360305430e-01 3.206857264925477291e-01
