# 
#                 ----------------------------------------------------
#                 Data from a 3D direct N-body simulation. 
# 
#                 rows are i-particle; 
#                 coumns are :mass, tag, x ,y, z, vx, vy, vz, ax, ay, az
# 
#                 NTHU, Computational Physics 
# 
#                 ----------------------------------------------------
#                 Time = 0.0
0.000000000000000000e+00 1.000000000000000000e+00 2.000000000000000000e+00 3.000000000000000000e+00 4.000000000000000000e+00 5.000000000000000000e+00 6.000000000000000000e+00 7.000000000000000000e+00 8.000000000000000000e+00 9.000000000000000000e+00 1.000000000000000000e+01 1.100000000000000000e+01 1.200000000000000000e+01 1.300000000000000000e+01 1.400000000000000000e+01 1.500000000000000000e+01 1.600000000000000000e+01 1.700000000000000000e+01 1.800000000000000000e+01 1.900000000000000000e+01 2.000000000000000000e+01 2.100000000000000000e+01 2.200000000000000000e+01 2.300000000000000000e+01 2.400000000000000000e+01 2.500000000000000000e+01 2.600000000000000000e+01 2.700000000000000000e+01 2.800000000000000000e+01 2.900000000000000000e+01 3.000000000000000000e+01 3.100000000000000000e+01 3.200000000000000000e+01 3.300000000000000000e+01 3.400000000000000000e+01 3.500000000000000000e+01 3.600000000000000000e+01 3.700000000000000000e+01 3.800000000000000000e+01 3.900000000000000000e+01 4.000000000000000000e+01 4.100000000000000000e+01 4.200000000000000000e+01 4.300000000000000000e+01 4.400000000000000000e+01 4.500000000000000000e+01 4.600000000000000000e+01 4.700000000000000000e+01 4.800000000000000000e+01 4.900000000000000000e+01 5.000000000000000000e+01 5.100000000000000000e+01 5.200000000000000000e+01 5.300000000000000000e+01 5.400000000000000000e+01 5.500000000000000000e+01 5.600000000000000000e+01 5.700000000000000000e+01 5.800000000000000000e+01 5.900000000000000000e+01 6.000000000000000000e+01 6.100000000000000000e+01 6.200000000000000000e+01 6.300000000000000000e+01 6.400000000000000000e+01 6.500000000000000000e+01 6.600000000000000000e+01 6.700000000000000000e+01 6.800000000000000000e+01 6.900000000000000000e+01 7.000000000000000000e+01 7.100000000000000000e+01 7.200000000000000000e+01 7.300000000000000000e+01 7.400000000000000000e+01 7.500000000000000000e+01 7.600000000000000000e+01 7.700000000000000000e+01 7.800000000000000000e+01 7.900000000000000000e+01 8.000000000000000000e+01 8.100000000000000000e+01 8.200000000000000000e+01 8.300000000000000000e+01 8.400000000000000000e+01 8.500000000000000000e+01 8.600000000000000000e+01 8.700000000000000000e+01 8.800000000000000000e+01 8.900000000000000000e+01 9.000000000000000000e+01 9.100000000000000000e+01 9.200000000000000000e+01 9.300000000000000000e+01 9.400000000000000000e+01 9.500000000000000000e+01 9.600000000000000000e+01 9.700000000000000000e+01 9.800000000000000000e+01 9.900000000000000000e+01 1.000000000000000000e+02 1.010000000000000000e+02 1.020000000000000000e+02 1.030000000000000000e+02 1.040000000000000000e+02 1.050000000000000000e+02 1.060000000000000000e+02 1.070000000000000000e+02 1.080000000000000000e+02 1.090000000000000000e+02 1.100000000000000000e+02 1.110000000000000000e+02 1.120000000000000000e+02 1.130000000000000000e+02 1.140000000000000000e+02 1.150000000000000000e+02 1.160000000000000000e+02 1.170000000000000000e+02 1.180000000000000000e+02 1.190000000000000000e+02 1.200000000000000000e+02 1.210000000000000000e+02 1.220000000000000000e+02 1.230000000000000000e+02 1.240000000000000000e+02 1.250000000000000000e+02 1.260000000000000000e+02 1.270000000000000000e+02 1.280000000000000000e+02 1.290000000000000000e+02 1.300000000000000000e+02 1.310000000000000000e+02 1.320000000000000000e+02 1.330000000000000000e+02 1.340000000000000000e+02 1.350000000000000000e+02 1.360000000000000000e+02 1.370000000000000000e+02 1.380000000000000000e+02 1.390000000000000000e+02 1.400000000000000000e+02 1.410000000000000000e+02 1.420000000000000000e+02 1.430000000000000000e+02 1.440000000000000000e+02 1.450000000000000000e+02 1.460000000000000000e+02 1.470000000000000000e+02 1.480000000000000000e+02 1.490000000000000000e+02 1.500000000000000000e+02 1.510000000000000000e+02 1.520000000000000000e+02 1.530000000000000000e+02 1.540000000000000000e+02 1.550000000000000000e+02 1.560000000000000000e+02 1.570000000000000000e+02 1.580000000000000000e+02 1.590000000000000000e+02 1.600000000000000000e+02 1.610000000000000000e+02 1.620000000000000000e+02 1.630000000000000000e+02 1.640000000000000000e+02 1.650000000000000000e+02 1.660000000000000000e+02 1.670000000000000000e+02 1.680000000000000000e+02 1.690000000000000000e+02 1.700000000000000000e+02 1.710000000000000000e+02 1.720000000000000000e+02 1.730000000000000000e+02 1.740000000000000000e+02 1.750000000000000000e+02 1.760000000000000000e+02 1.770000000000000000e+02 1.780000000000000000e+02 1.790000000000000000e+02 1.800000000000000000e+02 1.810000000000000000e+02 1.820000000000000000e+02 1.830000000000000000e+02 1.840000000000000000e+02 1.850000000000000000e+02 1.860000000000000000e+02 1.870000000000000000e+02 1.880000000000000000e+02 1.890000000000000000e+02 1.900000000000000000e+02 1.910000000000000000e+02 1.920000000000000000e+02 1.930000000000000000e+02 1.940000000000000000e+02 1.950000000000000000e+02 1.960000000000000000e+02 1.970000000000000000e+02 1.980000000000000000e+02 1.990000000000000000e+02 2.000000000000000000e+02 2.010000000000000000e+02 2.020000000000000000e+02 2.030000000000000000e+02 2.040000000000000000e+02 2.050000000000000000e+02 2.060000000000000000e+02 2.070000000000000000e+02 2.080000000000000000e+02 2.090000000000000000e+02 2.100000000000000000e+02 2.110000000000000000e+02 2.120000000000000000e+02 2.130000000000000000e+02 2.140000000000000000e+02 2.150000000000000000e+02 2.160000000000000000e+02 2.170000000000000000e+02 2.180000000000000000e+02 2.190000000000000000e+02 2.200000000000000000e+02 2.210000000000000000e+02 2.220000000000000000e+02 2.230000000000000000e+02 2.240000000000000000e+02 2.250000000000000000e+02 2.260000000000000000e+02 2.270000000000000000e+02 2.280000000000000000e+02 2.290000000000000000e+02 2.300000000000000000e+02 2.310000000000000000e+02 2.320000000000000000e+02 2.330000000000000000e+02 2.340000000000000000e+02 2.350000000000000000e+02 2.360000000000000000e+02 2.370000000000000000e+02 2.380000000000000000e+02 2.390000000000000000e+02 2.400000000000000000e+02 2.410000000000000000e+02 2.420000000000000000e+02 2.430000000000000000e+02 2.440000000000000000e+02 2.450000000000000000e+02 2.460000000000000000e+02 2.470000000000000000e+02 2.480000000000000000e+02 2.490000000000000000e+02 2.500000000000000000e+02 2.510000000000000000e+02 2.520000000000000000e+02 2.530000000000000000e+02 2.540000000000000000e+02 2.550000000000000000e+02 2.560000000000000000e+02 2.570000000000000000e+02 2.580000000000000000e+02 2.590000000000000000e+02 2.600000000000000000e+02 2.610000000000000000e+02 2.620000000000000000e+02 2.630000000000000000e+02 2.640000000000000000e+02 2.650000000000000000e+02 2.660000000000000000e+02 2.670000000000000000e+02 2.680000000000000000e+02 2.690000000000000000e+02 2.700000000000000000e+02 2.710000000000000000e+02 2.720000000000000000e+02 2.730000000000000000e+02 2.740000000000000000e+02 2.750000000000000000e+02 2.760000000000000000e+02 2.770000000000000000e+02 2.780000000000000000e+02 2.790000000000000000e+02 2.800000000000000000e+02 2.810000000000000000e+02 2.820000000000000000e+02 2.830000000000000000e+02 2.840000000000000000e+02 2.850000000000000000e+02 2.860000000000000000e+02 2.870000000000000000e+02 2.880000000000000000e+02 2.890000000000000000e+02 2.900000000000000000e+02 2.910000000000000000e+02 2.920000000000000000e+02 2.930000000000000000e+02 2.940000000000000000e+02 2.950000000000000000e+02 2.960000000000000000e+02 2.970000000000000000e+02 2.980000000000000000e+02 2.990000000000000000e+02 3.000000000000000000e+02 3.010000000000000000e+02 3.020000000000000000e+02 3.030000000000000000e+02 3.040000000000000000e+02 3.050000000000000000e+02 3.060000000000000000e+02 3.070000000000000000e+02 3.080000000000000000e+02 3.090000000000000000e+02 3.100000000000000000e+02 3.110000000000000000e+02 3.120000000000000000e+02 3.130000000000000000e+02 3.140000000000000000e+02 3.150000000000000000e+02 3.160000000000000000e+02 3.170000000000000000e+02 3.180000000000000000e+02 3.190000000000000000e+02 3.200000000000000000e+02 3.210000000000000000e+02 3.220000000000000000e+02 3.230000000000000000e+02 3.240000000000000000e+02 3.250000000000000000e+02 3.260000000000000000e+02 3.270000000000000000e+02 3.280000000000000000e+02 3.290000000000000000e+02 3.300000000000000000e+02 3.310000000000000000e+02 3.320000000000000000e+02 3.330000000000000000e+02 3.340000000000000000e+02 3.350000000000000000e+02 3.360000000000000000e+02 3.370000000000000000e+02 3.380000000000000000e+02 3.390000000000000000e+02 3.400000000000000000e+02 3.410000000000000000e+02 3.420000000000000000e+02 3.430000000000000000e+02 3.440000000000000000e+02 3.450000000000000000e+02 3.460000000000000000e+02 3.470000000000000000e+02 3.480000000000000000e+02 3.490000000000000000e+02 3.500000000000000000e+02 3.510000000000000000e+02 3.520000000000000000e+02 3.530000000000000000e+02 3.540000000000000000e+02 3.550000000000000000e+02 3.560000000000000000e+02 3.570000000000000000e+02 3.580000000000000000e+02 3.590000000000000000e+02 3.600000000000000000e+02 3.610000000000000000e+02 3.620000000000000000e+02 3.630000000000000000e+02 3.640000000000000000e+02 3.650000000000000000e+02 3.660000000000000000e+02 3.670000000000000000e+02 3.680000000000000000e+02 3.690000000000000000e+02 3.700000000000000000e+02 3.710000000000000000e+02 3.720000000000000000e+02 3.730000000000000000e+02 3.740000000000000000e+02 3.750000000000000000e+02 3.760000000000000000e+02 3.770000000000000000e+02 3.780000000000000000e+02 3.790000000000000000e+02 3.800000000000000000e+02 3.810000000000000000e+02 3.820000000000000000e+02 3.830000000000000000e+02 3.840000000000000000e+02 3.850000000000000000e+02 3.860000000000000000e+02 3.870000000000000000e+02 3.880000000000000000e+02 3.890000000000000000e+02 3.900000000000000000e+02 3.910000000000000000e+02 3.920000000000000000e+02 3.930000000000000000e+02 3.940000000000000000e+02 3.950000000000000000e+02 3.960000000000000000e+02 3.970000000000000000e+02 3.980000000000000000e+02 3.990000000000000000e+02 4.000000000000000000e+02 4.010000000000000000e+02 4.020000000000000000e+02 4.030000000000000000e+02 4.040000000000000000e+02 4.050000000000000000e+02 4.060000000000000000e+02 4.070000000000000000e+02 4.080000000000000000e+02 4.090000000000000000e+02 4.100000000000000000e+02 4.110000000000000000e+02 4.120000000000000000e+02 4.130000000000000000e+02 4.140000000000000000e+02 4.150000000000000000e+02 4.160000000000000000e+02 4.170000000000000000e+02 4.180000000000000000e+02 4.190000000000000000e+02 4.200000000000000000e+02 4.210000000000000000e+02 4.220000000000000000e+02 4.230000000000000000e+02 4.240000000000000000e+02 4.250000000000000000e+02 4.260000000000000000e+02 4.270000000000000000e+02 4.280000000000000000e+02 4.290000000000000000e+02 4.300000000000000000e+02 4.310000000000000000e+02 4.320000000000000000e+02 4.330000000000000000e+02 4.340000000000000000e+02 4.350000000000000000e+02 4.360000000000000000e+02 4.370000000000000000e+02 4.380000000000000000e+02 4.390000000000000000e+02 4.400000000000000000e+02 4.410000000000000000e+02 4.420000000000000000e+02 4.430000000000000000e+02 4.440000000000000000e+02 4.450000000000000000e+02 4.460000000000000000e+02 4.470000000000000000e+02 4.480000000000000000e+02 4.490000000000000000e+02 4.500000000000000000e+02 4.510000000000000000e+02 4.520000000000000000e+02 4.530000000000000000e+02 4.540000000000000000e+02 4.550000000000000000e+02 4.560000000000000000e+02 4.570000000000000000e+02 4.580000000000000000e+02 4.590000000000000000e+02 4.600000000000000000e+02 4.610000000000000000e+02 4.620000000000000000e+02 4.630000000000000000e+02 4.640000000000000000e+02 4.650000000000000000e+02 4.660000000000000000e+02 4.670000000000000000e+02 4.680000000000000000e+02 4.690000000000000000e+02 4.700000000000000000e+02 4.710000000000000000e+02 4.720000000000000000e+02 4.730000000000000000e+02 4.740000000000000000e+02 4.750000000000000000e+02 4.760000000000000000e+02 4.770000000000000000e+02 4.780000000000000000e+02 4.790000000000000000e+02 4.800000000000000000e+02 4.810000000000000000e+02 4.820000000000000000e+02 4.830000000000000000e+02 4.840000000000000000e+02 4.850000000000000000e+02 4.860000000000000000e+02 4.870000000000000000e+02 4.880000000000000000e+02 4.890000000000000000e+02 4.900000000000000000e+02 4.910000000000000000e+02 4.920000000000000000e+02 4.930000000000000000e+02 4.940000000000000000e+02 4.950000000000000000e+02 4.960000000000000000e+02 4.970000000000000000e+02 4.980000000000000000e+02 4.990000000000000000e+02 5.000000000000000000e+02 5.010000000000000000e+02 5.020000000000000000e+02 5.030000000000000000e+02 5.040000000000000000e+02 5.050000000000000000e+02 5.060000000000000000e+02 5.070000000000000000e+02 5.080000000000000000e+02 5.090000000000000000e+02 5.100000000000000000e+02 5.110000000000000000e+02 5.120000000000000000e+02 5.130000000000000000e+02 5.140000000000000000e+02 5.150000000000000000e+02 5.160000000000000000e+02 5.170000000000000000e+02 5.180000000000000000e+02 5.190000000000000000e+02 5.200000000000000000e+02 5.210000000000000000e+02 5.220000000000000000e+02 5.230000000000000000e+02 5.240000000000000000e+02 5.250000000000000000e+02 5.260000000000000000e+02 5.270000000000000000e+02 5.280000000000000000e+02 5.290000000000000000e+02 5.300000000000000000e+02 5.310000000000000000e+02 5.320000000000000000e+02 5.330000000000000000e+02 5.340000000000000000e+02 5.350000000000000000e+02 5.360000000000000000e+02 5.370000000000000000e+02 5.380000000000000000e+02 5.390000000000000000e+02 5.400000000000000000e+02 5.410000000000000000e+02 5.420000000000000000e+02 5.430000000000000000e+02 5.440000000000000000e+02 5.450000000000000000e+02 5.460000000000000000e+02 5.470000000000000000e+02 5.480000000000000000e+02 5.490000000000000000e+02 5.500000000000000000e+02 5.510000000000000000e+02 5.520000000000000000e+02 5.530000000000000000e+02 5.540000000000000000e+02 5.550000000000000000e+02 5.560000000000000000e+02 5.570000000000000000e+02 5.580000000000000000e+02 5.590000000000000000e+02 5.600000000000000000e+02 5.610000000000000000e+02 5.620000000000000000e+02 5.630000000000000000e+02 5.640000000000000000e+02 5.650000000000000000e+02 5.660000000000000000e+02 5.670000000000000000e+02 5.680000000000000000e+02 5.690000000000000000e+02 5.700000000000000000e+02 5.710000000000000000e+02 5.720000000000000000e+02 5.730000000000000000e+02 5.740000000000000000e+02 5.750000000000000000e+02 5.760000000000000000e+02 5.770000000000000000e+02 5.780000000000000000e+02 5.790000000000000000e+02 5.800000000000000000e+02 5.810000000000000000e+02 5.820000000000000000e+02 5.830000000000000000e+02 5.840000000000000000e+02 5.850000000000000000e+02 5.860000000000000000e+02 5.870000000000000000e+02 5.880000000000000000e+02 5.890000000000000000e+02 5.900000000000000000e+02 5.910000000000000000e+02 5.920000000000000000e+02 5.930000000000000000e+02 5.940000000000000000e+02 5.950000000000000000e+02 5.960000000000000000e+02 5.970000000000000000e+02 5.980000000000000000e+02 5.990000000000000000e+02 6.000000000000000000e+02 6.010000000000000000e+02 6.020000000000000000e+02 6.030000000000000000e+02 6.040000000000000000e+02 6.050000000000000000e+02 6.060000000000000000e+02 6.070000000000000000e+02 6.080000000000000000e+02 6.090000000000000000e+02 6.100000000000000000e+02 6.110000000000000000e+02 6.120000000000000000e+02 6.130000000000000000e+02 6.140000000000000000e+02 6.150000000000000000e+02 6.160000000000000000e+02 6.170000000000000000e+02 6.180000000000000000e+02 6.190000000000000000e+02 6.200000000000000000e+02 6.210000000000000000e+02 6.220000000000000000e+02 6.230000000000000000e+02 6.240000000000000000e+02 6.250000000000000000e+02 6.260000000000000000e+02 6.270000000000000000e+02 6.280000000000000000e+02 6.290000000000000000e+02 6.300000000000000000e+02 6.310000000000000000e+02 6.320000000000000000e+02 6.330000000000000000e+02 6.340000000000000000e+02 6.350000000000000000e+02 6.360000000000000000e+02 6.370000000000000000e+02 6.380000000000000000e+02 6.390000000000000000e+02 6.400000000000000000e+02 6.410000000000000000e+02 6.420000000000000000e+02 6.430000000000000000e+02 6.440000000000000000e+02 6.450000000000000000e+02 6.460000000000000000e+02 6.470000000000000000e+02 6.480000000000000000e+02 6.490000000000000000e+02 6.500000000000000000e+02 6.510000000000000000e+02 6.520000000000000000e+02 6.530000000000000000e+02 6.540000000000000000e+02 6.550000000000000000e+02 6.560000000000000000e+02 6.570000000000000000e+02 6.580000000000000000e+02 6.590000000000000000e+02 6.600000000000000000e+02 6.610000000000000000e+02 6.620000000000000000e+02 6.630000000000000000e+02 6.640000000000000000e+02 6.650000000000000000e+02 6.660000000000000000e+02 6.670000000000000000e+02 6.680000000000000000e+02 6.690000000000000000e+02 6.700000000000000000e+02 6.710000000000000000e+02 6.720000000000000000e+02 6.730000000000000000e+02 6.740000000000000000e+02 6.750000000000000000e+02 6.760000000000000000e+02 6.770000000000000000e+02 6.780000000000000000e+02 6.790000000000000000e+02 6.800000000000000000e+02 6.810000000000000000e+02 6.820000000000000000e+02 6.830000000000000000e+02 6.840000000000000000e+02 6.850000000000000000e+02 6.860000000000000000e+02 6.870000000000000000e+02 6.880000000000000000e+02 6.890000000000000000e+02 6.900000000000000000e+02 6.910000000000000000e+02 6.920000000000000000e+02 6.930000000000000000e+02 6.940000000000000000e+02 6.950000000000000000e+02 6.960000000000000000e+02 6.970000000000000000e+02 6.980000000000000000e+02 6.990000000000000000e+02 7.000000000000000000e+02 7.010000000000000000e+02 7.020000000000000000e+02 7.030000000000000000e+02 7.040000000000000000e+02 7.050000000000000000e+02 7.060000000000000000e+02 7.070000000000000000e+02 7.080000000000000000e+02 7.090000000000000000e+02 7.100000000000000000e+02 7.110000000000000000e+02 7.120000000000000000e+02 7.130000000000000000e+02 7.140000000000000000e+02 7.150000000000000000e+02 7.160000000000000000e+02 7.170000000000000000e+02 7.180000000000000000e+02 7.190000000000000000e+02 7.200000000000000000e+02 7.210000000000000000e+02 7.220000000000000000e+02 7.230000000000000000e+02 7.240000000000000000e+02 7.250000000000000000e+02 7.260000000000000000e+02 7.270000000000000000e+02 7.280000000000000000e+02 7.290000000000000000e+02 7.300000000000000000e+02 7.310000000000000000e+02 7.320000000000000000e+02 7.330000000000000000e+02 7.340000000000000000e+02 7.350000000000000000e+02 7.360000000000000000e+02 7.370000000000000000e+02 7.380000000000000000e+02 7.390000000000000000e+02 7.400000000000000000e+02 7.410000000000000000e+02 7.420000000000000000e+02 7.430000000000000000e+02 7.440000000000000000e+02 7.450000000000000000e+02 7.460000000000000000e+02 7.470000000000000000e+02 7.480000000000000000e+02 7.490000000000000000e+02 7.500000000000000000e+02 7.510000000000000000e+02 7.520000000000000000e+02 7.530000000000000000e+02 7.540000000000000000e+02 7.550000000000000000e+02 7.560000000000000000e+02 7.570000000000000000e+02 7.580000000000000000e+02 7.590000000000000000e+02 7.600000000000000000e+02 7.610000000000000000e+02 7.620000000000000000e+02 7.630000000000000000e+02 7.640000000000000000e+02 7.650000000000000000e+02 7.660000000000000000e+02 7.670000000000000000e+02 7.680000000000000000e+02 7.690000000000000000e+02 7.700000000000000000e+02 7.710000000000000000e+02 7.720000000000000000e+02 7.730000000000000000e+02 7.740000000000000000e+02 7.750000000000000000e+02 7.760000000000000000e+02 7.770000000000000000e+02 7.780000000000000000e+02 7.790000000000000000e+02 7.800000000000000000e+02 7.810000000000000000e+02 7.820000000000000000e+02 7.830000000000000000e+02 7.840000000000000000e+02 7.850000000000000000e+02 7.860000000000000000e+02 7.870000000000000000e+02 7.880000000000000000e+02 7.890000000000000000e+02 7.900000000000000000e+02 7.910000000000000000e+02 7.920000000000000000e+02 7.930000000000000000e+02 7.940000000000000000e+02 7.950000000000000000e+02 7.960000000000000000e+02 7.970000000000000000e+02 7.980000000000000000e+02 7.990000000000000000e+02 8.000000000000000000e+02 8.010000000000000000e+02 8.020000000000000000e+02 8.030000000000000000e+02 8.040000000000000000e+02 8.050000000000000000e+02 8.060000000000000000e+02 8.070000000000000000e+02 8.080000000000000000e+02 8.090000000000000000e+02 8.100000000000000000e+02 8.110000000000000000e+02 8.120000000000000000e+02 8.130000000000000000e+02 8.140000000000000000e+02 8.150000000000000000e+02 8.160000000000000000e+02 8.170000000000000000e+02 8.180000000000000000e+02 8.190000000000000000e+02 8.200000000000000000e+02 8.210000000000000000e+02 8.220000000000000000e+02 8.230000000000000000e+02 8.240000000000000000e+02 8.250000000000000000e+02 8.260000000000000000e+02 8.270000000000000000e+02 8.280000000000000000e+02 8.290000000000000000e+02 8.300000000000000000e+02 8.310000000000000000e+02 8.320000000000000000e+02 8.330000000000000000e+02 8.340000000000000000e+02 8.350000000000000000e+02 8.360000000000000000e+02 8.370000000000000000e+02 8.380000000000000000e+02 8.390000000000000000e+02 8.400000000000000000e+02 8.410000000000000000e+02 8.420000000000000000e+02 8.430000000000000000e+02 8.440000000000000000e+02 8.450000000000000000e+02 8.460000000000000000e+02 8.470000000000000000e+02 8.480000000000000000e+02 8.490000000000000000e+02 8.500000000000000000e+02 8.510000000000000000e+02 8.520000000000000000e+02 8.530000000000000000e+02 8.540000000000000000e+02 8.550000000000000000e+02 8.560000000000000000e+02 8.570000000000000000e+02 8.580000000000000000e+02 8.590000000000000000e+02 8.600000000000000000e+02 8.610000000000000000e+02 8.620000000000000000e+02 8.630000000000000000e+02 8.640000000000000000e+02 8.650000000000000000e+02 8.660000000000000000e+02 8.670000000000000000e+02 8.680000000000000000e+02 8.690000000000000000e+02 8.700000000000000000e+02 8.710000000000000000e+02 8.720000000000000000e+02 8.730000000000000000e+02 8.740000000000000000e+02 8.750000000000000000e+02 8.760000000000000000e+02 8.770000000000000000e+02 8.780000000000000000e+02 8.790000000000000000e+02 8.800000000000000000e+02 8.810000000000000000e+02 8.820000000000000000e+02 8.830000000000000000e+02 8.840000000000000000e+02 8.850000000000000000e+02 8.860000000000000000e+02 8.870000000000000000e+02 8.880000000000000000e+02 8.890000000000000000e+02 8.900000000000000000e+02 8.910000000000000000e+02 8.920000000000000000e+02 8.930000000000000000e+02 8.940000000000000000e+02 8.950000000000000000e+02 8.960000000000000000e+02 8.970000000000000000e+02 8.980000000000000000e+02 8.990000000000000000e+02 9.000000000000000000e+02 9.010000000000000000e+02 9.020000000000000000e+02 9.030000000000000000e+02 9.040000000000000000e+02 9.050000000000000000e+02 9.060000000000000000e+02 9.070000000000000000e+02 9.080000000000000000e+02 9.090000000000000000e+02 9.100000000000000000e+02 9.110000000000000000e+02 9.120000000000000000e+02 9.130000000000000000e+02 9.140000000000000000e+02 9.150000000000000000e+02 9.160000000000000000e+02 9.170000000000000000e+02 9.180000000000000000e+02 9.190000000000000000e+02 9.200000000000000000e+02 9.210000000000000000e+02 9.220000000000000000e+02 9.230000000000000000e+02 9.240000000000000000e+02 9.250000000000000000e+02 9.260000000000000000e+02 9.270000000000000000e+02 9.280000000000000000e+02 9.290000000000000000e+02 9.300000000000000000e+02 9.310000000000000000e+02 9.320000000000000000e+02 9.330000000000000000e+02 9.340000000000000000e+02 9.350000000000000000e+02 9.360000000000000000e+02 9.370000000000000000e+02 9.380000000000000000e+02 9.390000000000000000e+02 9.400000000000000000e+02 9.410000000000000000e+02 9.420000000000000000e+02 9.430000000000000000e+02 9.440000000000000000e+02 9.450000000000000000e+02 9.460000000000000000e+02 9.470000000000000000e+02 9.480000000000000000e+02 9.490000000000000000e+02 9.500000000000000000e+02 9.510000000000000000e+02 9.520000000000000000e+02 9.530000000000000000e+02 9.540000000000000000e+02 9.550000000000000000e+02 9.560000000000000000e+02 9.570000000000000000e+02 9.580000000000000000e+02 9.590000000000000000e+02 9.600000000000000000e+02 9.610000000000000000e+02 9.620000000000000000e+02 9.630000000000000000e+02 9.640000000000000000e+02 9.650000000000000000e+02 9.660000000000000000e+02 9.670000000000000000e+02 9.680000000000000000e+02 9.690000000000000000e+02 9.700000000000000000e+02 9.710000000000000000e+02 9.720000000000000000e+02 9.730000000000000000e+02 9.740000000000000000e+02 9.750000000000000000e+02 9.760000000000000000e+02 9.770000000000000000e+02 9.780000000000000000e+02 9.790000000000000000e+02 9.800000000000000000e+02 9.810000000000000000e+02 9.820000000000000000e+02 9.830000000000000000e+02 9.840000000000000000e+02 9.850000000000000000e+02 9.860000000000000000e+02 9.870000000000000000e+02 9.880000000000000000e+02 9.890000000000000000e+02 9.900000000000000000e+02 9.910000000000000000e+02 9.920000000000000000e+02 9.930000000000000000e+02 9.940000000000000000e+02 9.950000000000000000e+02 9.960000000000000000e+02 9.970000000000000000e+02 9.980000000000000000e+02 9.990000000000000000e+02
1.000000000000000000e+00 1.000000000000000000e+00 1.000000000000000000e+00 1.000000000000000000e+00 1.000000000000000000e+00 1.000000000000000000e+00 1.000000000000000000e+00 1.000000000000000000e+00 1.000000000000000000e+00 1.000000000000000000e+00 1.000000000000000000e+00 1.000000000000000000e+00 1.000000000000000000e+00 1.000000000000000000e+00 1.000000000000000000e+00 1.000000000000000000e+00 1.000000000000000000e+00 1.000000000000000000e+00 1.000000000000000000e+00 1.000000000000000000e+00 1.000000000000000000e+00 1.000000000000000000e+00 1.000000000000000000e+00 1.000000000000000000e+00 1.000000000000000000e+00 1.000000000000000000e+00 1.000000000000000000e+00 1.000000000000000000e+00 1.000000000000000000e+00 1.000000000000000000e+00 1.000000000000000000e+00 1.000000000000000000e+00 1.000000000000000000e+00 1.000000000000000000e+00 1.000000000000000000e+00 1.000000000000000000e+00 1.000000000000000000e+00 1.000000000000000000e+00 1.000000000000000000e+00 1.000000000000000000e+00 1.000000000000000000e+00 1.000000000000000000e+00 1.000000000000000000e+00 1.000000000000000000e+00 1.000000000000000000e+00 1.000000000000000000e+00 1.000000000000000000e+00 1.000000000000000000e+00 1.000000000000000000e+00 1.000000000000000000e+00 1.000000000000000000e+00 1.000000000000000000e+00 1.000000000000000000e+00 1.000000000000000000e+00 1.000000000000000000e+00 1.000000000000000000e+00 1.000000000000000000e+00 1.000000000000000000e+00 1.000000000000000000e+00 1.000000000000000000e+00 1.000000000000000000e+00 1.000000000000000000e+00 1.000000000000000000e+00 1.000000000000000000e+00 1.000000000000000000e+00 1.000000000000000000e+00 1.000000000000000000e+00 1.000000000000000000e+00 1.000000000000000000e+00 1.000000000000000000e+00 1.000000000000000000e+00 1.000000000000000000e+00 1.000000000000000000e+00 1.000000000000000000e+00 1.000000000000000000e+00 1.000000000000000000e+00 1.000000000000000000e+00 1.000000000000000000e+00 1.000000000000000000e+00 1.000000000000000000e+00 1.000000000000000000e+00 1.000000000000000000e+00 1.000000000000000000e+00 1.000000000000000000e+00 1.000000000000000000e+00 1.000000000000000000e+00 1.000000000000000000e+00 1.000000000000000000e+00 1.000000000000000000e+00 1.000000000000000000e+00 1.000000000000000000e+00 1.000000000000000000e+00 1.000000000000000000e+00 1.000000000000000000e+00 1.000000000000000000e+00 1.000000000000000000e+00 1.000000000000000000e+00 1.000000000000000000e+00 1.000000000000000000e+00 1.000000000000000000e+00 1.000000000000000000e+00 1.000000000000000000e+00 1.000000000000000000e+00 1.000000000000000000e+00 1.000000000000000000e+00 1.000000000000000000e+00 1.000000000000000000e+00 1.000000000000000000e+00 1.000000000000000000e+00 1.000000000000000000e+00 1.000000000000000000e+00 1.000000000000000000e+00 1.000000000000000000e+00 1.000000000000000000e+00 1.000000000000000000e+00 1.000000000000000000e+00 1.000000000000000000e+00 1.000000000000000000e+00 1.000000000000000000e+00 1.000000000000000000e+00 1.000000000000000000e+00 1.000000000000000000e+00 1.000000000000000000e+00 1.000000000000000000e+00 1.000000000000000000e+00 1.000000000000000000e+00 1.000000000000000000e+00 1.000000000000000000e+00 1.000000000000000000e+00 1.000000000000000000e+00 1.000000000000000000e+00 1.000000000000000000e+00 1.000000000000000000e+00 1.000000000000000000e+00 1.000000000000000000e+00 1.000000000000000000e+00 1.000000000000000000e+00 1.000000000000000000e+00 1.000000000000000000e+00 1.000000000000000000e+00 1.000000000000000000e+00 1.000000000000000000e+00 1.000000000000000000e+00 1.000000000000000000e+00 1.000000000000000000e+00 1.000000000000000000e+00 1.000000000000000000e+00 1.000000000000000000e+00 1.000000000000000000e+00 1.000000000000000000e+00 1.000000000000000000e+00 1.000000000000000000e+00 1.000000000000000000e+00 1.000000000000000000e+00 1.000000000000000000e+00 1.000000000000000000e+00 1.000000000000000000e+00 1.000000000000000000e+00 1.000000000000000000e+00 1.000000000000000000e+00 1.000000000000000000e+00 1.000000000000000000e+00 1.000000000000000000e+00 1.000000000000000000e+00 1.000000000000000000e+00 1.000000000000000000e+00 1.000000000000000000e+00 1.000000000000000000e+00 1.000000000000000000e+00 1.000000000000000000e+00 1.000000000000000000e+00 1.000000000000000000e+00 1.000000000000000000e+00 1.000000000000000000e+00 1.000000000000000000e+00 1.000000000000000000e+00 1.000000000000000000e+00 1.000000000000000000e+00 1.000000000000000000e+00 1.000000000000000000e+00 1.000000000000000000e+00 1.000000000000000000e+00 1.000000000000000000e+00 1.000000000000000000e+00 1.000000000000000000e+00 1.000000000000000000e+00 1.000000000000000000e+00 1.000000000000000000e+00 1.000000000000000000e+00 1.000000000000000000e+00 1.000000000000000000e+00 1.000000000000000000e+00 1.000000000000000000e+00 1.000000000000000000e+00 1.000000000000000000e+00 1.000000000000000000e+00 1.000000000000000000e+00 1.000000000000000000e+00 1.000000000000000000e+00 1.000000000000000000e+00 1.000000000000000000e+00 1.000000000000000000e+00 1.000000000000000000e+00 1.000000000000000000e+00 1.000000000000000000e+00 1.000000000000000000e+00 1.000000000000000000e+00 1.000000000000000000e+00 1.000000000000000000e+00 1.000000000000000000e+00 1.000000000000000000e+00 1.000000000000000000e+00 1.000000000000000000e+00 1.000000000000000000e+00 1.000000000000000000e+00 1.000000000000000000e+00 1.000000000000000000e+00 1.000000000000000000e+00 1.000000000000000000e+00 1.000000000000000000e+00 1.000000000000000000e+00 1.000000000000000000e+00 1.000000000000000000e+00 1.000000000000000000e+00 1.000000000000000000e+00 1.000000000000000000e+00 1.000000000000000000e+00 1.000000000000000000e+00 1.000000000000000000e+00 1.000000000000000000e+00 1.000000000000000000e+00 1.000000000000000000e+00 1.000000000000000000e+00 1.000000000000000000e+00 1.000000000000000000e+00 1.000000000000000000e+00 1.000000000000000000e+00 1.000000000000000000e+00 1.000000000000000000e+00 1.000000000000000000e+00 1.000000000000000000e+00 1.000000000000000000e+00 1.000000000000000000e+00 1.000000000000000000e+00 1.000000000000000000e+00 1.000000000000000000e+00 1.000000000000000000e+00 1.000000000000000000e+00 1.000000000000000000e+00 1.000000000000000000e+00 1.000000000000000000e+00 1.000000000000000000e+00 1.000000000000000000e+00 1.000000000000000000e+00 1.000000000000000000e+00 1.000000000000000000e+00 1.000000000000000000e+00 1.000000000000000000e+00 1.000000000000000000e+00 1.000000000000000000e+00 1.000000000000000000e+00 1.000000000000000000e+00 1.000000000000000000e+00 1.000000000000000000e+00 1.000000000000000000e+00 1.000000000000000000e+00 1.000000000000000000e+00 1.000000000000000000e+00 1.000000000000000000e+00 1.000000000000000000e+00 1.000000000000000000e+00 1.000000000000000000e+00 1.000000000000000000e+00 1.000000000000000000e+00 1.000000000000000000e+00 1.000000000000000000e+00 1.000000000000000000e+00 1.000000000000000000e+00 1.000000000000000000e+00 1.000000000000000000e+00 1.000000000000000000e+00 1.000000000000000000e+00 1.000000000000000000e+00 1.000000000000000000e+00 1.000000000000000000e+00 1.000000000000000000e+00 1.000000000000000000e+00 1.000000000000000000e+00 1.000000000000000000e+00 1.000000000000000000e+00 1.000000000000000000e+00 1.000000000000000000e+00 1.000000000000000000e+00 1.000000000000000000e+00 1.000000000000000000e+00 1.000000000000000000e+00 1.000000000000000000e+00 1.000000000000000000e+00 1.000000000000000000e+00 1.000000000000000000e+00 1.000000000000000000e+00 1.000000000000000000e+00 1.000000000000000000e+00 1.000000000000000000e+00 1.000000000000000000e+00 1.000000000000000000e+00 1.000000000000000000e+00 1.000000000000000000e+00 1.000000000000000000e+00 1.000000000000000000e+00 1.000000000000000000e+00 1.000000000000000000e+00 1.000000000000000000e+00 1.000000000000000000e+00 1.000000000000000000e+00 1.000000000000000000e+00 1.000000000000000000e+00 1.000000000000000000e+00 1.000000000000000000e+00 1.000000000000000000e+00 1.000000000000000000e+00 1.000000000000000000e+00 1.000000000000000000e+00 1.000000000000000000e+00 1.000000000000000000e+00 1.000000000000000000e+00 1.000000000000000000e+00 1.000000000000000000e+00 1.000000000000000000e+00 1.000000000000000000e+00 1.000000000000000000e+00 1.000000000000000000e+00 1.000000000000000000e+00 1.000000000000000000e+00 1.000000000000000000e+00 1.000000000000000000e+00 1.000000000000000000e+00 1.000000000000000000e+00 1.000000000000000000e+00 1.000000000000000000e+00 1.000000000000000000e+00 1.000000000000000000e+00 1.000000000000000000e+00 1.000000000000000000e+00 1.000000000000000000e+00 1.000000000000000000e+00 1.000000000000000000e+00 1.000000000000000000e+00 1.000000000000000000e+00 1.000000000000000000e+00 1.000000000000000000e+00 1.000000000000000000e+00 1.000000000000000000e+00 1.000000000000000000e+00 1.000000000000000000e+00 1.000000000000000000e+00 1.000000000000000000e+00 1.000000000000000000e+00 1.000000000000000000e+00 1.000000000000000000e+00 1.000000000000000000e+00 1.000000000000000000e+00 1.000000000000000000e+00 1.000000000000000000e+00 1.000000000000000000e+00 1.000000000000000000e+00 1.000000000000000000e+00 1.000000000000000000e+00 1.000000000000000000e+00 1.000000000000000000e+00 1.000000000000000000e+00 1.000000000000000000e+00 1.000000000000000000e+00 1.000000000000000000e+00 1.000000000000000000e+00 1.000000000000000000e+00 1.000000000000000000e+00 1.000000000000000000e+00 1.000000000000000000e+00 1.000000000000000000e+00 1.000000000000000000e+00 1.000000000000000000e+00 1.000000000000000000e+00 1.000000000000000000e+00 1.000000000000000000e+00 1.000000000000000000e+00 1.000000000000000000e+00 1.000000000000000000e+00 1.000000000000000000e+00 1.000000000000000000e+00 1.000000000000000000e+00 1.000000000000000000e+00 1.000000000000000000e+00 1.000000000000000000e+00 1.000000000000000000e+00 1.000000000000000000e+00 1.000000000000000000e+00 1.000000000000000000e+00 1.000000000000000000e+00 1.000000000000000000e+00 1.000000000000000000e+00 1.000000000000000000e+00 1.000000000000000000e+00 1.000000000000000000e+00 1.000000000000000000e+00 1.000000000000000000e+00 1.000000000000000000e+00 1.000000000000000000e+00 1.000000000000000000e+00 1.000000000000000000e+00 1.000000000000000000e+00 1.000000000000000000e+00 1.000000000000000000e+00 1.000000000000000000e+00 1.000000000000000000e+00 1.000000000000000000e+00 1.000000000000000000e+00 1.000000000000000000e+00 1.000000000000000000e+00 1.000000000000000000e+00 1.000000000000000000e+00 1.000000000000000000e+00 1.000000000000000000e+00 1.000000000000000000e+00 1.000000000000000000e+00 1.000000000000000000e+00 1.000000000000000000e+00 1.000000000000000000e+00 1.000000000000000000e+00 1.000000000000000000e+00 1.000000000000000000e+00 1.000000000000000000e+00 1.000000000000000000e+00 1.000000000000000000e+00 1.000000000000000000e+00 1.000000000000000000e+00 1.000000000000000000e+00 1.000000000000000000e+00 1.000000000000000000e+00 1.000000000000000000e+00 1.000000000000000000e+00 1.000000000000000000e+00 1.000000000000000000e+00 1.000000000000000000e+00 1.000000000000000000e+00 1.000000000000000000e+00 1.000000000000000000e+00 1.000000000000000000e+00 1.000000000000000000e+00 1.000000000000000000e+00 1.000000000000000000e+00 1.000000000000000000e+00 1.000000000000000000e+00 1.000000000000000000e+00 1.000000000000000000e+00 1.000000000000000000e+00 1.000000000000000000e+00 1.000000000000000000e+00 1.000000000000000000e+00 1.000000000000000000e+00 1.000000000000000000e+00 1.000000000000000000e+00 1.000000000000000000e+00 1.000000000000000000e+00 1.000000000000000000e+00 1.000000000000000000e+00 1.000000000000000000e+00 1.000000000000000000e+00 1.000000000000000000e+00 1.000000000000000000e+00 1.000000000000000000e+00 1.000000000000000000e+00 1.000000000000000000e+00 1.000000000000000000e+00 1.000000000000000000e+00 1.000000000000000000e+00 1.000000000000000000e+00 1.000000000000000000e+00 1.000000000000000000e+00 1.000000000000000000e+00 1.000000000000000000e+00 1.000000000000000000e+00 1.000000000000000000e+00 1.000000000000000000e+00 1.000000000000000000e+00 1.000000000000000000e+00 1.000000000000000000e+00 1.000000000000000000e+00 1.000000000000000000e+00 1.000000000000000000e+00 1.000000000000000000e+00 1.000000000000000000e+00 1.000000000000000000e+00 1.000000000000000000e+00 1.000000000000000000e+00 1.000000000000000000e+00 1.000000000000000000e+00 1.000000000000000000e+00 1.000000000000000000e+00 1.000000000000000000e+00 1.000000000000000000e+00 1.000000000000000000e+00 1.000000000000000000e+00 1.000000000000000000e+00 1.000000000000000000e+00 1.000000000000000000e+00 1.000000000000000000e+00 1.000000000000000000e+00 1.000000000000000000e+00 1.000000000000000000e+00 1.000000000000000000e+00 1.000000000000000000e+00 1.000000000000000000e+00 1.000000000000000000e+00 1.000000000000000000e+00 1.000000000000000000e+00 1.000000000000000000e+00 1.000000000000000000e+00 1.000000000000000000e+00 1.000000000000000000e+00 1.000000000000000000e+00 1.000000000000000000e+00 1.000000000000000000e+00 1.000000000000000000e+00 1.000000000000000000e+00 1.000000000000000000e+00 1.000000000000000000e+00 1.000000000000000000e+00 1.000000000000000000e+00 1.000000000000000000e+00 1.000000000000000000e+00 1.000000000000000000e+00 1.000000000000000000e+00 1.000000000000000000e+00 1.000000000000000000e+00 1.000000000000000000e+00 1.000000000000000000e+00 1.000000000000000000e+00 1.000000000000000000e+00 1.000000000000000000e+00 1.000000000000000000e+00 1.000000000000000000e+00 1.000000000000000000e+00 1.000000000000000000e+00 1.000000000000000000e+00 1.000000000000000000e+00 1.000000000000000000e+00 1.000000000000000000e+00 1.000000000000000000e+00 1.000000000000000000e+00 1.000000000000000000e+00 1.000000000000000000e+00 1.000000000000000000e+00 1.000000000000000000e+00 1.000000000000000000e+00 1.000000000000000000e+00 1.000000000000000000e+00 1.000000000000000000e+00 1.000000000000000000e+00 1.000000000000000000e+00 1.000000000000000000e+00 1.000000000000000000e+00 1.000000000000000000e+00 1.000000000000000000e+00 1.000000000000000000e+00 1.000000000000000000e+00 1.000000000000000000e+00 1.000000000000000000e+00 1.000000000000000000e+00 1.000000000000000000e+00 1.000000000000000000e+00 1.000000000000000000e+00 1.000000000000000000e+00 1.000000000000000000e+00 1.000000000000000000e+00 1.000000000000000000e+00 1.000000000000000000e+00 1.000000000000000000e+00 1.000000000000000000e+00 1.000000000000000000e+00 1.000000000000000000e+00 1.000000000000000000e+00 1.000000000000000000e+00 1.000000000000000000e+00 1.000000000000000000e+00 1.000000000000000000e+00 1.000000000000000000e+00 1.000000000000000000e+00 1.000000000000000000e+00 1.000000000000000000e+00 1.000000000000000000e+00 1.000000000000000000e+00 1.000000000000000000e+00 1.000000000000000000e+00 1.000000000000000000e+00 1.000000000000000000e+00 1.000000000000000000e+00 1.000000000000000000e+00 1.000000000000000000e+00 1.000000000000000000e+00 1.000000000000000000e+00 1.000000000000000000e+00 1.000000000000000000e+00 1.000000000000000000e+00 1.000000000000000000e+00 1.000000000000000000e+00 1.000000000000000000e+00 1.000000000000000000e+00 1.000000000000000000e+00 1.000000000000000000e+00 1.000000000000000000e+00 1.000000000000000000e+00 1.000000000000000000e+00 1.000000000000000000e+00 1.000000000000000000e+00 1.000000000000000000e+00 1.000000000000000000e+00 1.000000000000000000e+00 1.000000000000000000e+00 1.000000000000000000e+00 1.000000000000000000e+00 1.000000000000000000e+00 1.000000000000000000e+00 1.000000000000000000e+00 1.000000000000000000e+00 1.000000000000000000e+00 1.000000000000000000e+00 1.000000000000000000e+00 1.000000000000000000e+00 1.000000000000000000e+00 1.000000000000000000e+00 1.000000000000000000e+00 1.000000000000000000e+00 1.000000000000000000e+00 1.000000000000000000e+00 1.000000000000000000e+00 1.000000000000000000e+00 1.000000000000000000e+00 1.000000000000000000e+00 1.000000000000000000e+00 1.000000000000000000e+00 1.000000000000000000e+00 1.000000000000000000e+00 1.000000000000000000e+00 1.000000000000000000e+00 1.000000000000000000e+00 1.000000000000000000e+00 1.000000000000000000e+00 1.000000000000000000e+00 1.000000000000000000e+00 1.000000000000000000e+00 1.000000000000000000e+00 1.000000000000000000e+00 1.000000000000000000e+00 1.000000000000000000e+00 1.000000000000000000e+00 1.000000000000000000e+00 1.000000000000000000e+00 1.000000000000000000e+00 1.000000000000000000e+00 1.000000000000000000e+00 1.000000000000000000e+00 1.000000000000000000e+00 1.000000000000000000e+00 1.000000000000000000e+00 1.000000000000000000e+00 1.000000000000000000e+00 1.000000000000000000e+00 1.000000000000000000e+00 1.000000000000000000e+00 1.000000000000000000e+00 1.000000000000000000e+00 1.000000000000000000e+00 1.000000000000000000e+00 1.000000000000000000e+00 1.000000000000000000e+00 1.000000000000000000e+00 1.000000000000000000e+00 1.000000000000000000e+00 1.000000000000000000e+00 1.000000000000000000e+00 1.000000000000000000e+00 1.000000000000000000e+00 1.000000000000000000e+00 1.000000000000000000e+00 1.000000000000000000e+00 1.000000000000000000e+00 1.000000000000000000e+00 1.000000000000000000e+00 1.000000000000000000e+00 1.000000000000000000e+00 1.000000000000000000e+00 1.000000000000000000e+00 1.000000000000000000e+00 1.000000000000000000e+00 1.000000000000000000e+00 1.000000000000000000e+00 1.000000000000000000e+00 1.000000000000000000e+00 1.000000000000000000e+00 1.000000000000000000e+00 1.000000000000000000e+00 1.000000000000000000e+00 1.000000000000000000e+00 1.000000000000000000e+00 1.000000000000000000e+00 1.000000000000000000e+00 1.000000000000000000e+00 1.000000000000000000e+00 1.000000000000000000e+00 1.000000000000000000e+00 1.000000000000000000e+00 1.000000000000000000e+00 1.000000000000000000e+00 1.000000000000000000e+00 1.000000000000000000e+00 1.000000000000000000e+00 1.000000000000000000e+00 1.000000000000000000e+00 1.000000000000000000e+00 1.000000000000000000e+00 1.000000000000000000e+00 1.000000000000000000e+00 1.000000000000000000e+00 1.000000000000000000e+00 1.000000000000000000e+00 1.000000000000000000e+00 1.000000000000000000e+00 1.000000000000000000e+00 1.000000000000000000e+00 1.000000000000000000e+00 1.000000000000000000e+00 1.000000000000000000e+00 1.000000000000000000e+00 1.000000000000000000e+00 1.000000000000000000e+00 1.000000000000000000e+00 1.000000000000000000e+00 1.000000000000000000e+00 1.000000000000000000e+00 1.000000000000000000e+00 1.000000000000000000e+00 1.000000000000000000e+00 1.000000000000000000e+00 1.000000000000000000e+00 1.000000000000000000e+00 1.000000000000000000e+00 1.000000000000000000e+00 1.000000000000000000e+00 1.000000000000000000e+00 1.000000000000000000e+00 1.000000000000000000e+00 1.000000000000000000e+00 1.000000000000000000e+00 1.000000000000000000e+00 1.000000000000000000e+00 1.000000000000000000e+00 1.000000000000000000e+00 1.000000000000000000e+00 1.000000000000000000e+00 1.000000000000000000e+00 1.000000000000000000e+00 1.000000000000000000e+00 1.000000000000000000e+00 1.000000000000000000e+00 1.000000000000000000e+00 1.000000000000000000e+00 1.000000000000000000e+00 1.000000000000000000e+00 1.000000000000000000e+00 1.000000000000000000e+00 1.000000000000000000e+00 1.000000000000000000e+00 1.000000000000000000e+00 1.000000000000000000e+00 1.000000000000000000e+00 1.000000000000000000e+00 1.000000000000000000e+00 1.000000000000000000e+00 1.000000000000000000e+00 1.000000000000000000e+00 1.000000000000000000e+00 1.000000000000000000e+00 1.000000000000000000e+00 1.000000000000000000e+00 1.000000000000000000e+00 1.000000000000000000e+00 1.000000000000000000e+00 1.000000000000000000e+00 1.000000000000000000e+00 1.000000000000000000e+00 1.000000000000000000e+00 1.000000000000000000e+00 1.000000000000000000e+00 1.000000000000000000e+00 1.000000000000000000e+00 1.000000000000000000e+00 1.000000000000000000e+00 1.000000000000000000e+00 1.000000000000000000e+00 1.000000000000000000e+00 1.000000000000000000e+00 1.000000000000000000e+00 1.000000000000000000e+00 1.000000000000000000e+00 1.000000000000000000e+00 1.000000000000000000e+00 1.000000000000000000e+00 1.000000000000000000e+00 1.000000000000000000e+00 1.000000000000000000e+00 1.000000000000000000e+00 1.000000000000000000e+00 1.000000000000000000e+00 1.000000000000000000e+00 1.000000000000000000e+00 1.000000000000000000e+00 1.000000000000000000e+00 1.000000000000000000e+00 1.000000000000000000e+00 1.000000000000000000e+00 1.000000000000000000e+00 1.000000000000000000e+00 1.000000000000000000e+00 1.000000000000000000e+00 1.000000000000000000e+00 1.000000000000000000e+00 1.000000000000000000e+00 1.000000000000000000e+00 1.000000000000000000e+00 1.000000000000000000e+00 1.000000000000000000e+00 1.000000000000000000e+00 1.000000000000000000e+00 1.000000000000000000e+00 1.000000000000000000e+00 1.000000000000000000e+00 1.000000000000000000e+00 1.000000000000000000e+00 1.000000000000000000e+00 1.000000000000000000e+00 1.000000000000000000e+00 1.000000000000000000e+00 1.000000000000000000e+00 1.000000000000000000e+00 1.000000000000000000e+00 1.000000000000000000e+00 1.000000000000000000e+00 1.000000000000000000e+00 1.000000000000000000e+00 1.000000000000000000e+00 1.000000000000000000e+00 1.000000000000000000e+00 1.000000000000000000e+00 1.000000000000000000e+00 1.000000000000000000e+00 1.000000000000000000e+00 1.000000000000000000e+00 1.000000000000000000e+00 1.000000000000000000e+00 1.000000000000000000e+00 1.000000000000000000e+00 1.000000000000000000e+00 1.000000000000000000e+00 1.000000000000000000e+00 1.000000000000000000e+00 1.000000000000000000e+00 1.000000000000000000e+00 1.000000000000000000e+00 1.000000000000000000e+00 1.000000000000000000e+00 1.000000000000000000e+00 1.000000000000000000e+00 1.000000000000000000e+00 1.000000000000000000e+00 1.000000000000000000e+00 1.000000000000000000e+00 1.000000000000000000e+00 1.000000000000000000e+00 1.000000000000000000e+00 1.000000000000000000e+00 1.000000000000000000e+00 1.000000000000000000e+00 1.000000000000000000e+00 1.000000000000000000e+00 1.000000000000000000e+00 1.000000000000000000e+00 1.000000000000000000e+00 1.000000000000000000e+00 1.000000000000000000e+00 1.000000000000000000e+00 1.000000000000000000e+00 1.000000000000000000e+00 1.000000000000000000e+00 1.000000000000000000e+00 1.000000000000000000e+00 1.000000000000000000e+00 1.000000000000000000e+00 1.000000000000000000e+00 1.000000000000000000e+00 1.000000000000000000e+00 1.000000000000000000e+00 1.000000000000000000e+00 1.000000000000000000e+00 1.000000000000000000e+00 1.000000000000000000e+00 1.000000000000000000e+00 1.000000000000000000e+00 1.000000000000000000e+00 1.000000000000000000e+00 1.000000000000000000e+00 1.000000000000000000e+00 1.000000000000000000e+00 1.000000000000000000e+00 1.000000000000000000e+00 1.000000000000000000e+00 1.000000000000000000e+00 1.000000000000000000e+00 1.000000000000000000e+00 1.000000000000000000e+00 1.000000000000000000e+00 1.000000000000000000e+00 1.000000000000000000e+00 1.000000000000000000e+00 1.000000000000000000e+00 1.000000000000000000e+00 1.000000000000000000e+00 1.000000000000000000e+00 1.000000000000000000e+00 1.000000000000000000e+00 1.000000000000000000e+00 1.000000000000000000e+00 1.000000000000000000e+00 1.000000000000000000e+00 1.000000000000000000e+00 1.000000000000000000e+00 1.000000000000000000e+00 1.000000000000000000e+00 1.000000000000000000e+00 1.000000000000000000e+00 1.000000000000000000e+00 1.000000000000000000e+00 1.000000000000000000e+00 1.000000000000000000e+00 1.000000000000000000e+00 1.000000000000000000e+00 1.000000000000000000e+00 1.000000000000000000e+00 1.000000000000000000e+00 1.000000000000000000e+00 1.000000000000000000e+00 1.000000000000000000e+00 1.000000000000000000e+00 1.000000000000000000e+00 1.000000000000000000e+00 1.000000000000000000e+00 1.000000000000000000e+00 1.000000000000000000e+00 1.000000000000000000e+00 1.000000000000000000e+00 1.000000000000000000e+00 1.000000000000000000e+00 1.000000000000000000e+00 1.000000000000000000e+00 1.000000000000000000e+00 1.000000000000000000e+00 1.000000000000000000e+00 1.000000000000000000e+00 1.000000000000000000e+00 1.000000000000000000e+00 1.000000000000000000e+00 1.000000000000000000e+00 1.000000000000000000e+00 1.000000000000000000e+00 1.000000000000000000e+00 1.000000000000000000e+00 1.000000000000000000e+00 1.000000000000000000e+00 1.000000000000000000e+00 1.000000000000000000e+00 1.000000000000000000e+00 1.000000000000000000e+00 1.000000000000000000e+00 1.000000000000000000e+00 1.000000000000000000e+00 1.000000000000000000e+00 1.000000000000000000e+00 1.000000000000000000e+00 1.000000000000000000e+00 1.000000000000000000e+00 1.000000000000000000e+00 1.000000000000000000e+00 1.000000000000000000e+00 1.000000000000000000e+00 1.000000000000000000e+00 1.000000000000000000e+00 1.000000000000000000e+00 1.000000000000000000e+00 1.000000000000000000e+00 1.000000000000000000e+00
2.568070602800569951e-02 5.341674679666225112e-01 -2.393551870218688093e-01 7.519369423584675305e-01 5.170600515095796768e-01 5.044127421470238071e-01 6.118280993550855307e-01 3.013432764465379110e-01 5.307069966894790713e-01 5.054056165535751877e-01 1.080796024475044304e+00 -6.970797828414916353e-01 1.405081817787729115e+00 4.544398902233756088e-01 5.169811413161750080e-01 3.963054908536712828e-01 8.826127149412748008e-01 9.772125817053664010e-01 7.114523591885056897e-01 5.174167418693210729e-01 3.907569037894762509e-01 9.840610083996986779e-01 4.112286463357873179e-01 4.933487380350442542e-01 9.139336712691503717e-02 6.721262672889454226e-01 3.779202281120014884e-01 6.655905094829775992e-01 5.552106163069494560e-01 1.579579840165170168e+00 5.121728693667801924e-01 6.104873899196292530e-01 7.193553014638374155e-01 5.098466524271317857e-01 7.044044968885894153e-01 4.516594035462926371e-01 5.097224200580116049e-01 1.792117667097096856e+00 -7.156619445960527015e-02 5.180735969220354731e-01 -1.742025090871926474e-01 -5.612196536916663758e-01 7.490396114300342800e-01 2.266774088920910368e-01 2.860877562811251495e-01 5.215426955562034728e-01 7.522244313339677690e-01 5.271235915168265285e-01 6.257767376176990304e-01 1.769923998262435544e-02 1.188793046422169722e-02 8.150369274721434021e-01 6.762407757563113631e-01 4.421801289670071466e-01 4.575855361145336753e-01 1.783824868499336858e-02 4.946918914600538786e-01 5.281842766656826837e-01 1.916016715811202920e-01 4.718077590033541435e-01 9.157675275141956561e-01 5.186947539932731388e-01 5.401159175889956865e-01 4.112287802778849533e-01 6.803272142721158433e-01 5.865972677632121934e-01 5.196183286926385758e-01 3.226932164429303085e-01 5.617686994837987058e-01 7.750460607487476804e-03 4.235603954443243890e-01 5.525921169601999416e-01 5.133192865103409774e-01 1.546462965010927948e-02 1.507705987014024140e+00 5.524987464869407505e-01 6.349310292228717012e-01 7.319331529350261434e-01 5.139474709319176160e-01 1.383554982370950315e+00 5.101888778583307804e-01 3.180714986950020640e-01 1.404531755451578157e+00 7.212934582155404728e-01 4.959674876785559738e-01 7.555803641073095545e-01 8.058800104471504078e-01 5.488809470476342378e-01 4.133508264372708907e-01 5.759862867171433587e-01 2.838931771173071605e-01 2.179913782028457536e+00 7.506438356201687867e-01 -1.495843204514546790e-02 5.219348586874613671e-01 4.754277972902497540e-01 5.610150181568552830e-01 4.773765400104950651e-01 1.895502722350244362e-01 6.654901920706097762e-01 1.607545623550927560e+00 6.891595331923507928e-01 5.502439379636462347e-01 7.012207533465995013e-01 8.599259555400990962e-01 -2.069461962588099890e+00 -1.218541762635300785e+00 5.404188652417156735e-01 5.928486362378910801e-01 9.712200433070383720e-01 5.604217767185202259e-01 4.386474166126078100e-01 1.681581656212243481e-01 4.902079932870235801e-01 5.221708333986863071e-01 4.993028959952567347e-01 4.850144854639333314e-01 5.375938068327045238e-01 9.281554887237331020e-01 5.199111690698035027e-01 1.303525182220113487e+00 5.516417737585135317e-01 5.909940564203240987e-01 -4.415778932440441729e-01 5.087328975938351094e-01 1.947319123919488693e+00 5.576364745287865077e-01 5.529191769256519562e-01 6.848259202994736450e-01 5.151259831828641778e-01 5.064338012091954555e-01 5.208133121298337276e-01 4.220138425054235087e-01 3.483657776278527018e-01 -2.919928238554991839e-01 -1.654382668245620580e-01 6.444537521910199684e-01 5.086143958009273908e-02 1.000181200320128694e+00 6.301540451361010708e-01 5.131776263379094205e-01 8.649962371336432643e-01 5.985109675542478191e-01 5.781543030042569642e-01 5.150699492876190666e-01 5.183559418566346250e-02 9.195973148480399706e-01 -1.879830448132834009e-02 4.478009275001881284e-01 -8.900018769191436752e-01 7.691685041657256861e-01 -2.941524986813238152e-01 5.215373137300907125e-01 5.599467886239076764e-01 4.515312279390291117e-01 5.134738511086639479e-01 1.948860017617678464e+00 -1.072530777282720837e-01 8.150711461175631500e-01 6.886004046847210569e-01 5.302824592368102774e-01 4.133833856556058395e-01 4.952951406536291179e-01 5.169996789489650357e-01 1.080108578025608335e+00 1.919028140832220730e-01 8.498349182427672455e-01 3.670481706294881352e-01 4.838345068431276208e-01 6.558842510932169079e-01 5.084422813076310277e-01 7.499884486620368440e-01 5.215520322378998097e-01 5.137153174233172193e-01 4.047178433281827248e-01 4.494369261718170888e-02 1.941952757270360708e-01 9.053122336812681470e-02 7.471929097193662495e-01 1.142200785716929623e+00 6.981944086698508301e-01 5.284722923450949628e-01 -1.774637907824377914e-01 4.416181134964918820e-01 6.269194730503809820e-01 5.346881699011836186e-01 5.115406508355114790e-01 5.052168215007305507e-01 2.792969559398329693e+00 5.541085572553641203e-01 5.392312532191301244e-01 -8.913449051790918176e-01 5.062748363604426816e-01 5.505001672285507741e-01 1.884834514176862708e-01 5.102521709115482862e-01 9.350789985367611301e-01 5.163233681034281597e-01 6.072739257028205717e-01 4.377920635429138896e-01 6.279781850857425463e-01 5.016077081704582996e-01 9.184658106300247482e-01 6.009893094184425300e-01 5.432280687448232115e-01 6.072738563301167680e-01 2.432116192713277558e-01 1.288545286298216075e+00 5.490979059061300571e-01 3.981130456830068720e-01 4.321077618045445767e-01 -8.331037533878687951e-02 4.826162543441289698e-01 1.584644486274967567e-01 5.114904277992621262e-01 5.163270828905904830e-01 5.174649779385001036e-01 5.136914590206268505e-01 5.169392856438906891e-01 5.126163832669033971e-01 4.375129341199955335e-01 5.933786418663201667e-01 -7.073258675009774787e-01 5.990424046788571655e-01 3.799271637775367139e-01 3.764000506010537483e-01 8.964266847612352429e-02 1.305342692421001649e+00 9.593628009509841403e-01 4.968441420194870672e-01 -1.034668944905694221e-01 1.055741120317608583e+00 5.167815173997184486e-01 4.454306161730186009e-01 5.796915858899374108e-01 4.125741058466925737e-01 3.307327952463018916e-01 1.841446434368725626e-01 -1.543906454433645048e-01 -9.793522611664809419e-02 3.849764948983016022e-01 5.230923390952793017e-01 -1.072331618676515552e-01 4.340334979140652027e-01 5.187373532028369816e-01 4.826679811715117729e-01 -9.980132450492947005e-02 7.527620480313385043e-01 -2.279955090656597960e+00 6.104098948262843827e-01 -6.015153493341846014e-01 4.972843604580116095e-01 5.204598504761343003e-01 4.112271719422209704e-01 4.742375074614714747e-01 5.638004337883604222e-01 5.410929030360007719e-01 7.599679184121321818e-01 5.540805800956530858e-01 1.691202924025450915e+00 6.785226740981619153e-01 6.916311677121198542e-01 4.787339442923257971e-01 3.550696557833119549e-01 9.157675511057539186e-01 4.116703684484298575e-01 2.677576568716474537e+00 5.068835194487669726e-01 2.326347486747621929e-01 7.265645681655117372e-01 5.068317312077808001e-01 9.151931717066724703e-01 5.141797517771382608e-01 5.583148220163699493e-01 5.151703977938212331e-01 1.100073463162379195e+00 7.693771548217418488e-01 8.626245023731499151e-01 8.079930682089485616e-01 4.540782615923939503e-01 6.791255076760490672e-01 5.239890826491908626e-01 3.854142467250335491e-01 -7.209047470575202787e-01 3.857326204600691755e-01 6.061181252163236888e-01 5.621067326699050737e-01 5.010778849525201473e-01 4.993028342411640064e-01 6.078406964485451036e-01 5.477626919926089633e-01 -8.375208709650354688e-01 7.226302797119928956e-01 5.464753443278929090e-01 1.969663294998181061e-02 5.551825487163449813e-01 1.849756146644470078e+00 5.027204480719783541e-01 5.156725574768340481e-01 4.477881939197729810e-01 -3.412526139612650944e+00 5.219109998657366356e-01 2.810973663814288592e+00 7.506441992704004917e-01 5.388940267684665386e-01 -5.771545600842054036e-01 5.149334695598262179e-01 5.161143748442853507e-01 4.387610914481083202e-01 4.526894173263956711e-01 3.618722254391978366e-01 6.424182753835785409e-01 3.143722621735127176e-01 5.203614725454130951e-01 5.189811885213561071e-01 3.532283117974431286e-01 5.323087643565618254e-01 7.511456485801338845e-01 5.181675714516756903e-01 1.199113061217125464e+00 8.174697978557519604e-03 2.218565749353728744e+00 2.637219401127041341e+00 5.147217725792824217e-01 -2.133372643311545191e-01 4.146246753834761378e-01 4.018363330268305833e-01 7.311014469453338549e-01 1.376368813214968290e+00 5.355095866005878946e-01 1.125786124818608736e+00 5.165035959858893522e-01 1.238510711250343510e-01 1.252808127441942476e+00 4.512831370631030792e-01 5.374457088023116835e-01 5.023209819098324314e-01 8.947186647999404441e-01 -3.714105402321858929e+00 1.632227772578771718e+00 5.281195177625563897e-01 6.377431640487510878e-01 5.158626203448076764e-01 1.792117663810128159e+00 3.040328756152593792e-01 5.501873621034765183e-01 5.358483751552645113e-01 4.625125410637493939e-01 1.377875804797227044e+00 5.807648554101950689e-01 6.072738816816509733e-01 4.340385114914565579e-01 6.009893129625120123e-01 5.603052429380366295e-01 5.668506567847655386e-01 8.963428675553392067e-01 5.177286235248954593e-01 3.864939240463468595e-01 1.874178798870828333e-01 6.598204606298040398e-01 5.170591074579885538e-01 3.740896385089004794e-01 5.501873719413793440e-01 6.574491620216241783e-01 5.186009976683587652e-01 1.019128888719635917e+00 9.760333214906774524e-01 1.136479599014719177e+00 5.141580461139736435e-01 2.280401278631212503e-01 9.157681440644974691e-01 -1.091933675358057881e-01 9.334634672417780887e-01 6.290474988451743021e-01 7.073906565934250448e-03 5.798396464758902580e-01 9.577935267586092927e-01 3.881962899878053652e-01 5.096079650324821797e-01 2.853861115865445885e-01 -3.344298554710155580e-01 -2.463093690247949663e+00 4.859492458788252089e-01 6.009893135004876763e-01 6.009893175456545444e-01 4.989504833977956300e-01 4.097828590146493921e-01 -2.195004198643001891e-01 3.106282884200954331e-01 5.234253479497344985e-01 6.891285595197602643e-01 5.149395870054831459e-01 1.046310850457701447e+00 6.072740329007934035e-01 5.152547349996277060e-01 4.849372107687069944e-01 2.719417730737118677e-01 6.549481179308582757e-01 5.284450585897749741e-01 5.171387385622965294e-01 5.382483781879365825e-01 2.874722825588781894e-01 1.826820341028092057e-02 6.009893130024724917e-01 6.599729985174777047e-01 5.166394850061534205e-01 4.111734862102723875e-01 8.587086261609816473e-01 7.165660105493796284e-01 5.636848319541236663e-01 1.855558111071682115e+00 5.095509033383242015e-01 -3.067309257662674593e+00 7.518864775381463028e-01 1.520712128514258188e+00 5.513637428075945923e-01 -1.069425914202560834e+00 7.697193949541603075e-01 4.506503747902858015e-01 5.232837209856741056e-01 5.322270970922470257e-01 -3.413968984148242902e-01 5.148375154580807633e-01 1.069804237149111659e+00 5.538019192097918264e-01 -3.568986242196066638e-01 5.194152455520094636e-01 5.161700202085236500e-01 7.806281693986310000e-01 5.341982444746091740e-01 5.546152220691183965e-01 -5.225776031168088975e-01 5.612589761566416646e-01 5.190523963903195259e-01 6.556661337669479339e-01 5.387285196316173863e-01 7.670296979730788500e-01 5.110812737460671551e-01 5.989739127282537323e-01 6.277759252965581238e-01 5.295977371901476882e-01 2.916366317410485354e-01 2.928088793210918417e-01 3.320639848425608887e-01 9.617846608236019224e-01 5.507499189541843476e-01 3.196738599514326040e+00 6.593758511123919419e-01 6.339706528621339432e-01 5.538311692250519336e-01 5.997209891371407808e-01 2.690644731276059867e-02 4.869584666624836577e-01 5.192692585498874802e-01 5.155716680525860296e-01 1.162539932345214799e+00 7.668084884526955580e-01 5.131722644646741216e-01 4.442588854525619246e-01 1.117190577016926811e+00 5.236635976317792762e-01 5.626115508164878376e-01 5.451524095274785653e-01 7.816280125504767584e-01 5.128385121429295257e-01 9.307442694913616865e-01 5.104549840855481246e-01 5.157321852992817757e-01 9.382939388439297951e-03 5.152005655371627579e-01 9.098266936845815153e-03 3.299728976362937272e-01 4.085530365772003236e-01 5.730652323017813021e-01 7.790268136282172406e-01 5.197080182186072372e-01 3.912417945882717962e-01 7.425997706052961389e-02 5.224993231787086190e-01 5.495860296196923844e-01 4.648224443580043497e-01 4.100658003225891163e-02 5.143493225278156222e-01 2.469002800376465800e-01 5.134120140772777674e-01 4.167907735025698224e-01 1.257169173081756464e+00 7.794262178294488752e-01 5.496439724540491678e-01 2.612889092843119210e-01 7.103249303556138372e-01 4.283726659316446916e-01 9.932278891507017038e-01 6.030636628812424682e-01 5.863868667817830893e-01 6.937882409170780251e-01 1.992047817582486502e+00 4.616411120664766221e-01 4.629711892144770524e-01 5.130446124965796217e-01 7.229167164555013736e-01 4.954649743004835294e-01 8.424200639235783772e-01 -5.719767839387900343e-01 3.459027312600046478e-01 5.127462779217649702e-01 4.272747422930047723e-01 3.748765875284276738e-01 -6.157058970733624292e-01 3.881942381797316433e-01 5.175895774223722157e-01 7.361721377744744332e-01 6.666967187842088860e-01 1.476496347244115492e+00 5.179590301883914005e-01 5.158898768101853882e-01 -7.025854898302974494e-01 5.144516874583439092e-01 1.217517882640932969e+00 7.078314453642986503e-01 2.681542973716071754e-01 2.607346431812878618e-01 -1.682470324143073626e+00 5.099976248919376731e-01 1.855251516249436794e-01 1.099386646159130843e+00 8.173063402237726871e-01 5.142839606749206594e-01 5.198882720065228780e-01 6.258306227176790859e-01 7.515888523683728062e-01 4.446723861283792267e-01 5.600699979076561030e-01 2.996095264571693381e-02 5.113204166774857340e-01 6.118629709896979962e-01 5.711236315826462295e-01 5.062625757953362893e-01 5.127962472471123689e-01 1.208871019170071781e+00 -1.042269655680471974e-01 -2.348194365031267827e-01 4.231013026715504943e-01 5.478280890085701627e-01 5.450425278628104886e-01 5.021613959441583175e-01 -8.541780237560424593e-01 3.161763716525634482e+00 5.500574733647685122e-01 4.479911102684074886e-01 4.224781533911450282e-01 5.172856382837529576e-01 5.120526160299654350e-01 5.819978530865644872e-01 3.257136308492160071e-01 5.926962710297962733e-01 5.147820605249839865e-01 5.972877479072521423e-01 3.497727959584486790e-01 4.254303246216753487e-01 5.481005022471850952e-01 4.057882115550296431e-01 5.019882964987792962e-01 5.491048359357214581e-01 6.595823352081515711e-01 1.010452059418311732e+00 2.314328505951797954e+00 5.407864736062120148e-01 4.966851832498375696e-01 4.411975507977765054e-01 5.004735483121891537e-01 3.669361718332982969e-01 5.185511416470470758e-01 5.237008165585296249e-01 5.196797410583247068e-01 5.224608008208351251e-01 4.765614024657815473e-01 7.514662626141165314e-01 3.660715196038266672e-01 4.744002428552141493e-01 4.619209203734581104e-01 5.404440544017524717e-01 1.173588908791840107e-01 9.157675370839012396e-01 5.629385623642277903e-01 1.202579870214375568e-01 1.910782601649562817e+00 2.836483236988677215e-01 4.279526574538852768e-01 5.898742084253716378e-01 6.275834501974421331e-02 5.212036958052402857e-01 1.512183836592549513e+00 7.767523539683678369e-01 7.509591551732480719e-01 5.163861688501851788e-01 5.476616857734327715e-01 4.686903321156362101e-01 6.558895722316396837e-01 5.221179989196212956e-01 5.153930854713884013e-01 -2.082050609414084208e-01 5.413861194156869283e-01 -1.469692923627414993e+00 4.907848877785878083e-01 5.036951668259700421e-01 5.276100830314287560e-01 4.477738840709105661e-01 9.157675370789750691e-01 2.207724638759403779e-01 5.445199824066423444e-01 1.336914892364863050e+00 -5.539328949848209005e-01 5.115352878217324095e-01 1.134133004921396903e+00 1.512548486424392991e+00 4.598569215429595403e-01 5.122501182044386647e-01 -5.373326697381129724e-02 -1.674435811615763603e+00 2.770073458769475305e-01 7.873469701320413572e-01 5.138373393909694276e-01 5.158376650794026519e-01 5.779607663004534546e-01 4.849009612363069932e-01 -4.051012420619594101e-01 8.186232994910477290e-01 4.993037721519445471e-01 3.326871160204491473e-01 5.490690051223540147e-01 -1.264621146648533569e-02 -1.716777695476515986e-01 1.787049675845419072e+00 4.142672872383307281e-01 4.978788976794545351e-01 5.157518497078454889e-01 3.271506324401269317e-01 5.888587794583539647e-01 -6.970407246890730768e-02 -1.139718339874040476e+00 5.166732091365051627e-01 5.289771448970240764e-01 5.318706219913229560e-01 6.165608034076839328e-01 5.275613280584522391e-01 5.448127919525550533e-01 5.626572521225102763e-01 5.736424014368368685e-01 1.031138913535462054e+00 7.240604153325777004e-01 5.278974738039441394e-01 5.878685006930425283e-01 4.564633419595512942e-01 4.342945725189173434e-01 3.019301398050511925e-02 5.501873670795052185e-01 4.899310723492634745e-01 4.801551724791608966e-01 7.567151430410274937e-01 9.199074958081482345e-01 8.424292769090236943e-01 -5.002312546587364128e-01 5.270888307984861187e-01 4.582013459881065232e-01 5.201271495449902860e-01 5.869324140610001628e-01 9.060823485362112795e-01 5.630175299375198561e-01 5.266275090541356896e-01 -2.487412455107186338e-01 -8.652370405861620206e-01 2.290406016305378323e+00 5.101479736267094944e-01 8.949946606916758807e-01 4.380017654759417733e-01 5.728832518920575767e-01 3.771750459289376911e-01 1.502226793034176222e-01 5.163260845921926467e-01 5.484135579944826588e-01 -3.942308379500303848e-03 5.232319725164965574e-01 4.293429235681526235e-01 5.179551988948618568e-01 6.574040125843917393e-01 5.179979260876935721e-01 6.084658550958873535e-01 4.044911916590669398e-01 4.958465925032959909e-01 4.128086352197538611e-01 5.237654391543137278e-01 4.191256101245607879e-01 5.260161777973679786e-01 -2.749839676153685852e-01 5.110914254670219092e-01 6.426614137687270967e-01 4.781859976575397186e-01 7.522116030177498081e-01 9.157672345832102989e-01 7.312730764539253636e-01 -5.955142488174707260e-01 9.875421902773732219e-01 1.792117667101056799e+00 4.901081223804519826e-01 4.638235901747455592e-01 1.076854267029642154e+00 5.624618561103331693e-01 7.524106294390099370e-01 5.167352787901432487e-01 1.825501346032963434e+00 5.130307330912190489e-01 4.340341179414399786e-01 1.234204119594945359e+00 -6.008178040257352442e-02 5.583449274105107829e-01 -1.628512163054599837e-01 -9.572144843624188493e-01 -1.714454365097554112e-01 7.748094634181549312e-01 5.657190389497913641e-01 5.199398058255428889e-01 -3.286746339767905312e-01 4.989652169112610558e-01 4.805352699775530811e-02 -3.761458581031388859e-01 4.934574109292618194e-01 5.110109581874151541e-01 5.193467168235198494e-01 5.554331529969395165e-01 5.463466085552213247e-01 9.087796669367254054e-01 -4.072164367449599975e-01 5.179523533252933243e-01 5.572759886676972307e-01 6.141077768485062593e-01 1.165734831952596862e+00 5.007698809551812680e-01 6.443378899151739336e-01 5.182110457675410675e-01 4.065497233195648763e-02 -3.413944974352263184e-01 5.308812691258524286e-01 5.147354208474663739e-01 6.778171941156699853e-01 5.016827976535677136e-01 3.453520313154005428e-01 5.136479258407367077e-01 5.173343738540581160e-01 3.646440453898852629e-01 5.196542347520941574e-01 8.389548321977526868e-01 2.551040662875219134e+00 -2.421029268390667288e-01 6.639474451899265439e-01 3.302716507051566830e-01 2.112845535346491999e-01 6.725899788914337929e-01 -5.737636228497629970e-02 -1.528891441984990385e+00 5.213770704515027221e-01 2.612481887999563490e+00 5.197733879061666729e-01 1.551119091223128743e-01 1.700055300319614215e-01 4.993028961548890421e-01 5.773825386307496199e-01 1.557116593116586900e+00 4.943068856600697503e-01 1.260347694906919502e-01 4.318803876676571840e-01 1.696483165574478980e+00 5.941841158208186480e-01 7.516123922930205703e-01 5.138625937620651118e-01 7.397168166644690901e-01 4.580488016115734640e-01 5.679293952170665349e-01 1.670753954906510977e-02 5.166234385290154885e-01 4.880838034763537725e-01 -5.722362526325378562e-01 -6.237072926001108880e-02 1.174602461629858929e+00 2.368979546002276948e-01 4.859903035371671010e-01 6.964033542915183395e-01 5.500672272517753703e-01 2.001752807383926136e+00 6.917621148283209509e-01 2.655837794659785325e-02 2.969374127171540700e-01 3.971497627056237989e-01 1.115607463907947183e+00 5.094823999525646130e-01 -2.670548755396699031e-02 5.066930508401911171e-01 -1.703001420618113076e-02 5.175994589140645585e-01 5.210983943319412726e-01 2.283638053336475154e-03 -5.333998553853624980e-02 6.674905288147140459e-01 5.961596854913059351e-01 5.648112114861755240e-01 2.569445775816591171e-01 4.589109698203532872e-01 4.973462319574751822e-01 5.441836395541305160e-01 5.545470739155943241e-01 4.796026362739975180e-01 6.165282927780337818e-01 1.016449249169164570e+00 3.122942554917487179e+00 9.270536428634391646e-01 5.188436341022192311e-01 6.339324600686598865e-01 2.139025985587327816e-01 5.189118831961012646e-01 8.460971609160120588e-01 4.953841064193286736e-01 1.316582300693686092e+00 4.495260569069183809e-01 -5.758119956072687007e-01 -1.665951090206552188e-02 4.077757956409112094e-01 6.129048526778188011e-01 5.047467809141522599e-01 5.170926222192564481e-01 3.564604797902060779e-02 5.327298380737719441e-01 4.075473169602010781e-01 -3.667386110955332512e+00 4.824298108022216369e-01 5.222920216952368078e-01 1.126740239465492177e+00 5.154649797343443529e-01 5.289905726355017546e-01 6.822544973186309702e-01 -8.821450648089406155e-01 -5.041206351048699297e-01 4.308238306163124365e-02 5.185916528752767540e-01 4.375669070840159103e-01 2.183201983841359661e-01 5.030693786608502194e-01 -3.371340281070410172e-01 6.143862822797604428e-01 4.988157803646126043e-01 6.948024755620638704e-01 5.427045942771743237e-01 4.725668183331820371e-01 1.571867392284824749e-01 -7.522488760945758024e-01 6.546291136225752538e-01 5.088658555831320207e-01 1.616290727530769189e-01 5.194149618787577971e-01 5.724722554265633256e-01 5.341621417487242285e-01 6.714246540868428204e-01 5.722081675440934267e-01 5.423444084206840987e-01 5.004904342293221564e-01 1.792117672017831342e+00 3.628423177449794923e-01 5.474892356518002989e-01 -1.185072285184710361e-01 5.524103990451674218e-01 6.269449471094721282e-01 5.279519109991243075e-01 4.946277137751775022e-01 3.524257613021420932e-01 9.321931738908700860e-01 1.199909000609448606e+00 5.567822924025511711e-01 5.763833452907947130e-01 5.961967771093201751e-01 4.684513190411755956e-01 4.868579296855652383e-01 5.157574509765617821e-01 9.874922741184550823e-01 7.180532462601627586e-01 -4.551543198182216310e-01 4.520974712526272254e-01 9.141552910579497926e-01 5.068794329243345720e-01 -1.608317440180600383e-02 5.176543887360497420e-01 1.316235290746054165e+00 -1.387912595645779124e-01 5.887435903342835841e-01 2.454267948127009380e-01 5.327126854113325427e-01 8.340676839271882193e-01 5.108030726423846701e-01 3.692537084355621557e-01 1.398636480396941550e+00 4.774804149770501827e-01 5.294907645195614521e-01 -6.525949072288325103e-01 4.521505852450763419e-01 1.042240733198580349e+00 6.012282886286253181e-01 8.538942675332591992e-02 9.658505930766847491e-01 -4.568825185171551673e-02 6.366914573264155219e-01 1.614488212369385112e+00 -8.569533781638956071e-01 5.647291768740031470e-01 5.164300114102992056e-01 -4.533856006313899401e-01 3.150882209553728108e-01 5.990093262342187641e-01 4.803115341517563697e-01 5.137188475323272163e-01 3.710430064428049124e-01 2.634325852973802284e-01 3.445875639423373604e-01 5.657770326685493956e-01 5.191293385823952944e-01 6.465891029503215495e-03 -1.003760275882092656e-01 5.300949295507291215e-01 1.062651620964488730e+00 4.512228727268675077e-01 -5.724014964926600335e-01 5.581138820749059759e-01 5.117591026118079034e-01 5.267162393231917816e-01 4.020877947202582126e-02 3.329221755942831096e-01 5.154460503084282719e-01 5.260473924323878503e-01 4.522631108553240020e-01 2.017281700303701422e-02 4.930334893093620274e-01 5.160455195616410196e-01 6.342589462813429391e-01 2.082501393621604802e+00 9.074327715335651912e-03 3.845670401838895414e-01 5.137753289725706107e-01 1.828362280267520124e+00 5.822896573917240026e-01 4.896666371143520990e-01 1.644916298306657934e-02 5.501873639416181572e-01 5.260950417325180872e-01 4.749018369273925178e-01 3.817935664439389698e-01 5.035048151608759737e-01 4.857314532891661152e-01 5.618638590279361189e-01 -5.282835779678273225e-01 5.146187137087173680e-01 5.437445463762259346e-01 5.394806786583791203e-01 1.082677360965276669e+00 5.118529099183827258e-01 -2.436056411179998438e-01 1.077909403649821352e+00 -1.259481437771099444e+00 -5.196808855218932877e-01 5.217427088208677066e-01 5.145014518063824038e-01 6.518563681969591350e-01 5.148051152340670233e-01 4.061719664861776491e-01 5.943556978362676269e-01 5.501873626045665766e-01 5.162994002805167959e-01 5.252438084772197424e-01 5.858874464140736427e-01 5.181173476596846461e-01 2.949060073029878826e-01 5.007486325920333936e-01 5.040350765063408289e-01 3.801878557835148276e-01 5.082037852502513386e-01 5.234656678764657567e-01 5.493701709783187503e-01 6.463910584756177302e-01 5.146564744454856788e-01 6.841399118599914564e-01 4.899582656902329303e-01 5.121768903538072015e-01 5.429373067816047893e-01 3.660471995332149620e-01 4.107407065289688242e-01 2.408392630571888571e+00 4.911556280486086279e-01 5.908244669976883134e-01 3.064212865657385265e-01 5.831582280216319747e-01 1.111224417870794179e+00 4.669498462428755547e-01 7.050133937979500276e-01 5.162104623307551821e-01
6.982376762423009309e-01 3.024148236483727992e-01 4.255305436041821876e-01 9.891317472819282156e-03 3.140731643138011120e-01 2.988737307416960420e-01 5.324091046585928133e-01 4.331383862131180651e-01 2.686492706106446970e-01 2.941642884437529748e-01 2.047890738066770133e+00 1.712338271141622847e+00 -1.438506768497882726e+00 6.193046661040610967e-01 3.114197865008644928e-01 4.259478102107621678e-01 1.302131475055889054e-01 4.326655573261645737e-01 4.382906582417400720e-01 3.080077143864024536e-01 4.606478994805107141e-01 2.109685252045619297e+00 3.880746431942381225e-01 3.700925616808131702e-01 7.264590482621513523e-01 -2.221337323487774240e-01 4.474304553781339733e-01 2.227726911314894809e-01 2.789087214858965158e-01 -8.741104388809044501e-01 3.354194042433633616e-01 -1.287320970471837744e-01 2.889978901615607443e-01 2.889423106844342115e-01 -4.234751367853152315e-01 4.702194696227919302e-01 3.072217580673191062e-01 -3.533928111765650137e-01 -3.225082072598430383e+00 3.232238986982112205e-01 1.146092606668787539e+00 1.417357873450365846e-01 -1.658654973105508079e-01 7.917815829713871212e-01 6.183984557073487487e-01 3.108338580696328735e-01 9.481241738868953495e-03 3.388203884718946624e-01 2.148003417505329748e-01 6.696904468933840837e-01 6.780337198662418352e-01 4.769545624306413267e-01 -2.295708036135826191e-01 2.112539458337199805e-01 6.031755726510330540e-01 6.554084178348259515e-01 3.590638359663185231e-01 2.525436643156996896e-01 3.467383908525348279e-01 3.581944728891407470e-01 4.258844216127354310e-01 4.064842630092575515e-01 3.025416133818898401e-01 3.880746296159907627e-01 -3.463592880983528688e-01 1.658293442498664783e-01 2.909493588406251718e-01 3.270603709643684076e-01 2.084621253866926205e-01 7.258698766921960477e-01 1.219684396755123384e-01 2.694864877899152966e-01 3.261309777481646299e-01 7.253935623362259832e-01 1.913562266432595083e+00 4.835886020842130040e-01 4.713353220745492012e-01 4.806721197077278851e-01 3.119430899166414917e-01 -1.333592401170022423e+00 3.175573370372106741e-01 6.037880599314909835e-01 2.312154411144401678e+00 9.823768581428631019e-02 2.703429835031651018e-01 -3.998700225565404720e-01 1.272036234018851797e-01 2.688926309023855210e-01 -5.756712082966319866e-01 -8.834268643615624805e-01 6.190644721577784892e-01 1.572333586785578330e+00 7.774412928032879699e-02 6.921395786624656710e-01 2.883069023704510903e-01 3.157559020334751443e-01 2.715744481060952120e-01 7.500778800774082766e-01 7.379936955918686703e-01 -2.275885151002229601e-01 -1.724124205436749768e-01 5.492211936365450076e-02 2.614027306350892865e-01 2.149037324916104053e-01 -1.633859157281665822e-02 3.093286891955465467e+00 -2.846516226158939955e-01 1.604841423500966424e-01 1.368096891797656867e-01 8.092580045644920395e-01 2.420526656361577378e-01 4.664860172631705160e-01 1.651128850015416982e-01 4.457982895067873486e-01 -4.857268621890189486e-01 2.099520844844497136e-01 2.039743451751424574e-01 4.295384480402317240e-01 1.052164858852534080e+00 3.064496256422890030e-01 -1.447344561874949198e+00 2.103202234373709456e-01 1.497273002960590460e-01 1.368828222843732956e+00 3.242270461358057188e-01 2.161490540185934339e+00 2.397727723509614217e-01 3.013629106311615513e-01 3.002832518772438064e-01 3.028385311267727809e-01 3.245365951361984247e-01 3.147717759592231768e-01 6.755590277058641790e-01 4.158871529791429156e-01 1.743689935178350248e-01 8.690034982663340513e-01 7.099974119083728441e-01 7.211176019233009882e-01 -3.331489305231224440e-01 2.024576268107079469e-01 3.589221810586406547e-01 3.216478459489512387e-01 2.919884687535993506e-01 2.747992039345807380e-01 3.102636018468457602e-01 6.941206189802604509e-01 -1.432731392310359342e-01 3.188575121821877190e-01 4.471617652012142563e-01 3.983123171878618640e-01 -2.524736193762998071e-01 2.298756683614889412e-02 3.108399532228324769e-01 2.650758884470503784e-01 3.313832545997835166e-01 3.120677225598804116e-01 -2.338573281749715349e+00 4.542307931958051159e-01 -5.937665304755825879e-01 -2.308458851731425565e-01 2.414785840838686859e-01 2.613233588270970631e-01 3.292122476607179382e-01 3.138859613423343742e-01 1.166628396692989955e-01 8.051662583368938975e-02 3.157077996069943548e-01 4.419640611758858806e-01 3.456518703645863888e-01 3.379651228692263643e-01 1.799480509831114239e-01 7.476191855491776464e-03 3.107858752192945717e-01 3.131987774216269393e-01 -2.491545599682676304e+00 6.966762187899658842e-01 6.127101139430228827e-01 9.647150332879486090e-01 -4.557568086541060048e-01 1.171070863870946166e+00 -5.843030336633657073e-04 3.065625449297608163e-01 1.234503602182577264e+00 2.938117219299165583e-01 3.072911085909913464e-01 2.588203291367451309e-01 3.621469962129757469e-01 3.122311719169602040e-01 -4.738219374278948570e-01 3.071079302179566262e-01 2.507050547211278069e-01 8.109424886187267534e-01 3.216214867441042902e-01 2.849176712429319358e-01 2.323288814999538709e-01 3.182763054159058469e-01 -1.643649721544365949e+00 3.028182512593681208e-01 2.438174697109182776e-01 3.522774502825049003e-01 7.983389082661641878e-02 2.850192159122085234e-01 3.827845056063596818e-01 1.364519218415205237e-01 -7.865561640398699428e-01 2.438175035494207776e-01 4.663308237855456895e-01 -5.110438178838804246e-01 3.622989063870242776e-01 1.676239766771546180e-01 2.520079172245856536e-01 -3.232333435772557273e+00 4.497450585109256105e-01 9.296059138215310158e-01 3.064502816873108104e-01 3.188842804421145871e-01 3.134360375326493697e-01 3.403077248686505740e-01 3.191106339033077388e-01 3.148380915500149646e-01 3.418302292901491124e-01 1.349658390244509176e-01 6.630918351479111461e-01 1.154874338400199985e-01 5.067247941035105674e-01 4.770016187119466289e-01 3.916610806265689582e-01 -6.614806562908019938e-01 2.272730968337248747e+00 3.908926126828171643e-01 1.236851098966518681e+00 -1.386586076261643763e+00 3.092447251513608109e-01 2.189913374526758216e-01 3.525182729631176071e-01 1.163762538713838168e+00 5.019488015279758297e-01 8.073790739093903435e-01 2.820151501468501909e-01 6.697553303278424019e-01 2.924343527456420011e-01 2.936607076288535456e-01 -1.162192991893445271e+00 3.930482909869363883e-01 3.166092168062620837e-01 4.863829777367655871e-01 9.016303544409866033e-01 -3.553395913025244046e-01 3.130045539758549378e+00 4.880061826870063513e-01 1.248957966099778272e+00 -1.730458464503385196e-01 3.218234759506756193e-01 3.880709497525696161e-01 3.212657176977585238e-01 2.422994472792280585e-01 3.723123553329760194e-01 -1.173122579378112068e-01 1.300153722654041888e-01 5.615153940404348232e-01 2.693270597618808715e-01 9.346540172989864503e-02 2.528657704195004241e-01 3.930649124753321511e-01 4.258843909919239890e-01 2.626615977096761201e-01 3.212364421715943497e+00 3.731359388550776202e-01 6.541425736041324157e-01 5.394987979907818199e-01 2.352017714388379421e-01 4.263648753099454902e-01 3.173009846162147540e-01 2.835181284918949496e-01 3.123277316062144093e-01 -5.480871830217833862e-01 4.558898349429136299e-01 2.853997013879051581e-01 1.280728698750793204e-01 2.740917537719895214e-01 1.527634940898497495e+00 2.939522449107462854e-01 2.943686158880481352e-01 1.990367980162693451e+00 4.982629970607569403e-01 2.957407701158933921e-01 2.652064743741046615e-01 3.205917832696985603e-01 2.099514664509461170e-01 -2.054851464359247704e+00 2.632281796348766578e-01 1.515901296705961965e+00 -2.823432237932280153e-02 3.292421838878922258e-01 6.992541682096948819e-01 2.836555443669538934e-01 -7.190718171510617207e-01 4.179884205564046162e-01 3.162174982305215321e-01 4.471255279008539696e-01 -3.869939543626879641e-01 2.982877786180355151e-01 -2.204620290432051544e+00 8.173747933826757545e-03 2.908129518828387883e-01 6.034350072104592844e-01 3.171909418904561018e-01 3.118647915911709201e-01 4.729953010557219617e-01 1.993513495824300319e-01 -1.113644501041600871e-01 -7.604772061310478559e-01 2.298781916480622037e-03 6.855503432116936136e-01 3.287109308414610243e-01 4.972313945539645341e-01 2.988004629856504946e-01 8.909084928266905457e-03 3.075084367353365655e-01 2.428008973654823599e+00 6.938750198937894131e-01 2.467768918878865403e-01 -1.149897985750388374e+00 2.217852997174132035e-01 4.650265693547349422e+00 3.523134825368839929e-01 -1.398986959904235106e-01 5.697649863738289966e-01 -5.545846625575080679e+00 5.120328425855897869e-01 1.537829173775106639e+00 3.132590224026789993e-01 5.361274818391830177e-01 -4.405278336943550532e-01 4.106375462361772644e-01 3.258601189563953282e-01 2.800529040997034036e-01 2.392056662920241106e-01 2.908849690743318117e+00 -3.694467811252666878e-01 3.094279570080877284e-01 -1.907736050885376677e+00 3.271891103688049363e-01 -3.533928073890034716e-01 7.466190599029408625e-01 5.367081362879340123e-01 2.860181192548891804e-01 3.034866281939706534e-01 1.278927101188862991e+00 1.412422686805290817e-01 2.438174844935948882e-01 3.930419370904383314e-01 1.364519230751653767e-01 2.893650982229228896e-01 3.943631667986712275e-01 -6.072801390628459473e-01 3.098357835538190219e-01 5.476201008615186883e-01 3.821935402512606772e-01 1.666127053431074312e-01 3.115653954781140711e-01 4.759331085150814711e-01 5.367081520711249887e-01 4.185522821506163504e-01 3.104289261296972469e-01 1.909877040103961920e-01 4.287393917608859906e-01 3.384370893420155735e+00 3.046041064293606992e-01 1.447794725354654144e-01 4.258833745838348506e-01 8.485269933607475501e-01 4.660730961386864712e-01 -1.933196725743104027e-01 6.843307457116490911e-01 2.942374187312177813e-01 1.163242725472422023e-01 4.009897854590713795e-01 6.646714501160251309e-01 6.199887097154258564e-01 7.808412772784745215e-01 8.122049743953599910e-01 3.726189116567115711e-01 1.364519219420981255e-01 1.364519133411075669e-01 2.465226684892700415e-01 1.430786377208940752e-01 1.120023094551323650e+00 4.058253375697629117e-01 3.247947869238563823e-01 3.419989660436303924e-01 3.159538514763269856e-01 7.727046325677795480e-01 2.438173198496170202e-01 3.112069683378938523e-01 4.427186985809745123e-01 2.671651170802151753e-01 -6.334451593499524913e-01 3.071161437697674246e-01 3.127281242943494854e-01 3.763041620714216995e-01 6.949924539468467222e-01 7.235105811461408631e-01 1.364519229090534469e-01 7.237365681163676623e-02 3.063250277882535455e-01 4.704235495805646483e-01 -5.910511493570363983e-01 1.953550483610915212e-01 -3.489372774539443167e+00 1.945530608256189398e+00 6.331686756347115752e-01 -4.541185783319122704e-01 1.000039221647963661e-02 2.043643674497998663e+00 3.101591148355805072e-01 6.377775840937657259e-01 8.348495052623363180e-03 3.282221087158801454e-01 4.391957806065184267e-01 2.990652066844746715e-01 -4.622264032359721941e-01 2.690275559109723269e-01 2.047051947019016716e+00 3.476038822589285759e-01 -4.183703475776036629e-01 3.332078969456919171e-01 3.191867911115199852e-01 -1.451239707530884715e+00 3.260605990940485532e-01 3.577513723780139099e-01 4.030082976973619058e-01 1.726406293050013752e-01 3.089787139861976395e-01 2.169100233466003946e-01 3.260719589134773999e-01 -1.608426294814642998e-01 3.191099910132887962e-01 1.155476157978479468e-01 3.254781818646392821e-01 3.051141752226167458e-01 1.742704364227322389e-02 4.212812640881709592e-01 5.872795649737013735e-01 -1.375532852381479598e+00 -5.510630559088097735e-01 -1.095625758998919758e-01 8.117340965782793294e-02 2.576228460648302687e-01 4.284516452928014973e-01 3.624176035333833701e-01 7.304739453926036852e-01 -1.185517562889864401e-01 3.090161616764651176e-01 3.250303086243441220e-01 9.295744829590572855e-02 -1.605061496272268684e-01 3.142872460037053339e-01 4.515005087383935911e-01 4.792843686808262449e-01 3.184145574156693193e-01 2.621218726290239220e-01 3.173703653850682427e-01 2.553503954259708220e-01 3.167153412814499580e-01 5.068892786830297981e-01 4.163432328555933815e-01 3.138217175432569395e-01 6.831992471499689357e-01 3.296495118524775392e-01 7.341153184573266932e-01 5.912682517043430647e-02 5.179755870529214601e-01 2.369142814962012511e-01 -1.443970751736965319e+00 3.043552193660162275e-01 6.449687117272258075e-01 3.760411022822922056e-01 2.891349301658523441e-01 2.637576810557262230e-01 2.227219819441786375e-01 6.883501599755781353e-01 3.155720475056522090e-01 3.871109203990064085e-01 3.116410163829534397e-01 2.843721883962170849e-01 2.060783184504606513e-01 5.124851261231863075e-01 2.885958891152077821e-01 2.357036039257215387e-01 1.368534186790649476e-01 5.717329242911226017e-02 1.627993388343385472e+00 2.558888740637298431e-01 3.682739817050051934e-01 3.791483501965827174e-01 -8.365318260136289652e-01 4.003772255936851598e-01 2.986234632982251447e-01 4.684666192992408829e-01 -2.857205383992421702e-02 3.180681333297863955e-01 1.566140720288568655e+00 8.894021705282462165e-01 4.224689636984421681e-01 3.024829727938227464e-01 3.646273979930110820e-01 3.342897718936366780e-01 9.170506820966655148e-01 3.019205656933571458e+00 3.098653345894402111e-01 4.100074461732233083e-02 5.923545870154968140e-01 -1.905876187695234036e-01 3.149941957020647165e-01 3.050322998448967149e-01 1.064864907692166129e+00 3.105798845892771554e-01 -3.197751707425821044e-01 3.767261248377463678e-01 1.222955975282429414e-01 6.490400314854704034e-01 1.742782297050051721e+00 3.097491676891837575e-01 2.510631369237080190e-01 1.653788798235165114e+00 4.059499097112556631e-01 3.333922552239887427e-01 2.137672454751187445e-01 2.893308306089668602e-01 9.757679020646260748e-03 4.813791764873584511e-01 2.382994396509258150e-01 7.300389575424287569e-01 2.673385779525438433e-01 2.822321221725421214e-01 3.038645426710175346e-01 4.488479018427627976e-01 3.086542254538016117e-01 2.562339306549396567e-01 9.091428786398225714e-01 5.068820231297175294e-01 4.426282741581635261e-01 2.708355942864201227e-01 2.849824063587252376e-01 3.004308727663845269e-01 5.864372925482326249e-01 7.701306589230746402e-01 3.501343778307638432e-01 2.920879596471084860e-01 4.833152099111318600e-01 3.151256172547839962e-01 7.311282678190708095e-01 2.302929051516069692e-01 4.531237917387657688e-01 -3.154975025926221588e-01 3.117151278303904038e-01 2.881746317060148721e-01 4.226614090827693904e-01 2.985990946386716249e-01 2.578389961815484299e-01 1.771708939934130367e+00 8.534866817502903547e-02 2.668902167526923108e-01 -1.727006255139972024e-01 1.627863053795187698e+00 1.146048900831696749e+00 5.222976480700387836e-02 -4.576306332147188627e-01 4.013575631484284645e-01 3.607684833423716597e-01 5.139785259247111604e-01 3.119364793843557027e-01 3.093772759704032094e-01 1.968122735821507818e-01 3.431492365075664019e-01 3.735330143505510292e-01 1.023149359641045697e-02 -1.958348300336353598e-01 3.727545909818662517e-01 3.113437261316294724e-01 2.117429486462792110e-01 8.649860012714162272e-01 4.258844068586384313e-01 2.379852163992828840e-01 8.369822538905105080e-01 4.760094853449090002e-01 6.187513360430473286e-01 4.564357080709704473e-01 6.900078389145495317e-01 1.466704786803475935e+00 3.263411554954878113e-01 2.066361369937185444e+00 -2.176935357913555025e-02 1.405514560419690029e-01 3.130379070579259460e-01 2.604482849050988591e-01 3.399679756875724768e-01 3.379360635961880521e-01 3.077779400854625536e-01 3.138013772444767646e-01 3.588812342635026020e-01 1.883881067708501333e-01 -3.052629101335577189e-01 2.485075269201770520e-01 -7.575293002299243739e-02 3.121434004963632991e-01 4.470599177515132694e-01 4.258844068686210016e-01 2.081803694667971327e-01 2.015800044420194559e-01 -1.223903346534846115e+00 1.944903167820791090e+00 3.129606436811913084e-01 -7.142572501380127781e-01 2.975909418446835986e-01 3.089024606400777029e-01 3.118981054309152845e-01 -4.731856769247488437e+00 3.505318820589362616e+00 6.239605977854646435e-01 7.588455521726845954e-02 3.092492173512936260e-01 3.093868058274094057e-01 2.950501810068467123e-01 2.596943443621017700e+00 6.198708827703783841e-01 3.198059726584149831e-01 2.099518602555800473e-01 2.636001812217274587e-01 2.586152148627705039e-01 8.685346922168509787e-01 -3.774496070328748343e-01 -1.168234335223810483e+00 -1.202183246506351333e+00 3.105633134854572930e-01 3.120194174822220612e-01 7.162137501687262375e-01 3.587918748351625053e-01 1.345923357515635965e+00 4.716277291294426188e-01 3.165733329615436076e-01 3.035846755420981702e-01 3.327572205460230803e-01 2.952277068992451570e-01 3.101995121527652000e-01 6.492018911120628344e-01 2.746870460852702811e-01 6.521415406271559023e-01 2.215471243360553621e-01 3.162924968831919148e-02 3.100051206224161970e-01 1.921138499519540188e-01 3.548420324054217256e-01 2.971005475597328083e-01 6.684621400590557982e-01 5.367081177337915676e-01 4.271525670663080532e-01 3.602199282027281346e-01 3.141817501541416813e-01 2.610084201455041275e-01 1.566117037594062289e+00 1.861285797161781996e+00 3.113409149858042402e-01 3.676460461101954125e-01 3.183598894255826872e-01 1.638011882650337314e-01 2.327265764883419130e-01 2.575871049042591232e-01 2.881790815888355395e-01 3.228054946945014825e-01 7.952953115398339046e-01 8.746193660970691397e-01 2.341870641195093750e-01 1.852304547798760970e+00 2.372143126128151147e-01 -1.928013017059488909e-01 -2.727792550427585727e-01 -3.174198470649521320e-01 3.147803720091094659e-01 2.627833422924042428e-01 7.078338397425869566e-01 3.044512874368240363e-01 4.586945448242003565e-01 2.972536178033495791e-01 3.719589893696069183e-01 3.924593105643733870e-01 7.782106710636836275e-03 1.020265266205328425e+00 3.254878053482881950e-01 4.519314665671642084e-01 3.064981032500939118e-01 3.612384285105533777e-01 3.152979274151002098e-01 3.898504406485318596e-01 -1.068650340897196321e-01 2.230336014021526425e-01 3.281114041901724843e-01 9.263758885568870380e-03 4.258847387805639317e-01 1.112528962442320912e+00 9.518764214590288431e-01 -7.330189464788322562e-01 -3.533928112494248430e-01 6.503543076331862460e-01 -3.291918089735398567e+00 1.562782539445557672e+00 2.635317926932209676e-01 1.012339258022017414e-02 3.116100738079606858e-01 8.808721217057510211e-01 3.110066422543000253e-01 3.930479179023509961e-01 -4.362862111443631119e-01 8.264227198201029578e-01 2.752085262496647977e-01 8.822627528579706224e-01 2.074902921799595568e+00 -3.774979875067801527e-01 -1.445828434263659812e+00 2.475319987948418343e-01 3.103144431338306086e-01 7.694239318971402009e-01 3.429135442572793235e-01 7.036454336557719236e-01 4.690940611742369093e-01 1.877298477966913848e-01 3.140399600702096783e-01 3.060761432479581767e-01 2.253059503406089348e-01 3.284451479783371819e-01 1.394646925810331561e+00 1.610976591417395687e+00 3.223071585125879546e-01 2.629346846645592151e-01 8.641351000501604207e-02 -2.399547481586053743e-01 2.071627282350374522e-01 -1.068125968103825901e-02 3.138336798687770823e-01 7.072100569064714293e-01 -4.616352397735961066e-01 2.819643712178570016e-01 3.077432881050026214e-01 1.539333063213987884e-01 3.272477859031157066e-01 2.435036068308153168e-01 3.161617859843793843e-01 3.123688165724772814e-01 -5.686901671523239207e-03 2.637896869955474455e-01 4.389975395644832856e-01 1.112481834574445827e+00 1.101263790783769680e+00 9.325569575365536545e-01 1.950828764621086175e-01 7.772218599982726461e-01 1.346702218179308130e-01 4.708982373185221504e-01 -2.095468785523203703e+00 2.982561882690218380e-01 6.542665349909188022e-01 2.747801456921601937e-01 9.557871205818341265e-01 1.362800931442221586e+00 2.099520855109524020e-01 2.752944236081673046e-01 3.733394460959778560e-01 2.899775592302500926e-01 5.532975786220951653e-01 8.566769108300262836e-01 -7.696431506174691295e-01 1.670896310717170097e-01 9.220659850809247160e-02 3.110071890117453441e-01 3.426495280773269592e-01 7.709016069505136848e-01 -1.941707752609443394e-01 3.950502858157780017e-01 3.097907422785650122e-01 3.258888577488750493e-01 8.890278628819161533e-01 4.258050083267624908e-01 -2.093125094980896606e-01 8.593587679671214064e-01 -4.603648958591499696e-02 5.725005637424752658e-01 2.627302764220338926e-01 1.280583594280643389e+00 5.658076848657243030e-01 7.303365471234435358e-01 4.386255223646036705e-01 4.851527066629388596e-01 -5.386332728769462896e-01 2.614637566653761902e-01 7.632647695196558280e-01 3.225188582774498602e-01 6.330151793871200416e-01 2.610976338037261368e-01 3.094903261641817616e-01 7.295542549894443729e-01 1.360406349414345906e-01 -2.034601902140394714e+00 2.395211200291955389e-01 2.745111031286432413e-01 8.037362583310722064e-01 3.953115028403312858e-01 4.046937322621995681e-01 3.204259049265985593e-01 2.794558871864659122e-01 3.776826041615019558e-01 4.996179286633029015e-02 -1.615598344452484403e+00 7.500030335038350149e-01 2.569781660257027256e-01 3.330890540866768279e-01 1.976159876325158937e-01 8.232013706330165714e-01 3.149046029526233470e-01 -1.385189011440764451e-01 3.250499499385028912e-01 1.118116986900911103e+00 2.728812543210833441e-01 4.151670098321600944e-01 1.058156683002325016e+00 3.586845837958332894e-01 2.752622224206527690e+00 3.342130676848008575e-01 3.117179362571836920e-01 6.918297834421845982e-01 2.916975190944914864e-01 3.080319859002392247e-01 -2.068257673530729868e+00 4.103515548107200539e-01 3.280739635251968545e-01 5.144235952150518765e-01 3.220839314983131585e-01 2.451649447403119741e-01 -2.216901009776246489e-01 2.038461483261628793e+00 -5.200845031622607362e-01 8.287436029432092566e-01 3.121187899107460972e-01 3.407906634158365256e-01 7.898461347201164440e-01 3.639516720226552704e-01 1.325404078852796097e+00 1.811170855264466195e-01 3.153362753215842584e-01 -8.813627300530672004e-01 -1.325574501957685891e-01 -3.796491144125206940e-01 -3.897032195129593646e+00 2.928638956072817656e+00 4.991017238097237435e-02 3.304997846796018934e-01 -1.609787645043493365e+00 3.177044853122560353e-01 2.865977330929130318e-01 2.823057233970476254e-01 1.511089137466089527e-01 6.394490255273498347e-01 5.961997413970563375e-01 1.021655591064296820e+00 -3.533928135530911563e-01 -2.214530530180256196e-01 2.143882750492908662e-01 -1.181223653043367738e+00 2.732857727813693405e-01 -6.392632281602741440e-01 2.830095068451410345e-01 4.688240776994908043e-01 6.212583250817924063e-02 4.383804869746361077e-01 2.696773112815213924e-01 -8.026217229191487390e-02 2.085227001573235761e-01 2.968992869506439369e-01 3.580847301545612149e-01 3.029145083533923422e-01 3.161504954486222818e-01 -7.330381651080634109e-01 5.445665109459986164e-01 1.533299103063735069e+00 6.185816158971681189e-02 2.398830367539815656e-01 3.855660543842518995e-01 1.211095153219487575e+00 3.204551160969597579e-01 1.368826156525195514e-01 8.941230904709543958e-01 2.963104508136666371e-01 1.848874988831437305e+00 3.177900495319059826e-01 1.244840451532630565e+00 3.293108922310308828e-01 7.366541598124520807e-01 1.346813321034705968e+00 3.254612453979564002e-01 3.982207258426492258e-01 9.205981282367023955e-01 -1.879649586082838830e-01 -5.491191759041978010e-02 1.862021162955950493e-01 2.989362830982568719e-01 3.513973932532502564e-01 1.425008149446652939e-01 1.909024124036410308e-01 -3.608150904343281895e-01 1.292571430439390046e+00 2.750865033173963692e-01 3.161398924825772894e-01 -3.145960178740372370e+00 5.149010282937904748e-01 3.315302835216401012e-01 4.338411829974042622e-01 4.217094100851350724e-01 4.875436052208451665e-01 -1.066180745646270189e+00 6.102460230523260032e-01 2.769718613963771392e-01 3.057783706306620441e-01 1.035981326275387859e+00 4.528755824850796974e-01 3.042358118241036413e-01 -1.393754130327489404e+00 4.247387981915576871e-01 8.889675062977301367e-01 2.936355730224611826e-01 3.209918326881882611e-01 3.609191564689110954e-01 7.077392697864249849e-01 -7.377512303395647453e-02 3.143033132033512533e-01 2.957182796679186931e-01 7.696937327291498987e-02 6.828971173325716348e-01 3.419580947626887912e-01 7.244772698040907732e-01 1.711832456292364801e-01 6.876702669916363586e-01 -2.217482008283011841e-01 -1.504667269056309209e+00 3.270618572935025115e-01 -1.686239682785838773e-02 3.330451655906113140e-01 3.724746251935245889e-01 5.475702173635985104e-02 5.367081465406010610e-01 3.048744719234181555e-01 8.480471743803509599e-02 4.540938831503606443e-01 2.481386202438513600e-01 3.312739657377604674e-01 2.719028770948402896e-01 -8.244251084612091995e-01 3.239781366064455881e-01 3.494380098038150639e-01 3.003714167892591602e-01 -1.742758226179053627e-01 3.158442220522696964e-01 8.085809250360141975e-01 -5.323575658759656104e-01 1.104756253613448980e+00 6.076463582534433749e-01 2.480179598890856763e-01 3.133402602516790481e-01 -2.033195673112824231e+00 3.288301964622539209e-01 1.898451662752632940e-01 2.490712867175055023e-01 5.367081188970438399e-01 3.105604483534446514e-01 2.734686391573229458e-01 9.265538699596530259e-02 3.148401679869658465e-01 4.361293084894968808e-01 3.983860710615602096e-01 3.398204446806225576e-01 2.960395311529695483e-01 3.144882267215263205e-01 3.056969863621153416e-01 2.675835661742252958e-01 4.762358972918113303e-02 3.065107924470873435e-01 6.051740596460563060e-01 2.023131181242401322e-01 3.267892853136197262e-01 -1.303590117715066887e-01 1.490804197769506623e-01 5.506443653089843071e-01 4.414007296144350612e+00 3.208578291062617049e-01 1.084959578391801877e-01 5.412677961108063318e-01 2.005332827837081888e-01 1.543505258772750244e+00 3.564055758172704480e-01 6.521669769420338492e-01 3.145211457118398668e-01
