# 
#                 ----------------------------------------------------
#                 Data from a 3D direct N-body simulation. 
# 
#                 rows are i-particle; 
#                 coumns are :mass, tag, x ,y, z, vx, vy, vz, ax, ay, az
# 
#                 NTHU, Computational Physics 
# 
#                 ----------------------------------------------------
#                 Time = 0.0
0.000000000000000000e+00 1.000000000000000000e+00 2.000000000000000000e+00 3.000000000000000000e+00 4.000000000000000000e+00 5.000000000000000000e+00 6.000000000000000000e+00 7.000000000000000000e+00 8.000000000000000000e+00 9.000000000000000000e+00 1.000000000000000000e+01 1.100000000000000000e+01 1.200000000000000000e+01 1.300000000000000000e+01 1.400000000000000000e+01 1.500000000000000000e+01 1.600000000000000000e+01 1.700000000000000000e+01 1.800000000000000000e+01 1.900000000000000000e+01 2.000000000000000000e+01 2.100000000000000000e+01 2.200000000000000000e+01 2.300000000000000000e+01 2.400000000000000000e+01 2.500000000000000000e+01 2.600000000000000000e+01 2.700000000000000000e+01 2.800000000000000000e+01 2.900000000000000000e+01 3.000000000000000000e+01 3.100000000000000000e+01 3.200000000000000000e+01 3.300000000000000000e+01 3.400000000000000000e+01 3.500000000000000000e+01 3.600000000000000000e+01 3.700000000000000000e+01 3.800000000000000000e+01 3.900000000000000000e+01 4.000000000000000000e+01 4.100000000000000000e+01 4.200000000000000000e+01 4.300000000000000000e+01 4.400000000000000000e+01 4.500000000000000000e+01 4.600000000000000000e+01 4.700000000000000000e+01 4.800000000000000000e+01 4.900000000000000000e+01 5.000000000000000000e+01 5.100000000000000000e+01 5.200000000000000000e+01 5.300000000000000000e+01 5.400000000000000000e+01 5.500000000000000000e+01 5.600000000000000000e+01 5.700000000000000000e+01 5.800000000000000000e+01 5.900000000000000000e+01 6.000000000000000000e+01 6.100000000000000000e+01 6.200000000000000000e+01 6.300000000000000000e+01 6.400000000000000000e+01 6.500000000000000000e+01 6.600000000000000000e+01 6.700000000000000000e+01 6.800000000000000000e+01 6.900000000000000000e+01 7.000000000000000000e+01 7.100000000000000000e+01 7.200000000000000000e+01 7.300000000000000000e+01 7.400000000000000000e+01 7.500000000000000000e+01 7.600000000000000000e+01 7.700000000000000000e+01 7.800000000000000000e+01 7.900000000000000000e+01 8.000000000000000000e+01 8.100000000000000000e+01 8.200000000000000000e+01 8.300000000000000000e+01 8.400000000000000000e+01 8.500000000000000000e+01 8.600000000000000000e+01 8.700000000000000000e+01 8.800000000000000000e+01 8.900000000000000000e+01 9.000000000000000000e+01 9.100000000000000000e+01 9.200000000000000000e+01 9.300000000000000000e+01 9.400000000000000000e+01 9.500000000000000000e+01 9.600000000000000000e+01 9.700000000000000000e+01 9.800000000000000000e+01 9.900000000000000000e+01 1.000000000000000000e+02 1.010000000000000000e+02 1.020000000000000000e+02 1.030000000000000000e+02 1.040000000000000000e+02 1.050000000000000000e+02 1.060000000000000000e+02 1.070000000000000000e+02 1.080000000000000000e+02 1.090000000000000000e+02 1.100000000000000000e+02 1.110000000000000000e+02 1.120000000000000000e+02 1.130000000000000000e+02 1.140000000000000000e+02 1.150000000000000000e+02 1.160000000000000000e+02 1.170000000000000000e+02 1.180000000000000000e+02 1.190000000000000000e+02 1.200000000000000000e+02 1.210000000000000000e+02 1.220000000000000000e+02 1.230000000000000000e+02 1.240000000000000000e+02 1.250000000000000000e+02 1.260000000000000000e+02 1.270000000000000000e+02 1.280000000000000000e+02 1.290000000000000000e+02 1.300000000000000000e+02 1.310000000000000000e+02 1.320000000000000000e+02 1.330000000000000000e+02 1.340000000000000000e+02 1.350000000000000000e+02 1.360000000000000000e+02 1.370000000000000000e+02 1.380000000000000000e+02 1.390000000000000000e+02 1.400000000000000000e+02 1.410000000000000000e+02 1.420000000000000000e+02 1.430000000000000000e+02 1.440000000000000000e+02 1.450000000000000000e+02 1.460000000000000000e+02 1.470000000000000000e+02 1.480000000000000000e+02 1.490000000000000000e+02 1.500000000000000000e+02 1.510000000000000000e+02 1.520000000000000000e+02 1.530000000000000000e+02 1.540000000000000000e+02 1.550000000000000000e+02 1.560000000000000000e+02 1.570000000000000000e+02 1.580000000000000000e+02 1.590000000000000000e+02 1.600000000000000000e+02 1.610000000000000000e+02 1.620000000000000000e+02 1.630000000000000000e+02 1.640000000000000000e+02 1.650000000000000000e+02 1.660000000000000000e+02 1.670000000000000000e+02 1.680000000000000000e+02 1.690000000000000000e+02 1.700000000000000000e+02 1.710000000000000000e+02 1.720000000000000000e+02 1.730000000000000000e+02 1.740000000000000000e+02 1.750000000000000000e+02 1.760000000000000000e+02 1.770000000000000000e+02 1.780000000000000000e+02 1.790000000000000000e+02 1.800000000000000000e+02 1.810000000000000000e+02 1.820000000000000000e+02 1.830000000000000000e+02 1.840000000000000000e+02 1.850000000000000000e+02 1.860000000000000000e+02 1.870000000000000000e+02 1.880000000000000000e+02 1.890000000000000000e+02 1.900000000000000000e+02 1.910000000000000000e+02 1.920000000000000000e+02 1.930000000000000000e+02 1.940000000000000000e+02 1.950000000000000000e+02 1.960000000000000000e+02 1.970000000000000000e+02 1.980000000000000000e+02 1.990000000000000000e+02 2.000000000000000000e+02 2.010000000000000000e+02 2.020000000000000000e+02 2.030000000000000000e+02 2.040000000000000000e+02 2.050000000000000000e+02 2.060000000000000000e+02 2.070000000000000000e+02 2.080000000000000000e+02 2.090000000000000000e+02 2.100000000000000000e+02 2.110000000000000000e+02 2.120000000000000000e+02 2.130000000000000000e+02 2.140000000000000000e+02 2.150000000000000000e+02 2.160000000000000000e+02 2.170000000000000000e+02 2.180000000000000000e+02 2.190000000000000000e+02 2.200000000000000000e+02 2.210000000000000000e+02 2.220000000000000000e+02 2.230000000000000000e+02 2.240000000000000000e+02 2.250000000000000000e+02 2.260000000000000000e+02 2.270000000000000000e+02 2.280000000000000000e+02 2.290000000000000000e+02 2.300000000000000000e+02 2.310000000000000000e+02 2.320000000000000000e+02 2.330000000000000000e+02 2.340000000000000000e+02 2.350000000000000000e+02 2.360000000000000000e+02 2.370000000000000000e+02 2.380000000000000000e+02 2.390000000000000000e+02 2.400000000000000000e+02 2.410000000000000000e+02 2.420000000000000000e+02 2.430000000000000000e+02 2.440000000000000000e+02 2.450000000000000000e+02 2.460000000000000000e+02 2.470000000000000000e+02 2.480000000000000000e+02 2.490000000000000000e+02 2.500000000000000000e+02 2.510000000000000000e+02 2.520000000000000000e+02 2.530000000000000000e+02 2.540000000000000000e+02 2.550000000000000000e+02 2.560000000000000000e+02 2.570000000000000000e+02 2.580000000000000000e+02 2.590000000000000000e+02 2.600000000000000000e+02 2.610000000000000000e+02 2.620000000000000000e+02 2.630000000000000000e+02 2.640000000000000000e+02 2.650000000000000000e+02 2.660000000000000000e+02 2.670000000000000000e+02 2.680000000000000000e+02 2.690000000000000000e+02 2.700000000000000000e+02 2.710000000000000000e+02 2.720000000000000000e+02 2.730000000000000000e+02 2.740000000000000000e+02 2.750000000000000000e+02 2.760000000000000000e+02 2.770000000000000000e+02 2.780000000000000000e+02 2.790000000000000000e+02 2.800000000000000000e+02 2.810000000000000000e+02 2.820000000000000000e+02 2.830000000000000000e+02 2.840000000000000000e+02 2.850000000000000000e+02 2.860000000000000000e+02 2.870000000000000000e+02 2.880000000000000000e+02 2.890000000000000000e+02 2.900000000000000000e+02 2.910000000000000000e+02 2.920000000000000000e+02 2.930000000000000000e+02 2.940000000000000000e+02 2.950000000000000000e+02 2.960000000000000000e+02 2.970000000000000000e+02 2.980000000000000000e+02 2.990000000000000000e+02 3.000000000000000000e+02 3.010000000000000000e+02 3.020000000000000000e+02 3.030000000000000000e+02 3.040000000000000000e+02 3.050000000000000000e+02 3.060000000000000000e+02 3.070000000000000000e+02 3.080000000000000000e+02 3.090000000000000000e+02 3.100000000000000000e+02 3.110000000000000000e+02 3.120000000000000000e+02 3.130000000000000000e+02 3.140000000000000000e+02 3.150000000000000000e+02 3.160000000000000000e+02 3.170000000000000000e+02 3.180000000000000000e+02 3.190000000000000000e+02 3.200000000000000000e+02 3.210000000000000000e+02 3.220000000000000000e+02 3.230000000000000000e+02 3.240000000000000000e+02 3.250000000000000000e+02 3.260000000000000000e+02 3.270000000000000000e+02 3.280000000000000000e+02 3.290000000000000000e+02 3.300000000000000000e+02 3.310000000000000000e+02 3.320000000000000000e+02 3.330000000000000000e+02 3.340000000000000000e+02 3.350000000000000000e+02 3.360000000000000000e+02 3.370000000000000000e+02 3.380000000000000000e+02 3.390000000000000000e+02 3.400000000000000000e+02 3.410000000000000000e+02 3.420000000000000000e+02 3.430000000000000000e+02 3.440000000000000000e+02 3.450000000000000000e+02 3.460000000000000000e+02 3.470000000000000000e+02 3.480000000000000000e+02 3.490000000000000000e+02 3.500000000000000000e+02 3.510000000000000000e+02 3.520000000000000000e+02 3.530000000000000000e+02 3.540000000000000000e+02 3.550000000000000000e+02 3.560000000000000000e+02 3.570000000000000000e+02 3.580000000000000000e+02 3.590000000000000000e+02 3.600000000000000000e+02 3.610000000000000000e+02 3.620000000000000000e+02 3.630000000000000000e+02 3.640000000000000000e+02 3.650000000000000000e+02 3.660000000000000000e+02 3.670000000000000000e+02 3.680000000000000000e+02 3.690000000000000000e+02 3.700000000000000000e+02 3.710000000000000000e+02 3.720000000000000000e+02 3.730000000000000000e+02 3.740000000000000000e+02 3.750000000000000000e+02 3.760000000000000000e+02 3.770000000000000000e+02 3.780000000000000000e+02 3.790000000000000000e+02 3.800000000000000000e+02 3.810000000000000000e+02 3.820000000000000000e+02 3.830000000000000000e+02 3.840000000000000000e+02 3.850000000000000000e+02 3.860000000000000000e+02 3.870000000000000000e+02 3.880000000000000000e+02 3.890000000000000000e+02 3.900000000000000000e+02 3.910000000000000000e+02 3.920000000000000000e+02 3.930000000000000000e+02 3.940000000000000000e+02 3.950000000000000000e+02 3.960000000000000000e+02 3.970000000000000000e+02 3.980000000000000000e+02 3.990000000000000000e+02 4.000000000000000000e+02 4.010000000000000000e+02 4.020000000000000000e+02 4.030000000000000000e+02 4.040000000000000000e+02 4.050000000000000000e+02 4.060000000000000000e+02 4.070000000000000000e+02 4.080000000000000000e+02 4.090000000000000000e+02 4.100000000000000000e+02 4.110000000000000000e+02 4.120000000000000000e+02 4.130000000000000000e+02 4.140000000000000000e+02 4.150000000000000000e+02 4.160000000000000000e+02 4.170000000000000000e+02 4.180000000000000000e+02 4.190000000000000000e+02 4.200000000000000000e+02 4.210000000000000000e+02 4.220000000000000000e+02 4.230000000000000000e+02 4.240000000000000000e+02 4.250000000000000000e+02 4.260000000000000000e+02 4.270000000000000000e+02 4.280000000000000000e+02 4.290000000000000000e+02 4.300000000000000000e+02 4.310000000000000000e+02 4.320000000000000000e+02 4.330000000000000000e+02 4.340000000000000000e+02 4.350000000000000000e+02 4.360000000000000000e+02 4.370000000000000000e+02 4.380000000000000000e+02 4.390000000000000000e+02 4.400000000000000000e+02 4.410000000000000000e+02 4.420000000000000000e+02 4.430000000000000000e+02 4.440000000000000000e+02 4.450000000000000000e+02 4.460000000000000000e+02 4.470000000000000000e+02 4.480000000000000000e+02 4.490000000000000000e+02 4.500000000000000000e+02 4.510000000000000000e+02 4.520000000000000000e+02 4.530000000000000000e+02 4.540000000000000000e+02 4.550000000000000000e+02 4.560000000000000000e+02 4.570000000000000000e+02 4.580000000000000000e+02 4.590000000000000000e+02 4.600000000000000000e+02 4.610000000000000000e+02 4.620000000000000000e+02 4.630000000000000000e+02 4.640000000000000000e+02 4.650000000000000000e+02 4.660000000000000000e+02 4.670000000000000000e+02 4.680000000000000000e+02 4.690000000000000000e+02 4.700000000000000000e+02 4.710000000000000000e+02 4.720000000000000000e+02 4.730000000000000000e+02 4.740000000000000000e+02 4.750000000000000000e+02 4.760000000000000000e+02 4.770000000000000000e+02 4.780000000000000000e+02 4.790000000000000000e+02 4.800000000000000000e+02 4.810000000000000000e+02 4.820000000000000000e+02 4.830000000000000000e+02 4.840000000000000000e+02 4.850000000000000000e+02 4.860000000000000000e+02 4.870000000000000000e+02 4.880000000000000000e+02 4.890000000000000000e+02 4.900000000000000000e+02 4.910000000000000000e+02 4.920000000000000000e+02 4.930000000000000000e+02 4.940000000000000000e+02 4.950000000000000000e+02 4.960000000000000000e+02 4.970000000000000000e+02 4.980000000000000000e+02 4.990000000000000000e+02 5.000000000000000000e+02 5.010000000000000000e+02 5.020000000000000000e+02 5.030000000000000000e+02 5.040000000000000000e+02 5.050000000000000000e+02 5.060000000000000000e+02 5.070000000000000000e+02 5.080000000000000000e+02 5.090000000000000000e+02 5.100000000000000000e+02 5.110000000000000000e+02 5.120000000000000000e+02 5.130000000000000000e+02 5.140000000000000000e+02 5.150000000000000000e+02 5.160000000000000000e+02 5.170000000000000000e+02 5.180000000000000000e+02 5.190000000000000000e+02 5.200000000000000000e+02 5.210000000000000000e+02 5.220000000000000000e+02 5.230000000000000000e+02 5.240000000000000000e+02 5.250000000000000000e+02 5.260000000000000000e+02 5.270000000000000000e+02 5.280000000000000000e+02 5.290000000000000000e+02 5.300000000000000000e+02 5.310000000000000000e+02 5.320000000000000000e+02 5.330000000000000000e+02 5.340000000000000000e+02 5.350000000000000000e+02 5.360000000000000000e+02 5.370000000000000000e+02 5.380000000000000000e+02 5.390000000000000000e+02 5.400000000000000000e+02 5.410000000000000000e+02 5.420000000000000000e+02 5.430000000000000000e+02 5.440000000000000000e+02 5.450000000000000000e+02 5.460000000000000000e+02 5.470000000000000000e+02 5.480000000000000000e+02 5.490000000000000000e+02 5.500000000000000000e+02 5.510000000000000000e+02 5.520000000000000000e+02 5.530000000000000000e+02 5.540000000000000000e+02 5.550000000000000000e+02 5.560000000000000000e+02 5.570000000000000000e+02 5.580000000000000000e+02 5.590000000000000000e+02 5.600000000000000000e+02 5.610000000000000000e+02 5.620000000000000000e+02 5.630000000000000000e+02 5.640000000000000000e+02 5.650000000000000000e+02 5.660000000000000000e+02 5.670000000000000000e+02 5.680000000000000000e+02 5.690000000000000000e+02 5.700000000000000000e+02 5.710000000000000000e+02 5.720000000000000000e+02 5.730000000000000000e+02 5.740000000000000000e+02 5.750000000000000000e+02 5.760000000000000000e+02 5.770000000000000000e+02 5.780000000000000000e+02 5.790000000000000000e+02 5.800000000000000000e+02 5.810000000000000000e+02 5.820000000000000000e+02 5.830000000000000000e+02 5.840000000000000000e+02 5.850000000000000000e+02 5.860000000000000000e+02 5.870000000000000000e+02 5.880000000000000000e+02 5.890000000000000000e+02 5.900000000000000000e+02 5.910000000000000000e+02 5.920000000000000000e+02 5.930000000000000000e+02 5.940000000000000000e+02 5.950000000000000000e+02 5.960000000000000000e+02 5.970000000000000000e+02 5.980000000000000000e+02 5.990000000000000000e+02 6.000000000000000000e+02 6.010000000000000000e+02 6.020000000000000000e+02 6.030000000000000000e+02 6.040000000000000000e+02 6.050000000000000000e+02 6.060000000000000000e+02 6.070000000000000000e+02 6.080000000000000000e+02 6.090000000000000000e+02 6.100000000000000000e+02 6.110000000000000000e+02 6.120000000000000000e+02 6.130000000000000000e+02 6.140000000000000000e+02 6.150000000000000000e+02 6.160000000000000000e+02 6.170000000000000000e+02 6.180000000000000000e+02 6.190000000000000000e+02 6.200000000000000000e+02 6.210000000000000000e+02 6.220000000000000000e+02 6.230000000000000000e+02 6.240000000000000000e+02 6.250000000000000000e+02 6.260000000000000000e+02 6.270000000000000000e+02 6.280000000000000000e+02 6.290000000000000000e+02 6.300000000000000000e+02 6.310000000000000000e+02 6.320000000000000000e+02 6.330000000000000000e+02 6.340000000000000000e+02 6.350000000000000000e+02 6.360000000000000000e+02 6.370000000000000000e+02 6.380000000000000000e+02 6.390000000000000000e+02 6.400000000000000000e+02 6.410000000000000000e+02 6.420000000000000000e+02 6.430000000000000000e+02 6.440000000000000000e+02 6.450000000000000000e+02 6.460000000000000000e+02 6.470000000000000000e+02 6.480000000000000000e+02 6.490000000000000000e+02 6.500000000000000000e+02 6.510000000000000000e+02 6.520000000000000000e+02 6.530000000000000000e+02 6.540000000000000000e+02 6.550000000000000000e+02 6.560000000000000000e+02 6.570000000000000000e+02 6.580000000000000000e+02 6.590000000000000000e+02 6.600000000000000000e+02 6.610000000000000000e+02 6.620000000000000000e+02 6.630000000000000000e+02 6.640000000000000000e+02 6.650000000000000000e+02 6.660000000000000000e+02 6.670000000000000000e+02 6.680000000000000000e+02 6.690000000000000000e+02 6.700000000000000000e+02 6.710000000000000000e+02 6.720000000000000000e+02 6.730000000000000000e+02 6.740000000000000000e+02 6.750000000000000000e+02 6.760000000000000000e+02 6.770000000000000000e+02 6.780000000000000000e+02 6.790000000000000000e+02 6.800000000000000000e+02 6.810000000000000000e+02 6.820000000000000000e+02 6.830000000000000000e+02 6.840000000000000000e+02 6.850000000000000000e+02 6.860000000000000000e+02 6.870000000000000000e+02 6.880000000000000000e+02 6.890000000000000000e+02 6.900000000000000000e+02 6.910000000000000000e+02 6.920000000000000000e+02 6.930000000000000000e+02 6.940000000000000000e+02 6.950000000000000000e+02 6.960000000000000000e+02 6.970000000000000000e+02 6.980000000000000000e+02 6.990000000000000000e+02 7.000000000000000000e+02 7.010000000000000000e+02 7.020000000000000000e+02 7.030000000000000000e+02 7.040000000000000000e+02 7.050000000000000000e+02 7.060000000000000000e+02 7.070000000000000000e+02 7.080000000000000000e+02 7.090000000000000000e+02 7.100000000000000000e+02 7.110000000000000000e+02 7.120000000000000000e+02 7.130000000000000000e+02 7.140000000000000000e+02 7.150000000000000000e+02 7.160000000000000000e+02 7.170000000000000000e+02 7.180000000000000000e+02 7.190000000000000000e+02 7.200000000000000000e+02 7.210000000000000000e+02 7.220000000000000000e+02 7.230000000000000000e+02 7.240000000000000000e+02 7.250000000000000000e+02 7.260000000000000000e+02 7.270000000000000000e+02 7.280000000000000000e+02 7.290000000000000000e+02 7.300000000000000000e+02 7.310000000000000000e+02 7.320000000000000000e+02 7.330000000000000000e+02 7.340000000000000000e+02 7.350000000000000000e+02 7.360000000000000000e+02 7.370000000000000000e+02 7.380000000000000000e+02 7.390000000000000000e+02 7.400000000000000000e+02 7.410000000000000000e+02 7.420000000000000000e+02 7.430000000000000000e+02 7.440000000000000000e+02 7.450000000000000000e+02 7.460000000000000000e+02 7.470000000000000000e+02 7.480000000000000000e+02 7.490000000000000000e+02 7.500000000000000000e+02 7.510000000000000000e+02 7.520000000000000000e+02 7.530000000000000000e+02 7.540000000000000000e+02 7.550000000000000000e+02 7.560000000000000000e+02 7.570000000000000000e+02 7.580000000000000000e+02 7.590000000000000000e+02 7.600000000000000000e+02 7.610000000000000000e+02 7.620000000000000000e+02 7.630000000000000000e+02 7.640000000000000000e+02 7.650000000000000000e+02 7.660000000000000000e+02 7.670000000000000000e+02 7.680000000000000000e+02 7.690000000000000000e+02 7.700000000000000000e+02 7.710000000000000000e+02 7.720000000000000000e+02 7.730000000000000000e+02 7.740000000000000000e+02 7.750000000000000000e+02 7.760000000000000000e+02 7.770000000000000000e+02 7.780000000000000000e+02 7.790000000000000000e+02 7.800000000000000000e+02 7.810000000000000000e+02 7.820000000000000000e+02 7.830000000000000000e+02 7.840000000000000000e+02 7.850000000000000000e+02 7.860000000000000000e+02 7.870000000000000000e+02 7.880000000000000000e+02 7.890000000000000000e+02 7.900000000000000000e+02 7.910000000000000000e+02 7.920000000000000000e+02 7.930000000000000000e+02 7.940000000000000000e+02 7.950000000000000000e+02 7.960000000000000000e+02 7.970000000000000000e+02 7.980000000000000000e+02 7.990000000000000000e+02 8.000000000000000000e+02 8.010000000000000000e+02 8.020000000000000000e+02 8.030000000000000000e+02 8.040000000000000000e+02 8.050000000000000000e+02 8.060000000000000000e+02 8.070000000000000000e+02 8.080000000000000000e+02 8.090000000000000000e+02 8.100000000000000000e+02 8.110000000000000000e+02 8.120000000000000000e+02 8.130000000000000000e+02 8.140000000000000000e+02 8.150000000000000000e+02 8.160000000000000000e+02 8.170000000000000000e+02 8.180000000000000000e+02 8.190000000000000000e+02 8.200000000000000000e+02 8.210000000000000000e+02 8.220000000000000000e+02 8.230000000000000000e+02 8.240000000000000000e+02 8.250000000000000000e+02 8.260000000000000000e+02 8.270000000000000000e+02 8.280000000000000000e+02 8.290000000000000000e+02 8.300000000000000000e+02 8.310000000000000000e+02 8.320000000000000000e+02 8.330000000000000000e+02 8.340000000000000000e+02 8.350000000000000000e+02 8.360000000000000000e+02 8.370000000000000000e+02 8.380000000000000000e+02 8.390000000000000000e+02 8.400000000000000000e+02 8.410000000000000000e+02 8.420000000000000000e+02 8.430000000000000000e+02 8.440000000000000000e+02 8.450000000000000000e+02 8.460000000000000000e+02 8.470000000000000000e+02 8.480000000000000000e+02 8.490000000000000000e+02 8.500000000000000000e+02 8.510000000000000000e+02 8.520000000000000000e+02 8.530000000000000000e+02 8.540000000000000000e+02 8.550000000000000000e+02 8.560000000000000000e+02 8.570000000000000000e+02 8.580000000000000000e+02 8.590000000000000000e+02 8.600000000000000000e+02 8.610000000000000000e+02 8.620000000000000000e+02 8.630000000000000000e+02 8.640000000000000000e+02 8.650000000000000000e+02 8.660000000000000000e+02 8.670000000000000000e+02 8.680000000000000000e+02 8.690000000000000000e+02 8.700000000000000000e+02 8.710000000000000000e+02 8.720000000000000000e+02 8.730000000000000000e+02 8.740000000000000000e+02 8.750000000000000000e+02 8.760000000000000000e+02 8.770000000000000000e+02 8.780000000000000000e+02 8.790000000000000000e+02 8.800000000000000000e+02 8.810000000000000000e+02 8.820000000000000000e+02 8.830000000000000000e+02 8.840000000000000000e+02 8.850000000000000000e+02 8.860000000000000000e+02 8.870000000000000000e+02 8.880000000000000000e+02 8.890000000000000000e+02 8.900000000000000000e+02 8.910000000000000000e+02 8.920000000000000000e+02 8.930000000000000000e+02 8.940000000000000000e+02 8.950000000000000000e+02 8.960000000000000000e+02 8.970000000000000000e+02 8.980000000000000000e+02 8.990000000000000000e+02 9.000000000000000000e+02 9.010000000000000000e+02 9.020000000000000000e+02 9.030000000000000000e+02 9.040000000000000000e+02 9.050000000000000000e+02 9.060000000000000000e+02 9.070000000000000000e+02 9.080000000000000000e+02 9.090000000000000000e+02 9.100000000000000000e+02 9.110000000000000000e+02 9.120000000000000000e+02 9.130000000000000000e+02 9.140000000000000000e+02 9.150000000000000000e+02 9.160000000000000000e+02 9.170000000000000000e+02 9.180000000000000000e+02 9.190000000000000000e+02 9.200000000000000000e+02 9.210000000000000000e+02 9.220000000000000000e+02 9.230000000000000000e+02 9.240000000000000000e+02 9.250000000000000000e+02 9.260000000000000000e+02 9.270000000000000000e+02 9.280000000000000000e+02 9.290000000000000000e+02 9.300000000000000000e+02 9.310000000000000000e+02 9.320000000000000000e+02 9.330000000000000000e+02 9.340000000000000000e+02 9.350000000000000000e+02 9.360000000000000000e+02 9.370000000000000000e+02 9.380000000000000000e+02 9.390000000000000000e+02 9.400000000000000000e+02 9.410000000000000000e+02 9.420000000000000000e+02 9.430000000000000000e+02 9.440000000000000000e+02 9.450000000000000000e+02 9.460000000000000000e+02 9.470000000000000000e+02 9.480000000000000000e+02 9.490000000000000000e+02 9.500000000000000000e+02 9.510000000000000000e+02 9.520000000000000000e+02 9.530000000000000000e+02 9.540000000000000000e+02 9.550000000000000000e+02 9.560000000000000000e+02 9.570000000000000000e+02 9.580000000000000000e+02 9.590000000000000000e+02 9.600000000000000000e+02 9.610000000000000000e+02 9.620000000000000000e+02 9.630000000000000000e+02 9.640000000000000000e+02 9.650000000000000000e+02 9.660000000000000000e+02 9.670000000000000000e+02 9.680000000000000000e+02 9.690000000000000000e+02 9.700000000000000000e+02 9.710000000000000000e+02 9.720000000000000000e+02 9.730000000000000000e+02 9.740000000000000000e+02 9.750000000000000000e+02 9.760000000000000000e+02 9.770000000000000000e+02 9.780000000000000000e+02 9.790000000000000000e+02 9.800000000000000000e+02 9.810000000000000000e+02 9.820000000000000000e+02 9.830000000000000000e+02 9.840000000000000000e+02 9.850000000000000000e+02 9.860000000000000000e+02 9.870000000000000000e+02 9.880000000000000000e+02 9.890000000000000000e+02 9.900000000000000000e+02 9.910000000000000000e+02 9.920000000000000000e+02 9.930000000000000000e+02 9.940000000000000000e+02 9.950000000000000000e+02 9.960000000000000000e+02 9.970000000000000000e+02 9.980000000000000000e+02 9.990000000000000000e+02
1.000000000000000000e+00 1.000000000000000000e+00 1.000000000000000000e+00 1.000000000000000000e+00 1.000000000000000000e+00 1.000000000000000000e+00 1.000000000000000000e+00 1.000000000000000000e+00 1.000000000000000000e+00 1.000000000000000000e+00 1.000000000000000000e+00 1.000000000000000000e+00 1.000000000000000000e+00 1.000000000000000000e+00 1.000000000000000000e+00 1.000000000000000000e+00 1.000000000000000000e+00 1.000000000000000000e+00 1.000000000000000000e+00 1.000000000000000000e+00 1.000000000000000000e+00 1.000000000000000000e+00 1.000000000000000000e+00 1.000000000000000000e+00 1.000000000000000000e+00 1.000000000000000000e+00 1.000000000000000000e+00 1.000000000000000000e+00 1.000000000000000000e+00 1.000000000000000000e+00 1.000000000000000000e+00 1.000000000000000000e+00 1.000000000000000000e+00 1.000000000000000000e+00 1.000000000000000000e+00 1.000000000000000000e+00 1.000000000000000000e+00 1.000000000000000000e+00 1.000000000000000000e+00 1.000000000000000000e+00 1.000000000000000000e+00 1.000000000000000000e+00 1.000000000000000000e+00 1.000000000000000000e+00 1.000000000000000000e+00 1.000000000000000000e+00 1.000000000000000000e+00 1.000000000000000000e+00 1.000000000000000000e+00 1.000000000000000000e+00 1.000000000000000000e+00 1.000000000000000000e+00 1.000000000000000000e+00 1.000000000000000000e+00 1.000000000000000000e+00 1.000000000000000000e+00 1.000000000000000000e+00 1.000000000000000000e+00 1.000000000000000000e+00 1.000000000000000000e+00 1.000000000000000000e+00 1.000000000000000000e+00 1.000000000000000000e+00 1.000000000000000000e+00 1.000000000000000000e+00 1.000000000000000000e+00 1.000000000000000000e+00 1.000000000000000000e+00 1.000000000000000000e+00 1.000000000000000000e+00 1.000000000000000000e+00 1.000000000000000000e+00 1.000000000000000000e+00 1.000000000000000000e+00 1.000000000000000000e+00 1.000000000000000000e+00 1.000000000000000000e+00 1.000000000000000000e+00 1.000000000000000000e+00 1.000000000000000000e+00 1.000000000000000000e+00 1.000000000000000000e+00 1.000000000000000000e+00 1.000000000000000000e+00 1.000000000000000000e+00 1.000000000000000000e+00 1.000000000000000000e+00 1.000000000000000000e+00 1.000000000000000000e+00 1.000000000000000000e+00 1.000000000000000000e+00 1.000000000000000000e+00 1.000000000000000000e+00 1.000000000000000000e+00 1.000000000000000000e+00 1.000000000000000000e+00 1.000000000000000000e+00 1.000000000000000000e+00 1.000000000000000000e+00 1.000000000000000000e+00 1.000000000000000000e+00 1.000000000000000000e+00 1.000000000000000000e+00 1.000000000000000000e+00 1.000000000000000000e+00 1.000000000000000000e+00 1.000000000000000000e+00 1.000000000000000000e+00 1.000000000000000000e+00 1.000000000000000000e+00 1.000000000000000000e+00 1.000000000000000000e+00 1.000000000000000000e+00 1.000000000000000000e+00 1.000000000000000000e+00 1.000000000000000000e+00 1.000000000000000000e+00 1.000000000000000000e+00 1.000000000000000000e+00 1.000000000000000000e+00 1.000000000000000000e+00 1.000000000000000000e+00 1.000000000000000000e+00 1.000000000000000000e+00 1.000000000000000000e+00 1.000000000000000000e+00 1.000000000000000000e+00 1.000000000000000000e+00 1.000000000000000000e+00 1.000000000000000000e+00 1.000000000000000000e+00 1.000000000000000000e+00 1.000000000000000000e+00 1.000000000000000000e+00 1.000000000000000000e+00 1.000000000000000000e+00 1.000000000000000000e+00 1.000000000000000000e+00 1.000000000000000000e+00 1.000000000000000000e+00 1.000000000000000000e+00 1.000000000000000000e+00 1.000000000000000000e+00 1.000000000000000000e+00 1.000000000000000000e+00 1.000000000000000000e+00 1.000000000000000000e+00 1.000000000000000000e+00 1.000000000000000000e+00 1.000000000000000000e+00 1.000000000000000000e+00 1.000000000000000000e+00 1.000000000000000000e+00 1.000000000000000000e+00 1.000000000000000000e+00 1.000000000000000000e+00 1.000000000000000000e+00 1.000000000000000000e+00 1.000000000000000000e+00 1.000000000000000000e+00 1.000000000000000000e+00 1.000000000000000000e+00 1.000000000000000000e+00 1.000000000000000000e+00 1.000000000000000000e+00 1.000000000000000000e+00 1.000000000000000000e+00 1.000000000000000000e+00 1.000000000000000000e+00 1.000000000000000000e+00 1.000000000000000000e+00 1.000000000000000000e+00 1.000000000000000000e+00 1.000000000000000000e+00 1.000000000000000000e+00 1.000000000000000000e+00 1.000000000000000000e+00 1.000000000000000000e+00 1.000000000000000000e+00 1.000000000000000000e+00 1.000000000000000000e+00 1.000000000000000000e+00 1.000000000000000000e+00 1.000000000000000000e+00 1.000000000000000000e+00 1.000000000000000000e+00 1.000000000000000000e+00 1.000000000000000000e+00 1.000000000000000000e+00 1.000000000000000000e+00 1.000000000000000000e+00 1.000000000000000000e+00 1.000000000000000000e+00 1.000000000000000000e+00 1.000000000000000000e+00 1.000000000000000000e+00 1.000000000000000000e+00 1.000000000000000000e+00 1.000000000000000000e+00 1.000000000000000000e+00 1.000000000000000000e+00 1.000000000000000000e+00 1.000000000000000000e+00 1.000000000000000000e+00 1.000000000000000000e+00 1.000000000000000000e+00 1.000000000000000000e+00 1.000000000000000000e+00 1.000000000000000000e+00 1.000000000000000000e+00 1.000000000000000000e+00 1.000000000000000000e+00 1.000000000000000000e+00 1.000000000000000000e+00 1.000000000000000000e+00 1.000000000000000000e+00 1.000000000000000000e+00 1.000000000000000000e+00 1.000000000000000000e+00 1.000000000000000000e+00 1.000000000000000000e+00 1.000000000000000000e+00 1.000000000000000000e+00 1.000000000000000000e+00 1.000000000000000000e+00 1.000000000000000000e+00 1.000000000000000000e+00 1.000000000000000000e+00 1.000000000000000000e+00 1.000000000000000000e+00 1.000000000000000000e+00 1.000000000000000000e+00 1.000000000000000000e+00 1.000000000000000000e+00 1.000000000000000000e+00 1.000000000000000000e+00 1.000000000000000000e+00 1.000000000000000000e+00 1.000000000000000000e+00 1.000000000000000000e+00 1.000000000000000000e+00 1.000000000000000000e+00 1.000000000000000000e+00 1.000000000000000000e+00 1.000000000000000000e+00 1.000000000000000000e+00 1.000000000000000000e+00 1.000000000000000000e+00 1.000000000000000000e+00 1.000000000000000000e+00 1.000000000000000000e+00 1.000000000000000000e+00 1.000000000000000000e+00 1.000000000000000000e+00 1.000000000000000000e+00 1.000000000000000000e+00 1.000000000000000000e+00 1.000000000000000000e+00 1.000000000000000000e+00 1.000000000000000000e+00 1.000000000000000000e+00 1.000000000000000000e+00 1.000000000000000000e+00 1.000000000000000000e+00 1.000000000000000000e+00 1.000000000000000000e+00 1.000000000000000000e+00 1.000000000000000000e+00 1.000000000000000000e+00 1.000000000000000000e+00 1.000000000000000000e+00 1.000000000000000000e+00 1.000000000000000000e+00 1.000000000000000000e+00 1.000000000000000000e+00 1.000000000000000000e+00 1.000000000000000000e+00 1.000000000000000000e+00 1.000000000000000000e+00 1.000000000000000000e+00 1.000000000000000000e+00 1.000000000000000000e+00 1.000000000000000000e+00 1.000000000000000000e+00 1.000000000000000000e+00 1.000000000000000000e+00 1.000000000000000000e+00 1.000000000000000000e+00 1.000000000000000000e+00 1.000000000000000000e+00 1.000000000000000000e+00 1.000000000000000000e+00 1.000000000000000000e+00 1.000000000000000000e+00 1.000000000000000000e+00 1.000000000000000000e+00 1.000000000000000000e+00 1.000000000000000000e+00 1.000000000000000000e+00 1.000000000000000000e+00 1.000000000000000000e+00 1.000000000000000000e+00 1.000000000000000000e+00 1.000000000000000000e+00 1.000000000000000000e+00 1.000000000000000000e+00 1.000000000000000000e+00 1.000000000000000000e+00 1.000000000000000000e+00 1.000000000000000000e+00 1.000000000000000000e+00 1.000000000000000000e+00 1.000000000000000000e+00 1.000000000000000000e+00 1.000000000000000000e+00 1.000000000000000000e+00 1.000000000000000000e+00 1.000000000000000000e+00 1.000000000000000000e+00 1.000000000000000000e+00 1.000000000000000000e+00 1.000000000000000000e+00 1.000000000000000000e+00 1.000000000000000000e+00 1.000000000000000000e+00 1.000000000000000000e+00 1.000000000000000000e+00 1.000000000000000000e+00 1.000000000000000000e+00 1.000000000000000000e+00 1.000000000000000000e+00 1.000000000000000000e+00 1.000000000000000000e+00 1.000000000000000000e+00 1.000000000000000000e+00 1.000000000000000000e+00 1.000000000000000000e+00 1.000000000000000000e+00 1.000000000000000000e+00 1.000000000000000000e+00 1.000000000000000000e+00 1.000000000000000000e+00 1.000000000000000000e+00 1.000000000000000000e+00 1.000000000000000000e+00 1.000000000000000000e+00 1.000000000000000000e+00 1.000000000000000000e+00 1.000000000000000000e+00 1.000000000000000000e+00 1.000000000000000000e+00 1.000000000000000000e+00 1.000000000000000000e+00 1.000000000000000000e+00 1.000000000000000000e+00 1.000000000000000000e+00 1.000000000000000000e+00 1.000000000000000000e+00 1.000000000000000000e+00 1.000000000000000000e+00 1.000000000000000000e+00 1.000000000000000000e+00 1.000000000000000000e+00 1.000000000000000000e+00 1.000000000000000000e+00 1.000000000000000000e+00 1.000000000000000000e+00 1.000000000000000000e+00 1.000000000000000000e+00 1.000000000000000000e+00 1.000000000000000000e+00 1.000000000000000000e+00 1.000000000000000000e+00 1.000000000000000000e+00 1.000000000000000000e+00 1.000000000000000000e+00 1.000000000000000000e+00 1.000000000000000000e+00 1.000000000000000000e+00 1.000000000000000000e+00 1.000000000000000000e+00 1.000000000000000000e+00 1.000000000000000000e+00 1.000000000000000000e+00 1.000000000000000000e+00 1.000000000000000000e+00 1.000000000000000000e+00 1.000000000000000000e+00 1.000000000000000000e+00 1.000000000000000000e+00 1.000000000000000000e+00 1.000000000000000000e+00 1.000000000000000000e+00 1.000000000000000000e+00 1.000000000000000000e+00 1.000000000000000000e+00 1.000000000000000000e+00 1.000000000000000000e+00 1.000000000000000000e+00 1.000000000000000000e+00 1.000000000000000000e+00 1.000000000000000000e+00 1.000000000000000000e+00 1.000000000000000000e+00 1.000000000000000000e+00 1.000000000000000000e+00 1.000000000000000000e+00 1.000000000000000000e+00 1.000000000000000000e+00 1.000000000000000000e+00 1.000000000000000000e+00 1.000000000000000000e+00 1.000000000000000000e+00 1.000000000000000000e+00 1.000000000000000000e+00 1.000000000000000000e+00 1.000000000000000000e+00 1.000000000000000000e+00 1.000000000000000000e+00 1.000000000000000000e+00 1.000000000000000000e+00 1.000000000000000000e+00 1.000000000000000000e+00 1.000000000000000000e+00 1.000000000000000000e+00 1.000000000000000000e+00 1.000000000000000000e+00 1.000000000000000000e+00 1.000000000000000000e+00 1.000000000000000000e+00 1.000000000000000000e+00 1.000000000000000000e+00 1.000000000000000000e+00 1.000000000000000000e+00 1.000000000000000000e+00 1.000000000000000000e+00 1.000000000000000000e+00 1.000000000000000000e+00 1.000000000000000000e+00 1.000000000000000000e+00 1.000000000000000000e+00 1.000000000000000000e+00 1.000000000000000000e+00 1.000000000000000000e+00 1.000000000000000000e+00 1.000000000000000000e+00 1.000000000000000000e+00 1.000000000000000000e+00 1.000000000000000000e+00 1.000000000000000000e+00 1.000000000000000000e+00 1.000000000000000000e+00 1.000000000000000000e+00 1.000000000000000000e+00 1.000000000000000000e+00 1.000000000000000000e+00 1.000000000000000000e+00 1.000000000000000000e+00 1.000000000000000000e+00 1.000000000000000000e+00 1.000000000000000000e+00 1.000000000000000000e+00 1.000000000000000000e+00 1.000000000000000000e+00 1.000000000000000000e+00 1.000000000000000000e+00 1.000000000000000000e+00 1.000000000000000000e+00 1.000000000000000000e+00 1.000000000000000000e+00 1.000000000000000000e+00 1.000000000000000000e+00 1.000000000000000000e+00 1.000000000000000000e+00 1.000000000000000000e+00 1.000000000000000000e+00 1.000000000000000000e+00 1.000000000000000000e+00 1.000000000000000000e+00 1.000000000000000000e+00 1.000000000000000000e+00 1.000000000000000000e+00 1.000000000000000000e+00 1.000000000000000000e+00 1.000000000000000000e+00 1.000000000000000000e+00 1.000000000000000000e+00 1.000000000000000000e+00 1.000000000000000000e+00 1.000000000000000000e+00 1.000000000000000000e+00 1.000000000000000000e+00 1.000000000000000000e+00 1.000000000000000000e+00 1.000000000000000000e+00 1.000000000000000000e+00 1.000000000000000000e+00 1.000000000000000000e+00 1.000000000000000000e+00 1.000000000000000000e+00 1.000000000000000000e+00 1.000000000000000000e+00 1.000000000000000000e+00 1.000000000000000000e+00 1.000000000000000000e+00 1.000000000000000000e+00 1.000000000000000000e+00 1.000000000000000000e+00 1.000000000000000000e+00 1.000000000000000000e+00 1.000000000000000000e+00 1.000000000000000000e+00 1.000000000000000000e+00 1.000000000000000000e+00 1.000000000000000000e+00 1.000000000000000000e+00 1.000000000000000000e+00 1.000000000000000000e+00 1.000000000000000000e+00 1.000000000000000000e+00 1.000000000000000000e+00 1.000000000000000000e+00 1.000000000000000000e+00 1.000000000000000000e+00 1.000000000000000000e+00 1.000000000000000000e+00 1.000000000000000000e+00 1.000000000000000000e+00 1.000000000000000000e+00 1.000000000000000000e+00 1.000000000000000000e+00 1.000000000000000000e+00 1.000000000000000000e+00 1.000000000000000000e+00 1.000000000000000000e+00 1.000000000000000000e+00 1.000000000000000000e+00 1.000000000000000000e+00 1.000000000000000000e+00 1.000000000000000000e+00 1.000000000000000000e+00 1.000000000000000000e+00 1.000000000000000000e+00 1.000000000000000000e+00 1.000000000000000000e+00 1.000000000000000000e+00 1.000000000000000000e+00 1.000000000000000000e+00 1.000000000000000000e+00 1.000000000000000000e+00 1.000000000000000000e+00 1.000000000000000000e+00 1.000000000000000000e+00 1.000000000000000000e+00 1.000000000000000000e+00 1.000000000000000000e+00 1.000000000000000000e+00 1.000000000000000000e+00 1.000000000000000000e+00 1.000000000000000000e+00 1.000000000000000000e+00 1.000000000000000000e+00 1.000000000000000000e+00 1.000000000000000000e+00 1.000000000000000000e+00 1.000000000000000000e+00 1.000000000000000000e+00 1.000000000000000000e+00 1.000000000000000000e+00 1.000000000000000000e+00 1.000000000000000000e+00 1.000000000000000000e+00 1.000000000000000000e+00 1.000000000000000000e+00 1.000000000000000000e+00 1.000000000000000000e+00 1.000000000000000000e+00 1.000000000000000000e+00 1.000000000000000000e+00 1.000000000000000000e+00 1.000000000000000000e+00 1.000000000000000000e+00 1.000000000000000000e+00 1.000000000000000000e+00 1.000000000000000000e+00 1.000000000000000000e+00 1.000000000000000000e+00 1.000000000000000000e+00 1.000000000000000000e+00 1.000000000000000000e+00 1.000000000000000000e+00 1.000000000000000000e+00 1.000000000000000000e+00 1.000000000000000000e+00 1.000000000000000000e+00 1.000000000000000000e+00 1.000000000000000000e+00 1.000000000000000000e+00 1.000000000000000000e+00 1.000000000000000000e+00 1.000000000000000000e+00 1.000000000000000000e+00 1.000000000000000000e+00 1.000000000000000000e+00 1.000000000000000000e+00 1.000000000000000000e+00 1.000000000000000000e+00 1.000000000000000000e+00 1.000000000000000000e+00 1.000000000000000000e+00 1.000000000000000000e+00 1.000000000000000000e+00 1.000000000000000000e+00 1.000000000000000000e+00 1.000000000000000000e+00 1.000000000000000000e+00 1.000000000000000000e+00 1.000000000000000000e+00 1.000000000000000000e+00 1.000000000000000000e+00 1.000000000000000000e+00 1.000000000000000000e+00 1.000000000000000000e+00 1.000000000000000000e+00 1.000000000000000000e+00 1.000000000000000000e+00 1.000000000000000000e+00 1.000000000000000000e+00 1.000000000000000000e+00 1.000000000000000000e+00 1.000000000000000000e+00 1.000000000000000000e+00 1.000000000000000000e+00 1.000000000000000000e+00 1.000000000000000000e+00 1.000000000000000000e+00 1.000000000000000000e+00 1.000000000000000000e+00 1.000000000000000000e+00 1.000000000000000000e+00 1.000000000000000000e+00 1.000000000000000000e+00 1.000000000000000000e+00 1.000000000000000000e+00 1.000000000000000000e+00 1.000000000000000000e+00 1.000000000000000000e+00 1.000000000000000000e+00 1.000000000000000000e+00 1.000000000000000000e+00 1.000000000000000000e+00 1.000000000000000000e+00 1.000000000000000000e+00 1.000000000000000000e+00 1.000000000000000000e+00 1.000000000000000000e+00 1.000000000000000000e+00 1.000000000000000000e+00 1.000000000000000000e+00 1.000000000000000000e+00 1.000000000000000000e+00 1.000000000000000000e+00 1.000000000000000000e+00 1.000000000000000000e+00 1.000000000000000000e+00 1.000000000000000000e+00 1.000000000000000000e+00 1.000000000000000000e+00 1.000000000000000000e+00 1.000000000000000000e+00 1.000000000000000000e+00 1.000000000000000000e+00 1.000000000000000000e+00 1.000000000000000000e+00 1.000000000000000000e+00 1.000000000000000000e+00 1.000000000000000000e+00 1.000000000000000000e+00 1.000000000000000000e+00 1.000000000000000000e+00 1.000000000000000000e+00 1.000000000000000000e+00 1.000000000000000000e+00 1.000000000000000000e+00 1.000000000000000000e+00 1.000000000000000000e+00 1.000000000000000000e+00 1.000000000000000000e+00 1.000000000000000000e+00 1.000000000000000000e+00 1.000000000000000000e+00 1.000000000000000000e+00 1.000000000000000000e+00 1.000000000000000000e+00 1.000000000000000000e+00 1.000000000000000000e+00 1.000000000000000000e+00 1.000000000000000000e+00 1.000000000000000000e+00 1.000000000000000000e+00 1.000000000000000000e+00 1.000000000000000000e+00 1.000000000000000000e+00 1.000000000000000000e+00 1.000000000000000000e+00 1.000000000000000000e+00 1.000000000000000000e+00 1.000000000000000000e+00 1.000000000000000000e+00 1.000000000000000000e+00 1.000000000000000000e+00 1.000000000000000000e+00 1.000000000000000000e+00 1.000000000000000000e+00 1.000000000000000000e+00 1.000000000000000000e+00 1.000000000000000000e+00 1.000000000000000000e+00 1.000000000000000000e+00 1.000000000000000000e+00 1.000000000000000000e+00 1.000000000000000000e+00 1.000000000000000000e+00 1.000000000000000000e+00 1.000000000000000000e+00 1.000000000000000000e+00 1.000000000000000000e+00 1.000000000000000000e+00 1.000000000000000000e+00 1.000000000000000000e+00 1.000000000000000000e+00 1.000000000000000000e+00 1.000000000000000000e+00 1.000000000000000000e+00 1.000000000000000000e+00 1.000000000000000000e+00 1.000000000000000000e+00 1.000000000000000000e+00 1.000000000000000000e+00 1.000000000000000000e+00 1.000000000000000000e+00 1.000000000000000000e+00 1.000000000000000000e+00 1.000000000000000000e+00 1.000000000000000000e+00 1.000000000000000000e+00 1.000000000000000000e+00 1.000000000000000000e+00 1.000000000000000000e+00 1.000000000000000000e+00 1.000000000000000000e+00 1.000000000000000000e+00 1.000000000000000000e+00 1.000000000000000000e+00 1.000000000000000000e+00 1.000000000000000000e+00 1.000000000000000000e+00 1.000000000000000000e+00 1.000000000000000000e+00 1.000000000000000000e+00 1.000000000000000000e+00 1.000000000000000000e+00 1.000000000000000000e+00 1.000000000000000000e+00 1.000000000000000000e+00 1.000000000000000000e+00 1.000000000000000000e+00 1.000000000000000000e+00 1.000000000000000000e+00 1.000000000000000000e+00 1.000000000000000000e+00 1.000000000000000000e+00 1.000000000000000000e+00 1.000000000000000000e+00 1.000000000000000000e+00 1.000000000000000000e+00 1.000000000000000000e+00 1.000000000000000000e+00 1.000000000000000000e+00 1.000000000000000000e+00 1.000000000000000000e+00 1.000000000000000000e+00 1.000000000000000000e+00 1.000000000000000000e+00 1.000000000000000000e+00 1.000000000000000000e+00 1.000000000000000000e+00 1.000000000000000000e+00 1.000000000000000000e+00 1.000000000000000000e+00 1.000000000000000000e+00 1.000000000000000000e+00 1.000000000000000000e+00 1.000000000000000000e+00 1.000000000000000000e+00 1.000000000000000000e+00 1.000000000000000000e+00 1.000000000000000000e+00 1.000000000000000000e+00 1.000000000000000000e+00 1.000000000000000000e+00 1.000000000000000000e+00 1.000000000000000000e+00 1.000000000000000000e+00 1.000000000000000000e+00 1.000000000000000000e+00 1.000000000000000000e+00 1.000000000000000000e+00 1.000000000000000000e+00 1.000000000000000000e+00 1.000000000000000000e+00 1.000000000000000000e+00 1.000000000000000000e+00 1.000000000000000000e+00 1.000000000000000000e+00 1.000000000000000000e+00 1.000000000000000000e+00 1.000000000000000000e+00 1.000000000000000000e+00 1.000000000000000000e+00 1.000000000000000000e+00 1.000000000000000000e+00 1.000000000000000000e+00 1.000000000000000000e+00 1.000000000000000000e+00 1.000000000000000000e+00 1.000000000000000000e+00 1.000000000000000000e+00 1.000000000000000000e+00 1.000000000000000000e+00 1.000000000000000000e+00 1.000000000000000000e+00 1.000000000000000000e+00 1.000000000000000000e+00 1.000000000000000000e+00 1.000000000000000000e+00 1.000000000000000000e+00 1.000000000000000000e+00 1.000000000000000000e+00 1.000000000000000000e+00 1.000000000000000000e+00 1.000000000000000000e+00 1.000000000000000000e+00 1.000000000000000000e+00 1.000000000000000000e+00 1.000000000000000000e+00 1.000000000000000000e+00 1.000000000000000000e+00 1.000000000000000000e+00 1.000000000000000000e+00 1.000000000000000000e+00 1.000000000000000000e+00 1.000000000000000000e+00 1.000000000000000000e+00 1.000000000000000000e+00 1.000000000000000000e+00 1.000000000000000000e+00 1.000000000000000000e+00 1.000000000000000000e+00 1.000000000000000000e+00 1.000000000000000000e+00 1.000000000000000000e+00 1.000000000000000000e+00 1.000000000000000000e+00 1.000000000000000000e+00 1.000000000000000000e+00 1.000000000000000000e+00 1.000000000000000000e+00 1.000000000000000000e+00 1.000000000000000000e+00 1.000000000000000000e+00 1.000000000000000000e+00 1.000000000000000000e+00 1.000000000000000000e+00 1.000000000000000000e+00 1.000000000000000000e+00 1.000000000000000000e+00 1.000000000000000000e+00 1.000000000000000000e+00 1.000000000000000000e+00 1.000000000000000000e+00 1.000000000000000000e+00 1.000000000000000000e+00 1.000000000000000000e+00 1.000000000000000000e+00 1.000000000000000000e+00 1.000000000000000000e+00 1.000000000000000000e+00 1.000000000000000000e+00 1.000000000000000000e+00 1.000000000000000000e+00 1.000000000000000000e+00 1.000000000000000000e+00 1.000000000000000000e+00 1.000000000000000000e+00 1.000000000000000000e+00 1.000000000000000000e+00 1.000000000000000000e+00 1.000000000000000000e+00 1.000000000000000000e+00 1.000000000000000000e+00 1.000000000000000000e+00 1.000000000000000000e+00 1.000000000000000000e+00 1.000000000000000000e+00 1.000000000000000000e+00 1.000000000000000000e+00 1.000000000000000000e+00 1.000000000000000000e+00 1.000000000000000000e+00 1.000000000000000000e+00 1.000000000000000000e+00 1.000000000000000000e+00 1.000000000000000000e+00 1.000000000000000000e+00 1.000000000000000000e+00 1.000000000000000000e+00 1.000000000000000000e+00 1.000000000000000000e+00 1.000000000000000000e+00 1.000000000000000000e+00 1.000000000000000000e+00 1.000000000000000000e+00 1.000000000000000000e+00 1.000000000000000000e+00 1.000000000000000000e+00 1.000000000000000000e+00 1.000000000000000000e+00 1.000000000000000000e+00 1.000000000000000000e+00 1.000000000000000000e+00 1.000000000000000000e+00 1.000000000000000000e+00 1.000000000000000000e+00 1.000000000000000000e+00 1.000000000000000000e+00 1.000000000000000000e+00 1.000000000000000000e+00 1.000000000000000000e+00 1.000000000000000000e+00 1.000000000000000000e+00 1.000000000000000000e+00 1.000000000000000000e+00 1.000000000000000000e+00 1.000000000000000000e+00 1.000000000000000000e+00 1.000000000000000000e+00 1.000000000000000000e+00 1.000000000000000000e+00 1.000000000000000000e+00 1.000000000000000000e+00 1.000000000000000000e+00 1.000000000000000000e+00 1.000000000000000000e+00 1.000000000000000000e+00 1.000000000000000000e+00 1.000000000000000000e+00 1.000000000000000000e+00 1.000000000000000000e+00 1.000000000000000000e+00 1.000000000000000000e+00 1.000000000000000000e+00 1.000000000000000000e+00 1.000000000000000000e+00 1.000000000000000000e+00 1.000000000000000000e+00 1.000000000000000000e+00 1.000000000000000000e+00 1.000000000000000000e+00 1.000000000000000000e+00 1.000000000000000000e+00 1.000000000000000000e+00 1.000000000000000000e+00 1.000000000000000000e+00 1.000000000000000000e+00 1.000000000000000000e+00 1.000000000000000000e+00 1.000000000000000000e+00 1.000000000000000000e+00 1.000000000000000000e+00 1.000000000000000000e+00 1.000000000000000000e+00 1.000000000000000000e+00 1.000000000000000000e+00 1.000000000000000000e+00 1.000000000000000000e+00 1.000000000000000000e+00 1.000000000000000000e+00 1.000000000000000000e+00 1.000000000000000000e+00 1.000000000000000000e+00 1.000000000000000000e+00 1.000000000000000000e+00 1.000000000000000000e+00 1.000000000000000000e+00 1.000000000000000000e+00 1.000000000000000000e+00 1.000000000000000000e+00 1.000000000000000000e+00 1.000000000000000000e+00
8.922512405707358832e-03 5.609708461246291078e-01 -2.178470921262596061e-01 7.370763904029078439e-01 5.167466861790356303e-01 5.474691003696351421e-01 6.275828174494374467e-01 2.763076042294309587e-01 5.216007897712751085e-01 5.228771176396004305e-01 1.078381021770383974e+00 -6.825058497943359281e-01 1.397235561656255287e+00 4.493274770764563719e-01 5.130703990857811148e-01 3.944779824625472275e-01 8.985936807431887940e-01 9.742152033045905490e-01 6.866168292002614582e-01 5.124085367698291149e-01 4.107045077618627915e-01 9.796974839229319887e-01 4.499827367090016295e-01 4.698454055537555352e-01 1.031682723834448367e-01 6.770925308573011447e-01 3.681878812294295256e-01 6.297035343102820315e-01 5.392416191647482204e-01 1.557073665949290753e+00 5.263932214408040267e-01 6.124467313279141623e-01 7.200972126851128419e-01 4.908822891441513292e-01 7.097193479043428788e-01 4.499750699110025010e-01 5.392122879385415901e-01 1.763356241864269869e+00 -6.565017063526207286e-02 5.273892149899488402e-01 -1.536199473102596025e-01 -5.601041659340478818e-01 7.501437024166969225e-01 2.248361277398996383e-01 2.689932823684458296e-01 5.250743656048301178e-01 7.367910353680886537e-01 5.102358742065631336e-01 6.003675358525933925e-01 2.318756692155589036e-02 1.702867949416524617e-03 8.321622110411096562e-01 6.726228736635149197e-01 4.583482323178613149e-01 4.543954813110465674e-01 1.834121678239614139e-02 4.756531625258541007e-01 5.377121904601711577e-01 1.882037894262397204e-01 4.613453271495135954e-01 9.116357280608584635e-01 5.401159603880550941e-01 5.256696726578835577e-01 4.499826245256015045e-01 6.818630755736647675e-01 5.530103606055121190e-01 5.135407150009464461e-01 2.996176702838316830e-01 5.497399171647840976e-01 -3.576993641391138217e-03 4.137903640456301879e-01 5.056056050757024023e-01 5.214369243131269371e-01 2.870662268638399933e-02 1.499400900274868054e+00 5.570135459495362262e-01 6.333574004151901748e-01 7.378719312492307836e-01 5.116659121058236837e-01 1.381111339222120149e+00 5.253845047357358355e-01 3.020872383218836665e-01 1.385520433202791279e+00 6.974105258119571715e-01 4.887622572234418539e-01 7.568780830094913314e-01 8.118648469975977555e-01 5.474072167650745335e-01 4.083074224067443914e-01 5.756804212917864261e-01 2.728907688435862067e-01 2.155836970624342985e+00 7.315434272569811824e-01 -3.789259997264121660e-02 5.574320703478052863e-01 5.290693326403909102e-01 5.500029212919292920e-01 4.744000022720656906e-01 1.894724176452698416e-01 6.766267646010205583e-01 1.590795055043543904e+00 6.884056794032079596e-01 5.479227085007156717e-01 7.416572917493950978e-01 8.599205910763842997e-01 -2.036484125473325690e+00 -1.204586657774472158e+00 5.447032328827999814e-01 5.746724323836767123e-01 9.722617653541012483e-01 5.412290725611240694e-01 4.515930721450891472e-01 1.659225208141705266e-01 4.810585767959384418e-01 5.195937756235550209e-01 5.061385165892354765e-01 5.091572904785426346e-01 5.498740285953216400e-01 8.966258525525009349e-01 5.119514017945933082e-01 1.296993208799437358e+00 5.577749506596526574e-01 5.648236103810964082e-01 -3.960106002216284837e-01 5.205668883587355467e-01 1.933872231498612315e+00 5.572707887388126391e-01 5.214449706874466628e-01 6.870220908469750754e-01 5.164231771620717559e-01 5.094916921038585844e-01 5.168196453011113523e-01 4.157315430666150835e-01 3.012444850915726446e-01 -2.518173373188779540e-01 -1.593624067206869943e-01 6.308350065194817669e-01 4.578294979408581433e-02 9.955209446381643179e-01 6.574849322648117500e-01 5.243701170952643764e-01 8.604996580670848383e-01 6.305670270503501706e-01 5.951605764880283367e-01 5.131905405716247204e-01 4.597390552363140453e-02 8.933121313880769687e-01 4.596031592509667446e-02 4.618304494843079033e-01 -8.742404507623535714e-01 7.748256904576292792e-01 -2.970884532743715556e-01 5.250745861961816363e-01 5.470501226830346564e-01 4.701820584943962600e-01 5.161765328100444972e-01 1.909114034353655232e+00 -8.124465005168805820e-02 8.110528022359686506e-01 6.964755226022688595e-01 5.204841841982931205e-01 4.152496308772087863e-01 5.059712557081976758e-01 5.141028584318941830e-01 1.085712936912598625e+00 1.683210467996990867e-01 8.473142737448364770e-01 4.012434739489033064e-01 5.576952451800053501e-01 6.385873394724148611e-01 4.667160542594023798e-01 7.389279591789195134e-01 5.250892576101597875e-01 5.105765927386450853e-01 4.055640198910385186e-01 3.455072169664081400e-02 1.846777776410439553e-01 8.302812418206760581e-02 7.426497439100521181e-01 1.141074370730493781e+00 7.087564136666212322e-01 5.120022427792605413e-01 -1.820466870835014406e-01 4.514678115726485919e-01 6.584930132047275286e-01 5.271601203144347103e-01 5.182815658813504367e-01 5.221919758647571852e-01 2.759120625764975632e+00 5.504804708409353209e-01 5.247554512789224246e-01 -8.759971125035446171e-01 4.989112197525529813e-01 5.699394061573036518e-01 1.830709739078013876e-01 5.126886174350049341e-01 9.301889200416564307e-01 5.142596183469273496e-01 6.504623143436378818e-01 4.208837315505797316e-01 6.226220261190974492e-01 5.408359069942324515e-01 9.434784999496153013e-01 6.002420251308046018e-01 5.432400071487936133e-01 6.504623329810954591e-01 2.657996012885479598e-01 1.282762846521389388e+00 5.254728835435791279e-01 3.740722394850281574e-01 4.386425013036724940e-01 -7.478293477570273351e-02 4.764937484304769266e-01 1.610221596631038199e-01 5.088350179965744902e-01 5.133480326034927099e-01 5.175057210317903778e-01 5.135541143552619925e-01 5.198987142707219844e-01 5.113325600775958657e-01 4.417767095952021550e-01 6.069837221028047125e-01 -7.003529749398335058e-01 5.825250960639656306e-01 3.460165506752455600e-01 3.884727932439450693e-01 1.251432843599062650e-01 1.289370174095228139e+00 9.535180536484842984e-01 4.998152454650132692e-01 -1.040837221121716227e-01 1.050445259986749091e+00 5.148891894940632596e-01 4.451693308521552650e-01 5.250430756846891089e-01 4.152187878216351824e-01 3.739643273090296205e-01 1.927575984895786576e-01 -1.494006773246203956e-01 -1.108161694334892228e-01 3.427027633741816515e-01 5.087027767751799434e-01 -1.022088016233014124e-01 4.494656421263684698e-01 5.193486259485796674e-01 4.661118204058865566e-01 -1.024836307729709156e-01 7.477893197038947282e-01 -2.237479043696921188e+00 6.009699841383333574e-01 -5.711751024761725359e-01 4.965552822731201799e-01 5.118970592588988344e-01 4.499820689276403107e-01 4.731391834536470276e-01 5.504101120632242106e-01 5.308248029026503279e-01 7.460153318491888896e-01 5.457019281384725140e-01 1.685984909197070225e+00 6.751735155615331552e-01 6.952956854405879517e-01 4.945585325123627030e-01 3.472084603569364214e-01 9.116356920273814834e-01 3.916644366568037272e-01 2.648069905221233977e+00 5.346474892063441953e-01 2.381293464454146691e-01 7.030267190573482594e-01 5.169182688863919184e-01 9.122569907401542055e-01 5.138888731929294185e-01 5.443213852065882374e-01 5.127970046551508787e-01 1.076962271090767365e+00 7.664531172427464512e-01 8.651312747911400480e-01 8.090091206685935399e-01 3.928779344762563519e-01 6.764376463305685760e-01 5.426061389416559910e-01 3.913440952443657528e-01 -7.086229491207136633e-01 3.834919617701830208e-01 6.574109362171149940e-01 5.565004656438494735e-01 5.316024830147600966e-01 5.061385143648358120e-01 6.068058994304498244e-01 5.494664285533877868e-01 -7.986347924741025173e-01 7.037828277941989841e-01 5.249808049710327218e-01 4.333962317051446439e-02 5.518680648268829980e-01 1.844789547823264542e+00 4.981591435495998921e-01 5.131137142660423534e-01 4.618354522752484703e-01 -3.370544245440072029e+00 5.049077531305481426e-01 2.750815434573364193e+00 7.383107443742089604e-01 5.239278947012887544e-01 -5.798153782599024808e-01 5.103222498548449781e-01 5.148480892596154490e-01 4.338783825105347880e-01 4.568184863331501422e-01 3.736960011629820722e-01 6.385622037012750329e-01 3.146561728976218220e-01 5.184113220170526448e-01 5.118062605372730722e-01 3.591500633744478255e-01 5.053390820134816552e-01 7.378373401737184922e-01 5.138033286636279895e-01 1.192513204348871314e+00 5.754860143844945167e-03 2.208476045735587423e+00 2.615712950277920168e+00 5.321707058116941225e-01 -2.031748573452626383e-01 4.390626494599053631e-01 4.035855469916169169e-01 7.257551364211497491e-01 1.366774265690991585e+00 5.373359048834611684e-01 1.120970360086567696e+00 5.127721568315554146e-01 1.267249486068738606e-01 1.247877216158060243e+00 4.117299874036875473e-01 5.208156775696192176e-01 5.151606922627898211e-01 8.829370817542345762e-01 -3.654975226602140470e+00 1.619694613213066736e+00 5.525813338382755679e-01 6.388761171161364549e-01 5.148744792435921980e-01 1.763356250002190651e+00 3.078030743662222846e-01 5.423697078135436556e-01 5.220813270800929162e-01 4.306215224345498194e-01 1.380775157264307440e+00 6.038169947226688095e-01 6.504626510067068601e-01 4.494642435043952888e-01 6.002420247826355526e-01 6.132511886867938466e-01 5.632832171149233513e-01 8.923377350418509879e-01 5.154365223754177050e-01 3.913666256458280812e-01 2.116528105542170579e-01 6.519812625964613861e-01 5.164379908006553332e-01 4.210347044632878344e-01 5.423697064099809451e-01 6.622273657274917458e-01 5.170158426167609234e-01 1.003884311576592081e+00 9.918168120420701728e-01 1.125998344577864740e+00 5.107837069735294833e-01 2.372061798253919940e-01 9.116350234149874776e-01 -1.088603832366608765e-01 9.332438285577402404e-01 6.279381189465661484e-01 6.580592575198417234e-03 5.769887675922014125e-01 9.822033465569415256e-01 3.905006723797563861e-01 5.218543687478587323e-01 2.761669121613805622e-01 -3.313792511656169504e-01 -2.434448938727076683e+00 4.751648614187880537e-01 6.002420251883296975e-01 6.002420652333205764e-01 5.153090105003643728e-01 4.375104705504742064e-01 -2.109383045437874249e-01 3.260975895673845493e-01 5.103648958881843445e-01 6.642290584218760729e-01 5.131546339500102638e-01 1.055772379351237689e+00 6.504624145417249315e-01 5.140191921239604111e-01 4.790813726509197124e-01 2.675803757985203979e-01 6.507141706081628341e-01 5.040651768572160796e-01 5.120562633142102804e-01 5.526083397433507738e-01 2.767507947150393832e-01 2.266811646500215688e-02 6.002420259082837939e-01 6.574876615870203223e-01 5.102026044886458500e-01 4.271167811747491605e-01 8.577386599108256515e-01 6.853801475902132623e-01 5.632584645404165036e-01 1.826596052411308069e+00 5.180180225305414110e-01 -3.009220583675134897e+00 7.371351068383169558e-01 1.508658645604500359e+00 5.039979331519832684e-01 -1.049369453659920515e+00 7.324229591944202422e-01 4.619967873503152411e-01 5.183648408920452644e-01 4.931993762035296602e-01 -2.982932294542152141e-01 5.080740030722565859e-01 1.066059314014186521e+00 6.041303994346919337e-01 -3.344431863758335899e-01 5.106833943506847717e-01 5.197477322326524707e-01 7.711750800368081249e-01 5.427497106014860240e-01 5.172699498042261368e-01 -5.106536340360952053e-01 5.624302521287294354e-01 5.114965028833885485e-01 6.912263616326744797e-01 5.011693499305293065e-01 7.651491934112777393e-01 5.106473706660881184e-01 5.824675600757852623e-01 6.873843973889888215e-01 5.440454321427792284e-01 3.193668793661502137e-01 2.763080877810237812e-01 3.194592594506504568e-01 9.565916604376247800e-01 5.473218573227337513e-01 3.168676719948074094e+00 6.603397993347085437e-01 6.148791597568483702e-01 5.576307972196267171e-01 6.201010213412714300e-01 2.760362007925224598e-02 4.843766424857915975e-01 5.735461741839420480e-01 5.225202675441473765e-01 1.164510929106074011e+00 7.653520744830973888e-01 5.093412018161850296e-01 4.487942338577199930e-01 1.115445097338255698e+00 4.995767427581823128e-01 5.441018931606390607e-01 4.906403845223278881e-01 7.438612852645699602e-01 5.136579559213565460e-01 9.230223474222044588e-01 4.929679530862586812e-01 5.133800308459135486e-01 5.815661673484949848e-03 5.097455480332541145e-01 2.013078036396674306e-02 3.498422364887845415e-01 4.143391619590732211e-01 5.617869735593659097e-01 7.732471645734586563e-01 5.140724645218064381e-01 3.967715674644707313e-01 5.693320820538821936e-02 5.381456130739226129e-01 5.503205715311288992e-01 4.921294918700986343e-01 4.832420996836504085e-02 5.137007437211084104e-01 2.457430781173365608e-01 5.104780552498044965e-01 4.242712936074445884e-01 1.252874259163560655e+00 7.872328230303671237e-01 5.359313354087346104e-01 2.704994403315491014e-01 6.627470300844329198e-01 4.219782462469293671e-01 9.887163587211685867e-01 5.937238647163374239e-01 5.555140708044097320e-01 6.876468491434385433e-01 1.975017290544619497e+00 4.554108804352211548e-01 4.324938169620348161e-01 5.138359750808739745e-01 7.039817441265813214e-01 4.480093833153759864e-01 8.299831329586553341e-01 -5.660421323075225386e-01 3.272705595454457050e-01 5.271069974743740616e-01 4.299816093226598301e-01 3.694281962728686586e-01 -6.046020413916132208e-01 3.895978824981465305e-01 5.164707171581536249e-01 7.385354046422469843e-01 6.650124085813470254e-01 1.440570245740935063e+00 5.172707728203266297e-01 5.191891547646018124e-01 -6.883571301936393105e-01 5.190560307336131718e-01 1.204797151099914254e+00 6.989917935496515744e-01 2.581749582134967302e-01 2.746482077793738208e-01 -1.609323650545425366e+00 4.882624843345386156e-01 1.883989716188825825e-01 1.094537993418225330e+00 8.136692034875655510e-01 5.136286453999255874e-01 5.084520552901679036e-01 6.283375139911389073e-01 7.374206685202910894e-01 4.594728258900287465e-01 5.632070121064730595e-01 2.613350872348651349e-02 4.959327660812867244e-01 6.266711912114792948e-01 6.249315802413890619e-01 5.013917574250693621e-01 5.717121388072915478e-01 1.194181780624136824e+00 -1.076331379006807004e-01 -2.296229700441691224e-01 4.374584230405489382e-01 5.425800897436351411e-01 5.559148775174106438e-01 5.006264190353760801e-01 -8.389678399577215062e-01 3.133770147308800880e+00 5.805300693429003012e-01 4.540920528333359796e-01 4.138197992683050330e-01 5.125050103780678379e-01 5.147737132326731802e-01 6.184884210366161650e-01 3.263076512062430545e-01 5.832298739790220399e-01 5.128161287439406690e-01 6.359608195050509005e-01 3.647568155158472658e-01 4.701810833124371314e-01 5.327428723575591274e-01 4.060910800565474266e-01 4.820699334397566260e-01 5.463389497736667044e-01 6.494080168659372987e-01 1.003341225853732421e+00 2.298829975181793106e+00 5.618911584278565297e-01 4.949418844750386737e-01 5.025226556818578327e-01 5.297124541699113065e-01 3.641239739155752719e-01 5.168609360993319246e-01 5.147825465105664300e-01 5.354624024226247725e-01 4.875895806763107521e-01 4.788650667910635539e-01 7.375418062393183094e-01 3.679976021077449588e-01 5.313798262399526129e-01 4.997087627286272982e-01 5.641335348592676491e-01 1.227641914782055949e-01 9.116357098727795316e-01 5.518172440823579938e-01 1.365813301165782478e-01 1.908565642046204713e+00 2.734918626426239840e-01 4.474899974378651057e-01 5.865755197115973818e-01 6.129535226035159878e-02 5.087924278420117297e-01 1.502369885761108081e+00 7.607324630890787143e-01 7.740349979363141397e-01 5.160973090227259918e-01 5.498711168031864549e-01 4.898441227874256176e-01 6.385752806242546153e-01 4.954978696430458185e-01 5.152027489513719694e-01 -1.775428081813229253e-01 5.696209968686275493e-01 -1.407223638100257856e+00 5.168517564243837459e-01 4.962412525644499528e-01 5.546981636636180157e-01 4.618346237645503671e-01 9.116357098520850855e-01 2.236689098888404448e-01 5.605689283644362808e-01 1.320210154044306305e+00 -5.404414387760041460e-01 5.108269263945445227e-01 1.122959495566400845e+00 1.489386064799235188e+00 4.143354983281283821e-01 5.080712637337359006e-01 -4.802459713915624429e-02 -1.651972268920798514e+00 2.810980009771124610e-01 7.550823047522341458e-01 5.248685017355910754e-01 5.103755923190629318e-01 5.088370867469232950e-01 4.870293113668529572e-01 -3.947387628136262983e-01 8.122808715235398935e-01 5.061385099708405333e-01 3.388106165428428906e-01 5.545424199126685050e-01 -1.917232245737589269e-02 -1.743379176267626229e-01 1.765223186089800000e+00 4.159436468595616998e-01 4.628100081328159199e-01 5.140377860915330555e-01 3.303806711335111612e-01 6.136764116933600688e-01 -3.692671437482141633e-02 -1.050581317476702026e+00 5.120020559497097112e-01 5.089194421992692119e-01 5.351020369738128668e-01 6.097678381538630399e-01 5.530793764465269380e-01 5.430192361791670308e-01 5.447180507690720930e-01 5.788300046428711543e-01 1.026685255300912258e+00 7.272344661480611983e-01 5.529192531660656051e-01 5.635830408577320316e-01 4.556788909990788228e-01 4.221724994311368828e-01 1.312028860729910415e-02 5.423696927534645829e-01 5.290064574759204552e-01 4.626674273374281054e-01 7.503287868329621135e-01 9.513386057788438821e-01 8.300039964353311817e-01 -4.790902283591979560e-01 5.536755683644956072e-01 4.914417906195141517e-01 5.171552925402256307e-01 5.801122274395470457e-01 9.003747216673163578e-01 5.580613289770784968e-01 5.089129500310676235e-01 -2.205473513703521127e-01 -8.483403938014374424e-01 2.264439476801707762e+00 5.175602797667629984e-01 8.901220564749346975e-01 4.635274242429530123e-01 5.702023716139871246e-01 3.671022081555855854e-01 1.493384041351282498e-01 5.155249423428345246e-01 5.492023101879128788e-01 -8.828107422074901690e-05 5.073332868750025648e-01 4.248699229847553438e-01 5.101003381476769682e-01 7.130821231601117693e-01 5.107031697605108889e-01 5.951545970505027761e-01 3.938638108831886697e-01 4.896770535548798930e-01 3.743791474033678068e-01 5.175748898752610128e-01 4.324833649341924269e-01 5.032683911192473714e-01 -2.863777918367562125e-01 5.081928717439859744e-01 6.429425631148275588e-01 5.078602538627969842e-01 7.368021874604311350e-01 9.116359930464169592e-01 7.337414124024180806e-01 -5.855238299432473648e-01 9.912658354253683912e-01 1.763356241859147300e+00 4.814112001563642940e-01 4.638570690246984207e-01 1.071340845010188225e+00 5.443958856599905305e-01 7.366188803500800519e-01 5.158826567095980975e-01 1.798084449930776652e+00 5.086471973854314044e-01 4.494647818838489184e-01 1.233877960985257038e+00 -5.519092969058678882e-02 5.575337971409891624e-01 -1.669939773203287792e-01 -9.424600774053764063e-01 -1.744531609608195033e-01 7.791628845595454100e-01 5.453556883638458475e-01 5.548888393017701315e-01 -3.327586845760264200e-01 5.257864134423302360e-01 3.008735600490677203e-02 -3.582325956149766677e-01 4.729618951541272320e-01 5.203970618852498120e-01 5.138403347036947233e-01 5.656220075219859922e-01 5.611108300725806686e-01 9.040063101809288071e-01 -3.898556582368926104e-01 5.176424300427029390e-01 5.701224872855636949e-01 6.228935898598495502e-01 1.160651298562057621e+00 5.107097431546329114e-01 6.226773783067426349e-01 5.158544859813640748e-01 3.048573460523852641e-02 -2.975644115034904447e-01 5.226886838424223969e-01 4.971078847309791104e-01 6.682226839883761427e-01 5.330151061202921259e-01 3.379594706357704204e-01 5.119136054745949682e-01 5.147434132794639350e-01 3.459831116124256201e-01 5.130201269095010508e-01 8.377861263091891386e-01 2.529098907437775878e+00 -2.379089761432704175e-01 6.666120862316667894e-01 3.341938204759403730e-01 2.180456622562275959e-01 6.808310732315703273e-01 -5.713061231649898403e-02 -1.498793594350575908e+00 5.159373273150765771e-01 2.590046282004482503e+00 5.007970008244718718e-01 1.493032791156609640e-01 1.769927121089217292e-01 5.061385164985487961e-01 5.658782939112280141e-01 1.543346728563161907e+00 4.883826994611706884e-01 1.258232612741238265e-01 4.401190022088509735e-01 1.674703768359421252e+00 5.809823493177900255e-01 7.269347150907543575e-01 5.461669618871947129e-01 7.411403089038605119e-01 4.548688612847137103e-01 5.627892665469177436e-01 1.267692188440761036e-02 5.200380850184168624e-01 5.103804088841565889e-01 -5.662264909669639801e-01 -4.223175459585828267e-02 1.170442250751675850e+00 2.355674402567519421e-01 4.901273933125626092e-01 6.817795295322440774e-01 5.471951407924799948e-01 1.991388290207366074e+00 7.022550421146672717e-01 2.939065395680245246e-02 2.724249353381802408e-01 4.019260226240183864e-01 1.102009556573905869e+00 5.254803427859850995e-01 -2.359225867214102823e-02 5.263982419144593861e-01 -2.138916159481593637e-02 5.087574408038413321e-01 5.191821594087530078e-01 6.313145219359414355e-03 -6.486808604390011113e-02 6.666997094759361531e-01 6.184629994347587978e-01 5.360296761751851546e-01 2.879290133513229821e-01 4.986934552295759215e-01 4.867138352851917982e-01 5.661263700354373096e-01 5.569266116463762462e-01 4.806620346240339514e-01 6.317148228591399350e-01 1.014192502789163175e+00 3.096017121007081485e+00 9.057932467728877501e-01 5.121866714674808696e-01 6.479061641697311247e-01 2.118884823158400377e-01 5.164359906515528786e-01 8.390245505002207338e-01 4.873278934052013289e-01 1.316130263073915119e+00 4.682155727528615197e-01 -5.675990440720056762e-01 -1.361280003985001867e-02 4.110221443570612476e-01 6.115650020635080564e-01 5.093372416770414191e-01 5.234479476213227400e-01 1.279999292156605573e-02 5.459235161980858786e-01 3.941030130481687488e-01 -3.589217772756303937e+00 4.867853729370646976e-01 5.154120802167813098e-01 1.120615033993647813e+00 5.150165472256468258e-01 5.761472390891921869e-01 6.808687545798906005e-01 -8.677705114061763370e-01 -5.059224749421370460e-01 5.100941154012154227e-02 5.155605474911498787e-01 4.150675537685608041e-01 2.227498075974402025e-01 4.913430081963861551e-01 -3.325094005467792435e-01 6.396600498381826982e-01 5.234634882954893875e-01 6.938571527764205715e-01 5.375955234227766111e-01 4.753735273458912780e-01 1.627275880048094647e-01 -7.372178475768108585e-01 6.517729025351060024e-01 5.002102088002342573e-01 1.647831146868649899e-01 5.162455779542546308e-01 5.851270739607398186e-01 5.077972325933125530e-01 6.704354716807044978e-01 5.683915939542594220e-01 5.387005781183533681e-01 4.987383109217406463e-01 1.763356242434903409e+00 3.686563723382612068e-01 5.507539774044708514e-01 -1.095569865285814098e-01 5.458254088429531636e-01 6.216306282610120082e-01 5.084917319765339672e-01 4.996767098447722488e-01 3.484717211745835819e-01 9.114954182859166254e-01 1.185561393204344727e+00 5.574030249743631149e-01 5.639004535210453417e-01 5.955795832348895757e-01 4.626898937707628057e-01 4.990074072482932888e-01 5.132429444046017197e-01 9.912310796029788484e-01 7.274221326286688383e-01 -4.503790618581967053e-01 4.463793130209067761e-01 9.181598785734047530e-01 4.935459495969093391e-01 -6.393492852116151696e-03 5.200071716961268686e-01 1.233476513003930020e+00 -1.384396180350390970e-01 5.570978680028617624e-01 2.501533344739222398e-01 5.469092067824041781e-01 8.175714134106725206e-01 5.232964878607856418e-01 3.674284524983111311e-01 1.392618432756509428e+00 4.938504723113187334e-01 5.252467105587154128e-01 -6.265886119097613394e-01 4.578466842688790339e-01 1.043449075676377458e+00 5.900932699336596254e-01 9.781535183556304414e-02 9.523756805530954050e-01 -5.732352447618559166e-02 5.838985058873206180e-01 1.594901405483862167e+00 -8.518417997335728797e-01 5.407556017696656392e-01 5.158477677304514897e-01 -4.411437551359661535e-01 3.276577022712348630e-01 5.794189128991683591e-01 4.698435733177646068e-01 5.259945063515704122e-01 3.558308029463461142e-01 2.638721451501965243e-01 3.457321308890746181e-01 5.426505166299114835e-01 5.151657908689479815e-01 4.960730044864718712e-03 -7.302702473233953218e-02 5.006893265290515149e-01 1.059807599957849344e+00 4.155221143713328513e-01 -5.657343144325278628e-01 5.658940358135471360e-01 5.122027472836911954e-01 4.930706613915069036e-01 3.187281487454375617e-02 3.386010456313451877e-01 5.157344275428861202e-01 5.210211244260092300e-01 4.540750411947695464e-01 3.964246595657276717e-02 4.520697690204521502e-01 5.084986113151225284e-01 6.519426210180642167e-01 2.070318391185979490e+00 1.962773172430537158e-02 3.825030860032808677e-01 4.761545698284383454e-01 1.815396250591040594e+00 5.679664874791841012e-01 4.760176650521704134e-01 1.449361600429311184e-02 5.423697090775012608e-01 5.089238144212455683e-01 4.720142589184476156e-01 3.804812498987176772e-01 5.165348800185108891e-01 5.595128412185537137e-01 5.611266239785244192e-01 -5.130232065679231068e-01 5.165185937987196718e-01 5.296517141704538689e-01 4.993385231164247373e-01 1.005489117737287330e+00 5.219969193787717954e-01 -2.406824569300250183e-01 1.055264812085866311e+00 -1.232689320245754505e+00 -5.085019511589239372e-01 5.176441958874877791e-01 5.123279592149210249e-01 6.488988397431917354e-01 5.215044181788228705e-01 3.766220699046929909e-01 6.157472001191717226e-01 5.423697113653257462e-01 5.136509456137410279e-01 5.803933354399208877e-01 5.778192642572487214e-01 5.154951350984040559e-01 2.863696773484170621e-01 4.952012161470853990e-01 4.647098069076049942e-01 3.683224632785053188e-01 5.249204678867028795e-01 5.105328380882828698e-01 5.472344819523893289e-01 6.390515678386837761e-01 5.078567316573837642e-01 6.648347853768310500e-01 4.800723571345721918e-01 5.238405394708115503e-01 5.453199583806281892e-01 3.440116374424835310e-01 4.359315174954226380e-01 2.377390127732947445e+00 5.448817029750030461e-01 5.729121188943319121e-01 3.166270773993976606e-01 5.820858199124063770e-01 1.106915595603631841e+00 5.319886143861333183e-01 7.112262415456048759e-01 5.140108954616213754e-01
6.850638319126919340e-01 2.637035115840479782e-01 4.143040107251358406e-01 3.125351523477545856e-02 3.106964864849420249e-01 2.999004515276819660e-01 5.287977555245942929e-01 4.469557280755445117e-01 2.270252010212697458e-01 3.291074058097839261e-01 2.032268718711049083e+00 1.701257959879882042e+00 -1.421682657861828458e+00 6.232397765265969003e-01 3.176641628262919514e-01 4.023082155975060137e-01 1.288565314878546419e-01 4.259065617788192482e-01 4.459114083616315116e-01 3.208690798447127457e-01 4.707329555770768947e-01 2.089545678179638877e+00 3.982456493867294056e-01 3.714131333569689608e-01 7.132724149406681757e-01 -2.474258900361262503e-01 4.611352478750613271e-01 2.434512145267293259e-01 2.815575033325783405e-01 -8.490967743588170302e-01 2.553240585688145159e-01 -1.106565708613293786e-01 2.892104139228202087e-01 2.565579877638766160e-01 -4.272823922318050860e-01 4.438182664272096734e-01 3.043659404227584964e-01 -3.352434390814632015e-01 -3.188938224727043469e+00 3.373324666429907692e-01 1.121820538644089149e+00 1.398142409964783228e-01 -1.641503388691119003e-01 7.916207597687503483e-01 6.412883885416231777e-01 2.825724726409525323e-01 3.165707037689267228e-02 3.068002978988159657e-01 2.509194103659336816e-01 6.964002833428644124e-01 6.845987202077651324e-01 4.613139439667590103e-01 -2.616015090358072559e-01 2.015357627508320704e-01 6.050660066655624281e-01 6.690048198994705819e-01 3.572326050278065712e-01 2.679857920231314972e-01 3.475453422480770937e-01 3.496665121943887122e-01 4.238234867762333269e-01 3.698596222863947958e-01 3.051024371073857711e-01 3.982456632772093941e-01 -3.463857125092707490e-01 1.976557996659142336e-01 3.332908575240452476e-01 3.356584520036083319e-01 2.277207936383123799e-01 7.302627753757662266e-01 1.171926954370367951e-01 3.071108835539178017e-01 3.044294419881643510e-01 7.189158196539908730e-01 1.898241270367999167e+00 5.051384451442291201e-01 4.682094579951622815e-01 4.793826613970599837e-01 3.163226568337146882e-01 -1.321811749702718419e+00 3.004792039229685630e-01 6.289934919849167194e-01 2.271667295392564068e+00 1.162879579182569123e-01 2.794068927464657404e-01 -4.192698500665366090e-01 1.225533317565862534e-01 2.748703917173627165e-01 -5.713892618758263930e-01 -8.701043096024739798e-01 6.412860228872627744e-01 1.553529154207125451e+00 9.429319231995250683e-02 7.012962836960174862e-01 2.830592621606478620e-01 3.063288566665968160e-01 2.754403315240991912e-01 7.332607677970723881e-01 7.386088746783929793e-01 -2.518330976206187288e-01 -1.677393071316828910e-01 5.572049304626652821e-02 2.827973671050000859e-01 2.160670085100475923e-01 4.177214926558928815e-03 3.057418304662839592e+00 -2.797891270101646177e-01 9.911072372318503743e-02 1.771678592620564707e-01 8.075935066238706384e-01 2.331491677677154373e-01 4.264096858631902243e-01 1.685106838660328787e-01 4.686668237169632212e-01 -4.911195605349968907e-01 2.029675591764140141e-01 2.794907470713022257e-01 4.069219037323298926e-01 9.936276729917798978e-01 3.234955773306405491e-01 -1.433999448548787470e+00 2.476011410999646722e-01 1.939028721509887809e-01 1.318796260396829956e+00 3.059057224568261790e-01 2.141058100198826697e+00 1.910105289353101754e-01 3.638328570093246617e-01 2.950399892946137803e-01 3.244140860982485108e-01 2.742526370343458253e-01 3.126361135233777788e-01 6.737230284448021411e-01 4.070365285653275711e-01 1.808277725301026262e-01 8.777633561927011829e-01 7.000432279566556337e-01 7.243870355235112468e-01 -3.296901377863448723e-01 1.988358074469258052e-01 3.570907113229322971e-01 3.214324161992715978e-01 2.523478625686075838e-01 3.101543400837909470e-01 3.106579541631881991e-01 6.932437741000673226e-01 -1.240497568085287133e-01 3.186048862852077224e-01 4.500384766069462916e-01 3.959215748212019381e-01 -2.749858084159854110e-01 2.107293851143680202e-02 2.825752139324153589e-01 2.690794139518874473e-01 3.571766557692785948e-01 3.213768596562124324e-01 -2.266040253426660378e+00 4.474954978382212900e-01 -5.866966546237201152e-01 -2.514646705401412108e-01 3.204062074371026858e-01 2.149077348725285941e-01 3.357776620989778582e-01 3.189747430578004916e-01 1.108231203439965368e-01 6.511167707022905149e-02 3.143891070802822263e-01 4.156312540215192919e-01 2.770790125045232144e-01 3.601175409761236956e-01 1.809141975667213909e-01 3.355469083142066655e-02 2.825698324308125176e-01 3.182577867194059107e-01 -2.469758123361200042e+00 7.131127484873289735e-01 6.285016647062783290e-01 9.765826937401866914e-01 -4.532472523013744703e-01 1.169028067794220194e+00 -1.541302553816604332e-02 3.123639949479517508e-01 1.228600477012663506e+00 2.678592033346409718e-01 3.045639007027605150e-01 2.577753426883701571e-01 2.892673657284531852e-01 3.117994843133704563e-01 -4.615598470778703444e-01 3.488654810442909926e-01 2.172251618271913431e-01 8.044433194346550797e-01 3.092116086713680989e-01 2.385653197306594753e-01 2.249135610794168738e-01 3.049148716324613928e-01 -1.619591099348732133e+00 3.210546603459891180e-01 2.032039316049162603e-01 3.520025001132868758e-01 1.065680502230528792e-01 2.778150962023078208e-01 3.781955049594452056e-01 1.301539938003552777e-01 -7.984988431671178333e-01 2.032039234650089565e-01 4.535981109265419531e-01 -5.049684140447243674e-01 3.528705512705594405e-01 1.565642533535338277e-01 2.616067558474656773e-01 -3.195530586487815405e+00 4.413066909071834409e-01 9.354929364641817457e-01 3.233789114067051051e-01 3.076847318194784742e-01 3.140053881486497556e-01 3.132848752408544102e-01 3.063623591600396212e-01 3.183370409754469055e-01 3.267001729253621312e-01 1.687936102112461700e-01 6.588300654815173463e-01 1.336078832092491842e-01 5.215314878249971420e-01 4.540921021086761211e-01 3.839298938873399458e-01 -6.411888356750617968e-01 2.244592625515140938e+00 3.822808767134308061e-01 1.229722702306687454e+00 -1.379323480367147248e+00 3.114976310578094210e-01 2.061575871731308185e-01 3.489524384437605597e-01 1.149002495556152859e+00 4.842251692950860775e-01 7.953107327529922443e-01 2.791369833679939738e-01 6.703694608086370188e-01 3.234152562825964305e-01 2.844946378689344191e-01 -1.148885335540346553e+00 3.627192540073224114e-01 3.103386902433938888e-01 4.730134396044108902e-01 9.127167803242077770e-01 -3.422394342004272949e-01 3.087285272879454201e+00 4.708146888030301791e-01 1.223021818262155724e+00 -1.176179950212164760e-01 3.175945147608265628e-01 3.982451252506908901e-01 3.093317286937860566e-01 2.739814815846348672e-01 3.566563340214701228e-01 -9.611972565341703190e-02 1.502603642411140528e-01 5.608797118542476756e-01 2.822434361626257049e-01 9.148622999212706330e-02 2.665596612002469334e-01 3.478459069524352243e-01 4.238235215186903493e-01 2.678704665028298626e-01 3.172511161478729136e+00 3.802496623049522739e-01 6.554484053753957262e-01 5.432485891604617034e-01 2.867830277419399221e-01 4.233307257550514846e-01 3.092037679960336072e-01 2.607261754827187583e-01 3.165740550308902002e-01 -5.154866831975289942e-01 4.705314399464850528e-01 2.854860819397450067e-01 1.187263483484143206e-01 2.490166326772612349e-01 1.515488430878054071e+00 2.435482393522055145e-01 2.830288636522141910e-01 1.980658121071986022e+00 4.927023495729246916e-01 3.312716223631688717e-01 2.708865707889837049e-01 2.797274874382925103e-01 2.029675431703731603e-01 -2.044995175347972705e+00 2.804805242302855772e-01 1.480505142508257599e+00 -2.580822417927617837e-03 2.680057165023587151e-01 7.106601882561914829e-01 2.578145892281322737e-01 -7.131938773848910396e-01 4.349043636338955632e-01 3.020638311742054882e-01 4.500551964426502960e-01 -3.795914118584888253e-01 3.322124317854472375e-01 -2.138253893726826949e+00 3.289925186614674896e-02 2.975401228267468556e-01 6.059698658246909231e-01 3.222016505471988479e-01 3.115623071875840422e-01 4.559902152053036395e-01 2.145951210357861239e-01 -1.219142807400677014e-01 -7.535353797110200258e-01 4.963904919576226683e-03 6.821467110546657331e-01 3.139172248687045474e-01 4.878741050424190706e-01 3.227852745879150609e-01 3.219901057030342267e-02 3.188445635483803109e-01 2.405313703215223864e+00 6.970468393492041947e-01 2.465915953632960844e-01 -1.135245359313260538e+00 2.191107732938969432e-01 4.590947378817634039e+00 3.293277924599364859e-01 -1.166278618809091366e-01 5.686576178883387955e-01 -5.482004316151391166e+00 5.033274641906643199e-01 1.519443679922482859e+00 3.188735441700577544e-01 5.407461093240049088e-01 -4.340386406141750197e-01 3.776119840658259119e-01 3.339370289118043234e-01 3.099471940112460411e-01 2.498473843075750822e-01 2.872402342936255515e+00 -3.636413511524646536e-01 2.765698686178086341e-01 -1.894685530007248708e+00 3.241218370499948653e-01 -3.352434428190595450e-01 7.411125134415224025e-01 5.493574493763268007e-01 3.345940700747815910e-01 3.291274129641353352e-01 1.284739118011615888e+00 1.366644803573440481e-01 2.032036741873567143e-01 3.627199926945775532e-01 1.301539944644644065e-01 2.611230378679709196e-01 3.971824460219625652e-01 -5.997691548148958995e-01 3.139251948064153974e-01 5.377020838334503061e-01 3.721635658185284412e-01 1.683388648482170291e-01 3.121042085677260824e-01 4.553035370032125217e-01 5.493574612013465419e-01 3.762801970850914723e-01 3.137855069443740708e-01 2.015891279761963528e-01 4.475097427390856697e-01 3.327683495819464543e+00 3.201516974402375260e-01 1.618759386609122664e-01 4.238245736133166575e-01 8.530345089843115458e-01 4.639498694028537096e-01 -1.911318345672118335e-01 6.893398589711229318e-01 2.487631827390517636e-01 1.131804961650347413e-01 3.919187163791756912e-01 6.549839438788231938e-01 6.508141179795178255e-01 7.740675219258114081e-01 8.077768840683539064e-01 3.834034990589991754e-01 1.301539937036707562e-01 1.301539302150018507e-01 3.076257566980945546e-01 1.192979711232358686e-01 1.120058456661410240e+00 4.124818756839984668e-01 3.101470700716154050e-01 3.684421743140854355e-01 3.176663333867857930e-01 7.823560057801814960e-01 2.032036099200642820e-01 3.128940261748797136e-01 4.399479292835827837e-01 2.934955383669219930e-01 -6.304087669861297982e-01 3.274079796933739850e-01 3.249431522224858204e-01 3.643370662286219419e-01 7.016387742720245901e-01 7.404378811246179470e-01 1.301539937480142850e-01 4.925391635572325816e-02 3.167944773576527595e-01 4.388918209300559647e-01 -5.895504696212828799e-01 2.083547856748849958e-01 -3.450536362087807785e+00 1.911235454465943562e+00 6.265128782315383393e-01 -4.417786891245825132e-01 3.115349093748430095e-02 2.026903331919245321e+00 3.116739012694291211e-01 6.320556389652417506e-01 3.977357365545962364e-02 2.983366308149184021e-01 4.537319341220079072e-01 3.018238251258994476e-01 -4.241091313569851362e-01 2.500924135988996100e-01 2.027684661563688984e+00 3.526045100411577260e-01 -4.002183319850193266e-01 2.888790139504193721e-01 3.057021148076614625e-01 -1.443554890803948387e+00 3.016496623383881914e-01 3.409454006517511071e-01 4.027767362204883184e-01 2.065994765053674465e-01 3.174324711932426935e-01 2.305784338066887706e-01 3.097721509608110102e-01 -1.602772840940125398e-01 3.215305465924775397e-01 1.336079471712404154e-01 3.357107572542493146e-01 2.799587090482145157e-01 2.385666561932060087e-02 4.388095231252565065e-01 6.163273356030611883e-01 -1.355707144567690703e+00 -5.029993578066526139e-01 -1.055532061391421667e-01 5.640645256408043789e-02 2.965951743582447286e-01 4.253596055617639426e-01 3.625444947191325262e-01 7.240215813107251375e-01 -1.045246250587438669e-01 3.266518584246106416e-01 3.025271072792525273e-01 9.204959922043765008e-02 -1.602450590691662513e-01 3.030639985953458293e-01 4.393313113572290818e-01 4.787985047311184017e-01 3.064233293067224473e-01 2.688096957566151191e-01 3.155020308953472852e-01 2.594897728245553203e-01 3.145248457230740424e-01 5.128595268920204120e-01 4.302270411603230094e-01 3.181320977413201745e-01 6.884858173453114460e-01 3.163445370685857849e-01 7.219975249791306116e-01 9.270811036601640798e-02 4.924727834990860198e-01 2.205670860070960415e-01 -1.433430553614294833e+00 2.926190276908296473e-01 6.436061272423192481e-01 3.865021038065751258e-01 2.600040754131799914e-01 2.901247823020819405e-01 2.658551579079996285e-01 6.976524889169931631e-01 3.150948764648945355e-01 3.696204828231622885e-01 3.165785210346930834e-01 2.910516655583809120e-01 2.170356100406631017e-01 5.230153388241370882e-01 2.884789770043072465e-01 2.632985902397985134e-01 1.817496932339720817e-01 4.393202839529212339e-02 1.611262772941656429e+00 3.057716909083829648e-01 3.732045551881683632e-01 3.745494614734457550e-01 -8.240247896487956636e-01 4.262197961904369836e-01 3.310485659604590070e-01 5.116169092178045608e-01 -2.178874714109934295e-03 3.299287302580586889e-01 1.513902211939937459e+00 8.863768026284111201e-01 3.983955882445551211e-01 2.695604471514593259e-01 3.833848996569818035e-01 3.256420443880538307e-01 9.098930611022248982e-01 2.988906449662539266e+00 3.115394911320958915e-01 5.517100775406699048e-02 5.948775293528294483e-01 -1.704259425061109001e-01 3.168390695293576975e-01 3.223856703266353985e-01 1.055242002508227195e+00 3.085722848329864321e-01 -3.093016733938965257e-01 3.709582697528095996e-01 1.161301188156220743e-01 6.591224929651511300e-01 1.695401296082552189e+00 3.650046213513166160e-01 2.400234215715466857e-01 1.645381371377948598e+00 4.123789732785767548e-01 3.022094607942922839e-01 2.560305069211274986e-01 3.396218553201654777e-01 3.137753996669104262e-02 4.490178610305936013e-01 2.355493268537012519e-01 7.253780247934884517e-01 2.803049442725406015e-01 3.218816397370058979e-01 2.997976647706120379e-01 4.592548164411677791e-01 2.741725760889001107e-01 2.532127097636832636e-01 9.198082137746683706e-01 5.025045546254269802e-01 4.039379437467070511e-01 2.865767029986336367e-01 3.068584587716809975e-01 3.049952559357403392e-01 5.837674076616902186e-01 7.658928085057808977e-01 3.277190211086727367e-01 2.799400952608199766e-01 4.294015697273412258e-01 3.194870415220490978e-01 7.410920810755243782e-01 2.122139124880888239e-01 4.415468292875631140e-01 -3.170595241362549332e-01 3.141443843906562283e-01 2.522969028060667585e-01 4.104406902331315665e-01 3.409381637076505656e-01 2.294369977661122606e-01 1.749696852562887317e+00 1.226576499246583435e-01 2.766232895084681509e-01 -1.527611307619519132e-01 1.603809095890116776e+00 1.138938172091581436e+00 6.815341072298189418e-02 -4.622629364765842297e-01 3.656068403533201949e-01 3.604087251155317362e-01 5.156659621201794552e-01 3.150186385602992134e-01 3.177974449945130675e-01 1.952364632139233225e-01 3.407467362432918256e-01 3.707094234477718020e-01 3.091381844278324673e-02 -1.774315827566323167e-01 3.845393224601642013e-01 3.495739976610128807e-01 1.977589137312897039e-01 8.579082302173641761e-01 4.238235042647653383e-01 2.236194658438779015e-01 8.262108002071871793e-01 4.762220227807062445e-01 6.409919068328228109e-01 4.407007233890271047e-01 6.862165301916142157e-01 1.459538458193882837e+00 3.018634966564222588e-01 2.041426540860499905e+00 -1.668690097692985402e-02 1.347780575856648289e-01 3.117108769163800530e-01 2.831105800768973779e-01 3.228217178071824400e-01 3.601031114912326414e-01 3.278010563471117078e-01 3.125805109416429639e-01 3.543489378137731349e-01 1.820509148628964569e-01 -2.851709194140104597e-01 2.705486050972035206e-01 -7.778707749883306821e-02 2.741270097599166067e-01 4.500910484099328035e-01 4.238235042773269567e-01 2.002670300802206205e-01 2.246236407637640931e-01 -1.194074611120161222e+00 1.927735533024556469e+00 3.171304409739850727e-01 -6.959933480579058029e-01 2.979112195027118770e-01 3.130146257361361428e-01 3.194210741902613337e-01 -4.679503600186983192e+00 3.472282252131021263e+00 6.196077415098165675e-01 1.005693063002452148e-01 3.248692916836055655e-01 3.181883621938728646e-01 3.128373007001982731e-01 2.571490543387833227e+00 6.153229441915029074e-01 3.203705680366249475e-01 2.029675579904568483e-01 2.474209313363025797e-01 2.729790307164491892e-01 8.734443703866306974e-01 -3.787856676415818358e-01 -1.143240656033066571e+00 -1.186860411014914352e+00 3.153656080026215891e-01 3.180382827205358032e-01 7.066058415419974592e-01 3.413127107984367248e-01 1.285672235903267291e+00 4.638185921492228858e-01 3.219643614832066181e-01 3.008229633538817005e-01 3.119955136218306446e-01 2.759918171054185909e-01 2.762807603876575313e-01 6.519075538946802473e-01 2.790874501381062633e-01 6.418360122089915576e-01 2.165889136714868601e-01 2.259391613916086200e-02 2.763165129169492529e-01 2.047999717396648822e-01 3.418035168889800857e-01 3.359096410383693998e-01 6.941721515692464983e-01 5.493574707471576835e-01 4.668613829942284132e-01 3.879018638490413506e-01 3.179578012151162425e-01 2.556129437215444722e-01 1.513904404921111890e+00 1.829817787414877550e+00 2.759111648568962072e-01 3.520777455751231688e-01 3.100017424746556172e-01 1.727061604087046232e-01 2.373468117537734234e-01 2.099391995936059629e-01 3.295493271323112205e-01 3.207924647009626207e-01 7.893290476430611102e-01 8.659167417097923813e-01 2.464747390436189678e-01 1.835790728023100282e+00 1.962657392417450908e-01 -1.581302458574223857e-01 -2.714311239737230430e-01 -3.225601571861657080e-01 3.149011770728413206e-01 2.815998112445801116e-01 7.052380880835713572e-01 3.242368396520456941e-01 4.541052384357487370e-01 3.227503765580360673e-01 3.777356531535047135e-01 4.060874599114944195e-01 3.823428897545864957e-02 1.022398524067240855e+00 3.059808168632395242e-01 4.813601004078194023e-01 3.149005303976088466e-01 3.634974267466681841e-01 3.094524048382316095e-01 3.871894807237521441e-01 -1.171893596995624148e-01 2.234244026639514435e-01 3.103235409620855867e-01 3.187310430762710367e-02 4.238232256055831093e-01 1.118550114695074704e+00 9.438383872908334693e-01 -7.376277157937642937e-01 -3.352434391111418499e-01 6.426333085081666896e-01 -3.256693825736862280e+00 1.554439168875746402e+00 2.687592146790420689e-01 3.104326286011811070e-02 3.141471927787162222e-01 8.707879796916512261e-01 3.190664919520619369e-01 3.627192278308791207e-01 -4.356204409700942248e-01 8.287759463695547613e-01 2.601602668963969300e-01 8.871875919946329292e-01 2.059077301295235252e+00 -3.789804040792050244e-01 -1.429144362542960511e+00 2.770884152482951390e-01 2.611861022468346949e-01 7.773231274247827116e-01 3.044366017063583896e-01 6.999254465096915734e-01 4.690219693815677604e-01 1.529559605397314004e-01 3.133175108647076601e-01 3.385922663773517916e-01 2.186199439407061629e-01 3.533312675570597361e-01 1.378079276619561755e+00 1.588033268512462293e+00 3.148609188044098617e-01 2.512931567760552931e-01 4.156178534138731812e-02 -2.355712314200386348e-01 2.002747589970160502e-01 1.043625466026943879e-02 3.208872441588138114e-01 7.064068349047706308e-01 -4.251234923039682312e-01 2.916435161459500214e-01 3.454748872999361398e-01 1.571541946639736786e-01 3.008800327865976398e-01 2.680193205886818864e-01 3.181553041052920805e-01 3.181776832906031416e-01 -2.423322621246444888e-02 2.506738361689035965e-01 4.413015757771717729e-01 1.103257983506102269e+00 1.097262177972664787e+00 9.381656932141759775e-01 1.947195529672678116e-01 7.689503050717049204e-01 1.248741109000211097e-01 4.578493392073916812e-01 -2.060005998482119960e+00 2.845095633780816424e-01 6.507899562248988801e-01 2.710903724825792782e-01 9.579867129283508032e-01 1.354921572321658330e+00 2.029675586712883784e-01 2.914389772886082919e-01 3.722594516100322104e-01 2.382879439009387978e-01 5.559633666143934949e-01 8.133585552906386074e-01 -7.496309918469437061e-01 1.486091356074375480e-01 1.210453611194061696e-01 2.966986698240818288e-01 3.435283852677259442e-01 7.698500362217292059e-01 -1.622535492985577310e-01 3.887176554560364816e-01 3.085644418022423507e-01 2.775413554160821583e-01 8.866034403622190530e-01 4.224798388386754033e-01 -2.044084786842707280e-01 8.593966516970741321e-01 -4.485677940654150125e-02 5.731667682960620569e-01 2.814367692476297811e-01 1.273574561837178099e+00 5.468945718874247408e-01 7.233008684424324652e-01 4.366745212088112282e-01 4.802330132335356216e-01 -5.173133117344509424e-01 2.852356318953833125e-01 7.636916124720798393e-01 3.251306941321385757e-01 6.429087950981755561e-01 3.044963566777169062e-01 3.115573549821261112e-01 7.321836274381490206e-01 1.251517381021291786e-01 -2.017789402545128841e+00 2.814178733458117532e-01 2.809386959626613001e-01 7.511341474607269308e-01 3.975725125275319516e-01 3.980265164305741843e-01 2.704065408637639223e-01 2.464712994694193138e-01 3.664782682620685295e-01 3.081790561941005410e-02 -1.607752369785965474e+00 7.440761751318772932e-01 2.636658903336894788e-01 3.131496513159368056e-01 1.893498527977995893e-01 8.238950722470242960e-01 3.191591634228499452e-01 -1.303097545828067472e-01 3.159491775024918514e-01 1.114636080642278593e+00 2.950433315470505913e-01 4.146224899511544715e-01 1.063983066004244860e+00 3.268609059394306238e-01 2.713269975858196847e+00 2.900740954927854554e-01 2.953231841048860606e-01 6.884358555265456259e-01 3.045072941242740749e-01 2.915072732072601647e-01 -2.024338995440952971e+00 3.839696942345467989e-01 3.066463998493251242e-01 5.123395835945359078e-01 3.118771534569462212e-01 3.010890833579102921e-01 -2.429252614128328547e-01 2.019953048840930077e+00 -5.204398158729400814e-01 8.280684550731295390e-01 3.171706969457215863e-01 3.759499918626465487e-01 7.628536881049083895e-01 3.577987100657015751e-01 1.316101366107918391e+00 1.643142302781802899e-01 2.962387927605401594e-01 -8.780868105878056884e-01 -1.294531782927246522e-01 -2.906397528307738676e-01 -3.826902023475289738e+00 2.897396451172627785e+00 6.947386140184257097e-02 3.222400075758989346e-01 -1.586007745310872963e+00 3.202186688209822663e-01 2.196578284509108914e-01 3.277971152262789123e-01 1.388888519936901933e-01 6.378856571183074697e-01 5.925569824657347384e-01 9.900815627023533683e-01 -3.352434392871181390e-01 -2.144002700191080246e-01 2.091707060180257316e-01 -1.173633201684639138e+00 2.820615930672860650e-01 -6.307682740631467277e-01 3.142595518940769495e-01 4.782988888417091800e-01 4.625083260860222978e-02 4.232010922391629126e-01 2.727211718686679554e-01 -1.017141459485892130e-01 2.034276622685715352e-01 3.025332988893190689e-01 3.513430915680039179e-01 3.130686419769568851e-01 3.196134362532541684e-01 -7.373932874551927252e-01 5.692568335221592779e-01 1.526832097489070783e+00 5.620842149078305455e-02 2.417001358505119768e-01 4.108121973735258670e-01 1.213863609647377606e+00 3.029885431628352443e-01 1.558828590918628354e-01 8.966723301537518065e-01 3.201595950652237343e-01 1.831532573296502431e+00 3.787406106299933684e-01 1.194793138051064796e+00 2.995679946590911191e-01 7.369275191712280071e-01 1.341953781824174907e+00 2.961458135290319094e-01 4.043063498846330428e-01 9.081177663977422210e-01 -1.859360864150579329e-01 -4.978207116892623824e-02 1.607064659825822583e-01 2.961973980215839575e-01 3.459649105850280959e-01 1.415379440835500824e-01 2.313000646865630006e-01 -3.498716133949321683e-01 1.292524406799654191e+00 2.616269625331835158e-01 3.155438572167618139e-01 -3.098598471238197760e+00 4.893777593820108351e-01 3.699608925066856235e-01 4.594839125186858664e-01 4.346204788364731453e-01 5.012351116753048785e-01 -1.041775770376060173e+00 5.963487575198540558e-01 2.640130348012558748e-01 3.190399870614113453e-01 1.042771238495046049e+00 4.458956476816581804e-01 3.271963954294263566e-01 -1.382826901339393677e+00 4.493840806996270421e-01 8.867508626142267536e-01 2.998735872918244505e-01 3.217349133768515612e-01 3.274891720528155803e-01 6.980711788139225549e-01 -8.289556425667551909e-02 3.114783169030269083e-01 3.026127449609299913e-01 6.972389963241934496e-02 7.025969840471836259e-01 3.592310948084571076e-01 7.365202349513382263e-01 1.748152704957220971e-01 6.850803117642458862e-01 -2.097207565050740463e-01 -1.501031746908473519e+00 3.473421588390849246e-01 -1.503536765385126567e-02 3.145028663389201062e-01 3.349704541034678185e-01 5.576577679121646341e-02 5.493574584858942345e-01 3.176580496643406359e-01 8.695443308930222992e-02 4.580808956790077824e-01 2.745691598628540175e-01 3.179339441271076816e-01 2.697006944489613867e-01 -8.074390687721313409e-01 2.986378607057442736e-01 3.564807193160391963e-01 2.979524981403114947e-01 -1.082491950278825360e-01 3.134829477717544499e-01 7.958752743223262982e-01 -4.966926204457789984e-01 1.090943342520101389e+00 6.023169526411749075e-01 2.789676907109554516e-01 3.179754262961659861e-01 -2.019287190662801823e+00 3.015126439270235936e-01 1.812964296034726697e-01 2.327009046282670912e-01 5.493574717001661334e-01 3.147039353898331560e-01 2.615658097933268311e-01 1.149313745431077838e-01 3.188249096589649834e-01 4.358435758062303989e-01 4.190592746070769259e-01 3.836803130526676986e-01 3.018695385999806136e-01 3.136619436612375078e-01 3.243148292724158388e-01 2.760213425453509895e-01 2.000280039927999562e-02 3.195843067557677109e-01 5.895142916903259867e-01 2.205435666741815126e-01 3.268355500679943071e-01 -1.218516139024745926e-01 1.308758544364549969e-01 5.051388058068649878e-01 4.346850967839809954e+00 2.801185343431841779e-01 1.315036594369067557e-01 5.222794694028654039e-01 2.149021053946813808e-01 1.531641599357293604e+00 3.354825886326491813e-01 6.596675523697601573e-01 3.156443609536917494e-01
