# 
#                 ----------------------------------------------------
#                 Data from a 3D direct N-body simulation. 
# 
#                 rows are i-particle; 
#                 coumns are :mass, tag, x ,y, z, vx, vy, vz, ax, ay, az
# 
#                 NTHU, Computational Physics 
# 
#                 ----------------------------------------------------
#                 Time = 0.0
0.000000000000000000e+00 1.000000000000000000e+00 2.000000000000000000e+00 3.000000000000000000e+00 4.000000000000000000e+00 5.000000000000000000e+00 6.000000000000000000e+00 7.000000000000000000e+00 8.000000000000000000e+00 9.000000000000000000e+00 1.000000000000000000e+01 1.100000000000000000e+01 1.200000000000000000e+01 1.300000000000000000e+01 1.400000000000000000e+01 1.500000000000000000e+01 1.600000000000000000e+01 1.700000000000000000e+01 1.800000000000000000e+01 1.900000000000000000e+01 2.000000000000000000e+01 2.100000000000000000e+01 2.200000000000000000e+01 2.300000000000000000e+01 2.400000000000000000e+01 2.500000000000000000e+01 2.600000000000000000e+01 2.700000000000000000e+01 2.800000000000000000e+01 2.900000000000000000e+01 3.000000000000000000e+01 3.100000000000000000e+01 3.200000000000000000e+01 3.300000000000000000e+01 3.400000000000000000e+01 3.500000000000000000e+01 3.600000000000000000e+01 3.700000000000000000e+01 3.800000000000000000e+01 3.900000000000000000e+01 4.000000000000000000e+01 4.100000000000000000e+01 4.200000000000000000e+01 4.300000000000000000e+01 4.400000000000000000e+01 4.500000000000000000e+01 4.600000000000000000e+01 4.700000000000000000e+01 4.800000000000000000e+01 4.900000000000000000e+01 5.000000000000000000e+01 5.100000000000000000e+01 5.200000000000000000e+01 5.300000000000000000e+01 5.400000000000000000e+01 5.500000000000000000e+01 5.600000000000000000e+01 5.700000000000000000e+01 5.800000000000000000e+01 5.900000000000000000e+01 6.000000000000000000e+01 6.100000000000000000e+01 6.200000000000000000e+01 6.300000000000000000e+01 6.400000000000000000e+01 6.500000000000000000e+01 6.600000000000000000e+01 6.700000000000000000e+01 6.800000000000000000e+01 6.900000000000000000e+01 7.000000000000000000e+01 7.100000000000000000e+01 7.200000000000000000e+01 7.300000000000000000e+01 7.400000000000000000e+01 7.500000000000000000e+01 7.600000000000000000e+01 7.700000000000000000e+01 7.800000000000000000e+01 7.900000000000000000e+01 8.000000000000000000e+01 8.100000000000000000e+01 8.200000000000000000e+01 8.300000000000000000e+01 8.400000000000000000e+01 8.500000000000000000e+01 8.600000000000000000e+01 8.700000000000000000e+01 8.800000000000000000e+01 8.900000000000000000e+01 9.000000000000000000e+01 9.100000000000000000e+01 9.200000000000000000e+01 9.300000000000000000e+01 9.400000000000000000e+01 9.500000000000000000e+01 9.600000000000000000e+01 9.700000000000000000e+01 9.800000000000000000e+01 9.900000000000000000e+01 1.000000000000000000e+02 1.010000000000000000e+02 1.020000000000000000e+02 1.030000000000000000e+02 1.040000000000000000e+02 1.050000000000000000e+02 1.060000000000000000e+02 1.070000000000000000e+02 1.080000000000000000e+02 1.090000000000000000e+02 1.100000000000000000e+02 1.110000000000000000e+02 1.120000000000000000e+02 1.130000000000000000e+02 1.140000000000000000e+02 1.150000000000000000e+02 1.160000000000000000e+02 1.170000000000000000e+02 1.180000000000000000e+02 1.190000000000000000e+02 1.200000000000000000e+02 1.210000000000000000e+02 1.220000000000000000e+02 1.230000000000000000e+02 1.240000000000000000e+02 1.250000000000000000e+02 1.260000000000000000e+02 1.270000000000000000e+02 1.280000000000000000e+02 1.290000000000000000e+02 1.300000000000000000e+02 1.310000000000000000e+02 1.320000000000000000e+02 1.330000000000000000e+02 1.340000000000000000e+02 1.350000000000000000e+02 1.360000000000000000e+02 1.370000000000000000e+02 1.380000000000000000e+02 1.390000000000000000e+02 1.400000000000000000e+02 1.410000000000000000e+02 1.420000000000000000e+02 1.430000000000000000e+02 1.440000000000000000e+02 1.450000000000000000e+02 1.460000000000000000e+02 1.470000000000000000e+02 1.480000000000000000e+02 1.490000000000000000e+02 1.500000000000000000e+02 1.510000000000000000e+02 1.520000000000000000e+02 1.530000000000000000e+02 1.540000000000000000e+02 1.550000000000000000e+02 1.560000000000000000e+02 1.570000000000000000e+02 1.580000000000000000e+02 1.590000000000000000e+02 1.600000000000000000e+02 1.610000000000000000e+02 1.620000000000000000e+02 1.630000000000000000e+02 1.640000000000000000e+02 1.650000000000000000e+02 1.660000000000000000e+02 1.670000000000000000e+02 1.680000000000000000e+02 1.690000000000000000e+02 1.700000000000000000e+02 1.710000000000000000e+02 1.720000000000000000e+02 1.730000000000000000e+02 1.740000000000000000e+02 1.750000000000000000e+02 1.760000000000000000e+02 1.770000000000000000e+02 1.780000000000000000e+02 1.790000000000000000e+02 1.800000000000000000e+02 1.810000000000000000e+02 1.820000000000000000e+02 1.830000000000000000e+02 1.840000000000000000e+02 1.850000000000000000e+02 1.860000000000000000e+02 1.870000000000000000e+02 1.880000000000000000e+02 1.890000000000000000e+02 1.900000000000000000e+02 1.910000000000000000e+02 1.920000000000000000e+02 1.930000000000000000e+02 1.940000000000000000e+02 1.950000000000000000e+02 1.960000000000000000e+02 1.970000000000000000e+02 1.980000000000000000e+02 1.990000000000000000e+02 2.000000000000000000e+02 2.010000000000000000e+02 2.020000000000000000e+02 2.030000000000000000e+02 2.040000000000000000e+02 2.050000000000000000e+02 2.060000000000000000e+02 2.070000000000000000e+02 2.080000000000000000e+02 2.090000000000000000e+02 2.100000000000000000e+02 2.110000000000000000e+02 2.120000000000000000e+02 2.130000000000000000e+02 2.140000000000000000e+02 2.150000000000000000e+02 2.160000000000000000e+02 2.170000000000000000e+02 2.180000000000000000e+02 2.190000000000000000e+02 2.200000000000000000e+02 2.210000000000000000e+02 2.220000000000000000e+02 2.230000000000000000e+02 2.240000000000000000e+02 2.250000000000000000e+02 2.260000000000000000e+02 2.270000000000000000e+02 2.280000000000000000e+02 2.290000000000000000e+02 2.300000000000000000e+02 2.310000000000000000e+02 2.320000000000000000e+02 2.330000000000000000e+02 2.340000000000000000e+02 2.350000000000000000e+02 2.360000000000000000e+02 2.370000000000000000e+02 2.380000000000000000e+02 2.390000000000000000e+02 2.400000000000000000e+02 2.410000000000000000e+02 2.420000000000000000e+02 2.430000000000000000e+02 2.440000000000000000e+02 2.450000000000000000e+02 2.460000000000000000e+02 2.470000000000000000e+02 2.480000000000000000e+02 2.490000000000000000e+02 2.500000000000000000e+02 2.510000000000000000e+02 2.520000000000000000e+02 2.530000000000000000e+02 2.540000000000000000e+02 2.550000000000000000e+02 2.560000000000000000e+02 2.570000000000000000e+02 2.580000000000000000e+02 2.590000000000000000e+02 2.600000000000000000e+02 2.610000000000000000e+02 2.620000000000000000e+02 2.630000000000000000e+02 2.640000000000000000e+02 2.650000000000000000e+02 2.660000000000000000e+02 2.670000000000000000e+02 2.680000000000000000e+02 2.690000000000000000e+02 2.700000000000000000e+02 2.710000000000000000e+02 2.720000000000000000e+02 2.730000000000000000e+02 2.740000000000000000e+02 2.750000000000000000e+02 2.760000000000000000e+02 2.770000000000000000e+02 2.780000000000000000e+02 2.790000000000000000e+02 2.800000000000000000e+02 2.810000000000000000e+02 2.820000000000000000e+02 2.830000000000000000e+02 2.840000000000000000e+02 2.850000000000000000e+02 2.860000000000000000e+02 2.870000000000000000e+02 2.880000000000000000e+02 2.890000000000000000e+02 2.900000000000000000e+02 2.910000000000000000e+02 2.920000000000000000e+02 2.930000000000000000e+02 2.940000000000000000e+02 2.950000000000000000e+02 2.960000000000000000e+02 2.970000000000000000e+02 2.980000000000000000e+02 2.990000000000000000e+02 3.000000000000000000e+02 3.010000000000000000e+02 3.020000000000000000e+02 3.030000000000000000e+02 3.040000000000000000e+02 3.050000000000000000e+02 3.060000000000000000e+02 3.070000000000000000e+02 3.080000000000000000e+02 3.090000000000000000e+02 3.100000000000000000e+02 3.110000000000000000e+02 3.120000000000000000e+02 3.130000000000000000e+02 3.140000000000000000e+02 3.150000000000000000e+02 3.160000000000000000e+02 3.170000000000000000e+02 3.180000000000000000e+02 3.190000000000000000e+02 3.200000000000000000e+02 3.210000000000000000e+02 3.220000000000000000e+02 3.230000000000000000e+02 3.240000000000000000e+02 3.250000000000000000e+02 3.260000000000000000e+02 3.270000000000000000e+02 3.280000000000000000e+02 3.290000000000000000e+02 3.300000000000000000e+02 3.310000000000000000e+02 3.320000000000000000e+02 3.330000000000000000e+02 3.340000000000000000e+02 3.350000000000000000e+02 3.360000000000000000e+02 3.370000000000000000e+02 3.380000000000000000e+02 3.390000000000000000e+02 3.400000000000000000e+02 3.410000000000000000e+02 3.420000000000000000e+02 3.430000000000000000e+02 3.440000000000000000e+02 3.450000000000000000e+02 3.460000000000000000e+02 3.470000000000000000e+02 3.480000000000000000e+02 3.490000000000000000e+02 3.500000000000000000e+02 3.510000000000000000e+02 3.520000000000000000e+02 3.530000000000000000e+02 3.540000000000000000e+02 3.550000000000000000e+02 3.560000000000000000e+02 3.570000000000000000e+02 3.580000000000000000e+02 3.590000000000000000e+02 3.600000000000000000e+02 3.610000000000000000e+02 3.620000000000000000e+02 3.630000000000000000e+02 3.640000000000000000e+02 3.650000000000000000e+02 3.660000000000000000e+02 3.670000000000000000e+02 3.680000000000000000e+02 3.690000000000000000e+02 3.700000000000000000e+02 3.710000000000000000e+02 3.720000000000000000e+02 3.730000000000000000e+02 3.740000000000000000e+02 3.750000000000000000e+02 3.760000000000000000e+02 3.770000000000000000e+02 3.780000000000000000e+02 3.790000000000000000e+02 3.800000000000000000e+02 3.810000000000000000e+02 3.820000000000000000e+02 3.830000000000000000e+02 3.840000000000000000e+02 3.850000000000000000e+02 3.860000000000000000e+02 3.870000000000000000e+02 3.880000000000000000e+02 3.890000000000000000e+02 3.900000000000000000e+02 3.910000000000000000e+02 3.920000000000000000e+02 3.930000000000000000e+02 3.940000000000000000e+02 3.950000000000000000e+02 3.960000000000000000e+02 3.970000000000000000e+02 3.980000000000000000e+02 3.990000000000000000e+02 4.000000000000000000e+02 4.010000000000000000e+02 4.020000000000000000e+02 4.030000000000000000e+02 4.040000000000000000e+02 4.050000000000000000e+02 4.060000000000000000e+02 4.070000000000000000e+02 4.080000000000000000e+02 4.090000000000000000e+02 4.100000000000000000e+02 4.110000000000000000e+02 4.120000000000000000e+02 4.130000000000000000e+02 4.140000000000000000e+02 4.150000000000000000e+02 4.160000000000000000e+02 4.170000000000000000e+02 4.180000000000000000e+02 4.190000000000000000e+02 4.200000000000000000e+02 4.210000000000000000e+02 4.220000000000000000e+02 4.230000000000000000e+02 4.240000000000000000e+02 4.250000000000000000e+02 4.260000000000000000e+02 4.270000000000000000e+02 4.280000000000000000e+02 4.290000000000000000e+02 4.300000000000000000e+02 4.310000000000000000e+02 4.320000000000000000e+02 4.330000000000000000e+02 4.340000000000000000e+02 4.350000000000000000e+02 4.360000000000000000e+02 4.370000000000000000e+02 4.380000000000000000e+02 4.390000000000000000e+02 4.400000000000000000e+02 4.410000000000000000e+02 4.420000000000000000e+02 4.430000000000000000e+02 4.440000000000000000e+02 4.450000000000000000e+02 4.460000000000000000e+02 4.470000000000000000e+02 4.480000000000000000e+02 4.490000000000000000e+02 4.500000000000000000e+02 4.510000000000000000e+02 4.520000000000000000e+02 4.530000000000000000e+02 4.540000000000000000e+02 4.550000000000000000e+02 4.560000000000000000e+02 4.570000000000000000e+02 4.580000000000000000e+02 4.590000000000000000e+02 4.600000000000000000e+02 4.610000000000000000e+02 4.620000000000000000e+02 4.630000000000000000e+02 4.640000000000000000e+02 4.650000000000000000e+02 4.660000000000000000e+02 4.670000000000000000e+02 4.680000000000000000e+02 4.690000000000000000e+02 4.700000000000000000e+02 4.710000000000000000e+02 4.720000000000000000e+02 4.730000000000000000e+02 4.740000000000000000e+02 4.750000000000000000e+02 4.760000000000000000e+02 4.770000000000000000e+02 4.780000000000000000e+02 4.790000000000000000e+02 4.800000000000000000e+02 4.810000000000000000e+02 4.820000000000000000e+02 4.830000000000000000e+02 4.840000000000000000e+02 4.850000000000000000e+02 4.860000000000000000e+02 4.870000000000000000e+02 4.880000000000000000e+02 4.890000000000000000e+02 4.900000000000000000e+02 4.910000000000000000e+02 4.920000000000000000e+02 4.930000000000000000e+02 4.940000000000000000e+02 4.950000000000000000e+02 4.960000000000000000e+02 4.970000000000000000e+02 4.980000000000000000e+02 4.990000000000000000e+02 5.000000000000000000e+02 5.010000000000000000e+02 5.020000000000000000e+02 5.030000000000000000e+02 5.040000000000000000e+02 5.050000000000000000e+02 5.060000000000000000e+02 5.070000000000000000e+02 5.080000000000000000e+02 5.090000000000000000e+02 5.100000000000000000e+02 5.110000000000000000e+02 5.120000000000000000e+02 5.130000000000000000e+02 5.140000000000000000e+02 5.150000000000000000e+02 5.160000000000000000e+02 5.170000000000000000e+02 5.180000000000000000e+02 5.190000000000000000e+02 5.200000000000000000e+02 5.210000000000000000e+02 5.220000000000000000e+02 5.230000000000000000e+02 5.240000000000000000e+02 5.250000000000000000e+02 5.260000000000000000e+02 5.270000000000000000e+02 5.280000000000000000e+02 5.290000000000000000e+02 5.300000000000000000e+02 5.310000000000000000e+02 5.320000000000000000e+02 5.330000000000000000e+02 5.340000000000000000e+02 5.350000000000000000e+02 5.360000000000000000e+02 5.370000000000000000e+02 5.380000000000000000e+02 5.390000000000000000e+02 5.400000000000000000e+02 5.410000000000000000e+02 5.420000000000000000e+02 5.430000000000000000e+02 5.440000000000000000e+02 5.450000000000000000e+02 5.460000000000000000e+02 5.470000000000000000e+02 5.480000000000000000e+02 5.490000000000000000e+02 5.500000000000000000e+02 5.510000000000000000e+02 5.520000000000000000e+02 5.530000000000000000e+02 5.540000000000000000e+02 5.550000000000000000e+02 5.560000000000000000e+02 5.570000000000000000e+02 5.580000000000000000e+02 5.590000000000000000e+02 5.600000000000000000e+02 5.610000000000000000e+02 5.620000000000000000e+02 5.630000000000000000e+02 5.640000000000000000e+02 5.650000000000000000e+02 5.660000000000000000e+02 5.670000000000000000e+02 5.680000000000000000e+02 5.690000000000000000e+02 5.700000000000000000e+02 5.710000000000000000e+02 5.720000000000000000e+02 5.730000000000000000e+02 5.740000000000000000e+02 5.750000000000000000e+02 5.760000000000000000e+02 5.770000000000000000e+02 5.780000000000000000e+02 5.790000000000000000e+02 5.800000000000000000e+02 5.810000000000000000e+02 5.820000000000000000e+02 5.830000000000000000e+02 5.840000000000000000e+02 5.850000000000000000e+02 5.860000000000000000e+02 5.870000000000000000e+02 5.880000000000000000e+02 5.890000000000000000e+02 5.900000000000000000e+02 5.910000000000000000e+02 5.920000000000000000e+02 5.930000000000000000e+02 5.940000000000000000e+02 5.950000000000000000e+02 5.960000000000000000e+02 5.970000000000000000e+02 5.980000000000000000e+02 5.990000000000000000e+02 6.000000000000000000e+02 6.010000000000000000e+02 6.020000000000000000e+02 6.030000000000000000e+02 6.040000000000000000e+02 6.050000000000000000e+02 6.060000000000000000e+02 6.070000000000000000e+02 6.080000000000000000e+02 6.090000000000000000e+02 6.100000000000000000e+02 6.110000000000000000e+02 6.120000000000000000e+02 6.130000000000000000e+02 6.140000000000000000e+02 6.150000000000000000e+02 6.160000000000000000e+02 6.170000000000000000e+02 6.180000000000000000e+02 6.190000000000000000e+02 6.200000000000000000e+02 6.210000000000000000e+02 6.220000000000000000e+02 6.230000000000000000e+02 6.240000000000000000e+02 6.250000000000000000e+02 6.260000000000000000e+02 6.270000000000000000e+02 6.280000000000000000e+02 6.290000000000000000e+02 6.300000000000000000e+02 6.310000000000000000e+02 6.320000000000000000e+02 6.330000000000000000e+02 6.340000000000000000e+02 6.350000000000000000e+02 6.360000000000000000e+02 6.370000000000000000e+02 6.380000000000000000e+02 6.390000000000000000e+02 6.400000000000000000e+02 6.410000000000000000e+02 6.420000000000000000e+02 6.430000000000000000e+02 6.440000000000000000e+02 6.450000000000000000e+02 6.460000000000000000e+02 6.470000000000000000e+02 6.480000000000000000e+02 6.490000000000000000e+02 6.500000000000000000e+02 6.510000000000000000e+02 6.520000000000000000e+02 6.530000000000000000e+02 6.540000000000000000e+02 6.550000000000000000e+02 6.560000000000000000e+02 6.570000000000000000e+02 6.580000000000000000e+02 6.590000000000000000e+02 6.600000000000000000e+02 6.610000000000000000e+02 6.620000000000000000e+02 6.630000000000000000e+02 6.640000000000000000e+02 6.650000000000000000e+02 6.660000000000000000e+02 6.670000000000000000e+02 6.680000000000000000e+02 6.690000000000000000e+02 6.700000000000000000e+02 6.710000000000000000e+02 6.720000000000000000e+02 6.730000000000000000e+02 6.740000000000000000e+02 6.750000000000000000e+02 6.760000000000000000e+02 6.770000000000000000e+02 6.780000000000000000e+02 6.790000000000000000e+02 6.800000000000000000e+02 6.810000000000000000e+02 6.820000000000000000e+02 6.830000000000000000e+02 6.840000000000000000e+02 6.850000000000000000e+02 6.860000000000000000e+02 6.870000000000000000e+02 6.880000000000000000e+02 6.890000000000000000e+02 6.900000000000000000e+02 6.910000000000000000e+02 6.920000000000000000e+02 6.930000000000000000e+02 6.940000000000000000e+02 6.950000000000000000e+02 6.960000000000000000e+02 6.970000000000000000e+02 6.980000000000000000e+02 6.990000000000000000e+02 7.000000000000000000e+02 7.010000000000000000e+02 7.020000000000000000e+02 7.030000000000000000e+02 7.040000000000000000e+02 7.050000000000000000e+02 7.060000000000000000e+02 7.070000000000000000e+02 7.080000000000000000e+02 7.090000000000000000e+02 7.100000000000000000e+02 7.110000000000000000e+02 7.120000000000000000e+02 7.130000000000000000e+02 7.140000000000000000e+02 7.150000000000000000e+02 7.160000000000000000e+02 7.170000000000000000e+02 7.180000000000000000e+02 7.190000000000000000e+02 7.200000000000000000e+02 7.210000000000000000e+02 7.220000000000000000e+02 7.230000000000000000e+02 7.240000000000000000e+02 7.250000000000000000e+02 7.260000000000000000e+02 7.270000000000000000e+02 7.280000000000000000e+02 7.290000000000000000e+02 7.300000000000000000e+02 7.310000000000000000e+02 7.320000000000000000e+02 7.330000000000000000e+02 7.340000000000000000e+02 7.350000000000000000e+02 7.360000000000000000e+02 7.370000000000000000e+02 7.380000000000000000e+02 7.390000000000000000e+02 7.400000000000000000e+02 7.410000000000000000e+02 7.420000000000000000e+02 7.430000000000000000e+02 7.440000000000000000e+02 7.450000000000000000e+02 7.460000000000000000e+02 7.470000000000000000e+02 7.480000000000000000e+02 7.490000000000000000e+02 7.500000000000000000e+02 7.510000000000000000e+02 7.520000000000000000e+02 7.530000000000000000e+02 7.540000000000000000e+02 7.550000000000000000e+02 7.560000000000000000e+02 7.570000000000000000e+02 7.580000000000000000e+02 7.590000000000000000e+02 7.600000000000000000e+02 7.610000000000000000e+02 7.620000000000000000e+02 7.630000000000000000e+02 7.640000000000000000e+02 7.650000000000000000e+02 7.660000000000000000e+02 7.670000000000000000e+02 7.680000000000000000e+02 7.690000000000000000e+02 7.700000000000000000e+02 7.710000000000000000e+02 7.720000000000000000e+02 7.730000000000000000e+02 7.740000000000000000e+02 7.750000000000000000e+02 7.760000000000000000e+02 7.770000000000000000e+02 7.780000000000000000e+02 7.790000000000000000e+02 7.800000000000000000e+02 7.810000000000000000e+02 7.820000000000000000e+02 7.830000000000000000e+02 7.840000000000000000e+02 7.850000000000000000e+02 7.860000000000000000e+02 7.870000000000000000e+02 7.880000000000000000e+02 7.890000000000000000e+02 7.900000000000000000e+02 7.910000000000000000e+02 7.920000000000000000e+02 7.930000000000000000e+02 7.940000000000000000e+02 7.950000000000000000e+02 7.960000000000000000e+02 7.970000000000000000e+02 7.980000000000000000e+02 7.990000000000000000e+02 8.000000000000000000e+02 8.010000000000000000e+02 8.020000000000000000e+02 8.030000000000000000e+02 8.040000000000000000e+02 8.050000000000000000e+02 8.060000000000000000e+02 8.070000000000000000e+02 8.080000000000000000e+02 8.090000000000000000e+02 8.100000000000000000e+02 8.110000000000000000e+02 8.120000000000000000e+02 8.130000000000000000e+02 8.140000000000000000e+02 8.150000000000000000e+02 8.160000000000000000e+02 8.170000000000000000e+02 8.180000000000000000e+02 8.190000000000000000e+02 8.200000000000000000e+02 8.210000000000000000e+02 8.220000000000000000e+02 8.230000000000000000e+02 8.240000000000000000e+02 8.250000000000000000e+02 8.260000000000000000e+02 8.270000000000000000e+02 8.280000000000000000e+02 8.290000000000000000e+02 8.300000000000000000e+02 8.310000000000000000e+02 8.320000000000000000e+02 8.330000000000000000e+02 8.340000000000000000e+02 8.350000000000000000e+02 8.360000000000000000e+02 8.370000000000000000e+02 8.380000000000000000e+02 8.390000000000000000e+02 8.400000000000000000e+02 8.410000000000000000e+02 8.420000000000000000e+02 8.430000000000000000e+02 8.440000000000000000e+02 8.450000000000000000e+02 8.460000000000000000e+02 8.470000000000000000e+02 8.480000000000000000e+02 8.490000000000000000e+02 8.500000000000000000e+02 8.510000000000000000e+02 8.520000000000000000e+02 8.530000000000000000e+02 8.540000000000000000e+02 8.550000000000000000e+02 8.560000000000000000e+02 8.570000000000000000e+02 8.580000000000000000e+02 8.590000000000000000e+02 8.600000000000000000e+02 8.610000000000000000e+02 8.620000000000000000e+02 8.630000000000000000e+02 8.640000000000000000e+02 8.650000000000000000e+02 8.660000000000000000e+02 8.670000000000000000e+02 8.680000000000000000e+02 8.690000000000000000e+02 8.700000000000000000e+02 8.710000000000000000e+02 8.720000000000000000e+02 8.730000000000000000e+02 8.740000000000000000e+02 8.750000000000000000e+02 8.760000000000000000e+02 8.770000000000000000e+02 8.780000000000000000e+02 8.790000000000000000e+02 8.800000000000000000e+02 8.810000000000000000e+02 8.820000000000000000e+02 8.830000000000000000e+02 8.840000000000000000e+02 8.850000000000000000e+02 8.860000000000000000e+02 8.870000000000000000e+02 8.880000000000000000e+02 8.890000000000000000e+02 8.900000000000000000e+02 8.910000000000000000e+02 8.920000000000000000e+02 8.930000000000000000e+02 8.940000000000000000e+02 8.950000000000000000e+02 8.960000000000000000e+02 8.970000000000000000e+02 8.980000000000000000e+02 8.990000000000000000e+02 9.000000000000000000e+02 9.010000000000000000e+02 9.020000000000000000e+02 9.030000000000000000e+02 9.040000000000000000e+02 9.050000000000000000e+02 9.060000000000000000e+02 9.070000000000000000e+02 9.080000000000000000e+02 9.090000000000000000e+02 9.100000000000000000e+02 9.110000000000000000e+02 9.120000000000000000e+02 9.130000000000000000e+02 9.140000000000000000e+02 9.150000000000000000e+02 9.160000000000000000e+02 9.170000000000000000e+02 9.180000000000000000e+02 9.190000000000000000e+02 9.200000000000000000e+02 9.210000000000000000e+02 9.220000000000000000e+02 9.230000000000000000e+02 9.240000000000000000e+02 9.250000000000000000e+02 9.260000000000000000e+02 9.270000000000000000e+02 9.280000000000000000e+02 9.290000000000000000e+02 9.300000000000000000e+02 9.310000000000000000e+02 9.320000000000000000e+02 9.330000000000000000e+02 9.340000000000000000e+02 9.350000000000000000e+02 9.360000000000000000e+02 9.370000000000000000e+02 9.380000000000000000e+02 9.390000000000000000e+02 9.400000000000000000e+02 9.410000000000000000e+02 9.420000000000000000e+02 9.430000000000000000e+02 9.440000000000000000e+02 9.450000000000000000e+02 9.460000000000000000e+02 9.470000000000000000e+02 9.480000000000000000e+02 9.490000000000000000e+02 9.500000000000000000e+02 9.510000000000000000e+02 9.520000000000000000e+02 9.530000000000000000e+02 9.540000000000000000e+02 9.550000000000000000e+02 9.560000000000000000e+02 9.570000000000000000e+02 9.580000000000000000e+02 9.590000000000000000e+02 9.600000000000000000e+02 9.610000000000000000e+02 9.620000000000000000e+02 9.630000000000000000e+02 9.640000000000000000e+02 9.650000000000000000e+02 9.660000000000000000e+02 9.670000000000000000e+02 9.680000000000000000e+02 9.690000000000000000e+02 9.700000000000000000e+02 9.710000000000000000e+02 9.720000000000000000e+02 9.730000000000000000e+02 9.740000000000000000e+02 9.750000000000000000e+02 9.760000000000000000e+02 9.770000000000000000e+02 9.780000000000000000e+02 9.790000000000000000e+02 9.800000000000000000e+02 9.810000000000000000e+02 9.820000000000000000e+02 9.830000000000000000e+02 9.840000000000000000e+02 9.850000000000000000e+02 9.860000000000000000e+02 9.870000000000000000e+02 9.880000000000000000e+02 9.890000000000000000e+02 9.900000000000000000e+02 9.910000000000000000e+02 9.920000000000000000e+02 9.930000000000000000e+02 9.940000000000000000e+02 9.950000000000000000e+02 9.960000000000000000e+02 9.970000000000000000e+02 9.980000000000000000e+02 9.990000000000000000e+02
1.000000000000000000e+00 1.000000000000000000e+00 1.000000000000000000e+00 1.000000000000000000e+00 1.000000000000000000e+00 1.000000000000000000e+00 1.000000000000000000e+00 1.000000000000000000e+00 1.000000000000000000e+00 1.000000000000000000e+00 1.000000000000000000e+00 1.000000000000000000e+00 1.000000000000000000e+00 1.000000000000000000e+00 1.000000000000000000e+00 1.000000000000000000e+00 1.000000000000000000e+00 1.000000000000000000e+00 1.000000000000000000e+00 1.000000000000000000e+00 1.000000000000000000e+00 1.000000000000000000e+00 1.000000000000000000e+00 1.000000000000000000e+00 1.000000000000000000e+00 1.000000000000000000e+00 1.000000000000000000e+00 1.000000000000000000e+00 1.000000000000000000e+00 1.000000000000000000e+00 1.000000000000000000e+00 1.000000000000000000e+00 1.000000000000000000e+00 1.000000000000000000e+00 1.000000000000000000e+00 1.000000000000000000e+00 1.000000000000000000e+00 1.000000000000000000e+00 1.000000000000000000e+00 1.000000000000000000e+00 1.000000000000000000e+00 1.000000000000000000e+00 1.000000000000000000e+00 1.000000000000000000e+00 1.000000000000000000e+00 1.000000000000000000e+00 1.000000000000000000e+00 1.000000000000000000e+00 1.000000000000000000e+00 1.000000000000000000e+00 1.000000000000000000e+00 1.000000000000000000e+00 1.000000000000000000e+00 1.000000000000000000e+00 1.000000000000000000e+00 1.000000000000000000e+00 1.000000000000000000e+00 1.000000000000000000e+00 1.000000000000000000e+00 1.000000000000000000e+00 1.000000000000000000e+00 1.000000000000000000e+00 1.000000000000000000e+00 1.000000000000000000e+00 1.000000000000000000e+00 1.000000000000000000e+00 1.000000000000000000e+00 1.000000000000000000e+00 1.000000000000000000e+00 1.000000000000000000e+00 1.000000000000000000e+00 1.000000000000000000e+00 1.000000000000000000e+00 1.000000000000000000e+00 1.000000000000000000e+00 1.000000000000000000e+00 1.000000000000000000e+00 1.000000000000000000e+00 1.000000000000000000e+00 1.000000000000000000e+00 1.000000000000000000e+00 1.000000000000000000e+00 1.000000000000000000e+00 1.000000000000000000e+00 1.000000000000000000e+00 1.000000000000000000e+00 1.000000000000000000e+00 1.000000000000000000e+00 1.000000000000000000e+00 1.000000000000000000e+00 1.000000000000000000e+00 1.000000000000000000e+00 1.000000000000000000e+00 1.000000000000000000e+00 1.000000000000000000e+00 1.000000000000000000e+00 1.000000000000000000e+00 1.000000000000000000e+00 1.000000000000000000e+00 1.000000000000000000e+00 1.000000000000000000e+00 1.000000000000000000e+00 1.000000000000000000e+00 1.000000000000000000e+00 1.000000000000000000e+00 1.000000000000000000e+00 1.000000000000000000e+00 1.000000000000000000e+00 1.000000000000000000e+00 1.000000000000000000e+00 1.000000000000000000e+00 1.000000000000000000e+00 1.000000000000000000e+00 1.000000000000000000e+00 1.000000000000000000e+00 1.000000000000000000e+00 1.000000000000000000e+00 1.000000000000000000e+00 1.000000000000000000e+00 1.000000000000000000e+00 1.000000000000000000e+00 1.000000000000000000e+00 1.000000000000000000e+00 1.000000000000000000e+00 1.000000000000000000e+00 1.000000000000000000e+00 1.000000000000000000e+00 1.000000000000000000e+00 1.000000000000000000e+00 1.000000000000000000e+00 1.000000000000000000e+00 1.000000000000000000e+00 1.000000000000000000e+00 1.000000000000000000e+00 1.000000000000000000e+00 1.000000000000000000e+00 1.000000000000000000e+00 1.000000000000000000e+00 1.000000000000000000e+00 1.000000000000000000e+00 1.000000000000000000e+00 1.000000000000000000e+00 1.000000000000000000e+00 1.000000000000000000e+00 1.000000000000000000e+00 1.000000000000000000e+00 1.000000000000000000e+00 1.000000000000000000e+00 1.000000000000000000e+00 1.000000000000000000e+00 1.000000000000000000e+00 1.000000000000000000e+00 1.000000000000000000e+00 1.000000000000000000e+00 1.000000000000000000e+00 1.000000000000000000e+00 1.000000000000000000e+00 1.000000000000000000e+00 1.000000000000000000e+00 1.000000000000000000e+00 1.000000000000000000e+00 1.000000000000000000e+00 1.000000000000000000e+00 1.000000000000000000e+00 1.000000000000000000e+00 1.000000000000000000e+00 1.000000000000000000e+00 1.000000000000000000e+00 1.000000000000000000e+00 1.000000000000000000e+00 1.000000000000000000e+00 1.000000000000000000e+00 1.000000000000000000e+00 1.000000000000000000e+00 1.000000000000000000e+00 1.000000000000000000e+00 1.000000000000000000e+00 1.000000000000000000e+00 1.000000000000000000e+00 1.000000000000000000e+00 1.000000000000000000e+00 1.000000000000000000e+00 1.000000000000000000e+00 1.000000000000000000e+00 1.000000000000000000e+00 1.000000000000000000e+00 1.000000000000000000e+00 1.000000000000000000e+00 1.000000000000000000e+00 1.000000000000000000e+00 1.000000000000000000e+00 1.000000000000000000e+00 1.000000000000000000e+00 1.000000000000000000e+00 1.000000000000000000e+00 1.000000000000000000e+00 1.000000000000000000e+00 1.000000000000000000e+00 1.000000000000000000e+00 1.000000000000000000e+00 1.000000000000000000e+00 1.000000000000000000e+00 1.000000000000000000e+00 1.000000000000000000e+00 1.000000000000000000e+00 1.000000000000000000e+00 1.000000000000000000e+00 1.000000000000000000e+00 1.000000000000000000e+00 1.000000000000000000e+00 1.000000000000000000e+00 1.000000000000000000e+00 1.000000000000000000e+00 1.000000000000000000e+00 1.000000000000000000e+00 1.000000000000000000e+00 1.000000000000000000e+00 1.000000000000000000e+00 1.000000000000000000e+00 1.000000000000000000e+00 1.000000000000000000e+00 1.000000000000000000e+00 1.000000000000000000e+00 1.000000000000000000e+00 1.000000000000000000e+00 1.000000000000000000e+00 1.000000000000000000e+00 1.000000000000000000e+00 1.000000000000000000e+00 1.000000000000000000e+00 1.000000000000000000e+00 1.000000000000000000e+00 1.000000000000000000e+00 1.000000000000000000e+00 1.000000000000000000e+00 1.000000000000000000e+00 1.000000000000000000e+00 1.000000000000000000e+00 1.000000000000000000e+00 1.000000000000000000e+00 1.000000000000000000e+00 1.000000000000000000e+00 1.000000000000000000e+00 1.000000000000000000e+00 1.000000000000000000e+00 1.000000000000000000e+00 1.000000000000000000e+00 1.000000000000000000e+00 1.000000000000000000e+00 1.000000000000000000e+00 1.000000000000000000e+00 1.000000000000000000e+00 1.000000000000000000e+00 1.000000000000000000e+00 1.000000000000000000e+00 1.000000000000000000e+00 1.000000000000000000e+00 1.000000000000000000e+00 1.000000000000000000e+00 1.000000000000000000e+00 1.000000000000000000e+00 1.000000000000000000e+00 1.000000000000000000e+00 1.000000000000000000e+00 1.000000000000000000e+00 1.000000000000000000e+00 1.000000000000000000e+00 1.000000000000000000e+00 1.000000000000000000e+00 1.000000000000000000e+00 1.000000000000000000e+00 1.000000000000000000e+00 1.000000000000000000e+00 1.000000000000000000e+00 1.000000000000000000e+00 1.000000000000000000e+00 1.000000000000000000e+00 1.000000000000000000e+00 1.000000000000000000e+00 1.000000000000000000e+00 1.000000000000000000e+00 1.000000000000000000e+00 1.000000000000000000e+00 1.000000000000000000e+00 1.000000000000000000e+00 1.000000000000000000e+00 1.000000000000000000e+00 1.000000000000000000e+00 1.000000000000000000e+00 1.000000000000000000e+00 1.000000000000000000e+00 1.000000000000000000e+00 1.000000000000000000e+00 1.000000000000000000e+00 1.000000000000000000e+00 1.000000000000000000e+00 1.000000000000000000e+00 1.000000000000000000e+00 1.000000000000000000e+00 1.000000000000000000e+00 1.000000000000000000e+00 1.000000000000000000e+00 1.000000000000000000e+00 1.000000000000000000e+00 1.000000000000000000e+00 1.000000000000000000e+00 1.000000000000000000e+00 1.000000000000000000e+00 1.000000000000000000e+00 1.000000000000000000e+00 1.000000000000000000e+00 1.000000000000000000e+00 1.000000000000000000e+00 1.000000000000000000e+00 1.000000000000000000e+00 1.000000000000000000e+00 1.000000000000000000e+00 1.000000000000000000e+00 1.000000000000000000e+00 1.000000000000000000e+00 1.000000000000000000e+00 1.000000000000000000e+00 1.000000000000000000e+00 1.000000000000000000e+00 1.000000000000000000e+00 1.000000000000000000e+00 1.000000000000000000e+00 1.000000000000000000e+00 1.000000000000000000e+00 1.000000000000000000e+00 1.000000000000000000e+00 1.000000000000000000e+00 1.000000000000000000e+00 1.000000000000000000e+00 1.000000000000000000e+00 1.000000000000000000e+00 1.000000000000000000e+00 1.000000000000000000e+00 1.000000000000000000e+00 1.000000000000000000e+00 1.000000000000000000e+00 1.000000000000000000e+00 1.000000000000000000e+00 1.000000000000000000e+00 1.000000000000000000e+00 1.000000000000000000e+00 1.000000000000000000e+00 1.000000000000000000e+00 1.000000000000000000e+00 1.000000000000000000e+00 1.000000000000000000e+00 1.000000000000000000e+00 1.000000000000000000e+00 1.000000000000000000e+00 1.000000000000000000e+00 1.000000000000000000e+00 1.000000000000000000e+00 1.000000000000000000e+00 1.000000000000000000e+00 1.000000000000000000e+00 1.000000000000000000e+00 1.000000000000000000e+00 1.000000000000000000e+00 1.000000000000000000e+00 1.000000000000000000e+00 1.000000000000000000e+00 1.000000000000000000e+00 1.000000000000000000e+00 1.000000000000000000e+00 1.000000000000000000e+00 1.000000000000000000e+00 1.000000000000000000e+00 1.000000000000000000e+00 1.000000000000000000e+00 1.000000000000000000e+00 1.000000000000000000e+00 1.000000000000000000e+00 1.000000000000000000e+00 1.000000000000000000e+00 1.000000000000000000e+00 1.000000000000000000e+00 1.000000000000000000e+00 1.000000000000000000e+00 1.000000000000000000e+00 1.000000000000000000e+00 1.000000000000000000e+00 1.000000000000000000e+00 1.000000000000000000e+00 1.000000000000000000e+00 1.000000000000000000e+00 1.000000000000000000e+00 1.000000000000000000e+00 1.000000000000000000e+00 1.000000000000000000e+00 1.000000000000000000e+00 1.000000000000000000e+00 1.000000000000000000e+00 1.000000000000000000e+00 1.000000000000000000e+00 1.000000000000000000e+00 1.000000000000000000e+00 1.000000000000000000e+00 1.000000000000000000e+00 1.000000000000000000e+00 1.000000000000000000e+00 1.000000000000000000e+00 1.000000000000000000e+00 1.000000000000000000e+00 1.000000000000000000e+00 1.000000000000000000e+00 1.000000000000000000e+00 1.000000000000000000e+00 1.000000000000000000e+00 1.000000000000000000e+00 1.000000000000000000e+00 1.000000000000000000e+00 1.000000000000000000e+00 1.000000000000000000e+00 1.000000000000000000e+00 1.000000000000000000e+00 1.000000000000000000e+00 1.000000000000000000e+00 1.000000000000000000e+00 1.000000000000000000e+00 1.000000000000000000e+00 1.000000000000000000e+00 1.000000000000000000e+00 1.000000000000000000e+00 1.000000000000000000e+00 1.000000000000000000e+00 1.000000000000000000e+00 1.000000000000000000e+00 1.000000000000000000e+00 1.000000000000000000e+00 1.000000000000000000e+00 1.000000000000000000e+00 1.000000000000000000e+00 1.000000000000000000e+00 1.000000000000000000e+00 1.000000000000000000e+00 1.000000000000000000e+00 1.000000000000000000e+00 1.000000000000000000e+00 1.000000000000000000e+00 1.000000000000000000e+00 1.000000000000000000e+00 1.000000000000000000e+00 1.000000000000000000e+00 1.000000000000000000e+00 1.000000000000000000e+00 1.000000000000000000e+00 1.000000000000000000e+00 1.000000000000000000e+00 1.000000000000000000e+00 1.000000000000000000e+00 1.000000000000000000e+00 1.000000000000000000e+00 1.000000000000000000e+00 1.000000000000000000e+00 1.000000000000000000e+00 1.000000000000000000e+00 1.000000000000000000e+00 1.000000000000000000e+00 1.000000000000000000e+00 1.000000000000000000e+00 1.000000000000000000e+00 1.000000000000000000e+00 1.000000000000000000e+00 1.000000000000000000e+00 1.000000000000000000e+00 1.000000000000000000e+00 1.000000000000000000e+00 1.000000000000000000e+00 1.000000000000000000e+00 1.000000000000000000e+00 1.000000000000000000e+00 1.000000000000000000e+00 1.000000000000000000e+00 1.000000000000000000e+00 1.000000000000000000e+00 1.000000000000000000e+00 1.000000000000000000e+00 1.000000000000000000e+00 1.000000000000000000e+00 1.000000000000000000e+00 1.000000000000000000e+00 1.000000000000000000e+00 1.000000000000000000e+00 1.000000000000000000e+00 1.000000000000000000e+00 1.000000000000000000e+00 1.000000000000000000e+00 1.000000000000000000e+00 1.000000000000000000e+00 1.000000000000000000e+00 1.000000000000000000e+00 1.000000000000000000e+00 1.000000000000000000e+00 1.000000000000000000e+00 1.000000000000000000e+00 1.000000000000000000e+00 1.000000000000000000e+00 1.000000000000000000e+00 1.000000000000000000e+00 1.000000000000000000e+00 1.000000000000000000e+00 1.000000000000000000e+00 1.000000000000000000e+00 1.000000000000000000e+00 1.000000000000000000e+00 1.000000000000000000e+00 1.000000000000000000e+00 1.000000000000000000e+00 1.000000000000000000e+00 1.000000000000000000e+00 1.000000000000000000e+00 1.000000000000000000e+00 1.000000000000000000e+00 1.000000000000000000e+00 1.000000000000000000e+00 1.000000000000000000e+00 1.000000000000000000e+00 1.000000000000000000e+00 1.000000000000000000e+00 1.000000000000000000e+00 1.000000000000000000e+00 1.000000000000000000e+00 1.000000000000000000e+00 1.000000000000000000e+00 1.000000000000000000e+00 1.000000000000000000e+00 1.000000000000000000e+00 1.000000000000000000e+00 1.000000000000000000e+00 1.000000000000000000e+00 1.000000000000000000e+00 1.000000000000000000e+00 1.000000000000000000e+00 1.000000000000000000e+00 1.000000000000000000e+00 1.000000000000000000e+00 1.000000000000000000e+00 1.000000000000000000e+00 1.000000000000000000e+00 1.000000000000000000e+00 1.000000000000000000e+00 1.000000000000000000e+00 1.000000000000000000e+00 1.000000000000000000e+00 1.000000000000000000e+00 1.000000000000000000e+00 1.000000000000000000e+00 1.000000000000000000e+00 1.000000000000000000e+00 1.000000000000000000e+00 1.000000000000000000e+00 1.000000000000000000e+00 1.000000000000000000e+00 1.000000000000000000e+00 1.000000000000000000e+00 1.000000000000000000e+00 1.000000000000000000e+00 1.000000000000000000e+00 1.000000000000000000e+00 1.000000000000000000e+00 1.000000000000000000e+00 1.000000000000000000e+00 1.000000000000000000e+00 1.000000000000000000e+00 1.000000000000000000e+00 1.000000000000000000e+00 1.000000000000000000e+00 1.000000000000000000e+00 1.000000000000000000e+00 1.000000000000000000e+00 1.000000000000000000e+00 1.000000000000000000e+00 1.000000000000000000e+00 1.000000000000000000e+00 1.000000000000000000e+00 1.000000000000000000e+00 1.000000000000000000e+00 1.000000000000000000e+00 1.000000000000000000e+00 1.000000000000000000e+00 1.000000000000000000e+00 1.000000000000000000e+00 1.000000000000000000e+00 1.000000000000000000e+00 1.000000000000000000e+00 1.000000000000000000e+00 1.000000000000000000e+00 1.000000000000000000e+00 1.000000000000000000e+00 1.000000000000000000e+00 1.000000000000000000e+00 1.000000000000000000e+00 1.000000000000000000e+00 1.000000000000000000e+00 1.000000000000000000e+00 1.000000000000000000e+00 1.000000000000000000e+00 1.000000000000000000e+00 1.000000000000000000e+00 1.000000000000000000e+00 1.000000000000000000e+00 1.000000000000000000e+00 1.000000000000000000e+00 1.000000000000000000e+00 1.000000000000000000e+00 1.000000000000000000e+00 1.000000000000000000e+00 1.000000000000000000e+00 1.000000000000000000e+00 1.000000000000000000e+00 1.000000000000000000e+00 1.000000000000000000e+00 1.000000000000000000e+00 1.000000000000000000e+00 1.000000000000000000e+00 1.000000000000000000e+00 1.000000000000000000e+00 1.000000000000000000e+00 1.000000000000000000e+00 1.000000000000000000e+00 1.000000000000000000e+00 1.000000000000000000e+00 1.000000000000000000e+00 1.000000000000000000e+00 1.000000000000000000e+00 1.000000000000000000e+00 1.000000000000000000e+00 1.000000000000000000e+00 1.000000000000000000e+00 1.000000000000000000e+00 1.000000000000000000e+00 1.000000000000000000e+00 1.000000000000000000e+00 1.000000000000000000e+00 1.000000000000000000e+00 1.000000000000000000e+00 1.000000000000000000e+00 1.000000000000000000e+00 1.000000000000000000e+00 1.000000000000000000e+00 1.000000000000000000e+00 1.000000000000000000e+00 1.000000000000000000e+00 1.000000000000000000e+00 1.000000000000000000e+00 1.000000000000000000e+00 1.000000000000000000e+00 1.000000000000000000e+00 1.000000000000000000e+00 1.000000000000000000e+00 1.000000000000000000e+00 1.000000000000000000e+00 1.000000000000000000e+00 1.000000000000000000e+00 1.000000000000000000e+00 1.000000000000000000e+00 1.000000000000000000e+00 1.000000000000000000e+00 1.000000000000000000e+00 1.000000000000000000e+00 1.000000000000000000e+00 1.000000000000000000e+00 1.000000000000000000e+00 1.000000000000000000e+00 1.000000000000000000e+00 1.000000000000000000e+00 1.000000000000000000e+00 1.000000000000000000e+00 1.000000000000000000e+00 1.000000000000000000e+00 1.000000000000000000e+00 1.000000000000000000e+00 1.000000000000000000e+00 1.000000000000000000e+00 1.000000000000000000e+00 1.000000000000000000e+00 1.000000000000000000e+00 1.000000000000000000e+00 1.000000000000000000e+00 1.000000000000000000e+00 1.000000000000000000e+00 1.000000000000000000e+00 1.000000000000000000e+00 1.000000000000000000e+00 1.000000000000000000e+00 1.000000000000000000e+00 1.000000000000000000e+00 1.000000000000000000e+00 1.000000000000000000e+00 1.000000000000000000e+00 1.000000000000000000e+00 1.000000000000000000e+00 1.000000000000000000e+00 1.000000000000000000e+00 1.000000000000000000e+00 1.000000000000000000e+00 1.000000000000000000e+00 1.000000000000000000e+00 1.000000000000000000e+00 1.000000000000000000e+00 1.000000000000000000e+00 1.000000000000000000e+00 1.000000000000000000e+00 1.000000000000000000e+00 1.000000000000000000e+00 1.000000000000000000e+00 1.000000000000000000e+00 1.000000000000000000e+00 1.000000000000000000e+00 1.000000000000000000e+00 1.000000000000000000e+00 1.000000000000000000e+00 1.000000000000000000e+00 1.000000000000000000e+00 1.000000000000000000e+00 1.000000000000000000e+00 1.000000000000000000e+00 1.000000000000000000e+00 1.000000000000000000e+00 1.000000000000000000e+00 1.000000000000000000e+00 1.000000000000000000e+00 1.000000000000000000e+00 1.000000000000000000e+00 1.000000000000000000e+00 1.000000000000000000e+00 1.000000000000000000e+00 1.000000000000000000e+00 1.000000000000000000e+00 1.000000000000000000e+00 1.000000000000000000e+00 1.000000000000000000e+00 1.000000000000000000e+00 1.000000000000000000e+00 1.000000000000000000e+00 1.000000000000000000e+00 1.000000000000000000e+00 1.000000000000000000e+00 1.000000000000000000e+00 1.000000000000000000e+00 1.000000000000000000e+00 1.000000000000000000e+00 1.000000000000000000e+00 1.000000000000000000e+00 1.000000000000000000e+00 1.000000000000000000e+00 1.000000000000000000e+00 1.000000000000000000e+00 1.000000000000000000e+00 1.000000000000000000e+00 1.000000000000000000e+00 1.000000000000000000e+00 1.000000000000000000e+00 1.000000000000000000e+00 1.000000000000000000e+00 1.000000000000000000e+00 1.000000000000000000e+00 1.000000000000000000e+00 1.000000000000000000e+00 1.000000000000000000e+00 1.000000000000000000e+00 1.000000000000000000e+00 1.000000000000000000e+00 1.000000000000000000e+00 1.000000000000000000e+00 1.000000000000000000e+00 1.000000000000000000e+00 1.000000000000000000e+00 1.000000000000000000e+00 1.000000000000000000e+00 1.000000000000000000e+00 1.000000000000000000e+00 1.000000000000000000e+00 1.000000000000000000e+00 1.000000000000000000e+00 1.000000000000000000e+00 1.000000000000000000e+00 1.000000000000000000e+00 1.000000000000000000e+00 1.000000000000000000e+00 1.000000000000000000e+00 1.000000000000000000e+00 1.000000000000000000e+00 1.000000000000000000e+00 1.000000000000000000e+00 1.000000000000000000e+00 1.000000000000000000e+00 1.000000000000000000e+00 1.000000000000000000e+00 1.000000000000000000e+00 1.000000000000000000e+00 1.000000000000000000e+00 1.000000000000000000e+00 1.000000000000000000e+00 1.000000000000000000e+00 1.000000000000000000e+00 1.000000000000000000e+00 1.000000000000000000e+00 1.000000000000000000e+00 1.000000000000000000e+00 1.000000000000000000e+00 1.000000000000000000e+00 1.000000000000000000e+00 1.000000000000000000e+00 1.000000000000000000e+00 1.000000000000000000e+00 1.000000000000000000e+00 1.000000000000000000e+00 1.000000000000000000e+00 1.000000000000000000e+00 1.000000000000000000e+00 1.000000000000000000e+00 1.000000000000000000e+00 1.000000000000000000e+00 1.000000000000000000e+00 1.000000000000000000e+00 1.000000000000000000e+00 1.000000000000000000e+00 1.000000000000000000e+00 1.000000000000000000e+00 1.000000000000000000e+00 1.000000000000000000e+00 1.000000000000000000e+00 1.000000000000000000e+00 1.000000000000000000e+00 1.000000000000000000e+00 1.000000000000000000e+00 1.000000000000000000e+00 1.000000000000000000e+00 1.000000000000000000e+00 1.000000000000000000e+00 1.000000000000000000e+00 1.000000000000000000e+00 1.000000000000000000e+00 1.000000000000000000e+00 1.000000000000000000e+00 1.000000000000000000e+00 1.000000000000000000e+00 1.000000000000000000e+00 1.000000000000000000e+00 1.000000000000000000e+00 1.000000000000000000e+00 1.000000000000000000e+00 1.000000000000000000e+00 1.000000000000000000e+00 1.000000000000000000e+00 1.000000000000000000e+00 1.000000000000000000e+00 1.000000000000000000e+00 1.000000000000000000e+00 1.000000000000000000e+00 1.000000000000000000e+00 1.000000000000000000e+00 1.000000000000000000e+00 1.000000000000000000e+00 1.000000000000000000e+00 1.000000000000000000e+00 1.000000000000000000e+00 1.000000000000000000e+00 1.000000000000000000e+00 1.000000000000000000e+00 1.000000000000000000e+00 1.000000000000000000e+00 1.000000000000000000e+00 1.000000000000000000e+00 1.000000000000000000e+00 1.000000000000000000e+00 1.000000000000000000e+00 1.000000000000000000e+00 1.000000000000000000e+00 1.000000000000000000e+00 1.000000000000000000e+00 1.000000000000000000e+00 1.000000000000000000e+00 1.000000000000000000e+00 1.000000000000000000e+00 1.000000000000000000e+00 1.000000000000000000e+00 1.000000000000000000e+00 1.000000000000000000e+00 1.000000000000000000e+00 1.000000000000000000e+00 1.000000000000000000e+00 1.000000000000000000e+00 1.000000000000000000e+00 1.000000000000000000e+00 1.000000000000000000e+00 1.000000000000000000e+00 1.000000000000000000e+00 1.000000000000000000e+00 1.000000000000000000e+00 1.000000000000000000e+00 1.000000000000000000e+00 1.000000000000000000e+00 1.000000000000000000e+00 1.000000000000000000e+00 1.000000000000000000e+00 1.000000000000000000e+00 1.000000000000000000e+00 1.000000000000000000e+00 1.000000000000000000e+00 1.000000000000000000e+00 1.000000000000000000e+00 1.000000000000000000e+00 1.000000000000000000e+00 1.000000000000000000e+00 1.000000000000000000e+00 1.000000000000000000e+00 1.000000000000000000e+00 1.000000000000000000e+00 1.000000000000000000e+00 1.000000000000000000e+00 1.000000000000000000e+00 1.000000000000000000e+00 1.000000000000000000e+00 1.000000000000000000e+00 1.000000000000000000e+00 1.000000000000000000e+00 1.000000000000000000e+00 1.000000000000000000e+00 1.000000000000000000e+00 1.000000000000000000e+00 1.000000000000000000e+00 1.000000000000000000e+00 1.000000000000000000e+00 1.000000000000000000e+00 1.000000000000000000e+00 1.000000000000000000e+00 1.000000000000000000e+00 1.000000000000000000e+00 1.000000000000000000e+00 1.000000000000000000e+00 1.000000000000000000e+00 1.000000000000000000e+00 1.000000000000000000e+00 1.000000000000000000e+00 1.000000000000000000e+00 1.000000000000000000e+00 1.000000000000000000e+00 1.000000000000000000e+00 1.000000000000000000e+00 1.000000000000000000e+00 1.000000000000000000e+00 1.000000000000000000e+00 1.000000000000000000e+00 1.000000000000000000e+00 1.000000000000000000e+00 1.000000000000000000e+00 1.000000000000000000e+00 1.000000000000000000e+00 1.000000000000000000e+00 1.000000000000000000e+00 1.000000000000000000e+00 1.000000000000000000e+00 1.000000000000000000e+00 1.000000000000000000e+00 1.000000000000000000e+00 1.000000000000000000e+00 1.000000000000000000e+00 1.000000000000000000e+00 1.000000000000000000e+00 1.000000000000000000e+00 1.000000000000000000e+00 1.000000000000000000e+00 1.000000000000000000e+00 1.000000000000000000e+00 1.000000000000000000e+00 1.000000000000000000e+00 1.000000000000000000e+00 1.000000000000000000e+00 1.000000000000000000e+00 1.000000000000000000e+00 1.000000000000000000e+00 1.000000000000000000e+00 1.000000000000000000e+00 1.000000000000000000e+00 1.000000000000000000e+00 1.000000000000000000e+00 1.000000000000000000e+00 1.000000000000000000e+00 1.000000000000000000e+00 1.000000000000000000e+00 1.000000000000000000e+00 1.000000000000000000e+00 1.000000000000000000e+00 1.000000000000000000e+00 1.000000000000000000e+00 1.000000000000000000e+00 1.000000000000000000e+00 1.000000000000000000e+00 1.000000000000000000e+00 1.000000000000000000e+00 1.000000000000000000e+00 1.000000000000000000e+00 1.000000000000000000e+00
6.219959550497024953e-02 5.438074941049673150e-01 -3.047394855854606566e-01 7.849113482429189714e-01 5.205723324750837211e-01 5.704964846967178760e-01 5.559923163475652963e-01 4.445010712758703519e-01 5.661726516925591479e-01 5.159086155786909433e-01 1.088961410606276381e+00 -7.464635098967715710e-01 1.431108020685464277e+00 4.724238487520918683e-01 5.198242142122411202e-01 4.335040263247265657e-01 8.175907461076785676e-01 9.793404929590610042e-01 7.527546835877060305e-01 4.991325117449943449e-01 3.758670018348675979e-01 9.988924316965992478e-01 3.501491121377148796e-01 5.766606043955295746e-01 5.982994148014558755e-02 6.574431418454057541e-01 4.399198490480231705e-01 7.221690796058898298e-01 5.232883575329924097e-01 1.655612870262745062e+00 4.867832852772501218e-01 5.991694585144968777e-01 7.184810729106173577e-01 5.092864645157858527e-01 6.842747389283803106e-01 4.669820881112242694e-01 5.900774787642223407e-01 1.889003048291553188e+00 -1.028598439412534149e-01 5.149776787539780409e-01 -2.433386580980125835e-01 -5.620850984060319355e-01 7.447456485839358820e-01 2.329965453675140741e-01 3.440539623202385489e-01 4.988855121197400821e-01 7.850562999845134282e-01 5.557043285336198402e-01 6.937652275876109442e-01 1.037542013588956327e-02 4.455207420470318896e-02 7.324047600469619779e-01 6.851572646788991472e-01 4.139370541368428968e-01 4.702582465293101421e-01 2.631666299064317968e-02 5.777912349651194157e-01 5.140163566134463569e-01 2.041907525564899684e-01 5.220240753237253006e-01 9.336655395438659966e-01 4.385273939019228018e-01 5.074497705748504117e-01 3.501491851394707422e-01 6.729209070065346188e-01 6.782450418483315646e-01 5.189846100949851992e-01 4.912430737131838199e-01 5.304153106313306276e-01 5.611639217959792786e-02 4.906994329862697790e-01 5.843069375468262772e-01 5.367641464508187132e-01 2.153542614998705737e-02 1.535784500485250170e+00 5.171839684093403333e-01 6.402934940697545541e-01 7.093240800808172652e-01 5.224055683197300626e-01 1.391077121780437853e+00 5.321779089440024091e-01 3.779207846777823954e-01 1.468850396031361027e+00 7.778492610271861007e-01 5.292016001388546442e-01 7.487611662754342090e-01 7.951746731930022793e-01 5.048506167234556585e-01 4.307849013555307693e-01 5.769874212107012346e-01 3.463509527356430362e-01 2.261416212359390165e+00 7.961512895317518490e-01 7.883152714924535065e-02 4.932739636738677769e-01 5.393401718559663882e-01 5.473153348619664849e-01 4.874899714870786216e-01 1.907295117209844848e-01 6.596157138017991750e-01 1.661200804444258994e+00 6.859288707920621064e-01 5.060912289557409904e-01 5.171011603977385684e-01 8.500191871695529366e-01 -2.181433469607366060e+00 -1.265757973947238657e+00 4.968339626183493341e-01 6.338062751199287082e-01 9.660175954416431177e-01 5.798851066763301976e-01 4.160291847713823432e-01 1.946923178123980414e-01 5.220968855803382880e-01 5.309813963216016841e-01 5.214615765548011872e-01 4.474750845898195495e-01 4.777365870627701683e-01 1.032583484691979248e+00 5.154172024812763153e-01 1.325465299564924093e+00 5.312499762656657243e-01 6.597303352342781535e-01 -5.952340255267210001e-01 5.303173782839856187e-01 1.992970796252220955e+00 4.630641593149666391e-01 5.005035874144447838e-01 6.642346086576029762e-01 5.219372366552065268e-01 5.912476934517809646e-01 5.240247002659783604e-01 4.466595555454910826e-01 5.636616129861515834e-01 -4.227711627635132863e-01 -1.719659336976896435e-01 6.875872845447191795e-01 4.177792671444653660e-02 1.016099907528557056e+00 5.025969143398714145e-01 5.434835677835704315e-01 8.796581077363467838e-01 4.419724932456765010e-01 4.678957661564725479e-01 5.198844846978301071e-01 2.203684630203337283e-02 9.996518584401014040e-01 -2.294512006919848246e-01 4.146760227136525589e-01 -9.435338998381554987e-01 7.427190279233804038e-01 -2.781919004503738968e-01 4.988682848778383527e-01 4.926789944980816127e-01 5.946356064128960339e-01 5.176587561545024085e-01 2.083660816656143666e+00 -1.950782343363808846e-01 8.333507644258667524e-01 6.459880410349577717e-01 5.708318377069715455e-01 4.920636735074891965e-01 5.067714247226930979e-01 5.206315384759303555e-01 1.059356736091765505e+00 2.826990270295127727e-01 8.516626005038987479e-01 2.838556135068242003e-01 3.664952730551820914e-01 5.993727909645136798e-01 6.504581540434287712e-01 7.859644137202125291e-01 4.989397251350956575e-01 5.222584766145669244e-01 4.018937071544823603e-01 4.196114997136832919e-02 2.372439786951705265e-01 1.205500775807040320e-01 7.621577982015436126e-01 1.144749284092569486e+00 6.475510473085026586e-01 5.209891224908167473e-01 -1.609353284994030076e-01 4.584074107583318014e-01 3.975760670734571622e-01 4.912557229219684518e-01 5.356285524230155470e-01 5.350019610102021428e-01 2.907146910899246706e+00 4.757531276613252147e-01 5.792543916448149588e-01 -9.411063159090841124e-01 5.185534064159196266e-01 4.903945852761267266e-01 2.080288285280821048e-01 5.258221622546298546e-01 9.514191322697885811e-01 5.475662775571190632e-01 3.736752627188161258e-01 5.692674757744496938e-01 6.333740483510773567e-01 5.460316546023114004e-01 8.093992180976044004e-01 6.027202925794057364e-01 5.432025986936770412e-01 3.736752470974342710e-01 1.734190619535530553e-01 1.307827109411217048e+00 5.276407036693409047e-01 5.366337658021393953e-01 4.185780559875836304e-01 -1.010454404379701188e-01 5.062696407706748225e-01 1.536959407901354324e-01 5.118981837634508647e-01 5.168275798395198795e-01 5.177061279575262409e-01 5.258137637458032421e-01 5.304192689961081397e-01 5.217974329588134230e-01 4.478097887376428221e-01 5.411366618466059153e-01 -7.286908230700509526e-01 6.329804452603030596e-01 5.178921760380051920e-01 3.414729345610031386e-01 -2.902210067292276818e-02 1.357467062166790361e+00 9.791445130257785401e-01 4.872752251817235036e-01 -1.012447321894372337e-01 1.073486887212639518e+00 5.193900545571978888e-01 5.002115498004686689e-01 6.772020090850656704e-01 4.039377231129305801e-01 2.204918161934643350e-01 1.549611849690563092e-01 -1.712135388179081286e-01 -4.688139126403128437e-02 5.795918545099190133e-01 5.357600602700801629e-01 -1.261711519206945575e-01 4.579198829531607728e-01 5.166816436433974147e-01 5.434220847158837131e-01 -8.940862793842675738e-02 7.673722609866292510e-01 -2.424074244818189339e+00 6.130119174117820702e-01 -7.030787319602312957e-01 5.021994215888001545e-01 5.165747681293458848e-01 3.501473299453779497e-01 5.077971086786643440e-01 5.125750138312090698e-01 4.949417266079806921e-01 7.989085557895766465e-01 5.790114509705039936e-01 1.707156214478198430e+00 6.850627167678760010e-01 6.687347845326314655e-01 4.492215671216191475e-01 4.374723513380295303e-01 9.336655330867669189e-01 5.221963046289734844e-01 2.777664806396470620e+00 4.382459372609123771e-01 2.140531519824855622e-01 7.846109501304721068e-01 5.250220412326189745e-01 9.340303822293685165e-01 5.213097626965788045e-01 5.717488284749153715e-01 5.212188363941437919e-01 1.177626083079191810e+00 7.610598794293115255e-01 8.531886859705746229e-01 7.925622270980048345e-01 5.906935309984742144e-01 6.882508439928948230e-01 5.086232763934660506e-01 3.673673709242306629e-01 -7.622110917103217531e-01 3.937620771793620134e-01 3.904576213273377450e-01 5.000353697553832077e-01 5.092896705169071003e-01 5.214615164561565708e-01 6.145698343063462632e-01 5.066301033418112443e-01 -9.685313956853058848e-01 7.809882254306875771e-01 4.814854719410265327e-01 -1.779057071448109095e-02 4.516293906802504865e-01 1.864921416185200798e+00 5.087980123758439888e-01 5.232658493306207026e-01 4.146640557018771434e-01 -3.554856589118948751e+00 5.147226109286697771e-01 3.015183962691937225e+00 7.851860074530017108e-01 5.525392633109018625e-01 -5.661163363125993886e-01 5.168106291348039116e-01 5.195966006403537341e-01 4.625247615199664653e-01 4.499991730582130200e-01 3.272363421257395988e-01 6.557444066129336502e-01 3.135980021774247284e-01 5.271855452848296375e-01 5.240068552405596769e-01 3.663481672084711316e-01 5.198669189074334174e-01 7.848164763613371120e-01 5.203408933139328507e-01 1.221485816812282854e+00 5.629237410123261176e-02 2.252048286756619166e+00 2.709571124635449468e+00 4.756188534026626891e-01 -2.478395870499734144e-01 3.842845235810986582e-01 3.997316711658260302e-01 7.472562984375877848e-01 1.408978034983167538e+00 5.290713624442744401e-01 1.141259995668354899e+00 5.189920857128698106e-01 1.174617721470102294e-01 1.265233866537153640e+00 6.038016137140217454e-01 5.743182387491460039e-01 5.406198717464680836e-01 9.102596328062725339e-01 -3.914906567130373549e+00 1.674775245650308886e+00 5.362772801536797029e-01 6.339077791453453514e-01 5.322210399493613187e-01 1.889003041755808798e+00 2.916597577101564531e-01 5.695298480290286181e-01 4.576173601355401077e-01 6.555534499847321950e-01 1.366006938663862469e+00 5.011291454703900028e-01 3.736748949688495913e-01 4.579239271080973728e-01 6.027202932910292743e-01 3.718858443482174758e-01 5.695372499549022915e-01 9.065150680085211077e-01 5.195544769249295092e-01 3.814140807925293086e-01 1.280872889861101871e-01 6.464642003634279988e-01 5.167029921990207164e-01 2.524201165629436638e-01 5.695298895051140731e-01 6.010857151889035244e-01 5.235704356492317801e-01 1.058022469708184587e+00 9.111151916023783048e-01 1.171983321462633398e+00 5.288075755202972239e-01 2.098989044216824362e-01 9.336651485932356831e-01 -1.101837721413880949e-01 9.342575331508616854e-01 6.308251479302408038e-01 5.348449629065079453e-02 4.002715862158452986e-01 8.568171822482241184e-01 3.826389563597881738e-01 4.680540564030462591e-01 3.398943818135557460e-01 -3.442329935188659928e-01 -2.560151592523253417e+00 5.654905349848633467e-01 6.027202842247380010e-01 6.027202407937581885e-01 5.252830647998012470e-01 3.415002200094984230e-01 -2.482597000121236630e-01 2.710814242549808850e-01 5.141986115313460504e-01 7.067244931324613288e-01 5.220830545959727065e-01 1.010075686088197866e+00 3.736754950996418190e-01 5.221484974094691145e-01 5.054957095326940708e-01 3.068142604330892365e-01 6.641299252398733532e-01 5.239782128478381873e-01 5.254422866283596782e-01 4.847786785387411812e-01 3.339461966794001757e-01 2.650241041978675452e-02 6.027202915831314511e-01 6.634573358938823384e-01 5.194408221669554182e-01 3.878390882670609274e-01 8.603044871728974252e-01 7.751024323767721214e-01 5.651050843884418695e-01 1.953773208162995045e+00 4.795254007229796112e-01 -3.264449230899902243e+00 7.852940260140716111e-01 1.559657000954099981e+00 5.786215759505460854e-01 -1.137121736070735745e+00 8.766460223736194379e-01 4.329116293548654348e-01 5.370609663459353644e-01 5.305753365900646168e-01 -4.875641099743650564e-01 5.081843814215225574e-01 1.082513261391841342e+00 4.456171967546020962e-01 -4.321493360249494819e-01 5.118665301088632935e-01 5.276582781082512774e-01 7.969751608268217380e-01 5.368177680214401004e-01 6.228924421411671242e-01 -5.596428870154863677e-01 5.603533749206830450e-01 5.200682528055932119e-01 4.750545998437936679e-01 5.057053856664693869e-01 7.724044341088720511e-01 5.207538694080463548e-01 6.329239551624674665e-01 3.634827274426281618e-01 5.354589321033237370e-01 2.137864441269058946e-01 3.538425324693242335e-01 3.850102443512980477e-01 9.793995221316752486e-01 5.623425443208950325e-01 3.291995321743766301e+00 6.535299632420294991e-01 6.729120966087570599e-01 5.400496265621828051e-01 5.101176295673600647e-01 9.527526494139610877e-03 4.989120064109007213e-01 5.545894695614567160e-01 5.390119863364658537e-01 1.152441839308595561e+00 7.726259770110776026e-01 5.229368022973441832e-01 4.346443964514398739e-01 1.120518590975072337e+00 5.316685187778327215e-01 5.408176216904994060e-01 5.180931204828083114e-01 8.810625377171016348e-01 5.218583683401295525e-01 9.542908403506656922e-01 4.746263372278407000e-01 5.216747327645382404e-01 5.438602400004418497e-02 5.158234620903268119e-01 2.500818382722183944e-02 2.698600875188915116e-01 3.957847333548675794e-01 5.607184350480458601e-01 7.943332986875935031e-01 5.218698647425688009e-01 3.818559075041672024e-01 1.500791078954719637e-01 5.052629928775471679e-01 4.968251997544562149e-01 4.418339182013293898e-01 -6.420660193655686014e-03 5.221875983764042717e-01 2.835653259447258323e-01 5.230699395183684430e-01 4.077280385092580950e-01 1.265768198131815625e+00 7.364137327607819250e-01 5.259451202305189810e-01 2.418847963684020996e-01 8.501532899940528187e-01 4.637076035899855286e-01 1.008387983371395569e+00 5.516086644010760320e-01 6.143338574482573033e-01 7.154165403136603096e-01 2.049916308956098554e+00 5.361432812832018779e-01 5.992129706796323063e-01 5.453454356009271864e-01 7.811682141791675971e-01 6.075418659529633336e-01 8.838991896067621701e-01 -5.922654425742793771e-01 4.496702673122520144e-01 5.234545026749847230e-01 4.483771273046838757e-01 5.088764519306564482e-01 -6.510759239250072383e-01 3.834309161398205545e-01 5.222767024579756390e-01 7.142512826983634655e-01 6.712837313115497251e-01 1.594927747341979618e+00 5.236210181913094619e-01 5.101837535989357519e-01 -7.487499382329886322e-01 5.327795979525589143e-01 1.260549744338089528e+00 7.337355997787926576e-01 3.035194649390242083e-01 2.202065581151342322e-01 -1.930455821359544410e+00 5.563029716711148653e-01 2.039350853451098733e-01 1.115535488432785938e+00 8.347331183719305381e-01 5.567838713959738506e-01 5.762338177017314322e-01 5.030157584592136466e-01 7.853768672160922337e-01 4.107313868683520330e-01 5.495074863731456150e-01 1.035309095112560418e-02 6.280592468591384980e-01 4.658512083878499910e-01 3.518716936206613966e-01 5.197374116696480417e-01 4.222492161283277201e-01 1.249526230424584217e+00 -9.251403359123329395e-02 -2.523302141902982187e-01 4.104927472482013395e-01 4.919040786170869040e-01 5.237871595759109322e-01 5.546070021153400864e-01 -9.058625935357894621e-01 3.255170866025610898e+00 4.356977296429389579e-01 4.352204998843973160e-01 4.711702051035920880e-01 5.166447386189917390e-01 5.011136995374236847e-01 4.470881447845310719e-01 3.314713643686836853e-01 6.244159730427407684e-01 5.210020217943605036e-01 4.456285097504081860e-01 3.000842903483627033e-01 4.126465289716299001e-01 5.466029352950849685e-01 4.047926360362746334e-01 5.749418917307165255e-01 5.054981838696310792e-01 6.931171747499913494e-01 1.033739775896154844e+00 2.366172902650845344e+00 4.739588717711931132e-01 5.032902614686326492e-01 3.020134988000134357e-01 4.781348922040262184e-01 4.041201523641480553e-01 5.191331341688613099e-01 5.220977522453366104e-01 4.802971240459539826e-01 5.916750398886589934e-01 5.855700009303126397e-01 7.849858402191718376e-01 3.649203055802217044e-01 3.806881332498164849e-01 3.825671477104593543e-01 4.626001533292665169e-01 9.909116968367628897e-02 9.336655403156681743e-01 4.502571187234739036e-01 7.120273841233637491e-02 1.915777633572350647e+00 3.465625632742306839e-01 4.003121731966934327e-01 6.010938411130337666e-01 6.788600582117751414e-02 5.527739694343635213e-01 1.547536738946694079e+00 8.155976578540559130e-01 6.575667924814238008e-01 5.229253488160138241e-01 5.072020839845894358e-01 4.089728906902961869e-01 5.993603420292584749e-01 5.342540357494581782e-01 5.240559600206370350e-01 -3.046873091175735238e-01 4.444512229202517428e-01 -1.681726485025962781e+00 5.488440425406571066e-01 5.337307347444625316e-01 5.347217659628017428e-01 4.146478744213729084e-01 9.336655403829011712e-01 2.329162718458870907e-01 4.962207906362119947e-01 1.392770509965432835e+00 -5.997006041553669675e-01 5.211920992718181989e-01 1.170614773345237669e+00 1.590371931758052471e+00 6.030734955118737251e-01 5.185746586020616444e-01 -7.311828847013039645e-02 -1.750584071208906023e+00 2.631635072328621372e-01 8.682246229925961734e-01 5.433832811368036753e-01 5.189336747204946754e-01 6.131477624752068589e-01 4.776647519652568175e-01 -4.401611606627425233e-01 8.471968441843249487e-01 5.214620393137803234e-01 3.231215599799525107e-01 5.123286773741273503e-01 9.762633109385686001e-03 -1.601749542754704325e-01 1.860486306134456980e+00 4.087869916169910023e-01 4.685578345758383279e-01 5.235139541809127328e-01 3.162672921502538426e-01 4.547435442383795379e-01 -1.795644959153210596e-01 -1.440875456018165135e+00 5.155710257415098141e-01 4.837172279964427335e-01 5.442995168794081406e-01 4.860127578131096526e-01 5.363386580250181224e-01 5.473918495437617437e-01 5.299518541366646796e-01 5.491782051997177172e-01 1.045373112113666680e+00 7.026267678394025884e-01 5.360634416492368048e-01 6.514159164273541913e-01 5.575638236299235162e-01 5.912105633382933600e-01 6.650137268771849630e-02 5.695298654340318345e-01 4.299862127677869794e-01 5.831173819579489326e-01 7.376235885273166870e-01 7.885408017926800461e-01 8.839196612355020299e-01 -5.719229415077459189e-01 5.363516563338476262e-01 5.148730629492176414e-01 5.229119032499197628e-01 5.991786169790975780e-01 9.184115089333202420e-01 4.461399665490603517e-01 5.229514132085135714e-01 -3.367515919494402654e-01 -9.226433996163926343e-01 2.377569627569341648e+00 5.289774960641714374e-01 9.115416057064913424e-01 4.304291411004453338e-01 5.841603479890826733e-01 4.138821571091077511e-01 1.540113138810217386e-01 5.234599044689803859e-01 5.054226259711122049e-01 9.122458159442565009e-03 5.162267309524660730e-01 4.743539657109104857e-01 5.239220565852511502e-01 4.149273416735779763e-01 5.293760204551720694e-01 6.531403199887032551e-01 4.413958467434851429e-01 5.070711758258968915e-01 5.572509105030225562e-01 5.222602372470773746e-01 4.210252225285414096e-01 5.177302856672100217e-01 -2.339012698094120601e-01 5.209805364759092505e-01 6.407393819224511677e-01 5.196213559127892401e-01 7.848684805686476640e-01 9.336657915315815792e-01 7.218655692736096752e-01 -6.293429544941447906e-01 9.732738356151250381e-01 1.889003048314135125e+00 5.190908817254057395e-01 4.637123884032710586e-01 1.095508758573432218e+00 5.427391290783936117e-01 7.846678626834643344e-01 5.257468570268505337e-01 1.917899362718599843e+00 5.199948340342928077e-01 4.579202059550863679e-01 1.238721496243548881e+00 -7.068050647276194476e-02 5.165633669397760031e-01 -1.485344454061205965e-01 -1.007168478926681487e+00 -1.603068923713465987e-01 7.801663965662941624e-01 5.413162347945742470e-01 5.371294004701251401e-01 -3.120908399691019741e-01 5.207555183733932891e-01 3.977289756506299095e-02 -4.340652709988245816e-01 5.552065796227408923e-01 5.096148492810795849e-01 5.202379514737082156e-01 5.021697010872807621e-01 4.689388580820086361e-01 9.249163085582858823e-01 -4.658019729632527639e-01 5.208772833200676633e-01 5.062314932045904881e-01 5.366929568484174462e-01 1.182826908206485950e+00 4.731894516990191590e-01 7.139812269038737780e-01 5.229855661052412730e-01 4.694066835646992786e-02 -4.868143403590888263e-01 4.969055714324263628e-01 4.780153028436553986e-01 6.863866890201500981e-01 5.252000743119782378e-01 3.977736736100452308e-01 5.187956349676886569e-01 5.201314610122352855e-01 4.412697191086316639e-01 5.445794428631988149e-01 8.423535899416343398e-01 2.625194431409830997e+00 -2.559646806551444387e-01 6.518670953371825671e-01 3.699077080841634002e-01 1.953482084675024766e-01 6.412034588759615295e-01 -5.243088392831561639e-02 -1.630883972149453243e+00 5.179871484429386941e-01 2.688640745503255935e+00 5.835374929770880126e-01 1.788692750649645002e-01 1.466273114641146458e-01 5.214615999000231650e-01 5.962870347323889764e-01 1.603028681600155991e+00 5.330261361382949703e-01 1.256442565476035278e-01 4.051394788832164973e-01 1.768928828528251396e+00 5.720358820207879225e-01 8.121549835623834701e-01 5.141231842802036489e-01 7.375160285021833406e-01 4.699746993149197527e-01 5.873487740902983978e-01 3.204240289021791088e-02 5.191984268952475334e-01 6.099391918637357968e-01 -5.925909759216104744e-01 -1.258541312599996687e-01 1.187766939294160773e+00 2.423812327549609291e-01 4.765121819196322384e-01 7.317750725436680259e-01 5.057381157626943402e-01 2.036532952772206695e+00 6.410538569996681035e-01 1.092784650525906696e-02 4.185117786679195540e-01 4.046037231322568983e-01 1.159257097866006392e+00 5.051795545894910422e-01 -1.777395645691623449e-02 5.318415205440627513e-01 -1.256413616148708504e-03 4.968378826464995845e-01 5.229146828780907308e-01 2.585735280807882966e-02 -6.489814386657940908e-03 6.564072571293052549e-01 4.566907489255807584e-01 5.838421512073891373e-01 1.557909967471531598e-01 3.967849021609045623e-01 5.297912834936947535e-01 4.284866791752320325e-01 4.960773667901097750e-01 4.807921593756809275e-01 5.627757301543424573e-01 1.023936391057220341e+00 3.215988017499798790e+00 9.797237934062197340e-01 5.149245942000978404e-01 5.070685796738835238e-01 2.212469397864696985e-01 5.204721298620589298e-01 8.665176908423488644e-01 5.172123642190255000e-01 1.317332776275881301e+00 5.446598735816864378e-01 -6.034900680887016478e-01 -2.154229160123995526e-02 4.474640821431726256e-01 6.174578902609364484e-01 5.836728912221361698e-01 5.194126162510817046e-01 5.489647144108000115e-02 5.104437377287108779e-01 6.031081596274440182e-01 -3.932912825751525787e+00 4.780843063770010559e-01 5.415042792175163155e-01 1.147387766350521643e+00 5.131382687943092380e-01 3.803600701197362710e-01 6.582669280242650078e-01 -9.309231453284837476e-01 -4.955464564483660905e-01 1.527155395943668656e-02 5.187421205046939265e-01 6.495779969205288662e-01 2.073752927389729828e-01 5.085170651095337613e-01 -3.515690124443747178e-01 5.199362909961916523e-01 5.775221699129251540e-01 6.976663403562206600e-01 5.607602854862390185e-01 4.644786357568988500e-01 1.383743652859833473e-01 -8.031459077414488945e-01 6.530133163250050332e-01 5.523653962325297817e-01 1.512989020820446895e-01 5.239546727490255185e-01 4.914998011205893302e-01 5.249634665711857551e-01 6.595063709083764936e-01 5.854784891275331971e-01 5.542135803583302378e-01 5.062267910968382134e-01 1.889003053355189365e+00 3.437701743053803716e-01 5.207718666281283548e-01 -1.467559771934680568e-01 5.003417353787577015e-01 6.505206540698242890e-01 5.112249163419252396e-01 4.774274650632006622e-01 3.880225336250932577e-01 9.690958251284721436e-01 1.239160667054121978e+00 5.521722414568260850e-01 5.686311516140265532e-01 5.972995382935790687e-01 5.112558450509151475e-01 5.129671711911084619e-01 5.202551028283720624e-01 9.732418527635116057e-01 6.582372083931165019e-01 -4.705155755917845295e-01 4.722173385434013659e-01 8.948869467980384851e-01 5.119668254489819770e-01 -4.863647767063829230e-02 5.221293243348689161e-01 1.594163245516443173e+00 -1.372241594334988324e-01 6.829065483239123990e-01 2.295849332964719769e-01 4.973227602171764739e-01 8.884453091286597104e-01 5.186920086372973637e-01 3.766562760199123061e-01 1.418733483140893981e+00 4.719218868327160754e-01 5.104412210779372128e-01 -7.389912697718962198e-01 4.367054095955399395e-01 1.037826291330453676e+00 6.351502032967276667e-01 6.056811083990541050e-02 1.005139998883281649e+00 -3.567971052195519684e-03 7.719567863774811078e-01 1.679840803875045196e+00 -8.730627151064739300e-01 5.514674270948322077e-01 5.215059907808511364e-01 -4.948546873082494968e-01 3.012348101725609850e-01 5.301601060564181678e-01 5.334256228755260842e-01 4.597451454029596873e-01 4.693918759397956442e-01 2.624577517176409636e-01 3.540838708587082939e-01 5.556664647312795635e-01 5.172392840507168410e-01 1.017066742262527114e-02 -1.837267174701253114e-01 5.173216663073788579e-01 1.072079627474205044e+00 5.835354675746849962e-01 -5.925521346422808477e-01 4.190925490078655780e-01 5.212026524246673453e-01 5.713922855894786323e-01 4.892940307409762712e-02 3.224807192619048579e-01 5.208258563951875253e-01 5.170674450311947279e-01 4.558385875631833506e-01 -1.577214622859115026e-02 5.405076068135874490e-01 5.404072591448842999e-01 5.410037147099090449e-01 2.123428543959965165e+00 -2.288636977409179429e-02 3.917371707838304129e-01 5.510788790023358752e-01 1.871857816045358947e+00 4.920828410339467829e-01 5.772990048648931616e-01 3.490631003357592271e-02 5.695298080659375595e-01 5.153280300993472451e-01 4.781786848622668895e-01 4.186787642666816578e-01 5.369979535509984414e-01 4.625492610910604263e-01 5.332628967879211590e-01 -5.788807188966186290e-01 5.195118602422860166e-01 5.184710258528461013e-01 5.375965237996430668e-01 1.342341750572558778e+00 5.266742084542301860e-01 -2.517583307675506088e-01 1.153541967490379516e+00 -1.350303553799397038e+00 -5.576144157389044675e-01 5.018000216650408962e-01 5.209864965045817309e-01 6.722641972300473778e-01 5.366800167502994157e-01 5.566261361831019716e-01 5.027236445235567786e-01 5.695298359630914797e-01 5.223714610252978563e-01 5.591748192944390183e-01 6.109025131960839072e-01 5.181617975997464542e-01 3.331730357354171779e-01 5.287177381275528498e-01 5.353543601487651404e-01 4.220342156984859816e-01 5.265928352468075557e-01 5.246585156645324766e-01 5.043613350004794160e-01 6.504364212064956963e-01 5.187402356562070826e-01 7.350824199471290843e-01 5.278351703529716721e-01 5.270313765266224637e-01 5.346145907192427771e-01 4.467314545898509737e-01 3.355678251683998914e-01 2.513722798852675133e+00 5.522635176821844016e-01 6.434078032850012452e-01 2.977330673551770723e-01 5.744305879203551735e-01 1.126709838888871218e+00 4.236227627988914946e-01 6.826132386162315768e-01 5.199375008833789780e-01
7.163521928354147361e-01 2.893325040121849656e-01 4.619503864648896729e-01 -4.963422099362480022e-02 3.031520522943752516e-01 4.205368269133640813e-01 5.412408955839564939e-01 3.646165995026367512e-01 4.033208519544937420e-01 2.962766681744143926e-01 2.100763795906315679e+00 1.749812843966484399e+00 -1.494481994056890306e+00 5.626533726960223358e-01 2.983734365765560170e-01 4.701483321165562668e-01 1.401028352065227800e-01 4.559316939076580311e-01 3.872403230752707315e-01 3.246040737659310338e-01 3.818572113966754999e-01 2.178050342467678036e+00 3.340329865294387468e-01 3.289434744947544176e-01 7.644674857623366959e-01 -1.435544177190883064e-01 3.809232112613133436e-01 1.740854031063490959e-01 3.637029561375651476e-01 -9.586744345253184196e-01 4.677659348493224956e-01 -1.725684476058338135e-01 2.898197042182803496e-01 2.837474503846935669e-01 -4.020956373456449628e-01 5.096005841386751500e-01 3.312435316684889108e-01 -4.147000536786212832e-01 -3.354208683230194055e+00 2.925369396371147457e-01 1.227530942946975179e+00 1.488923509312353732e-01 -1.707829702557847884e-01 7.911214334581397889e-01 5.167254584993296040e-01 3.059961519051110357e-01 -4.968110018272200307e-02 3.288487288373250217e-01 9.954440720873125592e-02 6.586449828591196543e-01 6.990067652409542864e-01 5.166179896324756271e-01 -1.055734936334873503e-01 2.620438307140782186e-01 5.777352961998992731e-01 6.746356443744863096e-01 2.712514435049774297e-01 3.091320337888590064e-01 3.442312345736456836e-01 2.799513907230379295e-01 4.380079944495431921e-01 4.285908092167738381e-01 3.277201729378145245e-01 3.340329845153727772e-01 -3.372278739025701411e-01 1.075445930772376685e-01 2.971561419889529598e-01 3.014871176604088099e-01 3.001573110576061798e-01 6.866638764653658633e-01 2.024775990112364643e-01 2.621969088830212735e-01 3.093552111723539277e-01 7.083725952708921358e-01 1.965460716932843077e+00 3.608309192089970696e-01 4.819498946592912780e-01 4.835127036951826773e-01 3.028477707542560626e-01 -1.372243643756505982e+00 3.259226986593040665e-01 4.970082365250915180e-01 2.449119994255696042e+00 5.821075865419268053e-02 2.378733037032041697e-01 -3.261218753393244074e-01 1.526746303315496545e-01 3.774576870620526825e-01 -5.890513716390736176e-01 -9.275018688129605948e-01 5.168061306627899087e-01 1.635967258524944068e+00 4.447683077507152971e-02 6.838381227978198584e-01 3.722292011509378273e-01 3.604779091068923691e-01 2.947429635866740671e-01 8.020769042353322886e-01 7.356992067635937937e-01 -1.336362202073736183e-01 -1.870490927666891290e-01 5.811459711821002905e-02 3.514945590085851168e-01 2.320269702888538010e-01 -7.948765262838645984e-02 3.215079184842640103e+00 -3.010960728594841984e-01 4.143189998584275169e-01 6.057372003109580405e-02 8.132452171145660991e-01 3.009768532247661943e-01 5.492192289710650099e-01 1.623538817909425946e-01 3.023540203819062855e-01 -4.660941778048083850e-01 3.409448518912692183e-01 5.048198391694196790e-02 3.637406225053769759e-01 1.246720061486720210e+00 3.261920102849001357e-01 -1.492265459754560153e+00 8.640081657893612654e-02 4.536268749474364759e-02 1.537572178455703709e+00 3.112303342161018560e-01 2.230897643288590526e+00 4.155644950177468933e-01 2.040592562076348759e-01 3.200619179909309220e-01 3.066364012740150913e-01 3.444547598898614615e-01 3.054185429172052157e-01 6.648264834732170447e-01 3.879053993243022358e-01 1.535068280370988081e-01 8.489192236368182654e-01 7.360396486629383617e-01 6.954843082872107507e-01 -3.445276662782827959e-01 2.510063221058400074e-01 3.367772323870530382e-01 3.223616573132665475e-01 3.712109238615020623e-01 3.090279262090428469e-01 3.056039029642145799e-01 7.007232822403312023e-01 -1.994264716011008853e-01 3.196291502537996765e-01 4.028517427335674417e-01 4.064528579034245581e-01 -1.673845910177746144e-01 3.191103201574940762e-02 3.060107474179306619e-01 3.304742398159477013e-01 2.607450441157513898e-01 3.014184947254886504e-01 -2.584588792338880392e+00 4.771561813274501351e-01 -6.170402557662869603e-01 -1.328020832638648341e-01 1.186223035130428427e-01 4.313045160156225299e-01 3.138475107512452289e-01 3.020502183816440311e-01 1.371362352232065873e-01 1.408881494709326443e-01 3.226510901230747463e-01 5.077586593553173877e-01 4.971248366902391025e-01 2.523251830238946170e-01 2.648261632791862330e-01 -4.843887103366312230e-02 3.059335839690602299e-01 3.043005347631657087e-01 -2.564774665107528051e+00 6.632495477703814757e-01 5.515068625123745738e-01 9.170885252900976559e-01 -4.631415350114774232e-01 1.176410061806328011e+00 7.685745940874837145e-02 2.975258441391925857e-01 1.252876382565657254e+00 3.946450186499579349e-01 3.193256853720641830e-01 3.726833543451086861e-01 2.626835181776882577e-01 2.899165339924424378e-01 -5.152290758834076057e-01 3.705628662305753829e-01 3.765272189393297775e-01 8.322780247356549310e-01 3.539719671788133515e-01 3.673316244078382864e-01 2.585779866898206825e-01 3.011659442406624532e-01 -1.724039080604218066e+00 2.882435512710799230e-01 3.896932173773664521e-01 2.298113501474251807e-01 1.949102978607086117e-02 3.805391285189858586e-01 3.920813159843474227e-01 1.599994201033630714e-01 -7.418686568998217323e-01 3.896932546920016116e-01 5.053279495403654176e-01 -5.314897961779199154e-01 3.085027529831392279e-01 2.771628383468390244e-01 2.199629988343133891e-01 -3.350972743366103845e+00 3.929072205826056319e-01 9.025913804186035394e-01 2.979006877128442810e-01 3.032070707657387176e-01 3.034862956809755707e-01 3.312563547491705895e-01 3.012120046646439286e-01 3.033318177699810270e-01 3.894845807303658480e-01 7.839820116544060635e-02 6.770543333995290292e-01 1.149982409570293601e-01 3.987825252293154543e-01 5.482343624353616107e-01 4.196004738335128437e-01 -7.280969634368836818e-01 2.368049552052533979e+00 4.176400245165363678e-01 1.260878369742775673e+00 -1.410550319526221674e+00 2.987550668972637768e-01 3.055090800574479237e-01 3.368517228615880987e-01 1.208526091524323665e+00 5.361460039254751786e-01 8.482945424455250460e-01 2.919154899101817913e-01 6.640227147759680815e-01 2.058540069292683072e-01 3.209939257920554345e-01 -1.208723934528334043e+00 4.152853709842870278e-01 3.018278824066603638e-01 5.085030710576168289e-01 8.627734475715115314e-01 -3.949930153853790094e-01 3.275131294002087134e+00 4.952467639636099483e-01 1.335744617042312843e+00 -3.496422710290526537e-01 3.109391671234075782e-01 3.340291846846359936e-01 3.608688488074203726e-01 3.150313386215919942e-01 2.316278237713008392e-01 -1.727500970015754811e-01 7.517469829843125007e-02 5.632629836085738528e-01 2.226480532043991489e-01 1.112205640373526289e-01 2.444406983108447229e-01 5.164382032041180404e-01 4.380080140110844678e-01 2.647450303799204208e-01 3.347562833482121025e+00 3.253434299688542919e-01 6.493309518884656795e-01 5.101965265284569284e-01 3.344745456484934931e-01 4.376595407751017186e-01 2.986576769345093418e-01 2.983592402825756551e-01 3.029845719797465420e-01 -6.574040085414525336e-01 3.956866277175387081e-01 2.849932500837952243e-01 1.512410719154636540e-01 3.576196437044989462e-01 1.568724255719353256e+00 3.476308948763664475e-01 3.328435869686647286e-01 2.022754494466527220e+00 5.171340403654676177e-01 3.302049532735596982e-01 3.205813405082459377e-01 3.158784494864097514e-01 3.409443114736021574e-01 -2.085953058360561219e+00 3.484323168076184918e-01 1.635171181021665587e+00 -1.101407027200349137e-01 3.521797243642189046e-01 6.510713727982688770e-01 3.421418095817989613e-01 -7.378644634106934497e-01 3.370211047419576778e-01 2.968514325071194837e-01 4.028230581517814879e-01 -4.120878564011152823e-01 3.228717653221662709e-01 -2.429922130240527611e+00 -4.933449356542554676e-02 2.822629531690909466e-01 5.945047499576985306e-01 3.035159083642269828e-01 3.015345481666198979e-01 4.979759454671546792e-01 1.574721508608994403e-01 -6.333354576080107989e-02 -7.835958855514952859e-01 -6.542932739311366902e-03 6.875138423962464662e-01 2.948631486003660540e-01 4.911577677106335194e-01 3.143717207988929729e-01 -4.973762803458532666e-02 2.920074482238461666e-01 2.504999484959456790e+00 6.855122421465426052e-01 2.473873375005744002e-01 -1.199225387368763496e+00 2.510999313735901572e-01 4.851628251915805379e+00 4.265227965067715510e-01 -2.100302968891530619e-01 5.727737694887646835e-01 -5.762827885031126307e+00 5.412261132314146739e-01 1.600236692687761142e+00 3.023977774220930059e-01 5.189901945320375409e-01 -4.608091026016499225e-01 4.159064762621652589e-01 2.293183562808637777e-01 3.539364268644615841e-01 2.052324795959257486e-01 3.032626618012016717e+00 -3.891358899173908981e-01 3.119649056896390271e-01 -1.951960660524311830e+00 2.743128985249777552e-01 -4.147000492115373027e-01 7.641906302004249918e-01 4.781833292249347278e-01 2.605210591655694463e-01 2.880543962825157234e-01 1.257090037036228347e+00 1.653640973710056028e-01 3.896934859598799594e-01 4.152798073274211466e-01 1.599994175003744412e-01 4.034032400526200157e-01 3.818524839757169165e-01 -6.312836809123564263e-01 3.019569636840522819e-01 5.645088845813807099e-01 4.120376192239791346e-01 1.878718745388422151e-01 3.035347073326153944e-01 5.168962272091995880e-01 4.781832869750400894e-01 5.248085976810323849e-01 2.988413714037244651e-01 1.564113848471204438e-01 3.611587166759244183e-01 3.576507762060672224e+00 2.768532429692288632e-01 9.306392753440201338e-02 4.380087697812074521e-01 8.325069287234484472e-01 4.707934279966729529e-01 -1.918965375484286140e-01 6.936558369852964256e-01 3.428475906235400328e-01 1.320656300302696096e-01 4.309226306130731210e-01 6.840908714660205447e-01 5.035723811201953115e-01 8.036335348056742323e-01 8.272121747900578193e-01 2.021707162031012028e-01 1.599994076865550452e-01 1.599995026874806436e-01 3.181309230852755188e-01 2.484438351285554736e-01 1.119428148006966772e+00 3.807975624248948754e-01 3.124238123364469488e-01 2.477266539791814215e-01 3.058218828183629778e-01 7.363518446348682467e-01 3.896937341618101347e-01 3.020109401978303687e-01 4.010691946813746411e-01 1.811753489602991873e-01 -6.456480765956055246e-01 3.157583095767136361e-01 3.067040344277238151e-01 3.486484881820102188e-01 6.563287143563295567e-01 6.467980325122354435e-01 1.599994195769883221e-01 1.598936709529014955e-01 2.983395248041122993e-01 5.188603847461076279e-01 -5.978944075590997276e-01 1.685241774235399781e-01 -3.621271808677323012e+00 2.061855369320102493e+00 6.226476987154417886e-01 -4.959924896479520062e-01 -4.963800974237349284e-02 2.106106470467368652e+00 3.276088149746239631e-01 6.571747559315100906e-01 -8.022048219044937423e-02 4.175315897212786287e-01 3.823483016288845571e-01 3.319567998106377482e-01 -5.864629836379317007e-01 3.313533774597074988e-01 2.112839185495675842e+00 1.967914205013129580e-01 -4.791404101958665618e-01 2.875604634593304509e-01 3.077946754709323662e-01 -1.475719504587536868e+00 3.304568374487628635e-01 3.735211528382064161e-01 4.037400467283013272e-01 1.042335044581748082e-01 2.960126309795952371e-01 2.300157633206709462e-01 2.777083371124835498e-01 -1.617299252886116312e-01 3.073449780145575128e-01 1.149851039772624151e-01 3.006778894426947457e-01 3.069912557622055949e-01 1.268699751030552894e-02 3.591413072084062574e-01 4.684624151333430242e-01 -1.442784099607626880e+00 -7.106738204965453720e-01 -1.231559866874255144e-01 1.663454074909526126e-01 1.269685635937138068e-01 4.381238490107099981e-01 3.538881316504093877e-01 7.041874242690783214e-01 -1.458398601504145298e-01 3.310219928941547374e-01 3.050306553629409945e-01 9.716730326168632192e-02 -1.617217560442247293e-01 3.205404491322691451e-01 4.583266131485742023e-01 4.801747037547013930e-01 3.456640639988720620e-01 3.039446460290157193e-01 2.954578969634279462e-01 2.410667816903842298e-01 3.016853322756018474e-01 4.753952293025905940e-01 2.209221200994074541e-01 3.021933819548903721e-01 6.928961862600742094e-01 3.020694061765207272e-01 7.001636573256854179e-01 -4.518667001906457453e-02 5.933323146875464360e-01 3.150196819175527518e-01 -1.484795364711267718e+00 3.020486917956857198e-01 6.237204842950010431e-01 3.395284497319890904e-01 3.385181956048854413e-01 3.720289418182531893e-01 1.585723613473341842e-01 6.874854225950661757e-01 2.998205097900592531e-01 4.388635143011143103e-01 3.041431127053308980e-01 2.716042120105749968e-01 1.692343553889170960e-01 4.617110144664989257e-01 3.038410765982181849e-01 1.444430643006145154e-01 1.960745539199635745e-03 1.299238139147509963e-01 1.684439242057210073e+00 1.520199469468052067e-01 3.207079602344809488e-01 3.949390162016527817e-01 -8.790264202799132898e-01 2.799286554957280404e-01 2.187302152755590812e-01 2.330331856748015518e-01 -1.097082995354995844e-01 2.604602332449845181e-01 1.740918058772516819e+00 8.976641384026234904e-01 4.770587641668794232e-01 2.567940434785434545e-01 3.039168135686446948e-01 3.452611378356391092e-01 9.402447250374756926e-01 3.122168077418749466e+00 3.006373030015460635e-01 7.196761237903164486e-03 5.816708234598265692e-01 -2.574402768737356073e-01 3.060772884204699951e-01 3.103432347848552042e-01 1.096204503979650191e+00 2.903671720130215350e-01 -3.551706945255854730e-01 3.957268581883771619e-01 1.448517418145978120e-01 6.058295284035660755e-01 1.903422033264091207e+00 2.697327555339509297e-01 2.936615991298601180e-01 1.681372770392117744e+00 3.850403028478909806e-01 2.612255615744801807e-01 1.451916582590987437e-01 1.622194497049887774e-01 -5.006267501348955762e-02 5.271301055873618413e-01 2.478451015148775138e-01 7.044643342278509301e-01 2.868048321356491126e-01 1.939801679870041540e-01 3.385723053599679622e-01 2.999976121120361827e-01 4.557207293328226494e-01 2.665190709125949131e-01 8.685105459176268861e-01 5.216725028281705701e-01 5.229529549092516438e-01 3.605644810863654626e-01 2.498918721381731267e-01 3.117124865074361595e-01 5.956210894788142030e-01 7.837302736913375201e-01 3.749504297409078091e-01 3.406634123339771225e-01 6.288964141018976717e-01 3.014586949724261666e-01 6.808603734239140337e-01 3.664947096656265280e-01 4.896349014632332963e-01 -2.995197955033420678e-01 3.044493329799033976e-01 3.258814780152505808e-01 4.628892130997978027e-01 1.908118709688218506e-01 3.691404537142281006e-01 1.846285030268151273e+00 -1.914285002347140482e-02 3.782966388866548235e-01 -2.358781855011019557e-01 1.707577308031460905e+00 1.169834251085255517e+00 4.019493971481181288e-02 -4.332285549240106337e-01 4.550406958851245243e-01 2.531678492965931393e-01 4.681863966484645090e-01 3.015174472151860852e-01 3.078664186400582592e-01 2.471772196137462518e-01 3.286143961605245689e-01 2.497064530444280117e-01 -4.985010197475036459e-02 -2.451403570521061004e-01 2.913397601887855459e-01 2.101614772392294828e-01 2.657921641305830418e-01 8.888938222159140645e-01 4.380080030882297915e-01 3.232883400320431533e-01 8.656772772943652772e-01 4.749038247094291565e-01 5.163457022568582744e-01 4.415029149078812942e-01 7.029007760513587000e-01 1.490485981444007679e+00 4.059913507637000207e-01 2.145515429029968502e+00 -1.893127935228416242e-02 1.639545942888226970e-01 3.047771248969198266e-01 3.523447678972338459e-01 3.947556145247861914e-01 2.523092149624254210e-01 2.857877364965411005e-01 3.053726790993831486e-01 3.741130052982696297e-01 2.401155570485334623e-01 -3.734573810773358926e-01 3.302203886096622965e-01 -4.607603226340537678e-02 3.111347737028719584e-01 4.027726092188370077e-01 4.380080030250035894e-01 2.418016984687344217e-01 2.503881321388903292e-01 -1.323644812071883559e+00 2.003101033773081685e+00 3.053394044877590918e-01 -7.736051915884182284e-01 2.966498018464815423e-01 3.404361725922662174e-01 3.016100891062322154e-01 -4.909662322112451349e+00 3.617293068256413946e+00 6.386760428745177354e-01 6.669604352056797761e-03 3.262390569625808756e-01 3.021021931210701172e-01 2.459923934100750331e-01 2.683443687168727720e+00 6.352944112223225526e-01 3.193424861434924211e-01 3.409446492537271389e-01 3.227259365192411411e-01 3.355539082067858225e-01 8.510492702004045507e-01 -3.708684491228304569e-01 -1.252370893965727205e+00 -1.252095946873776677e+00 2.988961405213326761e-01 3.050799361372888430e-01 7.485529850781890149e-01 3.541919601393953010e-01 1.547740935347429625e+00 4.980623107964933793e-01 3.042790028641658706e-01 3.415180651533991085e-01 3.017226272544316634e-01 3.369243006487467329e-01 3.116040337486223888e-01 6.338046386608274796e-01 3.566296920090303302e-01 6.592574577733281149e-01 2.386495064539549682e-01 7.439676337336917356e-02 3.117052615425062179e-01 1.753877150103118343e-01 2.367270649570310526e-01 3.184310560618804908e-01 6.255805660486014608e-01 4.781833013179208614e-01 2.258860747073483666e-01 2.366251569993743920e-01 3.009310822695279719e-01 2.809908861128773694e-01 1.740921743866911342e+00 1.968014188679945820e+00 3.107503031063331700e-01 2.955139873423685004e-01 2.994599418253305889e-01 1.744817058283568145e-01 2.186905080359987652e-01 4.503399035487711810e-01 2.869344811447473997e-01 3.304464748359007831e-01 8.154519120670218335e-01 9.038275978128902377e-01 3.540406150003261310e-01 1.908367425133279394e+00 3.904544823391419284e-01 -2.977659117419599877e-01 -2.687740547232521093e-01 -2.986918315682982605e-01 3.055543896416899607e-01 3.567421041808959692e-01 7.081151773449102516e-01 2.898412990614575024e-01 4.276858625240608225e-01 3.009027463298702409e-01 2.913768090394731614e-01 2.623220950954617270e-01 -8.833508172344416154e-02 1.003247874297903852e+00 2.920406678719789095e-01 2.693164589437061496e-01 3.054046357136490641e-01 3.467953843966096183e-01 2.848772480581849842e-01 3.995704688497726531e-01 -7.031475284708389728e-02 2.219672170944693435e-01 2.916701802714577463e-01 -4.952373979090546330e-02 4.380076906271039294e-01 1.089330626217487996e+00 9.791187105488778908e-01 -7.147299306028913612e-01 -4.147000537623117267e-01 6.620519902049549765e-01 -3.411468388360128667e+00 1.591211637153933101e+00 3.049276157418202016e-01 -4.948509075376459482e-02 3.031375262217462785e-01 9.147771945284887130e-01 3.012539522126537195e-01 4.152850901547780471e-01 -4.395371852239765564e-01 8.104945429552871117e-01 3.054021819475816191e-01 8.502061603881705398e-01 2.128446859058614749e+00 -3.710615403016860880e-01 -1.497605036251107302e+00 2.810505713958975638e-01 3.006167539542795586e-01 7.419252583875287632e-01 3.055681182619919278e-01 6.933672662089865879e-01 4.690657592595816050e-01 3.718217247801104408e-01 2.998583617884912900e-01 3.083033762731105520e-01 3.435934820364704989e-01 3.160739187780804982e-01 1.450796260110269964e+00 1.688309157945605987e+00 2.960786684191425988e-01 3.408338563310235325e-01 3.128962007197680917e-01 -2.533805250271636278e-01 2.367898407996502086e-01 -7.007306319910040771e-02 3.025705888861816018e-01 7.046131443587867471e-01 -5.875678090614812055e-01 3.270165339778307589e-01 3.273023540167255829e-01 1.575703399382573644e-01 2.892458399723584761e-01 1.700256209401536378e-01 3.041134122312805776e-01 3.040226390996789152e-01 8.005605486961712980e-02 3.103061471039980646e-01 4.308158172163978894e-01 1.143672088854996716e+00 1.114432485403599848e+00 9.034682312106969704e-01 2.267949732434112187e-01 7.979586322768870144e-01 1.664889776052236869e-01 5.140910689788659171e-01 -2.215646975616528458e+00 2.997917855260214814e-01 6.660785439619704151e-01 3.030447025921879645e-01 9.406851700087575097e-01 1.387990216483501849e+00 3.409448460665776004e-01 2.338685078663443329e-01 3.768103168701377736e-01 4.375908720979050925e-01 5.465964765283214399e-01 9.911903221089024552e-01 -8.363200815745618355e-01 3.061701891517900065e-01 4.431679870558737078e-03 3.204731873424136457e-01 3.397972714253360005e-01 7.552597663788155335e-01 -2.975626871775263194e-01 4.165451469537898022e-01 3.040300963571450077e-01 3.576950331740816336e-01 8.973896683718498579e-01 4.366209062158640242e-01 -2.270584325221016442e-01 8.572495805735069752e-01 -2.865356623857874194e-02 5.535571531343475016e-01 3.485915544213625816e-01 1.304154672186042419e+00 6.065425572229885542e-01 7.034914890920553887e-01 4.281103882608410238e-01 4.774305838618320696e-01 -6.075974483601314091e-01 2.183811234882665486e-01 7.415860545336266929e-01 2.960146719043800778e-01 5.993048471794250043e-01 2.998635334734478519e-01 3.020686376280003471e-01 7.033149703915587692e-01 1.755421595137570401e-01 -2.084261516376312962e+00 2.246756237341755169e-01 2.505240732877039855e-01 9.736460743987193078e-01 3.167325859930673615e-01 2.999813471492396300e-01 3.755077900883631026e-01 3.074439847404445425e-01 4.110040818263477891e-01 1.303226655259301647e-01 -1.641349474324821367e+00 7.709021484981682937e-01 2.361893681207330453e-01 2.932775611201980381e-01 3.140536319689874456e-01 8.169270574484663872e-01 3.016776098378589066e-01 -1.628727104667934966e-01 3.579296455921789910e-01 1.129174221159147784e+00 3.376439799049923973e-01 4.170390272420546052e-01 1.032391898033194311e+00 4.369683393676986327e-01 2.886148203841210957e+00 3.132350578176504308e-01 3.140462214094359439e-01 7.169435143175740821e-01 3.033000102100406048e-01 3.241604064827560139e-01 -2.217439634766094514e+00 4.686833322076019992e-01 3.094757460328579346e-01 5.214174893624842211e-01 2.929602236566467566e-01 1.911267037328706897e-01 -1.472109701300047535e-01 2.101272454972465731e+00 -5.168895091838512368e-01 8.219254469762219406e-01 3.033398714636927340e-01 3.260913852014074021e-01 8.708999840744221510e-01 2.752807946227690539e-01 1.355298876478552295e+00 2.508498037329625063e-01 4.209063368548904283e-01 -8.890990916689760493e-01 -1.259764856701923452e-01 -6.743552327319773942e-01 -4.135193693934344772e+00 3.034413296800022142e+00 1.396765140364070179e-02 2.836086148244259530e-01 -1.689118427354593166e+00 3.074442806326472266e-01 4.843336034876207230e-01 3.104881922149559381e-01 1.974700252448088611e-01 6.442811009641605802e-01 6.069263108315288147e-01 1.126311784947497951e+00 -4.147000563893148417e-01 -2.434081816208836235e-01 2.871888177229333650e-01 -1.204975703369186801e+00 3.886561362018710608e-01 -6.658070107951153949e-01 3.199783738603625971e-01 4.324789255147530320e-01 1.413624638550625701e-01 4.653369836611050414e-01 2.594085817446635800e-01 1.493484358290742171e-02 2.912073545697103638e-01 2.775625076534742885e-01 3.679057106905217478e-01 2.777637409698711091e-01 3.039918058127856759e-01 -7.144923998483816430e-01 4.320327755490979138e-01 1.553879238671652674e+00 8.321246924939980361e-02 2.335347719276019141e-01 2.456718576804561016e-01 1.200270646298936317e+00 3.214023751955289443e-01 7.289639407906259305e-02 8.790770439386410562e-01 2.076128374367808560e-01 1.905882641708677161e+00 3.138356070519064955e-01 1.410583177650340136e+00 2.800681953324954399e-01 7.324748751484494447e-01 1.362955421546129697e+00 4.235312278691845123e-01 2.275361120333576626e-01 9.620321032639661540e-01 -1.790893633379498362e-01 -7.249713455467876599e-02 2.722384533067400691e-01 3.091062910664614805e-01 3.689957097462965852e-01 1.472661459495814007e-01 8.509950365096688452e-02 -3.973015526104560768e-01 1.291852828641149031e+00 2.991866916624728034e-01 3.063267365725650393e-01 -3.306491051490409117e+00 5.753885933051139379e-01 2.023519089843187624e-01 3.079846619165444999e-01 3.452842437930618846e-01 3.889484322136186334e-01 -1.146912613643906953e+00 6.397644484554765310e-01 3.014690073165939843e-01 3.038880675273851195e-01 1.013004660039958260e+00 4.743894047970812489e-01 3.100534283765867816e-01 -1.430309907043387119e+00 3.245594245678117273e-01 8.973934005910834122e-01 3.895899475441890192e-01 2.965899889779081144e-01 2.572390955934200640e-01 7.079757613328929722e-01 -3.294511928247616239e-02 3.052665435885004164e-01 3.075513144275609512e-01 1.109560208682240090e-01 6.656597990896301331e-01 2.428160481500662438e-01 6.712493209221161994e-01 2.049967724651871326e-01 6.963439103525743690e-01 -2.585852140561585855e-01 -1.515271630775409717e+00 2.839776720287618961e-01 -2.291167776258724864e-02 2.536106080331475554e-01 3.292642242110278561e-01 5.756051519213017248e-02 4.781835602184331124e-01 2.999538393654342938e-01 8.616754492539957511e-02 4.054658606176688163e-01 3.159291449132741736e-01 2.768837849937196283e-01 3.584427130808683359e-01 -8.807471461055030870e-01 3.059415453903420179e-01 3.443289123135392926e-01 2.881492467694247717e-01 -3.964698688270659188e-01 2.947450099304627646e-01 8.506920709313549045e-01 -6.515352680595161150e-01 1.151621501007847215e+00 6.257538151793036185e-01 3.290976527597268553e-01 3.017829931906659824e-01 -2.086138295863645187e+00 3.084896202718439007e-01 3.288130873759578243e-01 3.342799814475216902e-01 4.781833318181760717e-01 3.022230163955652027e-01 3.447925791025377440e-01 4.659365002783009274e-02 3.033307248854478777e-01 4.310461709749466297e-01 2.963519908617155418e-01 2.476074735108141911e-01 2.773533380259585734e-01 3.034461363591139382e-01 3.024385068924107522e-01 3.740835388501482228e-01 1.758710897944011364e-01 2.971912896913131430e-01 6.334417608589095749e-01 1.414780388197553196e-01 3.095308761297017042e-01 -1.570960890116278874e-01 2.173547698248503302e-01 6.779543191849168871e-01 4.642175016397390941e+00 3.087666311875576497e-01 5.417740358548698426e-02 5.766324210359768943e-01 1.721671557716639711e-01 1.583872016211058664e+00 3.104059957525583946e-01 6.238083919845315295e-01 3.007399384695263467e-01
