# 
#                 ----------------------------------------------------
#                 Data from a 3D direct N-body simulation. 
# 
#                 rows are i-particle; 
#                 coumns are :mass, tag, x ,y, z, vx, vy, vz, ax, ay, az
# 
#                 NTHU, Computational Physics 
# 
#                 ----------------------------------------------------
#                 Time = 0.0
0.000000000000000000e+00 1.000000000000000000e+00 2.000000000000000000e+00 3.000000000000000000e+00 4.000000000000000000e+00 5.000000000000000000e+00 6.000000000000000000e+00 7.000000000000000000e+00 8.000000000000000000e+00 9.000000000000000000e+00 1.000000000000000000e+01 1.100000000000000000e+01 1.200000000000000000e+01 1.300000000000000000e+01 1.400000000000000000e+01 1.500000000000000000e+01 1.600000000000000000e+01 1.700000000000000000e+01 1.800000000000000000e+01 1.900000000000000000e+01 2.000000000000000000e+01 2.100000000000000000e+01 2.200000000000000000e+01 2.300000000000000000e+01 2.400000000000000000e+01 2.500000000000000000e+01 2.600000000000000000e+01 2.700000000000000000e+01 2.800000000000000000e+01 2.900000000000000000e+01 3.000000000000000000e+01 3.100000000000000000e+01 3.200000000000000000e+01 3.300000000000000000e+01 3.400000000000000000e+01 3.500000000000000000e+01 3.600000000000000000e+01 3.700000000000000000e+01 3.800000000000000000e+01 3.900000000000000000e+01 4.000000000000000000e+01 4.100000000000000000e+01 4.200000000000000000e+01 4.300000000000000000e+01 4.400000000000000000e+01 4.500000000000000000e+01 4.600000000000000000e+01 4.700000000000000000e+01 4.800000000000000000e+01 4.900000000000000000e+01 5.000000000000000000e+01 5.100000000000000000e+01 5.200000000000000000e+01 5.300000000000000000e+01 5.400000000000000000e+01 5.500000000000000000e+01 5.600000000000000000e+01 5.700000000000000000e+01 5.800000000000000000e+01 5.900000000000000000e+01 6.000000000000000000e+01 6.100000000000000000e+01 6.200000000000000000e+01 6.300000000000000000e+01 6.400000000000000000e+01 6.500000000000000000e+01 6.600000000000000000e+01 6.700000000000000000e+01 6.800000000000000000e+01 6.900000000000000000e+01 7.000000000000000000e+01 7.100000000000000000e+01 7.200000000000000000e+01 7.300000000000000000e+01 7.400000000000000000e+01 7.500000000000000000e+01 7.600000000000000000e+01 7.700000000000000000e+01 7.800000000000000000e+01 7.900000000000000000e+01 8.000000000000000000e+01 8.100000000000000000e+01 8.200000000000000000e+01 8.300000000000000000e+01 8.400000000000000000e+01 8.500000000000000000e+01 8.600000000000000000e+01 8.700000000000000000e+01 8.800000000000000000e+01 8.900000000000000000e+01 9.000000000000000000e+01 9.100000000000000000e+01 9.200000000000000000e+01 9.300000000000000000e+01 9.400000000000000000e+01 9.500000000000000000e+01 9.600000000000000000e+01 9.700000000000000000e+01 9.800000000000000000e+01 9.900000000000000000e+01 1.000000000000000000e+02 1.010000000000000000e+02 1.020000000000000000e+02 1.030000000000000000e+02 1.040000000000000000e+02 1.050000000000000000e+02 1.060000000000000000e+02 1.070000000000000000e+02 1.080000000000000000e+02 1.090000000000000000e+02 1.100000000000000000e+02 1.110000000000000000e+02 1.120000000000000000e+02 1.130000000000000000e+02 1.140000000000000000e+02 1.150000000000000000e+02 1.160000000000000000e+02 1.170000000000000000e+02 1.180000000000000000e+02 1.190000000000000000e+02 1.200000000000000000e+02 1.210000000000000000e+02 1.220000000000000000e+02 1.230000000000000000e+02 1.240000000000000000e+02 1.250000000000000000e+02 1.260000000000000000e+02 1.270000000000000000e+02 1.280000000000000000e+02 1.290000000000000000e+02 1.300000000000000000e+02 1.310000000000000000e+02 1.320000000000000000e+02 1.330000000000000000e+02 1.340000000000000000e+02 1.350000000000000000e+02 1.360000000000000000e+02 1.370000000000000000e+02 1.380000000000000000e+02 1.390000000000000000e+02 1.400000000000000000e+02 1.410000000000000000e+02 1.420000000000000000e+02 1.430000000000000000e+02 1.440000000000000000e+02 1.450000000000000000e+02 1.460000000000000000e+02 1.470000000000000000e+02 1.480000000000000000e+02 1.490000000000000000e+02 1.500000000000000000e+02 1.510000000000000000e+02 1.520000000000000000e+02 1.530000000000000000e+02 1.540000000000000000e+02 1.550000000000000000e+02 1.560000000000000000e+02 1.570000000000000000e+02 1.580000000000000000e+02 1.590000000000000000e+02 1.600000000000000000e+02 1.610000000000000000e+02 1.620000000000000000e+02 1.630000000000000000e+02 1.640000000000000000e+02 1.650000000000000000e+02 1.660000000000000000e+02 1.670000000000000000e+02 1.680000000000000000e+02 1.690000000000000000e+02 1.700000000000000000e+02 1.710000000000000000e+02 1.720000000000000000e+02 1.730000000000000000e+02 1.740000000000000000e+02 1.750000000000000000e+02 1.760000000000000000e+02 1.770000000000000000e+02 1.780000000000000000e+02 1.790000000000000000e+02 1.800000000000000000e+02 1.810000000000000000e+02 1.820000000000000000e+02 1.830000000000000000e+02 1.840000000000000000e+02 1.850000000000000000e+02 1.860000000000000000e+02 1.870000000000000000e+02 1.880000000000000000e+02 1.890000000000000000e+02 1.900000000000000000e+02 1.910000000000000000e+02 1.920000000000000000e+02 1.930000000000000000e+02 1.940000000000000000e+02 1.950000000000000000e+02 1.960000000000000000e+02 1.970000000000000000e+02 1.980000000000000000e+02 1.990000000000000000e+02 2.000000000000000000e+02 2.010000000000000000e+02 2.020000000000000000e+02 2.030000000000000000e+02 2.040000000000000000e+02 2.050000000000000000e+02 2.060000000000000000e+02 2.070000000000000000e+02 2.080000000000000000e+02 2.090000000000000000e+02 2.100000000000000000e+02 2.110000000000000000e+02 2.120000000000000000e+02 2.130000000000000000e+02 2.140000000000000000e+02 2.150000000000000000e+02 2.160000000000000000e+02 2.170000000000000000e+02 2.180000000000000000e+02 2.190000000000000000e+02 2.200000000000000000e+02 2.210000000000000000e+02 2.220000000000000000e+02 2.230000000000000000e+02 2.240000000000000000e+02 2.250000000000000000e+02 2.260000000000000000e+02 2.270000000000000000e+02 2.280000000000000000e+02 2.290000000000000000e+02 2.300000000000000000e+02 2.310000000000000000e+02 2.320000000000000000e+02 2.330000000000000000e+02 2.340000000000000000e+02 2.350000000000000000e+02 2.360000000000000000e+02 2.370000000000000000e+02 2.380000000000000000e+02 2.390000000000000000e+02 2.400000000000000000e+02 2.410000000000000000e+02 2.420000000000000000e+02 2.430000000000000000e+02 2.440000000000000000e+02 2.450000000000000000e+02 2.460000000000000000e+02 2.470000000000000000e+02 2.480000000000000000e+02 2.490000000000000000e+02 2.500000000000000000e+02 2.510000000000000000e+02 2.520000000000000000e+02 2.530000000000000000e+02 2.540000000000000000e+02 2.550000000000000000e+02 2.560000000000000000e+02 2.570000000000000000e+02 2.580000000000000000e+02 2.590000000000000000e+02 2.600000000000000000e+02 2.610000000000000000e+02 2.620000000000000000e+02 2.630000000000000000e+02 2.640000000000000000e+02 2.650000000000000000e+02 2.660000000000000000e+02 2.670000000000000000e+02 2.680000000000000000e+02 2.690000000000000000e+02 2.700000000000000000e+02 2.710000000000000000e+02 2.720000000000000000e+02 2.730000000000000000e+02 2.740000000000000000e+02 2.750000000000000000e+02 2.760000000000000000e+02 2.770000000000000000e+02 2.780000000000000000e+02 2.790000000000000000e+02 2.800000000000000000e+02 2.810000000000000000e+02 2.820000000000000000e+02 2.830000000000000000e+02 2.840000000000000000e+02 2.850000000000000000e+02 2.860000000000000000e+02 2.870000000000000000e+02 2.880000000000000000e+02 2.890000000000000000e+02 2.900000000000000000e+02 2.910000000000000000e+02 2.920000000000000000e+02 2.930000000000000000e+02 2.940000000000000000e+02 2.950000000000000000e+02 2.960000000000000000e+02 2.970000000000000000e+02 2.980000000000000000e+02 2.990000000000000000e+02 3.000000000000000000e+02 3.010000000000000000e+02 3.020000000000000000e+02 3.030000000000000000e+02 3.040000000000000000e+02 3.050000000000000000e+02 3.060000000000000000e+02 3.070000000000000000e+02 3.080000000000000000e+02 3.090000000000000000e+02 3.100000000000000000e+02 3.110000000000000000e+02 3.120000000000000000e+02 3.130000000000000000e+02 3.140000000000000000e+02 3.150000000000000000e+02 3.160000000000000000e+02 3.170000000000000000e+02 3.180000000000000000e+02 3.190000000000000000e+02 3.200000000000000000e+02 3.210000000000000000e+02 3.220000000000000000e+02 3.230000000000000000e+02 3.240000000000000000e+02 3.250000000000000000e+02 3.260000000000000000e+02 3.270000000000000000e+02 3.280000000000000000e+02 3.290000000000000000e+02 3.300000000000000000e+02 3.310000000000000000e+02 3.320000000000000000e+02 3.330000000000000000e+02 3.340000000000000000e+02 3.350000000000000000e+02 3.360000000000000000e+02 3.370000000000000000e+02 3.380000000000000000e+02 3.390000000000000000e+02 3.400000000000000000e+02 3.410000000000000000e+02 3.420000000000000000e+02 3.430000000000000000e+02 3.440000000000000000e+02 3.450000000000000000e+02 3.460000000000000000e+02 3.470000000000000000e+02 3.480000000000000000e+02 3.490000000000000000e+02 3.500000000000000000e+02 3.510000000000000000e+02 3.520000000000000000e+02 3.530000000000000000e+02 3.540000000000000000e+02 3.550000000000000000e+02 3.560000000000000000e+02 3.570000000000000000e+02 3.580000000000000000e+02 3.590000000000000000e+02 3.600000000000000000e+02 3.610000000000000000e+02 3.620000000000000000e+02 3.630000000000000000e+02 3.640000000000000000e+02 3.650000000000000000e+02 3.660000000000000000e+02 3.670000000000000000e+02 3.680000000000000000e+02 3.690000000000000000e+02 3.700000000000000000e+02 3.710000000000000000e+02 3.720000000000000000e+02 3.730000000000000000e+02 3.740000000000000000e+02 3.750000000000000000e+02 3.760000000000000000e+02 3.770000000000000000e+02 3.780000000000000000e+02 3.790000000000000000e+02 3.800000000000000000e+02 3.810000000000000000e+02 3.820000000000000000e+02 3.830000000000000000e+02 3.840000000000000000e+02 3.850000000000000000e+02 3.860000000000000000e+02 3.870000000000000000e+02 3.880000000000000000e+02 3.890000000000000000e+02 3.900000000000000000e+02 3.910000000000000000e+02 3.920000000000000000e+02 3.930000000000000000e+02 3.940000000000000000e+02 3.950000000000000000e+02 3.960000000000000000e+02 3.970000000000000000e+02 3.980000000000000000e+02 3.990000000000000000e+02 4.000000000000000000e+02 4.010000000000000000e+02 4.020000000000000000e+02 4.030000000000000000e+02 4.040000000000000000e+02 4.050000000000000000e+02 4.060000000000000000e+02 4.070000000000000000e+02 4.080000000000000000e+02 4.090000000000000000e+02 4.100000000000000000e+02 4.110000000000000000e+02 4.120000000000000000e+02 4.130000000000000000e+02 4.140000000000000000e+02 4.150000000000000000e+02 4.160000000000000000e+02 4.170000000000000000e+02 4.180000000000000000e+02 4.190000000000000000e+02 4.200000000000000000e+02 4.210000000000000000e+02 4.220000000000000000e+02 4.230000000000000000e+02 4.240000000000000000e+02 4.250000000000000000e+02 4.260000000000000000e+02 4.270000000000000000e+02 4.280000000000000000e+02 4.290000000000000000e+02 4.300000000000000000e+02 4.310000000000000000e+02 4.320000000000000000e+02 4.330000000000000000e+02 4.340000000000000000e+02 4.350000000000000000e+02 4.360000000000000000e+02 4.370000000000000000e+02 4.380000000000000000e+02 4.390000000000000000e+02 4.400000000000000000e+02 4.410000000000000000e+02 4.420000000000000000e+02 4.430000000000000000e+02 4.440000000000000000e+02 4.450000000000000000e+02 4.460000000000000000e+02 4.470000000000000000e+02 4.480000000000000000e+02 4.490000000000000000e+02 4.500000000000000000e+02 4.510000000000000000e+02 4.520000000000000000e+02 4.530000000000000000e+02 4.540000000000000000e+02 4.550000000000000000e+02 4.560000000000000000e+02 4.570000000000000000e+02 4.580000000000000000e+02 4.590000000000000000e+02 4.600000000000000000e+02 4.610000000000000000e+02 4.620000000000000000e+02 4.630000000000000000e+02 4.640000000000000000e+02 4.650000000000000000e+02 4.660000000000000000e+02 4.670000000000000000e+02 4.680000000000000000e+02 4.690000000000000000e+02 4.700000000000000000e+02 4.710000000000000000e+02 4.720000000000000000e+02 4.730000000000000000e+02 4.740000000000000000e+02 4.750000000000000000e+02 4.760000000000000000e+02 4.770000000000000000e+02 4.780000000000000000e+02 4.790000000000000000e+02 4.800000000000000000e+02 4.810000000000000000e+02 4.820000000000000000e+02 4.830000000000000000e+02 4.840000000000000000e+02 4.850000000000000000e+02 4.860000000000000000e+02 4.870000000000000000e+02 4.880000000000000000e+02 4.890000000000000000e+02 4.900000000000000000e+02 4.910000000000000000e+02 4.920000000000000000e+02 4.930000000000000000e+02 4.940000000000000000e+02 4.950000000000000000e+02 4.960000000000000000e+02 4.970000000000000000e+02 4.980000000000000000e+02 4.990000000000000000e+02 5.000000000000000000e+02 5.010000000000000000e+02 5.020000000000000000e+02 5.030000000000000000e+02 5.040000000000000000e+02 5.050000000000000000e+02 5.060000000000000000e+02 5.070000000000000000e+02 5.080000000000000000e+02 5.090000000000000000e+02 5.100000000000000000e+02 5.110000000000000000e+02 5.120000000000000000e+02 5.130000000000000000e+02 5.140000000000000000e+02 5.150000000000000000e+02 5.160000000000000000e+02 5.170000000000000000e+02 5.180000000000000000e+02 5.190000000000000000e+02 5.200000000000000000e+02 5.210000000000000000e+02 5.220000000000000000e+02 5.230000000000000000e+02 5.240000000000000000e+02 5.250000000000000000e+02 5.260000000000000000e+02 5.270000000000000000e+02 5.280000000000000000e+02 5.290000000000000000e+02 5.300000000000000000e+02 5.310000000000000000e+02 5.320000000000000000e+02 5.330000000000000000e+02 5.340000000000000000e+02 5.350000000000000000e+02 5.360000000000000000e+02 5.370000000000000000e+02 5.380000000000000000e+02 5.390000000000000000e+02 5.400000000000000000e+02 5.410000000000000000e+02 5.420000000000000000e+02 5.430000000000000000e+02 5.440000000000000000e+02 5.450000000000000000e+02 5.460000000000000000e+02 5.470000000000000000e+02 5.480000000000000000e+02 5.490000000000000000e+02 5.500000000000000000e+02 5.510000000000000000e+02 5.520000000000000000e+02 5.530000000000000000e+02 5.540000000000000000e+02 5.550000000000000000e+02 5.560000000000000000e+02 5.570000000000000000e+02 5.580000000000000000e+02 5.590000000000000000e+02 5.600000000000000000e+02 5.610000000000000000e+02 5.620000000000000000e+02 5.630000000000000000e+02 5.640000000000000000e+02 5.650000000000000000e+02 5.660000000000000000e+02 5.670000000000000000e+02 5.680000000000000000e+02 5.690000000000000000e+02 5.700000000000000000e+02 5.710000000000000000e+02 5.720000000000000000e+02 5.730000000000000000e+02 5.740000000000000000e+02 5.750000000000000000e+02 5.760000000000000000e+02 5.770000000000000000e+02 5.780000000000000000e+02 5.790000000000000000e+02 5.800000000000000000e+02 5.810000000000000000e+02 5.820000000000000000e+02 5.830000000000000000e+02 5.840000000000000000e+02 5.850000000000000000e+02 5.860000000000000000e+02 5.870000000000000000e+02 5.880000000000000000e+02 5.890000000000000000e+02 5.900000000000000000e+02 5.910000000000000000e+02 5.920000000000000000e+02 5.930000000000000000e+02 5.940000000000000000e+02 5.950000000000000000e+02 5.960000000000000000e+02 5.970000000000000000e+02 5.980000000000000000e+02 5.990000000000000000e+02 6.000000000000000000e+02 6.010000000000000000e+02 6.020000000000000000e+02 6.030000000000000000e+02 6.040000000000000000e+02 6.050000000000000000e+02 6.060000000000000000e+02 6.070000000000000000e+02 6.080000000000000000e+02 6.090000000000000000e+02 6.100000000000000000e+02 6.110000000000000000e+02 6.120000000000000000e+02 6.130000000000000000e+02 6.140000000000000000e+02 6.150000000000000000e+02 6.160000000000000000e+02 6.170000000000000000e+02 6.180000000000000000e+02 6.190000000000000000e+02 6.200000000000000000e+02 6.210000000000000000e+02 6.220000000000000000e+02 6.230000000000000000e+02 6.240000000000000000e+02 6.250000000000000000e+02 6.260000000000000000e+02 6.270000000000000000e+02 6.280000000000000000e+02 6.290000000000000000e+02 6.300000000000000000e+02 6.310000000000000000e+02 6.320000000000000000e+02 6.330000000000000000e+02 6.340000000000000000e+02 6.350000000000000000e+02 6.360000000000000000e+02 6.370000000000000000e+02 6.380000000000000000e+02 6.390000000000000000e+02 6.400000000000000000e+02 6.410000000000000000e+02 6.420000000000000000e+02 6.430000000000000000e+02 6.440000000000000000e+02 6.450000000000000000e+02 6.460000000000000000e+02 6.470000000000000000e+02 6.480000000000000000e+02 6.490000000000000000e+02 6.500000000000000000e+02 6.510000000000000000e+02 6.520000000000000000e+02 6.530000000000000000e+02 6.540000000000000000e+02 6.550000000000000000e+02 6.560000000000000000e+02 6.570000000000000000e+02 6.580000000000000000e+02 6.590000000000000000e+02 6.600000000000000000e+02 6.610000000000000000e+02 6.620000000000000000e+02 6.630000000000000000e+02 6.640000000000000000e+02 6.650000000000000000e+02 6.660000000000000000e+02 6.670000000000000000e+02 6.680000000000000000e+02 6.690000000000000000e+02 6.700000000000000000e+02 6.710000000000000000e+02 6.720000000000000000e+02 6.730000000000000000e+02 6.740000000000000000e+02 6.750000000000000000e+02 6.760000000000000000e+02 6.770000000000000000e+02 6.780000000000000000e+02 6.790000000000000000e+02 6.800000000000000000e+02 6.810000000000000000e+02 6.820000000000000000e+02 6.830000000000000000e+02 6.840000000000000000e+02 6.850000000000000000e+02 6.860000000000000000e+02 6.870000000000000000e+02 6.880000000000000000e+02 6.890000000000000000e+02 6.900000000000000000e+02 6.910000000000000000e+02 6.920000000000000000e+02 6.930000000000000000e+02 6.940000000000000000e+02 6.950000000000000000e+02 6.960000000000000000e+02 6.970000000000000000e+02 6.980000000000000000e+02 6.990000000000000000e+02 7.000000000000000000e+02 7.010000000000000000e+02 7.020000000000000000e+02 7.030000000000000000e+02 7.040000000000000000e+02 7.050000000000000000e+02 7.060000000000000000e+02 7.070000000000000000e+02 7.080000000000000000e+02 7.090000000000000000e+02 7.100000000000000000e+02 7.110000000000000000e+02 7.120000000000000000e+02 7.130000000000000000e+02 7.140000000000000000e+02 7.150000000000000000e+02 7.160000000000000000e+02 7.170000000000000000e+02 7.180000000000000000e+02 7.190000000000000000e+02 7.200000000000000000e+02 7.210000000000000000e+02 7.220000000000000000e+02 7.230000000000000000e+02 7.240000000000000000e+02 7.250000000000000000e+02 7.260000000000000000e+02 7.270000000000000000e+02 7.280000000000000000e+02 7.290000000000000000e+02 7.300000000000000000e+02 7.310000000000000000e+02 7.320000000000000000e+02 7.330000000000000000e+02 7.340000000000000000e+02 7.350000000000000000e+02 7.360000000000000000e+02 7.370000000000000000e+02 7.380000000000000000e+02 7.390000000000000000e+02 7.400000000000000000e+02 7.410000000000000000e+02 7.420000000000000000e+02 7.430000000000000000e+02 7.440000000000000000e+02 7.450000000000000000e+02 7.460000000000000000e+02 7.470000000000000000e+02 7.480000000000000000e+02 7.490000000000000000e+02 7.500000000000000000e+02 7.510000000000000000e+02 7.520000000000000000e+02 7.530000000000000000e+02 7.540000000000000000e+02 7.550000000000000000e+02 7.560000000000000000e+02 7.570000000000000000e+02 7.580000000000000000e+02 7.590000000000000000e+02 7.600000000000000000e+02 7.610000000000000000e+02 7.620000000000000000e+02 7.630000000000000000e+02 7.640000000000000000e+02 7.650000000000000000e+02 7.660000000000000000e+02 7.670000000000000000e+02 7.680000000000000000e+02 7.690000000000000000e+02 7.700000000000000000e+02 7.710000000000000000e+02 7.720000000000000000e+02 7.730000000000000000e+02 7.740000000000000000e+02 7.750000000000000000e+02 7.760000000000000000e+02 7.770000000000000000e+02 7.780000000000000000e+02 7.790000000000000000e+02 7.800000000000000000e+02 7.810000000000000000e+02 7.820000000000000000e+02 7.830000000000000000e+02 7.840000000000000000e+02 7.850000000000000000e+02 7.860000000000000000e+02 7.870000000000000000e+02 7.880000000000000000e+02 7.890000000000000000e+02 7.900000000000000000e+02 7.910000000000000000e+02 7.920000000000000000e+02 7.930000000000000000e+02 7.940000000000000000e+02 7.950000000000000000e+02 7.960000000000000000e+02 7.970000000000000000e+02 7.980000000000000000e+02 7.990000000000000000e+02 8.000000000000000000e+02 8.010000000000000000e+02 8.020000000000000000e+02 8.030000000000000000e+02 8.040000000000000000e+02 8.050000000000000000e+02 8.060000000000000000e+02 8.070000000000000000e+02 8.080000000000000000e+02 8.090000000000000000e+02 8.100000000000000000e+02 8.110000000000000000e+02 8.120000000000000000e+02 8.130000000000000000e+02 8.140000000000000000e+02 8.150000000000000000e+02 8.160000000000000000e+02 8.170000000000000000e+02 8.180000000000000000e+02 8.190000000000000000e+02 8.200000000000000000e+02 8.210000000000000000e+02 8.220000000000000000e+02 8.230000000000000000e+02 8.240000000000000000e+02 8.250000000000000000e+02 8.260000000000000000e+02 8.270000000000000000e+02 8.280000000000000000e+02 8.290000000000000000e+02 8.300000000000000000e+02 8.310000000000000000e+02 8.320000000000000000e+02 8.330000000000000000e+02 8.340000000000000000e+02 8.350000000000000000e+02 8.360000000000000000e+02 8.370000000000000000e+02 8.380000000000000000e+02 8.390000000000000000e+02 8.400000000000000000e+02 8.410000000000000000e+02 8.420000000000000000e+02 8.430000000000000000e+02 8.440000000000000000e+02 8.450000000000000000e+02 8.460000000000000000e+02 8.470000000000000000e+02 8.480000000000000000e+02 8.490000000000000000e+02 8.500000000000000000e+02 8.510000000000000000e+02 8.520000000000000000e+02 8.530000000000000000e+02 8.540000000000000000e+02 8.550000000000000000e+02 8.560000000000000000e+02 8.570000000000000000e+02 8.580000000000000000e+02 8.590000000000000000e+02 8.600000000000000000e+02 8.610000000000000000e+02 8.620000000000000000e+02 8.630000000000000000e+02 8.640000000000000000e+02 8.650000000000000000e+02 8.660000000000000000e+02 8.670000000000000000e+02 8.680000000000000000e+02 8.690000000000000000e+02 8.700000000000000000e+02 8.710000000000000000e+02 8.720000000000000000e+02 8.730000000000000000e+02 8.740000000000000000e+02 8.750000000000000000e+02 8.760000000000000000e+02 8.770000000000000000e+02 8.780000000000000000e+02 8.790000000000000000e+02 8.800000000000000000e+02 8.810000000000000000e+02 8.820000000000000000e+02 8.830000000000000000e+02 8.840000000000000000e+02 8.850000000000000000e+02 8.860000000000000000e+02 8.870000000000000000e+02 8.880000000000000000e+02 8.890000000000000000e+02 8.900000000000000000e+02 8.910000000000000000e+02 8.920000000000000000e+02 8.930000000000000000e+02 8.940000000000000000e+02 8.950000000000000000e+02 8.960000000000000000e+02 8.970000000000000000e+02 8.980000000000000000e+02 8.990000000000000000e+02 9.000000000000000000e+02 9.010000000000000000e+02 9.020000000000000000e+02 9.030000000000000000e+02 9.040000000000000000e+02 9.050000000000000000e+02 9.060000000000000000e+02 9.070000000000000000e+02 9.080000000000000000e+02 9.090000000000000000e+02 9.100000000000000000e+02 9.110000000000000000e+02 9.120000000000000000e+02 9.130000000000000000e+02 9.140000000000000000e+02 9.150000000000000000e+02 9.160000000000000000e+02 9.170000000000000000e+02 9.180000000000000000e+02 9.190000000000000000e+02 9.200000000000000000e+02 9.210000000000000000e+02 9.220000000000000000e+02 9.230000000000000000e+02 9.240000000000000000e+02 9.250000000000000000e+02 9.260000000000000000e+02 9.270000000000000000e+02 9.280000000000000000e+02 9.290000000000000000e+02 9.300000000000000000e+02 9.310000000000000000e+02 9.320000000000000000e+02 9.330000000000000000e+02 9.340000000000000000e+02 9.350000000000000000e+02 9.360000000000000000e+02 9.370000000000000000e+02 9.380000000000000000e+02 9.390000000000000000e+02 9.400000000000000000e+02 9.410000000000000000e+02 9.420000000000000000e+02 9.430000000000000000e+02 9.440000000000000000e+02 9.450000000000000000e+02 9.460000000000000000e+02 9.470000000000000000e+02 9.480000000000000000e+02 9.490000000000000000e+02 9.500000000000000000e+02 9.510000000000000000e+02 9.520000000000000000e+02 9.530000000000000000e+02 9.540000000000000000e+02 9.550000000000000000e+02 9.560000000000000000e+02 9.570000000000000000e+02 9.580000000000000000e+02 9.590000000000000000e+02 9.600000000000000000e+02 9.610000000000000000e+02 9.620000000000000000e+02 9.630000000000000000e+02 9.640000000000000000e+02 9.650000000000000000e+02 9.660000000000000000e+02 9.670000000000000000e+02 9.680000000000000000e+02 9.690000000000000000e+02 9.700000000000000000e+02 9.710000000000000000e+02 9.720000000000000000e+02 9.730000000000000000e+02 9.740000000000000000e+02 9.750000000000000000e+02 9.760000000000000000e+02 9.770000000000000000e+02 9.780000000000000000e+02 9.790000000000000000e+02 9.800000000000000000e+02 9.810000000000000000e+02 9.820000000000000000e+02 9.830000000000000000e+02 9.840000000000000000e+02 9.850000000000000000e+02 9.860000000000000000e+02 9.870000000000000000e+02 9.880000000000000000e+02 9.890000000000000000e+02 9.900000000000000000e+02 9.910000000000000000e+02 9.920000000000000000e+02 9.930000000000000000e+02 9.940000000000000000e+02 9.950000000000000000e+02 9.960000000000000000e+02 9.970000000000000000e+02 9.980000000000000000e+02 9.990000000000000000e+02
1.000000000000000000e+00 1.000000000000000000e+00 1.000000000000000000e+00 1.000000000000000000e+00 1.000000000000000000e+00 1.000000000000000000e+00 1.000000000000000000e+00 1.000000000000000000e+00 1.000000000000000000e+00 1.000000000000000000e+00 1.000000000000000000e+00 1.000000000000000000e+00 1.000000000000000000e+00 1.000000000000000000e+00 1.000000000000000000e+00 1.000000000000000000e+00 1.000000000000000000e+00 1.000000000000000000e+00 1.000000000000000000e+00 1.000000000000000000e+00 1.000000000000000000e+00 1.000000000000000000e+00 1.000000000000000000e+00 1.000000000000000000e+00 1.000000000000000000e+00 1.000000000000000000e+00 1.000000000000000000e+00 1.000000000000000000e+00 1.000000000000000000e+00 1.000000000000000000e+00 1.000000000000000000e+00 1.000000000000000000e+00 1.000000000000000000e+00 1.000000000000000000e+00 1.000000000000000000e+00 1.000000000000000000e+00 1.000000000000000000e+00 1.000000000000000000e+00 1.000000000000000000e+00 1.000000000000000000e+00 1.000000000000000000e+00 1.000000000000000000e+00 1.000000000000000000e+00 1.000000000000000000e+00 1.000000000000000000e+00 1.000000000000000000e+00 1.000000000000000000e+00 1.000000000000000000e+00 1.000000000000000000e+00 1.000000000000000000e+00 1.000000000000000000e+00 1.000000000000000000e+00 1.000000000000000000e+00 1.000000000000000000e+00 1.000000000000000000e+00 1.000000000000000000e+00 1.000000000000000000e+00 1.000000000000000000e+00 1.000000000000000000e+00 1.000000000000000000e+00 1.000000000000000000e+00 1.000000000000000000e+00 1.000000000000000000e+00 1.000000000000000000e+00 1.000000000000000000e+00 1.000000000000000000e+00 1.000000000000000000e+00 1.000000000000000000e+00 1.000000000000000000e+00 1.000000000000000000e+00 1.000000000000000000e+00 1.000000000000000000e+00 1.000000000000000000e+00 1.000000000000000000e+00 1.000000000000000000e+00 1.000000000000000000e+00 1.000000000000000000e+00 1.000000000000000000e+00 1.000000000000000000e+00 1.000000000000000000e+00 1.000000000000000000e+00 1.000000000000000000e+00 1.000000000000000000e+00 1.000000000000000000e+00 1.000000000000000000e+00 1.000000000000000000e+00 1.000000000000000000e+00 1.000000000000000000e+00 1.000000000000000000e+00 1.000000000000000000e+00 1.000000000000000000e+00 1.000000000000000000e+00 1.000000000000000000e+00 1.000000000000000000e+00 1.000000000000000000e+00 1.000000000000000000e+00 1.000000000000000000e+00 1.000000000000000000e+00 1.000000000000000000e+00 1.000000000000000000e+00 1.000000000000000000e+00 1.000000000000000000e+00 1.000000000000000000e+00 1.000000000000000000e+00 1.000000000000000000e+00 1.000000000000000000e+00 1.000000000000000000e+00 1.000000000000000000e+00 1.000000000000000000e+00 1.000000000000000000e+00 1.000000000000000000e+00 1.000000000000000000e+00 1.000000000000000000e+00 1.000000000000000000e+00 1.000000000000000000e+00 1.000000000000000000e+00 1.000000000000000000e+00 1.000000000000000000e+00 1.000000000000000000e+00 1.000000000000000000e+00 1.000000000000000000e+00 1.000000000000000000e+00 1.000000000000000000e+00 1.000000000000000000e+00 1.000000000000000000e+00 1.000000000000000000e+00 1.000000000000000000e+00 1.000000000000000000e+00 1.000000000000000000e+00 1.000000000000000000e+00 1.000000000000000000e+00 1.000000000000000000e+00 1.000000000000000000e+00 1.000000000000000000e+00 1.000000000000000000e+00 1.000000000000000000e+00 1.000000000000000000e+00 1.000000000000000000e+00 1.000000000000000000e+00 1.000000000000000000e+00 1.000000000000000000e+00 1.000000000000000000e+00 1.000000000000000000e+00 1.000000000000000000e+00 1.000000000000000000e+00 1.000000000000000000e+00 1.000000000000000000e+00 1.000000000000000000e+00 1.000000000000000000e+00 1.000000000000000000e+00 1.000000000000000000e+00 1.000000000000000000e+00 1.000000000000000000e+00 1.000000000000000000e+00 1.000000000000000000e+00 1.000000000000000000e+00 1.000000000000000000e+00 1.000000000000000000e+00 1.000000000000000000e+00 1.000000000000000000e+00 1.000000000000000000e+00 1.000000000000000000e+00 1.000000000000000000e+00 1.000000000000000000e+00 1.000000000000000000e+00 1.000000000000000000e+00 1.000000000000000000e+00 1.000000000000000000e+00 1.000000000000000000e+00 1.000000000000000000e+00 1.000000000000000000e+00 1.000000000000000000e+00 1.000000000000000000e+00 1.000000000000000000e+00 1.000000000000000000e+00 1.000000000000000000e+00 1.000000000000000000e+00 1.000000000000000000e+00 1.000000000000000000e+00 1.000000000000000000e+00 1.000000000000000000e+00 1.000000000000000000e+00 1.000000000000000000e+00 1.000000000000000000e+00 1.000000000000000000e+00 1.000000000000000000e+00 1.000000000000000000e+00 1.000000000000000000e+00 1.000000000000000000e+00 1.000000000000000000e+00 1.000000000000000000e+00 1.000000000000000000e+00 1.000000000000000000e+00 1.000000000000000000e+00 1.000000000000000000e+00 1.000000000000000000e+00 1.000000000000000000e+00 1.000000000000000000e+00 1.000000000000000000e+00 1.000000000000000000e+00 1.000000000000000000e+00 1.000000000000000000e+00 1.000000000000000000e+00 1.000000000000000000e+00 1.000000000000000000e+00 1.000000000000000000e+00 1.000000000000000000e+00 1.000000000000000000e+00 1.000000000000000000e+00 1.000000000000000000e+00 1.000000000000000000e+00 1.000000000000000000e+00 1.000000000000000000e+00 1.000000000000000000e+00 1.000000000000000000e+00 1.000000000000000000e+00 1.000000000000000000e+00 1.000000000000000000e+00 1.000000000000000000e+00 1.000000000000000000e+00 1.000000000000000000e+00 1.000000000000000000e+00 1.000000000000000000e+00 1.000000000000000000e+00 1.000000000000000000e+00 1.000000000000000000e+00 1.000000000000000000e+00 1.000000000000000000e+00 1.000000000000000000e+00 1.000000000000000000e+00 1.000000000000000000e+00 1.000000000000000000e+00 1.000000000000000000e+00 1.000000000000000000e+00 1.000000000000000000e+00 1.000000000000000000e+00 1.000000000000000000e+00 1.000000000000000000e+00 1.000000000000000000e+00 1.000000000000000000e+00 1.000000000000000000e+00 1.000000000000000000e+00 1.000000000000000000e+00 1.000000000000000000e+00 1.000000000000000000e+00 1.000000000000000000e+00 1.000000000000000000e+00 1.000000000000000000e+00 1.000000000000000000e+00 1.000000000000000000e+00 1.000000000000000000e+00 1.000000000000000000e+00 1.000000000000000000e+00 1.000000000000000000e+00 1.000000000000000000e+00 1.000000000000000000e+00 1.000000000000000000e+00 1.000000000000000000e+00 1.000000000000000000e+00 1.000000000000000000e+00 1.000000000000000000e+00 1.000000000000000000e+00 1.000000000000000000e+00 1.000000000000000000e+00 1.000000000000000000e+00 1.000000000000000000e+00 1.000000000000000000e+00 1.000000000000000000e+00 1.000000000000000000e+00 1.000000000000000000e+00 1.000000000000000000e+00 1.000000000000000000e+00 1.000000000000000000e+00 1.000000000000000000e+00 1.000000000000000000e+00 1.000000000000000000e+00 1.000000000000000000e+00 1.000000000000000000e+00 1.000000000000000000e+00 1.000000000000000000e+00 1.000000000000000000e+00 1.000000000000000000e+00 1.000000000000000000e+00 1.000000000000000000e+00 1.000000000000000000e+00 1.000000000000000000e+00 1.000000000000000000e+00 1.000000000000000000e+00 1.000000000000000000e+00 1.000000000000000000e+00 1.000000000000000000e+00 1.000000000000000000e+00 1.000000000000000000e+00 1.000000000000000000e+00 1.000000000000000000e+00 1.000000000000000000e+00 1.000000000000000000e+00 1.000000000000000000e+00 1.000000000000000000e+00 1.000000000000000000e+00 1.000000000000000000e+00 1.000000000000000000e+00 1.000000000000000000e+00 1.000000000000000000e+00 1.000000000000000000e+00 1.000000000000000000e+00 1.000000000000000000e+00 1.000000000000000000e+00 1.000000000000000000e+00 1.000000000000000000e+00 1.000000000000000000e+00 1.000000000000000000e+00 1.000000000000000000e+00 1.000000000000000000e+00 1.000000000000000000e+00 1.000000000000000000e+00 1.000000000000000000e+00 1.000000000000000000e+00 1.000000000000000000e+00 1.000000000000000000e+00 1.000000000000000000e+00 1.000000000000000000e+00 1.000000000000000000e+00 1.000000000000000000e+00 1.000000000000000000e+00 1.000000000000000000e+00 1.000000000000000000e+00 1.000000000000000000e+00 1.000000000000000000e+00 1.000000000000000000e+00 1.000000000000000000e+00 1.000000000000000000e+00 1.000000000000000000e+00 1.000000000000000000e+00 1.000000000000000000e+00 1.000000000000000000e+00 1.000000000000000000e+00 1.000000000000000000e+00 1.000000000000000000e+00 1.000000000000000000e+00 1.000000000000000000e+00 1.000000000000000000e+00 1.000000000000000000e+00 1.000000000000000000e+00 1.000000000000000000e+00 1.000000000000000000e+00 1.000000000000000000e+00 1.000000000000000000e+00 1.000000000000000000e+00 1.000000000000000000e+00 1.000000000000000000e+00 1.000000000000000000e+00 1.000000000000000000e+00 1.000000000000000000e+00 1.000000000000000000e+00 1.000000000000000000e+00 1.000000000000000000e+00 1.000000000000000000e+00 1.000000000000000000e+00 1.000000000000000000e+00 1.000000000000000000e+00 1.000000000000000000e+00 1.000000000000000000e+00 1.000000000000000000e+00 1.000000000000000000e+00 1.000000000000000000e+00 1.000000000000000000e+00 1.000000000000000000e+00 1.000000000000000000e+00 1.000000000000000000e+00 1.000000000000000000e+00 1.000000000000000000e+00 1.000000000000000000e+00 1.000000000000000000e+00 1.000000000000000000e+00 1.000000000000000000e+00 1.000000000000000000e+00 1.000000000000000000e+00 1.000000000000000000e+00 1.000000000000000000e+00 1.000000000000000000e+00 1.000000000000000000e+00 1.000000000000000000e+00 1.000000000000000000e+00 1.000000000000000000e+00 1.000000000000000000e+00 1.000000000000000000e+00 1.000000000000000000e+00 1.000000000000000000e+00 1.000000000000000000e+00 1.000000000000000000e+00 1.000000000000000000e+00 1.000000000000000000e+00 1.000000000000000000e+00 1.000000000000000000e+00 1.000000000000000000e+00 1.000000000000000000e+00 1.000000000000000000e+00 1.000000000000000000e+00 1.000000000000000000e+00 1.000000000000000000e+00 1.000000000000000000e+00 1.000000000000000000e+00 1.000000000000000000e+00 1.000000000000000000e+00 1.000000000000000000e+00 1.000000000000000000e+00 1.000000000000000000e+00 1.000000000000000000e+00 1.000000000000000000e+00 1.000000000000000000e+00 1.000000000000000000e+00 1.000000000000000000e+00 1.000000000000000000e+00 1.000000000000000000e+00 1.000000000000000000e+00 1.000000000000000000e+00 1.000000000000000000e+00 1.000000000000000000e+00 1.000000000000000000e+00 1.000000000000000000e+00 1.000000000000000000e+00 1.000000000000000000e+00 1.000000000000000000e+00 1.000000000000000000e+00 1.000000000000000000e+00 1.000000000000000000e+00 1.000000000000000000e+00 1.000000000000000000e+00 1.000000000000000000e+00 1.000000000000000000e+00 1.000000000000000000e+00 1.000000000000000000e+00 1.000000000000000000e+00 1.000000000000000000e+00 1.000000000000000000e+00 1.000000000000000000e+00 1.000000000000000000e+00 1.000000000000000000e+00 1.000000000000000000e+00 1.000000000000000000e+00 1.000000000000000000e+00 1.000000000000000000e+00 1.000000000000000000e+00 1.000000000000000000e+00 1.000000000000000000e+00 1.000000000000000000e+00 1.000000000000000000e+00 1.000000000000000000e+00 1.000000000000000000e+00 1.000000000000000000e+00 1.000000000000000000e+00 1.000000000000000000e+00 1.000000000000000000e+00 1.000000000000000000e+00 1.000000000000000000e+00 1.000000000000000000e+00 1.000000000000000000e+00 1.000000000000000000e+00 1.000000000000000000e+00 1.000000000000000000e+00 1.000000000000000000e+00 1.000000000000000000e+00 1.000000000000000000e+00 1.000000000000000000e+00 1.000000000000000000e+00 1.000000000000000000e+00 1.000000000000000000e+00 1.000000000000000000e+00 1.000000000000000000e+00 1.000000000000000000e+00 1.000000000000000000e+00 1.000000000000000000e+00 1.000000000000000000e+00 1.000000000000000000e+00 1.000000000000000000e+00 1.000000000000000000e+00 1.000000000000000000e+00 1.000000000000000000e+00 1.000000000000000000e+00 1.000000000000000000e+00 1.000000000000000000e+00 1.000000000000000000e+00 1.000000000000000000e+00 1.000000000000000000e+00 1.000000000000000000e+00 1.000000000000000000e+00 1.000000000000000000e+00 1.000000000000000000e+00 1.000000000000000000e+00 1.000000000000000000e+00 1.000000000000000000e+00 1.000000000000000000e+00 1.000000000000000000e+00 1.000000000000000000e+00 1.000000000000000000e+00 1.000000000000000000e+00 1.000000000000000000e+00 1.000000000000000000e+00 1.000000000000000000e+00 1.000000000000000000e+00 1.000000000000000000e+00 1.000000000000000000e+00 1.000000000000000000e+00 1.000000000000000000e+00 1.000000000000000000e+00 1.000000000000000000e+00 1.000000000000000000e+00 1.000000000000000000e+00 1.000000000000000000e+00 1.000000000000000000e+00 1.000000000000000000e+00 1.000000000000000000e+00 1.000000000000000000e+00 1.000000000000000000e+00 1.000000000000000000e+00 1.000000000000000000e+00 1.000000000000000000e+00 1.000000000000000000e+00 1.000000000000000000e+00 1.000000000000000000e+00 1.000000000000000000e+00 1.000000000000000000e+00 1.000000000000000000e+00 1.000000000000000000e+00 1.000000000000000000e+00 1.000000000000000000e+00 1.000000000000000000e+00 1.000000000000000000e+00 1.000000000000000000e+00 1.000000000000000000e+00 1.000000000000000000e+00 1.000000000000000000e+00 1.000000000000000000e+00 1.000000000000000000e+00 1.000000000000000000e+00 1.000000000000000000e+00 1.000000000000000000e+00 1.000000000000000000e+00 1.000000000000000000e+00 1.000000000000000000e+00 1.000000000000000000e+00 1.000000000000000000e+00 1.000000000000000000e+00 1.000000000000000000e+00 1.000000000000000000e+00 1.000000000000000000e+00 1.000000000000000000e+00 1.000000000000000000e+00 1.000000000000000000e+00 1.000000000000000000e+00 1.000000000000000000e+00 1.000000000000000000e+00 1.000000000000000000e+00 1.000000000000000000e+00 1.000000000000000000e+00 1.000000000000000000e+00 1.000000000000000000e+00 1.000000000000000000e+00 1.000000000000000000e+00 1.000000000000000000e+00 1.000000000000000000e+00 1.000000000000000000e+00 1.000000000000000000e+00 1.000000000000000000e+00 1.000000000000000000e+00 1.000000000000000000e+00 1.000000000000000000e+00 1.000000000000000000e+00 1.000000000000000000e+00 1.000000000000000000e+00 1.000000000000000000e+00 1.000000000000000000e+00 1.000000000000000000e+00 1.000000000000000000e+00 1.000000000000000000e+00 1.000000000000000000e+00 1.000000000000000000e+00 1.000000000000000000e+00 1.000000000000000000e+00 1.000000000000000000e+00 1.000000000000000000e+00 1.000000000000000000e+00 1.000000000000000000e+00 1.000000000000000000e+00 1.000000000000000000e+00 1.000000000000000000e+00 1.000000000000000000e+00 1.000000000000000000e+00 1.000000000000000000e+00 1.000000000000000000e+00 1.000000000000000000e+00 1.000000000000000000e+00 1.000000000000000000e+00 1.000000000000000000e+00 1.000000000000000000e+00 1.000000000000000000e+00 1.000000000000000000e+00 1.000000000000000000e+00 1.000000000000000000e+00 1.000000000000000000e+00 1.000000000000000000e+00 1.000000000000000000e+00 1.000000000000000000e+00 1.000000000000000000e+00 1.000000000000000000e+00 1.000000000000000000e+00 1.000000000000000000e+00 1.000000000000000000e+00 1.000000000000000000e+00 1.000000000000000000e+00 1.000000000000000000e+00 1.000000000000000000e+00 1.000000000000000000e+00 1.000000000000000000e+00 1.000000000000000000e+00 1.000000000000000000e+00 1.000000000000000000e+00 1.000000000000000000e+00 1.000000000000000000e+00 1.000000000000000000e+00 1.000000000000000000e+00 1.000000000000000000e+00 1.000000000000000000e+00 1.000000000000000000e+00 1.000000000000000000e+00 1.000000000000000000e+00 1.000000000000000000e+00 1.000000000000000000e+00 1.000000000000000000e+00 1.000000000000000000e+00 1.000000000000000000e+00 1.000000000000000000e+00 1.000000000000000000e+00 1.000000000000000000e+00 1.000000000000000000e+00 1.000000000000000000e+00 1.000000000000000000e+00 1.000000000000000000e+00 1.000000000000000000e+00 1.000000000000000000e+00 1.000000000000000000e+00 1.000000000000000000e+00 1.000000000000000000e+00 1.000000000000000000e+00 1.000000000000000000e+00 1.000000000000000000e+00 1.000000000000000000e+00 1.000000000000000000e+00 1.000000000000000000e+00 1.000000000000000000e+00 1.000000000000000000e+00 1.000000000000000000e+00 1.000000000000000000e+00 1.000000000000000000e+00 1.000000000000000000e+00 1.000000000000000000e+00 1.000000000000000000e+00 1.000000000000000000e+00 1.000000000000000000e+00 1.000000000000000000e+00 1.000000000000000000e+00 1.000000000000000000e+00 1.000000000000000000e+00 1.000000000000000000e+00 1.000000000000000000e+00 1.000000000000000000e+00 1.000000000000000000e+00 1.000000000000000000e+00 1.000000000000000000e+00 1.000000000000000000e+00 1.000000000000000000e+00 1.000000000000000000e+00 1.000000000000000000e+00 1.000000000000000000e+00 1.000000000000000000e+00 1.000000000000000000e+00 1.000000000000000000e+00 1.000000000000000000e+00 1.000000000000000000e+00 1.000000000000000000e+00 1.000000000000000000e+00 1.000000000000000000e+00 1.000000000000000000e+00 1.000000000000000000e+00 1.000000000000000000e+00 1.000000000000000000e+00 1.000000000000000000e+00 1.000000000000000000e+00 1.000000000000000000e+00 1.000000000000000000e+00 1.000000000000000000e+00 1.000000000000000000e+00 1.000000000000000000e+00 1.000000000000000000e+00 1.000000000000000000e+00 1.000000000000000000e+00 1.000000000000000000e+00 1.000000000000000000e+00 1.000000000000000000e+00 1.000000000000000000e+00 1.000000000000000000e+00 1.000000000000000000e+00 1.000000000000000000e+00 1.000000000000000000e+00 1.000000000000000000e+00 1.000000000000000000e+00 1.000000000000000000e+00 1.000000000000000000e+00 1.000000000000000000e+00 1.000000000000000000e+00 1.000000000000000000e+00 1.000000000000000000e+00 1.000000000000000000e+00 1.000000000000000000e+00 1.000000000000000000e+00 1.000000000000000000e+00 1.000000000000000000e+00 1.000000000000000000e+00 1.000000000000000000e+00 1.000000000000000000e+00 1.000000000000000000e+00 1.000000000000000000e+00 1.000000000000000000e+00 1.000000000000000000e+00 1.000000000000000000e+00 1.000000000000000000e+00 1.000000000000000000e+00 1.000000000000000000e+00 1.000000000000000000e+00 1.000000000000000000e+00 1.000000000000000000e+00 1.000000000000000000e+00 1.000000000000000000e+00 1.000000000000000000e+00 1.000000000000000000e+00 1.000000000000000000e+00 1.000000000000000000e+00 1.000000000000000000e+00 1.000000000000000000e+00 1.000000000000000000e+00 1.000000000000000000e+00 1.000000000000000000e+00 1.000000000000000000e+00 1.000000000000000000e+00 1.000000000000000000e+00 1.000000000000000000e+00 1.000000000000000000e+00 1.000000000000000000e+00 1.000000000000000000e+00 1.000000000000000000e+00 1.000000000000000000e+00 1.000000000000000000e+00 1.000000000000000000e+00 1.000000000000000000e+00 1.000000000000000000e+00 1.000000000000000000e+00 1.000000000000000000e+00 1.000000000000000000e+00 1.000000000000000000e+00 1.000000000000000000e+00 1.000000000000000000e+00 1.000000000000000000e+00 1.000000000000000000e+00 1.000000000000000000e+00 1.000000000000000000e+00 1.000000000000000000e+00 1.000000000000000000e+00 1.000000000000000000e+00 1.000000000000000000e+00 1.000000000000000000e+00 1.000000000000000000e+00 1.000000000000000000e+00 1.000000000000000000e+00 1.000000000000000000e+00 1.000000000000000000e+00 1.000000000000000000e+00 1.000000000000000000e+00 1.000000000000000000e+00 1.000000000000000000e+00 1.000000000000000000e+00 1.000000000000000000e+00 1.000000000000000000e+00 1.000000000000000000e+00 1.000000000000000000e+00 1.000000000000000000e+00 1.000000000000000000e+00 1.000000000000000000e+00 1.000000000000000000e+00 1.000000000000000000e+00 1.000000000000000000e+00 1.000000000000000000e+00 1.000000000000000000e+00 1.000000000000000000e+00 1.000000000000000000e+00 1.000000000000000000e+00 1.000000000000000000e+00 1.000000000000000000e+00 1.000000000000000000e+00 1.000000000000000000e+00 1.000000000000000000e+00 1.000000000000000000e+00 1.000000000000000000e+00 1.000000000000000000e+00 1.000000000000000000e+00 1.000000000000000000e+00 1.000000000000000000e+00 1.000000000000000000e+00 1.000000000000000000e+00 1.000000000000000000e+00 1.000000000000000000e+00 1.000000000000000000e+00 1.000000000000000000e+00 1.000000000000000000e+00 1.000000000000000000e+00 1.000000000000000000e+00 1.000000000000000000e+00 1.000000000000000000e+00 1.000000000000000000e+00 1.000000000000000000e+00 1.000000000000000000e+00 1.000000000000000000e+00 1.000000000000000000e+00 1.000000000000000000e+00 1.000000000000000000e+00 1.000000000000000000e+00 1.000000000000000000e+00 1.000000000000000000e+00 1.000000000000000000e+00 1.000000000000000000e+00 1.000000000000000000e+00 1.000000000000000000e+00 1.000000000000000000e+00 1.000000000000000000e+00 1.000000000000000000e+00 1.000000000000000000e+00 1.000000000000000000e+00 1.000000000000000000e+00 1.000000000000000000e+00 1.000000000000000000e+00 1.000000000000000000e+00 1.000000000000000000e+00 1.000000000000000000e+00 1.000000000000000000e+00 1.000000000000000000e+00 1.000000000000000000e+00 1.000000000000000000e+00 1.000000000000000000e+00 1.000000000000000000e+00 1.000000000000000000e+00 1.000000000000000000e+00 1.000000000000000000e+00 1.000000000000000000e+00 1.000000000000000000e+00 1.000000000000000000e+00 1.000000000000000000e+00 1.000000000000000000e+00 1.000000000000000000e+00 1.000000000000000000e+00 1.000000000000000000e+00 1.000000000000000000e+00 1.000000000000000000e+00 1.000000000000000000e+00 1.000000000000000000e+00 1.000000000000000000e+00 1.000000000000000000e+00 1.000000000000000000e+00 1.000000000000000000e+00 1.000000000000000000e+00 1.000000000000000000e+00 1.000000000000000000e+00 1.000000000000000000e+00 1.000000000000000000e+00 1.000000000000000000e+00 1.000000000000000000e+00 1.000000000000000000e+00 1.000000000000000000e+00 1.000000000000000000e+00 1.000000000000000000e+00 1.000000000000000000e+00 1.000000000000000000e+00 1.000000000000000000e+00 1.000000000000000000e+00 1.000000000000000000e+00 1.000000000000000000e+00 1.000000000000000000e+00 1.000000000000000000e+00 1.000000000000000000e+00 1.000000000000000000e+00 1.000000000000000000e+00 1.000000000000000000e+00 1.000000000000000000e+00 1.000000000000000000e+00 1.000000000000000000e+00 1.000000000000000000e+00 1.000000000000000000e+00 1.000000000000000000e+00 1.000000000000000000e+00 1.000000000000000000e+00 1.000000000000000000e+00 1.000000000000000000e+00 1.000000000000000000e+00 1.000000000000000000e+00 1.000000000000000000e+00 1.000000000000000000e+00 1.000000000000000000e+00 1.000000000000000000e+00 1.000000000000000000e+00 1.000000000000000000e+00 1.000000000000000000e+00 1.000000000000000000e+00 1.000000000000000000e+00 1.000000000000000000e+00 1.000000000000000000e+00 1.000000000000000000e+00 1.000000000000000000e+00 1.000000000000000000e+00 1.000000000000000000e+00 1.000000000000000000e+00 1.000000000000000000e+00 1.000000000000000000e+00 1.000000000000000000e+00 1.000000000000000000e+00 1.000000000000000000e+00 1.000000000000000000e+00 1.000000000000000000e+00 1.000000000000000000e+00 1.000000000000000000e+00 1.000000000000000000e+00 1.000000000000000000e+00 1.000000000000000000e+00 1.000000000000000000e+00 1.000000000000000000e+00 1.000000000000000000e+00 1.000000000000000000e+00 1.000000000000000000e+00 1.000000000000000000e+00 1.000000000000000000e+00 1.000000000000000000e+00 1.000000000000000000e+00 1.000000000000000000e+00 1.000000000000000000e+00 1.000000000000000000e+00 1.000000000000000000e+00 1.000000000000000000e+00 1.000000000000000000e+00 1.000000000000000000e+00 1.000000000000000000e+00 1.000000000000000000e+00 1.000000000000000000e+00 1.000000000000000000e+00 1.000000000000000000e+00 1.000000000000000000e+00 1.000000000000000000e+00 1.000000000000000000e+00 1.000000000000000000e+00 1.000000000000000000e+00 1.000000000000000000e+00 1.000000000000000000e+00 1.000000000000000000e+00 1.000000000000000000e+00 1.000000000000000000e+00 1.000000000000000000e+00 1.000000000000000000e+00 1.000000000000000000e+00 1.000000000000000000e+00 1.000000000000000000e+00 1.000000000000000000e+00 1.000000000000000000e+00 1.000000000000000000e+00 1.000000000000000000e+00 1.000000000000000000e+00 1.000000000000000000e+00 1.000000000000000000e+00 1.000000000000000000e+00 1.000000000000000000e+00 1.000000000000000000e+00 1.000000000000000000e+00 1.000000000000000000e+00 1.000000000000000000e+00 1.000000000000000000e+00 1.000000000000000000e+00 1.000000000000000000e+00 1.000000000000000000e+00 1.000000000000000000e+00 1.000000000000000000e+00 1.000000000000000000e+00 1.000000000000000000e+00 1.000000000000000000e+00 1.000000000000000000e+00 1.000000000000000000e+00 1.000000000000000000e+00 1.000000000000000000e+00 1.000000000000000000e+00 1.000000000000000000e+00 1.000000000000000000e+00 1.000000000000000000e+00 1.000000000000000000e+00 1.000000000000000000e+00 1.000000000000000000e+00
6.204088900754798491e-02 5.403658793175578623e-01 -3.012002241845292416e-01 7.833071910881284072e-01 5.187693291928376915e-01 5.660277604981034383e-01 5.593563696404453278e-01 4.323386381393033440e-01 5.668259693561120693e-01 5.159022505948244186e-01 1.088482980581468640e+00 -7.435655941582420825e-01 1.429604205128766958e+00 4.715922462964972084e-01 5.211845489330633185e-01 4.302999462109267093e-01 8.219260891289381643e-01 9.795458287582408108e-01 7.521471696823067710e-01 5.029386683396243063e-01 3.736173730765668388e-01 9.980201864329080186e-01 3.501031007143999285e-01 5.731092665784947027e-01 6.134298891967372019e-02 6.588149279565208571e-01 4.343653103737948884e-01 7.207233230250583711e-01 5.218326445580186990e-01 1.651160220276382429e+00 4.877176865021973784e-01 5.999882302045409510e-01 7.184632418359765405e-01 5.085568520204020171e-01 6.855427945001935086e-01 4.658643671658074248e-01 5.860894835729751895e-01 1.883340336801401893e+00 -1.008477265170833054e-01 5.095475769917628961e-01 -2.393045700651288410e-01 -5.621585580965433593e-01 7.450206355707917893e-01 2.326206241329717150e-01 3.392258884187333567e-01 4.971768628167499982e-01 7.832173991812455549e-01 5.538882996209532061e-01 6.901209359903525131e-01 9.854128247618597694e-03 4.227852041876827005e-02 7.382332922803769293e-01 6.847579591086545570e-01 4.144537257082950288e-01 4.692299791089980521e-01 2.535881306464340956e-02 5.766911484110970321e-01 5.096814598640765359e-01 2.034066981206636149e-01 5.320271013887013511e-01 9.325941160069752822e-01 4.421322860318464554e-01 5.009908445681081623e-01 3.501031275305831469e-01 6.734487695556853337e-01 6.740488543734778348e-01 5.135954777074939193e-01 4.759649688711402038e-01 5.370665731364625550e-01 5.442823277416905525e-02 4.850852074892855748e-01 5.883002710274575220e-01 5.331379151533858218e-01 2.002038589939943158e-02 1.534139413050984224e+00 5.200869946141817302e-01 6.399775240969330925e-01 7.107574110024674763e-01 5.207872651202661851e-01 1.390667487499420929e+00 5.352331519362282242e-01 3.735462938204052175e-01 1.465079867903831490e+00 7.754378367991173748e-01 5.272250348279834409e-01 7.492805445801636877e-01 7.954534562521334840e-01 5.073360618624874752e-01 4.297482602004922825e-01 5.769300146817245567e-01 3.421690084077553817e-01 2.256636683208973260e+00 7.942881471654705816e-01 7.519153960164483286e-02 4.889466588897047883e-01 5.343485603254625183e-01 5.526275682286841961e-01 4.869009306127466408e-01 1.906223945449667945e-01 6.593771397113021848e-01 1.658180799793510740e+00 6.863492346757702478e-01 5.038202740942557822e-01 5.298991871269909115e-01 8.509789748641655160e-01 -2.174853231439310086e+00 -1.262990115378872291e+00 5.003253577073586422e-01 6.321523822380835655e-01 9.663940592317028511e-01 5.851287060057434042e-01 4.166867988348880725e-01 1.923952838743502036e-01 5.190424669022842830e-01 5.304610050706424218e-01 5.168998432724800640e-01 4.488109702393460188e-01 4.794568116275096936e-01 1.026538062926732664e+00 5.135100566360074614e-01 1.324185896589915146e+00 5.323794292315012777e-01 6.566285583723432406e-01 -5.862505109074368503e-01 5.275783211877381751e-01 1.990288213222577429e+00 4.689516071000701114e-01 5.039853841969711423e-01 6.659223662542734790e-01 5.125957145449802077e-01 5.893335491230530243e-01 5.252390885105182594e-01 4.451341936443158898e-01 5.503638286666344692e-01 -4.153024245712848561e-01 -1.722991835972104979e-01 6.851827475681895319e-01 4.371112023912793187e-02 1.015159400859274141e+00 5.104852420332469665e-01 5.441027478536777373e-01 8.788197917420224048e-01 4.495499469883665333e-01 4.673642184177030368e-01 5.214331102706771803e-01 2.370887323915356684e-02 9.953039726260791697e-01 -2.173751857806124066e-01 4.157375382925360130e-01 -9.403873152265993518e-01 7.445934317681366377e-01 -2.793892338412994891e-01 4.971590844967256340e-01 4.992091917468606255e-01 5.839593871339405773e-01 5.160200804303816113e-01 2.075744684615108415e+00 -1.899347426349402845e-01 8.320567532242260089e-01 6.477368467106895400e-01 5.689966603695576497e-01 4.847025326636603126e-01 5.089704296970994912e-01 5.188695931762867808e-01 1.060658359956242247e+00 2.768943457384968054e-01 8.518372192238043983e-01 2.876256899680287860e-01 3.708437003707043544e-01 6.087507088039387781e-01 6.435987775660007015e-01 7.851689557689787158e-01 4.972248747059352381e-01 5.184157771858676211e-01 4.020576070730261797e-01 4.270184066977316534e-02 2.341448541990437393e-01 1.185879117997940685e-01 7.612975942481300384e-01 1.144653505298117491e+00 6.512860690557215060e-01 5.213048716267292271e-01 -1.619467117001558432e-01 4.550789230110586780e-01 4.057976252734905587e-01 4.985738892983849757e-01 5.353894023739312891e-01 5.222253550062719851e-01 2.900468009311007567e+00 4.755303580645676154e-01 5.775855854636141595e-01 -9.382799086843505165e-01 5.167986487886843117e-01 4.914687916568169501e-01 2.068325030230591388e-01 5.233944198967449557e-01 9.504697658809148075e-01 5.475816077200246212e-01 3.830398006533559663e-01 5.696696453545315730e-01 6.334971151771735531e-01 5.431869341485945357e-01 8.170531721183487139e-01 6.026859918351993306e-01 5.432032198816053592e-01 3.830397700627135582e-01 1.772732474409621506e-01 1.306708668703437937e+00 5.335491599467494517e-01 5.264422372477917111e-01 4.190084096475937825e-01 -1.001768060872466753e-01 5.048611429075039458e-01 1.537791200734939245e-01 5.101350396787549535e-01 5.178367243752932669e-01 5.178839979660788684e-01 5.262932200258705340e-01 5.295776886578249520e-01 5.198019726070040036e-01 4.463109891686759534e-01 5.442485739179286908e-01 -7.275303497454842505e-01 6.319615157749588485e-01 5.095000332917958286e-01 3.433015935966176602e-01 -2.212874517808808422e-02 1.354489377527070548e+00 9.779845841238453685e-01 4.878168143606641527e-01 -1.013806071549492038e-01 1.072454056240346176e+00 5.202578898632644888e-01 4.941036990861570888e-01 6.756202248060525495e-01 4.044312289417046347e-01 2.257197148035432199e-01 1.566737120183161469e-01 -1.702298833292910374e-01 -5.020736465955336764e-02 5.676997939885435329e-01 5.321680940296262818e-01 -1.249059833486996229e-01 4.537206767713760636e-01 5.169888835752765033e-01 5.395481046906256406e-01 -9.007252296490060595e-02 7.666048014359060359e-01 -2.415608949348377443e+00 6.141506824450641000e-01 -6.971675531984552476e-01 5.017943070261710048e-01 5.203192448909225165e-01 3.501013234570200527e-01 5.037750947968271387e-01 5.281884465826086617e-01 4.969281672705329056e-01 7.969481233228173922e-01 5.776961280780499308e-01 1.706292985955675245e+00 6.849044716227782326e-01 6.705538501176451227e-01 4.492084572369258733e-01 4.312213654614172054e-01 9.325941319415467223e-01 5.130617694405159579e-01 2.771786924190485557e+00 4.385140970986117215e-01 2.151410900694930572e-01 7.821213745566143460e-01 5.248942626755394025e-01 9.326455140695977253e-01 5.220961630761620231e-01 5.750545635056146798e-01 5.210249778220081840e-01 1.173103800687751441e+00 7.622255702497505725e-01 8.537822900029512496e-01 7.939231969173995429e-01 5.904541566617433901e-01 6.877146183745946884e-01 5.078447717635456993e-01 3.683197643109024644e-01 -7.598003968366382477e-01 3.932721782516269693e-01 3.979976124815656768e-01 5.120317152798595783e-01 4.986480455729644379e-01 5.168997961728857282e-01 6.140203229152165765e-01 5.073865235554516628e-01 -9.608725943115578039e-01 7.778217079639817566e-01 4.864546536018524159e-01 -1.734030041563267011e-02 4.515033601927680440e-01 1.864101959402702180e+00 5.081492650740917494e-01 5.224109439703379376e-01 4.157286526426611228e-01 -3.546501162476977775e+00 5.147108798278497988e-01 3.003184669968511855e+00 7.843270543628914071e-01 5.523466066911514316e-01 -5.668540358276182856e-01 5.245737612631812263e-01 5.195834296172797684e-01 4.609586750099303187e-01 4.498156332724272954e-01 3.290213876831931117e-01 6.549513886422901887e-01 3.136355777628196395e-01 5.268124806729668208e-01 5.231154006140106283e-01 3.637286611320074692e-01 5.188871335394182882e-01 7.837692319150223463e-01 5.218039252114698989e-01 1.220172565036746315e+00 5.370799093246361733e-02 2.250113288558308611e+00 2.705347185179943992e+00 4.771644087820442470e-01 -2.458120975133183117e-01 3.846118096397636021e-01 3.996907484543147371e-01 7.464039497997230210e-01 1.407060352819324400e+00 5.294593282617637842e-01 1.140403642931543837e+00 5.219091096353253301e-01 1.176885800958410028e-01 1.264664036161622374e+00 5.964618055568545740e-01 5.730105894428898505e-01 5.392766825481521975e-01 9.103538093422822719e-01 -3.903104679015275913e+00 1.672275163466373726e+00 5.366487198874728692e-01 6.341321425537773671e-01 5.325628562575073222e-01 1.883340332670349060e+00 2.923691140047464110e-01 5.688090123393527708e-01 4.615617411389488223e-01 6.471527746829884853e-01 1.366792726487536136e+00 5.057744166196768143e-01 3.830394836492517219e-01 4.537230814457982042e-01 6.026859940434103891e-01 3.813261485432588582e-01 5.698907900142824445e-01 9.060511256561966098e-01 5.213965817657997270e-01 3.812589752864805059e-01 1.307372766278035170e-01 6.486537344652197890e-01 5.176217492389016961e-01 2.582817656073911894e-01 5.688090558765681592e-01 6.056768798422519362e-01 5.238009906646372560e-01 1.056268122851344637e+00 9.154684885457589072e-01 1.169900256304946984e+00 5.274947352968556435e-01 2.103493874118874951e-01 9.325940877640812587e-01 -1.101330070530319311e-01 9.341445845942896176e-01 6.308063273474252552e-01 5.170163564373841253e-02 4.088265363925301377e-01 8.636218502180380563e-01 3.828722362904314336e-01 4.703737999550512416e-01 3.348911408888723962e-01 -3.436804814995237933e-01 -2.554456241939962791e+00 5.619343108270906662e-01 6.026859916592172128e-01 6.026859549776421021e-01 5.273940163092136757e-01 3.442583820537898909e-01 -2.465828333796794558e-01 2.729177966446557080e-01 5.177864091554409409e-01 7.086477073573360652e-01 5.196624489054187945e-01 1.012393058586857686e+00 3.830401937983145544e-01 5.219038805038327400e-01 5.037050776499270022e-01 3.038675344049451832e-01 6.637819033839276184e-01 5.193660351309009604e-01 5.259045427558336483e-01 4.854284899504054396e-01 3.307263194400034689e-01 2.532187408005275725e-02 6.026859926822397684e-01 6.636726015375600252e-01 5.219898863118073162e-01 3.880369058177079999e-01 8.603170605437908680e-01 7.733013033336542108e-01 5.650227583125121411e-01 1.948006199272210637e+00 4.813162852500320610e-01 -3.252867573989791872e+00 7.835652049032898470e-01 1.557429267694557806e+00 5.833482612479490292e-01 -1.133159986336501168e+00 8.712074530038325104e-01 4.332475038346798590e-01 5.364190834142440467e-01 5.377810774703917218e-01 -4.790524323807101581e-01 5.059241336946295187e-01 1.081766648924829433e+00 4.450358283128001968e-01 -4.277664503340072866e-01 5.114768932343168872e-01 5.323615869211452134e-01 7.967903542683163476e-01 5.340414554175535455e-01 6.203977409170933210e-01 -5.576081758822031276e-01 5.605971960104023655e-01 5.240561833488215360e-01 4.860666289929569395e-01 5.071643485173386035e-01 7.720495894638234047e-01 5.206589514395688623e-01 6.319243593888541621e-01 3.744798816654730800e-01 5.323817769812524414e-01 2.177176685294754943e-01 3.500345539890717950e-01 3.810474576229548327e-01 9.783650565390787923e-01 5.616632945441366598e-01 3.286398377546470240e+00 6.538885297578121980e-01 6.717198119951974800e-01 5.408993702301002626e-01 5.163351544997895060e-01 9.971730204671878234e-03 4.980866341598591540e-01 5.525935373440065135e-01 5.354418734376470423e-01 1.153174145169207243e+00 7.723294512275622470e-01 5.266958848488708655e-01 4.350830402616455705e-01 1.120430772788291618e+00 5.298997735715195168e-01 5.470149721886251593e-01 5.264808113274868084e-01 8.762594372389647113e-01 5.274009442426056404e-01 9.531457844540709434e-01 4.796133241506347344e-01 5.204991437224623096e-01 5.193469344661569981e-02 5.208576681753336324e-01 2.370625507273050464e-02 2.731369777745352723e-01 3.963203332986519611e-01 5.644270478163428972e-01 7.934353585923119567e-01 5.228659902194943143e-01 3.820189085199695578e-01 1.447960612173387340e-01 5.040212576424107915e-01 4.984700588310524427e-01 4.415274468852760648e-01 -4.972798699055635055e-03 5.243483011089355994e-01 2.797621604873037904e-01 5.201902124311551523e-01 4.078483118213603875e-01 1.265511420823451916e+00 7.396715864625077463e-01 5.224932704592121224e-01 2.425176511558497783e-01 8.425628014544507272e-01 4.609086851722473122e-01 1.007503641794190941e+00 5.564070404517715840e-01 6.179720133407170524e-01 7.141127679606388279e-01 2.046513744531793133e+00 5.295187885064315259e-01 5.926686457262025920e-01 5.398230318611866307e-01 7.779193851507117952e-01 6.104413326927440320e-01 8.814900607939519794e-01 -5.911531033572766658e-01 4.422919075869995442e-01 5.234968691725352397e-01 4.461115373521319372e-01 4.962358854844127198e-01 -6.490948303707199107e-01 3.837107350419386442e-01 5.172078808563631558e-01 7.160660058310254206e-01 6.710677268737900159e-01 1.588106255366472652e+00 5.246853178722129529e-01 5.146203928099422065e-01 -7.461259727185315382e-01 5.319940403270495555e-01 1.258027373191962894e+00 7.323818358460909561e-01 3.013783945609255777e-01 2.223003325427680144e-01 -1.915896413503607620e+00 5.603219273117177046e-01 2.016317825554672094e-01 1.114599779099295640e+00 8.335303075346562895e-01 5.561850738075752032e-01 5.733204506236633247e-01 5.117091315890852643e-01 7.838134729147129276e-01 4.121585310397168911e-01 5.501286813688344157e-01 9.855184432860849067e-03 6.228958160042757930e-01 4.742360116260833092e-01 3.584562262576006519e-01 5.177095419832947742e-01 4.244429857468104972e-01 1.247509858213046829e+00 -9.321551115710237367e-02 -2.513067426801555149e-01 4.102353907057659232e-01 4.961915306069546450e-01 5.242832802416206306e-01 5.464976131697744099e-01 -9.028235239893923625e-01 3.249747312120277343e+00 4.420929317550928439e-01 4.355557050500414307e-01 4.681248448220382552e-01 5.198011672521871684e-01 5.019047697045356804e-01 4.522093672026558098e-01 3.308279882977139819e-01 6.226181659700861237e-01 5.198987552541940449e-01 4.465924804674614723e-01 3.029841783099511132e-01 4.101865915653846173e-01 5.522573390515991276e-01 4.048497822874034258e-01 5.705522437881010989e-01 5.079942454603394442e-01 6.911881320808557216e-01 1.032406229864843983e+00 2.363158658152415992e+00 4.775847195162573611e-01 5.028717918710308155e-01 3.084664183448250219e-01 4.769081959103879664e-01 4.005472092136411200e-01 5.205104682056580501e-01 5.152090215350633162e-01 4.823184197553573860e-01 5.913941848298455151e-01 5.817473969649105126e-01 7.836483235568695305e-01 3.647786581181799992e-01 3.809700499475410784e-01 3.841535135940769008e-01 4.664272236552823303e-01 1.001612661478393229e-01 9.325941291470262184e-01 4.631838299120783486e-01 7.381830874687214661e-02 1.915591917758721729e+00 3.425742657011749404e-01 4.000181580402482617e-01 6.004336985479056255e-01 6.757806237555701034e-02 5.532944313274106296e-01 1.545396154746727424e+00 8.139491717722847630e-01 6.637434616055885028e-01 5.199690380314914151e-01 5.076363913382109239e-01 4.116162084590658798e-01 6.087375668440688781e-01 5.286418998629341948e-01 5.202066383203317601e-01 -2.993151251548594738e-01 4.498170102773562107e-01 -1.669268235917639398e+00 5.412370974516895750e-01 5.318303852146871735e-01 5.343224968103378325e-01 4.157138224198639875e-01 9.325941291840984526e-01 2.311149097972029776e-01 4.978510114377548978e-01 1.389523234771012694e+00 -5.970126987161235022e-01 5.176071098359240619e-01 1.168529880076259353e+00 1.585831525248569740e+00 6.020695288426519687e-01 5.158453438934380575e-01 -7.197901399462819372e-02 -1.746114229948909857e+00 2.639750426079132128e-01 8.644956311165580276e-01 5.419874469428017649e-01 5.206408842005589843e-01 6.151329387664808968e-01 4.780904020355304929e-01 -4.381060123021981445e-01 8.452134281981817931e-01 5.169005666298405188e-01 3.232657117490818077e-01 5.083638260429621525e-01 8.434725878568931703e-03 -1.608814501359097926e-01 1.856198076664158814e+00 4.091001508714647850e-01 4.764315991516359650e-01 5.236478833326487781e-01 3.169031838781350419e-01 4.611626942009999230e-01 -1.731612935768246098e-01 -1.423232133882719630e+00 5.215787244422419588e-01 4.799684182474606708e-01 5.267019434049011739e-01 4.968965428386098448e-01 5.362211651265464951e-01 5.473774351213324119e-01 5.266338110958090901e-01 5.508611875712233763e-01 1.044574446611136853e+00 7.044195045536906230e-01 5.361475906584843854e-01 6.481731434228586997e-01 5.572074010682959155e-01 5.877112270955396900e-01 6.510531394333977928e-02 5.688090107852591393e-01 4.279945260334792612e-01 5.833051402220632564e-01 7.407542077949600401e-01 7.976296622354981380e-01 8.815076858974973950e-01 -5.677134063822207866e-01 5.355256383749110727e-01 5.060279239751733771e-01 5.266091621812524215e-01 5.987336551228262804e-01 9.179775790546340630e-01 4.539259765705008220e-01 5.217502317146512913e-01 -3.318841110500952984e-01 -9.192683586194253520e-01 2.372488509086707609e+00 5.261555102987877097e-01 9.105690848167178331e-01 4.262765998803086931e-01 5.828642496359403014e-01 4.116269582889087175e-01 1.537550764140502291e-01 5.228027242708253031e-01 5.045354949504015085e-01 6.576368865360220951e-03 5.188424795796077182e-01 4.705801258138250787e-01 5.229090082475836843e-01 4.271192267782901175e-01 5.283551995643560595e-01 6.505458035895798075e-01 4.392125973851693232e-01 5.234358975946991066e-01 5.553473649425569869e-01 5.156260802418843880e-01 4.195381575254986117e-01 5.249043637213324232e-01 -2.364176264173113162e-01 5.203981932805857857e-01 6.408886333934896706e-01 5.286014089771329250e-01 7.831125926829424211e-01 9.325942610315309800e-01 7.224635252594671098e-01 -6.273587948432530759e-01 9.741735688498356360e-01 1.883340336809843807e+00 5.174211485918825959e-01 4.637188220839078001e-01 1.094415149725382008e+00 5.482434533901530127e-01 7.828551196280755242e-01 5.234283145152013317e-01 1.912497210645653034e+00 5.170804589345802116e-01 4.537206819472405783e-01 1.238333560833491331e+00 -7.030111501844785171e-02 5.114664883506223614e-01 -1.492833829107711729e-01 -1.004238805398705026e+00 -1.610766526702928081e-01 7.790711313662239679e-01 5.489979373141193886e-01 5.352323432719006124e-01 -3.131814174383589777e-01 5.324392622920234297e-01 4.159134292697072577e-02 -4.307772600439204180e-01 5.547805773113712036e-01 5.143792100047647198e-01 5.216793295563142419e-01 4.990164557420761482e-01 4.692452303818309134e-01 9.239708601593628057e-01 -4.623737962631268572e-01 5.198484210865327304e-01 5.036180647934718202e-01 5.500258454345156034e-01 1.181840241693087767e+00 4.744591442550189497e-01 7.101113333029004382e-01 5.207966227619192923e-01 4.788015271157016611e-02 -4.783243274327219630e-01 5.081703618645874165e-01 4.842034124092912117e-01 6.868763361313154903e-01 5.275384946993277868e-01 3.934026906924683598e-01 5.162920554456430500e-01 5.238121318123664105e-01 4.361445921660154212e-01 5.453508368588674271e-01 8.421779237220379244e-01 2.620850964512365877e+00 -2.551659318805444276e-01 6.527115294067221685e-01 3.648828925079485863e-01 1.960227117912318739e-01 6.431129308549570212e-01 -5.296845838904540305e-02 -1.624898397566477026e+00 5.124096637133515042e-01 2.684165899879791706e+00 5.879623190151641587e-01 1.773029032893549684e-01 1.479854254182336737e-01 5.168998414710760381e-01 5.957606511517141712e-01 1.600364792061037544e+00 5.308791040072102785e-01 1.257179557120728930e-01 4.066531603633801728e-01 1.764732994087219398e+00 5.796698354385582119e-01 8.093733841083817770e-01 5.123557637740528969e-01 7.375443722941203983e-01 4.692299396448850746e-01 5.867039087926527730e-01 3.107073201525386782e-02 5.244880091287242863e-01 6.053192567829701609e-01 -5.914954567284923526e-01 -1.223203025822689749e-01 1.187023288134292365e+00 2.420188184316910684e-01 4.768405826414126580e-01 7.303203759402485673e-01 5.054140450820220343e-01 2.034506135877453215e+00 6.446809043258306948e-01 1.178698339139016768e-02 4.097209782128405919e-01 4.030792663421318145e-01 1.156793374270410846e+00 5.045069691700704295e-01 -1.926724566586397389e-02 5.316267265503379358e-01 -2.224667726379579366e-03 4.967095634566839890e-01 5.178493822302470129e-01 2.266356467805110547e-02 -9.583365424805206575e-03 6.568296367325653362e-01 4.638001264082204922e-01 5.858285012760632293e-01 1.615969825570818530e-01 3.977644499769354414e-01 5.331599373309774403e-01 4.314208696649671215e-01 4.928077268751440698e-01 4.805350278123940444e-01 5.659646938685828355e-01 1.023503694692442068e+00 3.210455080294959185e+00 9.774157259242022278e-01 5.206397631870027798e-01 5.176710778839851423e-01 2.207880718434554468e-01 5.244825380350556232e-01 8.654651093320155919e-01 5.157550267194305205e-01 1.317322073038831087e+00 5.420182578650930560e-01 -6.018721778600510941e-01 -2.145998442806641010e-02 4.432414130200095226e-01 6.171901481385645427e-01 5.833547323024076414e-01 5.182564681281325303e-01 5.599726258655067512e-02 5.086893939497368899e-01 5.918128561217880224e-01 -3.917303607523019870e+00 4.780432565650529764e-01 5.403647133359916754e-01 1.146180640315226595e+00 5.143853612740203474e-01 3.864652635116227475e-01 6.608570841766896464e-01 -9.280578103476548879e-01 -4.961553203574514681e-01 1.691415128633181469e-02 5.208865092618093495e-01 6.413388984458996411e-01 2.078686593261842297e-01 5.085454363474587458e-01 -3.507735139769112553e-01 5.258604732550962169e-01 5.744628815245320652e-01 6.975133734863782076e-01 5.596860044714413451e-01 4.649162664676471657e-01 1.394799008282254227e-01 -8.001605839369794193e-01 6.534750686217609683e-01 5.566937588723412933e-01 1.518905659960314569e-01 5.237160357542790523e-01 4.967553749951985065e-01 5.217546266104212682e-01 6.610249619272319244e-01 5.846856999364561380e-01 5.535390418544500202e-01 5.058982696237673826e-01 1.883340342750537522e+00 3.448635755226310273e-01 5.228478932658060518e-01 -1.452592243194220090e-01 5.032957579805391601e-01 6.489296406943986240e-01 5.198362807283763987e-01 4.784363997928727241e-01 3.846900384304491327e-01 9.672878752088801546e-01 1.237239653387003369e+00 5.525348100136229235e-01 5.741568963503368428e-01 5.972770412486488878e-01 5.084513496620504114e-01 5.104458660726547414e-01 5.208606405724867106e-01 9.741560326870074560e-01 6.634123974994338147e-01 -4.696414067086197575e-01 4.710052899502292223e-01 8.962691925240299229e-01 5.119416840962859316e-01 -4.674001007118521595e-02 5.236431287992583394e-01 1.577931370763069996e+00 -1.374794453850135545e-01 6.779087213337297024e-01 2.305072165057984179e-01 4.890424302776681387e-01 8.853108433615279882e-01 5.197075886251590893e-01 3.761721408027170477e-01 1.417566539866826902e+00 4.713698375039858113e-01 5.115493883324739866e-01 -7.339917496784383877e-01 4.374431026143642542e-01 1.038098061972132502e+00 6.333901970883685228e-01 6.129033821036968671e-02 1.003086422511477949e+00 -6.153151892760794911e-03 7.652983003290082520e-01 1.676047604721253359e+00 -8.721694496756134951e-01 5.588809366168525639e-01 5.210901992086790502e-01 -4.924216208997231892e-01 3.010747951060788741e-01 5.385920805864743421e-01 5.301790625918161304e-01 4.628372023773620336e-01 4.611225298211076851e-01 2.624942409159446433e-01 3.529447836291266238e-01 5.620361585589760400e-01 5.207056610096075788e-01 9.975036209492499362e-03 -1.791973115397399452e-01 5.077220304261795825e-01 1.071535062715115671e+00 5.762704982082339500e-01 -5.912891928155723509e-01 4.226027472053167089e-01 5.196660095902632115e-01 5.705267179050319548e-01 4.882619210790579284e-02 3.226915853520519462e-01 5.174339548013837664e-01 5.136300700907616701e-01 4.552881012611763034e-01 -1.568901582068650893e-02 5.445548662402326379e-01 5.390666665220246179e-01 5.478916747522116770e-01 2.121041856279032967e+00 -2.116423503452263474e-02 3.913087610112587211e-01 5.597355073109155921e-01 1.869324116016988890e+00 4.884307187919015303e-01 5.740987171756477547e-01 3.330793275021421557e-02 5.688089949182062455e-01 5.178515080964171124e-01 4.781598867964519384e-01 4.144381111469165324e-01 5.374892783262058549e-01 4.553283210472197085e-01 5.331346289996193866e-01 -5.759577192893148290e-01 5.184354977505687412e-01 5.127357861963501851e-01 5.366871208676728955e-01 1.327156777942014809e+00 5.295776814703945234e-01 -2.513517528968403081e-01 1.149144779421780393e+00 -1.344972193802672189e+00 -5.553861420184763587e-01 5.111022426015850995e-01 5.209581562170260138e-01 6.714562564406298950e-01 5.324767218486392562e-01 5.508254690872038672e-01 5.004427311380059695e-01 5.688090048401064358e-01 5.235052094978409620e-01 5.513621127626916474e-01 6.095716428736630554e-01 5.214058611135321541e-01 3.306265801222667555e-01 5.282040913720680297e-01 5.367197132339077692e-01 4.195135207610307115e-01 5.241117099298788773e-01 5.216854354837447971e-01 5.062156901888503757e-01 6.517719635022289904e-01 5.205606922208646514e-01 7.327277485850968164e-01 5.253929931675543896e-01 5.292957183878419514e-01 5.351125740326331259e-01 4.417942136256141628e-01 3.397366432194243169e-01 2.507530111722642729e+00 5.453747251597240719e-01 6.405799556537403738e-01 2.972416169624453874e-01 5.754412371707717799e-01 1.125747719811398984e+00 4.209250457457813233e-01 6.839772436502594699e-01 5.195499356956102543e-01
7.171000855354833226e-01 2.898399971068591485e-01 4.598783804793296626e-01 -4.716951196912061439e-02 3.030490701039545987e-01 4.157952054470561709e-01 5.408725458115288820e-01 3.703017244637163974e-01 3.992367916038110920e-01 3.060034085229580980e-01 2.097663692293715076e+00 1.747616706501913475e+00 -1.491240632290093959e+00 5.670345597861260467e-01 2.971668730746457321e-01 4.694755730531990356e-01 1.392633622192625542e-01 4.545321133092273258e-01 3.911119260880489001e-01 3.246962815173068395e-01 3.883475481867491030e-01 2.174033423631797302e+00 3.376234195752721434e-01 3.317629754483713000e-01 7.625165044382318236e-01 -1.483942906142595719e-01 3.862353591853703305e-01 1.762033071745327251e-01 3.543916059468197877e-01 -9.537196194048848108e-01 4.656285091392275421e-01 -1.706893802621718415e-01 2.897079282549092083e-01 2.894942854472551397e-01 -4.037227137217875295e-01 5.088506466346287560e-01 3.320871709510581637e-01 -4.111100255200453857e-01 -3.346570492486690362e+00 3.009065775682559507e-01 1.222783417725007427e+00 1.484448359119652783e-01 -1.705313064530142864e-01 7.912079646445169256e-01 5.244809396654243061e-01 3.087104073301104590e-01 -4.694072091013591630e-02 3.266582416722467741e-01 1.060112110030859284e-01 6.572848267574890047e-01 6.979691632543439939e-01 5.149346734336560649e-01 -1.136408488748668344e-01 2.585917737371873915e-01 5.809806611608826499e-01 6.714282494332970419e-01 2.748605544761482111e-01 2.961713126461285039e-01 3.443680402052660683e-01 2.823752584683354994e-01 4.371593213947602141e-01 4.316452605499947470e-01 3.351001866136221197e-01 3.376234237134315697e-01 -3.381603285345890497e-01 1.094545408030105638e-01 3.053092056353872707e-01 3.025181004413013963e-01 2.872458711673953613e-01 6.901701976993758203e-01 1.940759279184729735e-01 2.582072777744623959e-01 3.081904035549259957e-01 7.121450572747449748e-01 1.962415924852111582e+00 3.711445899080558775e-01 4.813260804064057874e-01 4.834069373970831252e-01 3.024311891637148086e-01 -1.370029069674746136e+00 3.263593307656344478e-01 5.047589281891815549e-01 2.441091127826832352e+00 5.981835274056945817e-02 2.397899036932938099e-01 -3.307607019502828982e-01 1.506842746510660969e-01 3.713415210347594808e-01 -5.883131848412533893e-01 -9.249598645028310751e-01 5.245476719261940035e-01 1.632236507899979872e+00 4.585915097481122610e-02 6.831465716853677428e-01 3.734327578681327364e-01 3.586087689968900372e-01 2.887622347730909866e-01 7.992360920540699798e-01 7.358461014440529357e-01 -1.388657879785890337e-01 -1.862392218427867951e-01 5.766527190467894692e-02 3.502363347820290906e-01 2.279109419635829692e-01 -7.603207998825188552e-02 3.207921573369509005e+00 -3.001324037716830984e-01 4.056538182041568019e-01 6.309380126369301678e-02 8.130818610296947080e-01 2.965824955647980432e-01 5.457766767343570358e-01 1.621513407712213417e-01 3.142310741163590326e-01 -4.673040168195915500e-01 3.321570068692670796e-01 5.724038344622391083e-02 3.747189707230494937e-01 1.235434437023726018e+00 3.322310345538423970e-01 -1.489642021906999236e+00 9.335735388735227902e-02 4.999455599674065137e-02 1.527694498778751964e+00 3.145309447791822532e-01 2.226817497336816221e+00 4.119744466593865395e-01 2.017338597366107600e-01 3.188336342808703594e-01 3.087070203835940441e-01 3.443785022208444291e-01 3.055486080373355784e-01 6.663088726401006356e-01 3.944482447038770156e-01 1.546885640758894898e-01 8.500055956749696939e-01 7.348147922656667053e-01 6.972993001609156805e-01 -3.438749125515881411e-01 2.440746601048694175e-01 3.301505744075529658e-01 3.223207601671420619e-01 3.699990022386681621e-01 2.981599559245042830e-01 3.063810725201090990e-01 7.008550342181515402e-01 -1.964707586594496014e-01 3.195835119377923306e-01 4.064634937192254660e-01 4.059735120685119547e-01 -1.727932048915135910e-01 3.128276389505178084e-02 3.087260967462963634e-01 3.247162067798305962e-01 2.631589073036461057e-01 3.053489233522346247e-01 -2.570141072730206311e+00 4.758073280413182005e-01 -6.157494475767055775e-01 -1.390238633582870365e-01 1.219567458132059384e-01 4.234561936631864865e-01 3.138762016693734669e-01 3.024313360089746494e-01 1.359050331551941715e-01 1.369743871951351055e-01 3.221867628168978981e-01 5.047068452809523320e-01 4.908414281786435684e-01 2.558775287197783688e-01 2.581748207789360539e-01 -4.493775136180321039e-02 3.086251953201285536e-01 2.999895559371171805e-01 -2.560502600965221198e+00 6.639740355589650589e-01 5.554773296514267100e-01 9.202208114752215007e-01 -4.627547281531718681e-01 1.176163941920063349e+00 7.089500406821595824e-02 3.023468971911305037e-01 1.251867486643387650e+00 3.894800625466902089e-01 3.181186856447777433e-01 3.662551503526317309e-01 2.626053363478795810e-01 2.966492491230983131e-01 -5.128050564627367747e-01 3.647800276400834374e-01 3.688882296741582412e-01 8.310547723727937930e-01 3.534880386186943779e-01 3.701921534665771341e-01 2.569882162998474717e-01 3.024446645872252426e-01 -1.719368652498451944e+00 2.906332683530423178e-01 3.848755878809150821e-01 2.346455967756661265e-01 2.195092998315050989e-02 3.843759893923309745e-01 3.918993122059200584e-01 1.585076799829213123e-01 -7.446753479792949104e-01 3.848756251824256291e-01 5.031820252084034939e-01 -5.302958493372409432e-01 3.147195827625784981e-01 2.658857330108553851e-01 2.218022150372677415e-01 -3.344046981007091635e+00 3.992632028403236277e-01 9.045084065940708351e-01 2.899254180053892349e-01 3.015984379416467021e-01 3.047351352887728848e-01 3.348220389775588002e-01 3.044613336809848803e-01 3.076725499458748403e-01 3.870872306686657383e-01 7.974197553543285744e-02 6.762549429425074310e-01 1.129446730358284329e-01 4.088497905304614433e-01 5.443493133542962603e-01 4.178734695606666771e-01 -7.242744980536029997e-01 2.362457015839257046e+00 4.161614036302604402e-01 1.259473775839774268e+00 -1.409171175439929202e+00 3.013196475487311954e-01 2.987218491857845382e-01 3.391264146398877966e-01 1.206113781492750503e+00 5.349190228633142752e-01 8.458924876953592964e-01 2.913283575892896549e-01 6.645222607210810040e-01 2.090569325608528650e-01 3.107105754931498431e-01 -1.205973087875107597e+00 4.173508018487272486e-01 3.015493090810917320e-01 5.079735636225054529e-01 8.651042992439560431e-01 -3.928970119945423001e-01 3.266609131138762834e+00 4.970308944796069106e-01 1.330695703745058411e+00 -3.396784924696222285e-01 3.094833221048829963e-01 3.376198880977470673e-01 3.610292285557260561e-01 3.015320975896936817e-01 2.435355161384862022e-01 -1.701343652645655180e-01 7.794300478297186419e-02 5.631777993146193095e-01 2.255291184900047874e-01 1.095885319841301275e-01 2.428208351924594222e-01 5.109899751510357246e-01 4.371593228076551818e-01 2.614281335608955592e-01 3.339622460246269409e+00 3.287284009599862888e-01 6.496293871931623221e-01 5.125797603681369052e-01 3.163868455001663804e-01 4.370442866086756695e-01 3.002303369876094252e-01 2.988472655027786806e-01 3.032205561048108566e-01 -6.510331546657238677e-01 3.995896730119865570e-01 2.850217122303158601e-01 1.503266290420248730e-01 3.558537234554624007e-01 1.566315946298382444e+00 3.567009195721240755e-01 3.305981388736966009e-01 2.020875734370128018e+00 5.160256102788843835e-01 3.230949289088566045e-01 3.125225130227833326e-01 3.117155479735589929e-01 3.321564957656681916e-01 -2.084206571960861787e+00 3.482739027503313767e-01 1.628197963426395223e+00 -1.056368237390695602e-01 3.532849895888846015e-01 6.531037848011884694e-01 3.418271150213937348e-01 -7.368093408867630867e-01 3.430243851688393186e-01 2.965468598415191281e-01 4.064444717480314440e-01 -4.106148534855608712e-01 3.274370894374470931e-01 -2.416682824264884566e+00 -4.586294948964096674e-02 2.837283069920081280e-01 5.950454479216947812e-01 3.028614036996056802e-01 3.000951183052106841e-01 4.976650453158253384e-01 1.596038823957506847e-01 -6.677574051686621659e-02 -7.822562781061375148e-01 -6.032017323042187379e-03 6.877622661954212457e-01 2.923728296048932473e-01 4.932740505898512429e-01 3.064069969719023234e-01 -4.659029700332042306e-02 2.924952513870348603e-01 2.500477851624211212e+00 6.833830085947583122e-01 2.473523733568052940e-01 -1.196344225011309437e+00 2.489251001167978317e-01 4.839796573797249479e+00 4.228144554586713011e-01 -2.062691908677987684e-01 5.726358544105929482e-01 -5.750067707176868659e+00 5.395254465180130410e-01 1.596601443979416057e+00 3.062147008752097999e-01 5.200578669341809901e-01 -4.597205941130059204e-01 4.201602895370613600e-01 2.344172734927142676e-01 3.508996029567598152e-01 2.071002817624907066e-01 3.025351556626589833e+00 -3.879797517632123105e-01 3.093143412390467195e-01 -1.949365856239993589e+00 2.723945027006756670e-01 -4.111100214818476650e-01 7.632051927445595574e-01 4.823020255243627430e-01 2.600745448189659692e-01 2.869268302810745741e-01 1.258464012544808552e+00 1.636596857356801549e-01 3.848758757337064074e-01 4.173469015086776479e-01 1.585076763011236400e-01 3.970043064231834062e-01 3.829678032627775730e-01 -6.299410541803202035e-01 2.998615806095326075e-01 5.641555210568091061e-01 4.104718800945642565e-01 1.856978137997573886e-01 3.061678663638296438e-01 5.153160054551325642e-01 4.823020273653466083e-01 5.204228766992098354e-01 3.041566424158799742e-01 1.583705970007203145e-01 3.652899219968948064e-01 3.565230065899055667e+00 2.808075939912972330e-01 9.576543704169726556e-02 4.371595806865539169e-01 8.334895518208026433e-01 4.706407420985858625e-01 -1.923577137021087458e-01 6.921266362730302824e-01 3.449504892574694059e-01 1.309062250778683378e-01 4.292060976125536276e-01 6.835481636907525527e-01 5.099626695941572585e-01 8.023036513638405198e-01 8.263314093423719253e-01 2.112757055946896112e-01 1.585076774306918013e-01 1.585077411136189829e-01 3.007832426820847282e-01 2.415550323049645565e-01 1.119483058493712990e+00 3.823448656804250834e-01 3.178737741553013807e-01 2.530259613154630660e-01 3.040242128884529937e-01 7.386512025984075525e-01 3.848758991382750794e-01 3.014534014376725746e-01 4.070120000926673587e-01 1.859187297415287321e-01 -6.447761685039596902e-01 3.123617981118574360e-01 3.073028593072720249e-01 3.552140152554209562e-01 6.593836159642124661e-01 6.507243789413256208e-01 1.585076800145558962e-01 1.543321435783810147e-01 3.064734556357065487e-01 5.182836667153469801e-01 -5.973670858195256894e-01 1.695396271924250464e-01 -3.613519048922834820e+00 2.055023956074510050e+00 6.247136489626544664e-01 -4.935326643370026578e-01 -4.725037634094785000e-02 2.102244071285128690e+00 3.268722963507951218e-01 6.560361897837843070e-01 -7.567777391944835452e-02 4.128505569788822327e-01 3.859216088301050118e-01 3.310201041615225548e-01 -5.791062614739315162e-01 3.414393693367063221e-01 2.108971904791180574e+00 2.018986692130761706e-01 -4.756032230907272229e-01 2.886825290721074522e-01 3.088388127278308692e-01 -1.473499854488831362e+00 3.213444185688834054e-01 3.731558410601417686e-01 4.036988402124014330e-01 1.059861096767124727e-01 2.989529122755673618e-01 2.262217953917860513e-01 2.848818980871059003e-01 -1.616357694923842570e-01 3.159960539302512639e-01 1.129144316706482964e-01 3.006325871762348667e-01 3.060855117396708014e-01 1.234009297141698373e-02 3.628817879765317000e-01 4.767100240728328608e-01 -1.438834602108663985e+00 -7.014277864912454863e-01 -1.223579713589718898e-01 1.613918927882792564e-01 1.340588353084911644e-01 4.375927357354619796e-01 3.553691910429080947e-01 7.062396690909410468e-01 -1.450727769870105155e-01 3.329216689271757290e-01 3.035742257148137391e-01 9.687184030062032103e-02 -1.617215740040369165e-01 3.051239981412313673e-01 4.595092930305524903e-01 4.801535894761925216e-01 3.497647971231918063e-01 3.005458856170482584e-01 2.966886692807330639e-01 2.418973072424347726e-01 3.014590132159237212e-01 4.778992150091022628e-01 2.272457893070369273e-01 3.029979372769512347e-01 6.913952205590337963e-01 3.104626337437053629e-01 7.041586326210682589e-01 -3.940347672536254758e-02 5.893283611501978214e-01 3.106201546452236339e-01 -1.482638945955611076e+00 3.049277275222877504e-01 6.259838805332281764e-01 3.416945913044034944e-01 3.384143846738141836e-01 3.677242453634613217e-01 1.600752376888865403e-01 6.868172712224920318e-01 3.045357757301150881e-01 4.363234995498534441e-01 3.031358199872805081e-01 2.720545654468017882e-01 1.713805055004558320e-01 4.653121721404836486e-01 3.072876178000437664e-01 1.496667014433140652e-01 9.364697489025830199e-03 1.239477383608891120e-01 1.681137068534582113e+00 1.541107349280337047e-01 3.252263321624034864e-01 3.940046485928671571e-01 -8.765279541406433284e-01 2.847803852643235323e-01 2.193893974728891583e-01 2.410436755368776662e-01 -1.051175707424904376e-01 2.615275767161379661e-01 1.730740639752124110e+00 8.970901243395394964e-01 4.760346571047093245e-01 2.573691299909698360e-01 3.069607978005514104e-01 3.456928144319578733e-01 9.389286607774096627e-01 3.116113742011672905e+00 3.013914043853438973e-01 8.489300476228487172e-03 5.823991593671278277e-01 -2.535741809141988101e-01 3.050860714859970901e-01 3.112073962250208603e-01 1.094418304179645807e+00 2.932206784631936070e-01 -3.530973007426625454e-01 3.946393748178306238e-01 1.434570954621223193e-01 6.087135722930961945e-01 1.893990501694482242e+00 2.630456493734109613e-01 2.910193722639128899e-01 1.679793658331931949e+00 3.862087193722081868e-01 2.549715909490442578e-01 1.460454860618991824e-01 1.665288321569748931e-01 -4.733839751320861877e-02 5.267953184285507628e-01 2.472748660025328449e-01 7.068827030733448868e-01 2.853109851310203782e-01 1.957421904278851543e-01 3.367129865934548882e-01 3.177402629771888809e-01 4.515236704212802210e-01 2.659184794929677631e-01 8.710753475386481259e-01 5.208064267387725321e-01 5.204631057300321828e-01 3.514697973308447687e-01 2.448403242769706667e-01 3.101109882601403855e-01 5.950764441833370499e-01 7.829574513352037801e-01 3.743546329980822485e-01 3.374985933840069507e-01 6.215587030374475352e-01 3.064741359557978106e-01 6.845680776673295220e-01 3.588806810559085347e-01 4.875863371442890060e-01 -3.009205141995213162e-01 3.007939968679358422e-01 3.277294121942177507e-01 4.605493351009690706e-01 1.951315062228037023e-01 3.681058153901360930e-01 1.841909076193399386e+00 -1.394826460680906842e-02 3.717756055566435180e-01 -2.323379062546004903e-01 1.702972201049184786e+00 1.168451421736614204e+00 3.911278509894020039e-02 -4.350410411727582694e-01 4.528548080189574998e-01 2.581434256427385110e-01 4.728734043903418116e-01 3.009530983901276824e-01 3.051318565268333338e-01 2.432015133255869543e-01 3.299051178949813368e-01 2.532963529048309903e-01 -4.751045520381374371e-02 -2.427712651817294787e-01 2.959136392555105632e-01 2.141278584999154466e-01 2.622135578856070182e-01 8.874937656692944987e-01 4.371593204913767905e-01 3.231791381566536669e-01 8.643046524316103651e-01 4.749852219277318488e-01 5.240907392015901056e-01 4.451000461034508304e-01 7.021422638632652813e-01 1.489111677746729701e+00 4.042685942367275076e-01 2.141050697793764002e+00 -1.995110471458406975e-02 1.623263012732236998e-01 3.026077756906186966e-01 3.517389798154230141e-01 3.919050585854682023e-01 2.558694126888629294e-01 2.859823881329595086e-01 3.045341062571047530e-01 3.732247667438672312e-01 2.359994083314020941e-01 -3.694506021731668866e-01 3.247496045413160726e-01 -4.883695946265566995e-02 3.090323378363061257e-01 4.064134114904627282e-01 4.371593203974558639e-01 2.395131338947010802e-01 2.447806841463436300e-01 -1.317845879153569433e+00 1.999684799238505839e+00 3.036226437980523718e-01 -7.702264470493249693e-01 2.966968032653111154e-01 3.389855359493136877e-01 2.993591124911902934e-01 -4.899211295787651466e+00 3.610720905100437861e+00 6.378141005232296212e-01 1.024466010912484550e-02 3.271917823906601575e-01 2.984532405668634536e-01 2.481203441005116750e-01 2.678357081221911073e+00 6.343887922531833423e-01 3.192606892044233535e-01 3.321567710853018940e-01 3.191254795874212125e-01 3.392906545439408061e-01 8.521119748689709450e-01 -3.713333299381585961e-01 -1.247456113038718506e+00 -1.249250636804008385e+00 3.011740728836881931e-01 2.991069834700966767e-01 7.466641959894149139e-01 3.578045175109895171e-01 1.535983361631940047e+00 4.965118173844155769e-01 3.063446365151425987e-01 3.419273086389372218e-01 3.015932445016926700e-01 3.407600498337935990e-01 3.091307636426807171e-01 6.350292094144801558e-01 3.462215457921373751e-01 6.600003054055534335e-01 2.376336151217022519e-01 7.138585344948146505e-02 3.091357557807749012e-01 1.758822278920112725e-01 2.414511918843185723e-01 3.086058699530588867e-01 6.267406017383099215e-01 4.823020105168797644e-01 2.366460402750828473e-01 2.361206628176565625e-01 3.017260134293034413e-01 2.797270759921586802e-01 1.730750914314952649e+00 1.961746682970925137e+00 3.084161685918673235e-01 3.023508549681414581e-01 3.021373759402243842e-01 1.729513973975707330e-01 2.194446604698993830e-01 4.435326878685963981e-01 2.869924872478563094e-01 3.299695191913951109e-01 8.142715811999187148e-01 9.021251479788078287e-01 3.431520343924239769e-01 1.905073095975373443e+00 3.824860002089221500e-01 -2.923848012465976032e-01 -2.693764455579719108e-01 -2.998472694020478668e-01 3.053226336795019646e-01 3.554409177327013669e-01 7.089014033638123546e-01 2.906809783642871903e-01 4.325996597004276856e-01 2.873961933837856364e-01 2.980379021706781040e-01 2.634543243086119868e-01 -8.294819800904652818e-02 1.004688168364138212e+00 2.938571052337306533e-01 2.838683153484400923e-01 3.100701575643893815e-01 3.476079912259381621e-01 2.965432265758641273e-01 3.989699696967938247e-01 -7.252663269129742962e-02 2.220189686568201093e-01 2.858135924955137463e-01 -4.670775010957554235e-02 4.371591081685022862e-01 1.090815025898212998e+00 9.775198451333361183e-01 -7.159527039704496332e-01 -4.111100255972044981e-01 6.619599464592654803e-01 -3.404444832435205459e+00 1.589535284867476639e+00 3.010273107793569047e-01 -4.723908079249743847e-02 2.992928046803189357e-01 9.127982739100565235e-01 2.977673459953955049e-01 4.173505555823538438e-01 -4.392753491612130246e-01 8.117256538225375850e-01 3.073694444305968276e-01 8.524562391983423471e-01 2.125308180984953221e+00 -3.715101696526470487e-01 -1.495161216788152503e+00 2.713918269362815550e-01 3.016849710586592681e-01 7.435708979681669994e-01 2.923809357127252206e-01 6.951256081169229217e-01 4.690765478444467451e-01 3.608850390244673356e-01 3.046227937133522135e-01 3.098995436412771420e-01 3.372178931018248171e-01 3.149606681049980095e-01 1.447500659655527544e+00 1.683787618395229391e+00 2.926568766879171224e-01 3.441354913235573632e-01 2.933315925408147562e-01 -2.526163676429915572e-01 2.347383637870960327e-01 -6.700025297719575113e-02 3.035565869218517787e-01 7.046106665720728301e-01 -5.803418217091741438e-01 3.161711425719089252e-01 3.244541024002188245e-01 1.568319988885116534e-01 3.054786161655206889e-01 1.735304196107143038e-01 3.035283987071780709e-01 3.038872927458416418e-01 7.383767870717702908e-02 3.083083851439196721e-01 4.313113478440216420e-01 1.141844423122827079e+00 1.113675878482323300e+00 9.056250509234444745e-01 2.234542838046189861e-01 7.970450604859645738e-01 1.646739345508120844e-01 5.116075154314925211e-01 -2.208593927982958505e+00 2.977046517801101300e-01 6.653840688403562798e-01 3.016001546215645868e-01 9.419022268300681899e-01 1.386576786826662078e+00 3.321570146316730199e-01 2.357179477274777835e-01 3.766168969548898127e-01 4.316733569156922523e-01 5.468839992911804782e-01 9.837213564681452915e-01 -8.324538751634201761e-01 2.949025635027773262e-01 8.980362226774738291e-03 3.185038286400294072e-01 3.399587473803624138e-01 7.570300633642444987e-01 -2.914319572047806561e-01 4.152837492574914524e-01 2.957078833639281701e-01 3.587462500452589520e-01 8.969353927567318419e-01 4.359949937274462117e-01 -2.260042074360066877e-01 8.574567837465641995e-01 -3.059559768938906535e-02 5.553474922056197416e-01 3.480567268701973416e-01 1.302778997221591961e+00 6.053162190107242990e-01 7.056070882429984481e-01 4.297217057699292964e-01 4.790709711928074488e-01 -6.036832946530983346e-01 2.188495515049330709e-01 7.438545482161270650e-01 2.934383187787800162e-01 6.012917234682070289e-01 3.051886920443163120e-01 3.066572170732853597e-01 7.059841151441486051e-01 1.731169455776997712e-01 -2.081672502378440370e+00 2.191901962303315354e-01 2.500688829126504475e-01 9.639488707174227455e-01 3.218048874891045741e-01 3.136296070214632525e-01 3.778168419820394086e-01 3.078025621320005789e-01 4.094817136421793347e-01 1.248981595441740200e-01 -1.639873576386853271e+00 7.696481847532559151e-01 2.373425524067355741e-01 3.047064473882903912e-01 2.932284461140864940e-01 8.174701162712901814e-01 3.067888217734259793e-01 -1.615855589603608089e-01 3.571121432727824008e-01 1.128556878056626411e+00 3.297255699627015257e-01 4.169280209931249814e-01 1.034117183230036874e+00 4.347759656006464080e-01 2.878304869730551108e+00 3.150961138316032972e-01 3.228232371523404032e-01 7.166515028499043094e-01 2.967976329884734477e-01 3.272456596008638252e-01 -2.208669985186645146e+00 4.664704367812928520e-01 3.083459782315663977e-01 5.210099568830981465e-01 2.967512256349814082e-01 1.905943409661393084e-01 -1.527981117809386336e-01 2.097582589899927186e+00 -5.171626085402130091e-01 8.226515432399392758e-01 3.019620576110222943e-01 3.223070548036823801e-01 8.665228634757724535e-01 2.752486468015777898e-01 1.353612611111502773e+00 2.457126860589839146e-01 4.180349019137442612e-01 -8.887892437415454427e-01 -1.270331249347742553e-01 -6.572728969485085448e-01 -4.121195666826623416e+00 3.028209876867466122e+00 1.497154000753530417e-02 2.821448174866719727e-01 -1.684514937627217934e+00 3.030348189709891615e-01 4.744957057049715710e-01 3.153316462793656627e-01 1.946872357791523123e-01 6.440172744035798091e-01 6.063643232114884762e-01 1.120258197093651376e+00 -4.111100282449402510e-01 -2.421974145884458196e-01 2.792811787838085924e-01 -1.203624514980844884e+00 3.789414472951294077e-01 -6.644188026213923015e-01 3.163718064747133019e-01 4.347765587513365282e-01 1.353316133678466315e-01 4.640583706865250568e-01 2.600083588165910120e-01 8.197670450663590430e-03 2.826880175204102286e-01 2.787003141220630864e-01 3.678625333704642064e-01 2.850276679135554381e-01 3.072043915902833988e-01 -7.157129895435748734e-01 4.401215758757775487e-01 1.552728694896318595e+00 8.186275885721358558e-02 2.339145370645112354e-01 2.427666729015511005e-01 1.200966082761691922e+00 3.251339755386728481e-01 7.663914791050122077e-02 8.802455676919144212e-01 2.129388538654896634e-01 1.902610539541429002e+00 3.069765887638365998e-01 1.401000545776132533e+00 2.800785347487269594e-01 7.328574742454674329e-01 1.362021911415395969e+00 4.187658184131986538e-01 2.374295283435910731e-01 9.596352662833892433e-01 -1.802704031795663298e-01 -7.145688410594097650e-02 2.672763992956750934e-01 3.084771834194902085e-01 3.679950883824675278e-01 1.469198059895315822e-01 9.045777865273724183e-02 -3.951846924979752762e-01 1.291932194109453924e+00 2.989856159397497049e-01 3.065169042986549131e-01 -3.297068627067345936e+00 5.728968025272566100e-01 2.043379983402940914e-01 3.169963038699070146e-01 3.502207310213552582e-01 3.982194740921998211e-01 -1.142255587782968540e+00 6.387134614383250808e-01 3.002201610345789362e-01 2.959633128547274894e-01 1.014403324906199444e+00 4.732095435170961539e-01 3.164760127935166145e-01 -1.428184505021180106e+00 3.306868028764888279e-01 8.969910097941797833e-01 3.845226502650511136e-01 3.082071490620368337e-01 2.648841553924000114e-01 7.086760912631494547e-01 -3.572744661860777909e-02 3.026585983123219470e-01 3.147409986432736506e-01 1.086861467407407716e-01 6.657569999224896007e-01 2.416988408084751738e-01 6.749426117379494494e-01 1.999324074076368474e-01 6.958392883264035156e-01 -2.565826456280810297e-01 -1.514722501297065316e+00 2.817565744735837097e-01 -2.256271937795763932e-02 2.560114386260732844e-01 3.347810681624751594e-01 5.712274558373260647e-02 4.823022100351749275e-01 2.952583887630914061e-01 8.557862437757969565e-02 4.100587499740893649e-01 3.236371116708521845e-01 2.778081550950180501e-01 3.576595642520404295e-01 -8.774943882581806021e-01 3.069225763958288722e-01 3.410761254272084431e-01 2.827281242257916882e-01 -3.834710065611121599e-01 2.968025360326252415e-01 8.482613192358920973e-01 -6.446064168340570610e-01 1.148868780165168912e+00 6.246891984568651024e-01 3.329964753397369748e-01 3.061676552994800349e-01 -2.082787443519065196e+00 3.073673221801857536e-01 3.105524333425418448e-01 3.333476283073856794e-01 4.823020178738902097e-01 3.005601934325120572e-01 3.462954372362651578e-01 4.836065276567757393e-02 3.064609670497164262e-01 4.315802589274745915e-01 2.917173522880002756e-01 2.435119291258512064e-01 2.783925080973265187e-01 3.095669562959470489e-01 3.062488369367196150e-01 3.686867379596444616e-01 1.666585219339318247e-01 3.007353967142233908e-01 6.326923765125133103e-01 1.449631296582924722e-01 3.112745340231897750e-01 -1.556112718922859905e-01 2.130665797302452036e-01 6.712497960195981106e-01 4.628760088575464060e+00 3.142119883423915017e-01 5.613988078488581224e-02 5.757598543013250358e-01 1.725137791275916654e-01 1.581464757291931145e+00 3.143719845897387510e-01 6.255980725140584120e-01 3.076612402021727810e-01
