# 
#                 ----------------------------------------------------
#                 Data from a 3D direct N-body simulation. 
# 
#                 rows are i-particle; 
#                 coumns are :mass, tag, x ,y, z, vx, vy, vz, ax, ay, az
# 
#                 NTHU, Computational Physics 
# 
#                 ----------------------------------------------------
#                 Time = 0.0
0.000000000000000000e+00 1.000000000000000000e+00 2.000000000000000000e+00 3.000000000000000000e+00 4.000000000000000000e+00 5.000000000000000000e+00 6.000000000000000000e+00 7.000000000000000000e+00 8.000000000000000000e+00 9.000000000000000000e+00 1.000000000000000000e+01 1.100000000000000000e+01 1.200000000000000000e+01 1.300000000000000000e+01 1.400000000000000000e+01 1.500000000000000000e+01 1.600000000000000000e+01 1.700000000000000000e+01 1.800000000000000000e+01 1.900000000000000000e+01 2.000000000000000000e+01 2.100000000000000000e+01 2.200000000000000000e+01 2.300000000000000000e+01 2.400000000000000000e+01 2.500000000000000000e+01 2.600000000000000000e+01 2.700000000000000000e+01 2.800000000000000000e+01 2.900000000000000000e+01 3.000000000000000000e+01 3.100000000000000000e+01 3.200000000000000000e+01 3.300000000000000000e+01 3.400000000000000000e+01 3.500000000000000000e+01 3.600000000000000000e+01 3.700000000000000000e+01 3.800000000000000000e+01 3.900000000000000000e+01 4.000000000000000000e+01 4.100000000000000000e+01 4.200000000000000000e+01 4.300000000000000000e+01 4.400000000000000000e+01 4.500000000000000000e+01 4.600000000000000000e+01 4.700000000000000000e+01 4.800000000000000000e+01 4.900000000000000000e+01 5.000000000000000000e+01 5.100000000000000000e+01 5.200000000000000000e+01 5.300000000000000000e+01 5.400000000000000000e+01 5.500000000000000000e+01 5.600000000000000000e+01 5.700000000000000000e+01 5.800000000000000000e+01 5.900000000000000000e+01 6.000000000000000000e+01 6.100000000000000000e+01 6.200000000000000000e+01 6.300000000000000000e+01 6.400000000000000000e+01 6.500000000000000000e+01 6.600000000000000000e+01 6.700000000000000000e+01 6.800000000000000000e+01 6.900000000000000000e+01 7.000000000000000000e+01 7.100000000000000000e+01 7.200000000000000000e+01 7.300000000000000000e+01 7.400000000000000000e+01 7.500000000000000000e+01 7.600000000000000000e+01 7.700000000000000000e+01 7.800000000000000000e+01 7.900000000000000000e+01 8.000000000000000000e+01 8.100000000000000000e+01 8.200000000000000000e+01 8.300000000000000000e+01 8.400000000000000000e+01 8.500000000000000000e+01 8.600000000000000000e+01 8.700000000000000000e+01 8.800000000000000000e+01 8.900000000000000000e+01 9.000000000000000000e+01 9.100000000000000000e+01 9.200000000000000000e+01 9.300000000000000000e+01 9.400000000000000000e+01 9.500000000000000000e+01 9.600000000000000000e+01 9.700000000000000000e+01 9.800000000000000000e+01 9.900000000000000000e+01 1.000000000000000000e+02 1.010000000000000000e+02 1.020000000000000000e+02 1.030000000000000000e+02 1.040000000000000000e+02 1.050000000000000000e+02 1.060000000000000000e+02 1.070000000000000000e+02 1.080000000000000000e+02 1.090000000000000000e+02 1.100000000000000000e+02 1.110000000000000000e+02 1.120000000000000000e+02 1.130000000000000000e+02 1.140000000000000000e+02 1.150000000000000000e+02 1.160000000000000000e+02 1.170000000000000000e+02 1.180000000000000000e+02 1.190000000000000000e+02 1.200000000000000000e+02 1.210000000000000000e+02 1.220000000000000000e+02 1.230000000000000000e+02 1.240000000000000000e+02 1.250000000000000000e+02 1.260000000000000000e+02 1.270000000000000000e+02 1.280000000000000000e+02 1.290000000000000000e+02 1.300000000000000000e+02 1.310000000000000000e+02 1.320000000000000000e+02 1.330000000000000000e+02 1.340000000000000000e+02 1.350000000000000000e+02 1.360000000000000000e+02 1.370000000000000000e+02 1.380000000000000000e+02 1.390000000000000000e+02 1.400000000000000000e+02 1.410000000000000000e+02 1.420000000000000000e+02 1.430000000000000000e+02 1.440000000000000000e+02 1.450000000000000000e+02 1.460000000000000000e+02 1.470000000000000000e+02 1.480000000000000000e+02 1.490000000000000000e+02 1.500000000000000000e+02 1.510000000000000000e+02 1.520000000000000000e+02 1.530000000000000000e+02 1.540000000000000000e+02 1.550000000000000000e+02 1.560000000000000000e+02 1.570000000000000000e+02 1.580000000000000000e+02 1.590000000000000000e+02 1.600000000000000000e+02 1.610000000000000000e+02 1.620000000000000000e+02 1.630000000000000000e+02 1.640000000000000000e+02 1.650000000000000000e+02 1.660000000000000000e+02 1.670000000000000000e+02 1.680000000000000000e+02 1.690000000000000000e+02 1.700000000000000000e+02 1.710000000000000000e+02 1.720000000000000000e+02 1.730000000000000000e+02 1.740000000000000000e+02 1.750000000000000000e+02 1.760000000000000000e+02 1.770000000000000000e+02 1.780000000000000000e+02 1.790000000000000000e+02 1.800000000000000000e+02 1.810000000000000000e+02 1.820000000000000000e+02 1.830000000000000000e+02 1.840000000000000000e+02 1.850000000000000000e+02 1.860000000000000000e+02 1.870000000000000000e+02 1.880000000000000000e+02 1.890000000000000000e+02 1.900000000000000000e+02 1.910000000000000000e+02 1.920000000000000000e+02 1.930000000000000000e+02 1.940000000000000000e+02 1.950000000000000000e+02 1.960000000000000000e+02 1.970000000000000000e+02 1.980000000000000000e+02 1.990000000000000000e+02 2.000000000000000000e+02 2.010000000000000000e+02 2.020000000000000000e+02 2.030000000000000000e+02 2.040000000000000000e+02 2.050000000000000000e+02 2.060000000000000000e+02 2.070000000000000000e+02 2.080000000000000000e+02 2.090000000000000000e+02 2.100000000000000000e+02 2.110000000000000000e+02 2.120000000000000000e+02 2.130000000000000000e+02 2.140000000000000000e+02 2.150000000000000000e+02 2.160000000000000000e+02 2.170000000000000000e+02 2.180000000000000000e+02 2.190000000000000000e+02 2.200000000000000000e+02 2.210000000000000000e+02 2.220000000000000000e+02 2.230000000000000000e+02 2.240000000000000000e+02 2.250000000000000000e+02 2.260000000000000000e+02 2.270000000000000000e+02 2.280000000000000000e+02 2.290000000000000000e+02 2.300000000000000000e+02 2.310000000000000000e+02 2.320000000000000000e+02 2.330000000000000000e+02 2.340000000000000000e+02 2.350000000000000000e+02 2.360000000000000000e+02 2.370000000000000000e+02 2.380000000000000000e+02 2.390000000000000000e+02 2.400000000000000000e+02 2.410000000000000000e+02 2.420000000000000000e+02 2.430000000000000000e+02 2.440000000000000000e+02 2.450000000000000000e+02 2.460000000000000000e+02 2.470000000000000000e+02 2.480000000000000000e+02 2.490000000000000000e+02 2.500000000000000000e+02 2.510000000000000000e+02 2.520000000000000000e+02 2.530000000000000000e+02 2.540000000000000000e+02 2.550000000000000000e+02 2.560000000000000000e+02 2.570000000000000000e+02 2.580000000000000000e+02 2.590000000000000000e+02 2.600000000000000000e+02 2.610000000000000000e+02 2.620000000000000000e+02 2.630000000000000000e+02 2.640000000000000000e+02 2.650000000000000000e+02 2.660000000000000000e+02 2.670000000000000000e+02 2.680000000000000000e+02 2.690000000000000000e+02 2.700000000000000000e+02 2.710000000000000000e+02 2.720000000000000000e+02 2.730000000000000000e+02 2.740000000000000000e+02 2.750000000000000000e+02 2.760000000000000000e+02 2.770000000000000000e+02 2.780000000000000000e+02 2.790000000000000000e+02 2.800000000000000000e+02 2.810000000000000000e+02 2.820000000000000000e+02 2.830000000000000000e+02 2.840000000000000000e+02 2.850000000000000000e+02 2.860000000000000000e+02 2.870000000000000000e+02 2.880000000000000000e+02 2.890000000000000000e+02 2.900000000000000000e+02 2.910000000000000000e+02 2.920000000000000000e+02 2.930000000000000000e+02 2.940000000000000000e+02 2.950000000000000000e+02 2.960000000000000000e+02 2.970000000000000000e+02 2.980000000000000000e+02 2.990000000000000000e+02 3.000000000000000000e+02 3.010000000000000000e+02 3.020000000000000000e+02 3.030000000000000000e+02 3.040000000000000000e+02 3.050000000000000000e+02 3.060000000000000000e+02 3.070000000000000000e+02 3.080000000000000000e+02 3.090000000000000000e+02 3.100000000000000000e+02 3.110000000000000000e+02 3.120000000000000000e+02 3.130000000000000000e+02 3.140000000000000000e+02 3.150000000000000000e+02 3.160000000000000000e+02 3.170000000000000000e+02 3.180000000000000000e+02 3.190000000000000000e+02 3.200000000000000000e+02 3.210000000000000000e+02 3.220000000000000000e+02 3.230000000000000000e+02 3.240000000000000000e+02 3.250000000000000000e+02 3.260000000000000000e+02 3.270000000000000000e+02 3.280000000000000000e+02 3.290000000000000000e+02 3.300000000000000000e+02 3.310000000000000000e+02 3.320000000000000000e+02 3.330000000000000000e+02 3.340000000000000000e+02 3.350000000000000000e+02 3.360000000000000000e+02 3.370000000000000000e+02 3.380000000000000000e+02 3.390000000000000000e+02 3.400000000000000000e+02 3.410000000000000000e+02 3.420000000000000000e+02 3.430000000000000000e+02 3.440000000000000000e+02 3.450000000000000000e+02 3.460000000000000000e+02 3.470000000000000000e+02 3.480000000000000000e+02 3.490000000000000000e+02 3.500000000000000000e+02 3.510000000000000000e+02 3.520000000000000000e+02 3.530000000000000000e+02 3.540000000000000000e+02 3.550000000000000000e+02 3.560000000000000000e+02 3.570000000000000000e+02 3.580000000000000000e+02 3.590000000000000000e+02 3.600000000000000000e+02 3.610000000000000000e+02 3.620000000000000000e+02 3.630000000000000000e+02 3.640000000000000000e+02 3.650000000000000000e+02 3.660000000000000000e+02 3.670000000000000000e+02 3.680000000000000000e+02 3.690000000000000000e+02 3.700000000000000000e+02 3.710000000000000000e+02 3.720000000000000000e+02 3.730000000000000000e+02 3.740000000000000000e+02 3.750000000000000000e+02 3.760000000000000000e+02 3.770000000000000000e+02 3.780000000000000000e+02 3.790000000000000000e+02 3.800000000000000000e+02 3.810000000000000000e+02 3.820000000000000000e+02 3.830000000000000000e+02 3.840000000000000000e+02 3.850000000000000000e+02 3.860000000000000000e+02 3.870000000000000000e+02 3.880000000000000000e+02 3.890000000000000000e+02 3.900000000000000000e+02 3.910000000000000000e+02 3.920000000000000000e+02 3.930000000000000000e+02 3.940000000000000000e+02 3.950000000000000000e+02 3.960000000000000000e+02 3.970000000000000000e+02 3.980000000000000000e+02 3.990000000000000000e+02 4.000000000000000000e+02 4.010000000000000000e+02 4.020000000000000000e+02 4.030000000000000000e+02 4.040000000000000000e+02 4.050000000000000000e+02 4.060000000000000000e+02 4.070000000000000000e+02 4.080000000000000000e+02 4.090000000000000000e+02 4.100000000000000000e+02 4.110000000000000000e+02 4.120000000000000000e+02 4.130000000000000000e+02 4.140000000000000000e+02 4.150000000000000000e+02 4.160000000000000000e+02 4.170000000000000000e+02 4.180000000000000000e+02 4.190000000000000000e+02 4.200000000000000000e+02 4.210000000000000000e+02 4.220000000000000000e+02 4.230000000000000000e+02 4.240000000000000000e+02 4.250000000000000000e+02 4.260000000000000000e+02 4.270000000000000000e+02 4.280000000000000000e+02 4.290000000000000000e+02 4.300000000000000000e+02 4.310000000000000000e+02 4.320000000000000000e+02 4.330000000000000000e+02 4.340000000000000000e+02 4.350000000000000000e+02 4.360000000000000000e+02 4.370000000000000000e+02 4.380000000000000000e+02 4.390000000000000000e+02 4.400000000000000000e+02 4.410000000000000000e+02 4.420000000000000000e+02 4.430000000000000000e+02 4.440000000000000000e+02 4.450000000000000000e+02 4.460000000000000000e+02 4.470000000000000000e+02 4.480000000000000000e+02 4.490000000000000000e+02 4.500000000000000000e+02 4.510000000000000000e+02 4.520000000000000000e+02 4.530000000000000000e+02 4.540000000000000000e+02 4.550000000000000000e+02 4.560000000000000000e+02 4.570000000000000000e+02 4.580000000000000000e+02 4.590000000000000000e+02 4.600000000000000000e+02 4.610000000000000000e+02 4.620000000000000000e+02 4.630000000000000000e+02 4.640000000000000000e+02 4.650000000000000000e+02 4.660000000000000000e+02 4.670000000000000000e+02 4.680000000000000000e+02 4.690000000000000000e+02 4.700000000000000000e+02 4.710000000000000000e+02 4.720000000000000000e+02 4.730000000000000000e+02 4.740000000000000000e+02 4.750000000000000000e+02 4.760000000000000000e+02 4.770000000000000000e+02 4.780000000000000000e+02 4.790000000000000000e+02 4.800000000000000000e+02 4.810000000000000000e+02 4.820000000000000000e+02 4.830000000000000000e+02 4.840000000000000000e+02 4.850000000000000000e+02 4.860000000000000000e+02 4.870000000000000000e+02 4.880000000000000000e+02 4.890000000000000000e+02 4.900000000000000000e+02 4.910000000000000000e+02 4.920000000000000000e+02 4.930000000000000000e+02 4.940000000000000000e+02 4.950000000000000000e+02 4.960000000000000000e+02 4.970000000000000000e+02 4.980000000000000000e+02 4.990000000000000000e+02 5.000000000000000000e+02 5.010000000000000000e+02 5.020000000000000000e+02 5.030000000000000000e+02 5.040000000000000000e+02 5.050000000000000000e+02 5.060000000000000000e+02 5.070000000000000000e+02 5.080000000000000000e+02 5.090000000000000000e+02 5.100000000000000000e+02 5.110000000000000000e+02 5.120000000000000000e+02 5.130000000000000000e+02 5.140000000000000000e+02 5.150000000000000000e+02 5.160000000000000000e+02 5.170000000000000000e+02 5.180000000000000000e+02 5.190000000000000000e+02 5.200000000000000000e+02 5.210000000000000000e+02 5.220000000000000000e+02 5.230000000000000000e+02 5.240000000000000000e+02 5.250000000000000000e+02 5.260000000000000000e+02 5.270000000000000000e+02 5.280000000000000000e+02 5.290000000000000000e+02 5.300000000000000000e+02 5.310000000000000000e+02 5.320000000000000000e+02 5.330000000000000000e+02 5.340000000000000000e+02 5.350000000000000000e+02 5.360000000000000000e+02 5.370000000000000000e+02 5.380000000000000000e+02 5.390000000000000000e+02 5.400000000000000000e+02 5.410000000000000000e+02 5.420000000000000000e+02 5.430000000000000000e+02 5.440000000000000000e+02 5.450000000000000000e+02 5.460000000000000000e+02 5.470000000000000000e+02 5.480000000000000000e+02 5.490000000000000000e+02 5.500000000000000000e+02 5.510000000000000000e+02 5.520000000000000000e+02 5.530000000000000000e+02 5.540000000000000000e+02 5.550000000000000000e+02 5.560000000000000000e+02 5.570000000000000000e+02 5.580000000000000000e+02 5.590000000000000000e+02 5.600000000000000000e+02 5.610000000000000000e+02 5.620000000000000000e+02 5.630000000000000000e+02 5.640000000000000000e+02 5.650000000000000000e+02 5.660000000000000000e+02 5.670000000000000000e+02 5.680000000000000000e+02 5.690000000000000000e+02 5.700000000000000000e+02 5.710000000000000000e+02 5.720000000000000000e+02 5.730000000000000000e+02 5.740000000000000000e+02 5.750000000000000000e+02 5.760000000000000000e+02 5.770000000000000000e+02 5.780000000000000000e+02 5.790000000000000000e+02 5.800000000000000000e+02 5.810000000000000000e+02 5.820000000000000000e+02 5.830000000000000000e+02 5.840000000000000000e+02 5.850000000000000000e+02 5.860000000000000000e+02 5.870000000000000000e+02 5.880000000000000000e+02 5.890000000000000000e+02 5.900000000000000000e+02 5.910000000000000000e+02 5.920000000000000000e+02 5.930000000000000000e+02 5.940000000000000000e+02 5.950000000000000000e+02 5.960000000000000000e+02 5.970000000000000000e+02 5.980000000000000000e+02 5.990000000000000000e+02 6.000000000000000000e+02 6.010000000000000000e+02 6.020000000000000000e+02 6.030000000000000000e+02 6.040000000000000000e+02 6.050000000000000000e+02 6.060000000000000000e+02 6.070000000000000000e+02 6.080000000000000000e+02 6.090000000000000000e+02 6.100000000000000000e+02 6.110000000000000000e+02 6.120000000000000000e+02 6.130000000000000000e+02 6.140000000000000000e+02 6.150000000000000000e+02 6.160000000000000000e+02 6.170000000000000000e+02 6.180000000000000000e+02 6.190000000000000000e+02 6.200000000000000000e+02 6.210000000000000000e+02 6.220000000000000000e+02 6.230000000000000000e+02 6.240000000000000000e+02 6.250000000000000000e+02 6.260000000000000000e+02 6.270000000000000000e+02 6.280000000000000000e+02 6.290000000000000000e+02 6.300000000000000000e+02 6.310000000000000000e+02 6.320000000000000000e+02 6.330000000000000000e+02 6.340000000000000000e+02 6.350000000000000000e+02 6.360000000000000000e+02 6.370000000000000000e+02 6.380000000000000000e+02 6.390000000000000000e+02 6.400000000000000000e+02 6.410000000000000000e+02 6.420000000000000000e+02 6.430000000000000000e+02 6.440000000000000000e+02 6.450000000000000000e+02 6.460000000000000000e+02 6.470000000000000000e+02 6.480000000000000000e+02 6.490000000000000000e+02 6.500000000000000000e+02 6.510000000000000000e+02 6.520000000000000000e+02 6.530000000000000000e+02 6.540000000000000000e+02 6.550000000000000000e+02 6.560000000000000000e+02 6.570000000000000000e+02 6.580000000000000000e+02 6.590000000000000000e+02 6.600000000000000000e+02 6.610000000000000000e+02 6.620000000000000000e+02 6.630000000000000000e+02 6.640000000000000000e+02 6.650000000000000000e+02 6.660000000000000000e+02 6.670000000000000000e+02 6.680000000000000000e+02 6.690000000000000000e+02 6.700000000000000000e+02 6.710000000000000000e+02 6.720000000000000000e+02 6.730000000000000000e+02 6.740000000000000000e+02 6.750000000000000000e+02 6.760000000000000000e+02 6.770000000000000000e+02 6.780000000000000000e+02 6.790000000000000000e+02 6.800000000000000000e+02 6.810000000000000000e+02 6.820000000000000000e+02 6.830000000000000000e+02 6.840000000000000000e+02 6.850000000000000000e+02 6.860000000000000000e+02 6.870000000000000000e+02 6.880000000000000000e+02 6.890000000000000000e+02 6.900000000000000000e+02 6.910000000000000000e+02 6.920000000000000000e+02 6.930000000000000000e+02 6.940000000000000000e+02 6.950000000000000000e+02 6.960000000000000000e+02 6.970000000000000000e+02 6.980000000000000000e+02 6.990000000000000000e+02 7.000000000000000000e+02 7.010000000000000000e+02 7.020000000000000000e+02 7.030000000000000000e+02 7.040000000000000000e+02 7.050000000000000000e+02 7.060000000000000000e+02 7.070000000000000000e+02 7.080000000000000000e+02 7.090000000000000000e+02 7.100000000000000000e+02 7.110000000000000000e+02 7.120000000000000000e+02 7.130000000000000000e+02 7.140000000000000000e+02 7.150000000000000000e+02 7.160000000000000000e+02 7.170000000000000000e+02 7.180000000000000000e+02 7.190000000000000000e+02 7.200000000000000000e+02 7.210000000000000000e+02 7.220000000000000000e+02 7.230000000000000000e+02 7.240000000000000000e+02 7.250000000000000000e+02 7.260000000000000000e+02 7.270000000000000000e+02 7.280000000000000000e+02 7.290000000000000000e+02 7.300000000000000000e+02 7.310000000000000000e+02 7.320000000000000000e+02 7.330000000000000000e+02 7.340000000000000000e+02 7.350000000000000000e+02 7.360000000000000000e+02 7.370000000000000000e+02 7.380000000000000000e+02 7.390000000000000000e+02 7.400000000000000000e+02 7.410000000000000000e+02 7.420000000000000000e+02 7.430000000000000000e+02 7.440000000000000000e+02 7.450000000000000000e+02 7.460000000000000000e+02 7.470000000000000000e+02 7.480000000000000000e+02 7.490000000000000000e+02 7.500000000000000000e+02 7.510000000000000000e+02 7.520000000000000000e+02 7.530000000000000000e+02 7.540000000000000000e+02 7.550000000000000000e+02 7.560000000000000000e+02 7.570000000000000000e+02 7.580000000000000000e+02 7.590000000000000000e+02 7.600000000000000000e+02 7.610000000000000000e+02 7.620000000000000000e+02 7.630000000000000000e+02 7.640000000000000000e+02 7.650000000000000000e+02 7.660000000000000000e+02 7.670000000000000000e+02 7.680000000000000000e+02 7.690000000000000000e+02 7.700000000000000000e+02 7.710000000000000000e+02 7.720000000000000000e+02 7.730000000000000000e+02 7.740000000000000000e+02 7.750000000000000000e+02 7.760000000000000000e+02 7.770000000000000000e+02 7.780000000000000000e+02 7.790000000000000000e+02 7.800000000000000000e+02 7.810000000000000000e+02 7.820000000000000000e+02 7.830000000000000000e+02 7.840000000000000000e+02 7.850000000000000000e+02 7.860000000000000000e+02 7.870000000000000000e+02 7.880000000000000000e+02 7.890000000000000000e+02 7.900000000000000000e+02 7.910000000000000000e+02 7.920000000000000000e+02 7.930000000000000000e+02 7.940000000000000000e+02 7.950000000000000000e+02 7.960000000000000000e+02 7.970000000000000000e+02 7.980000000000000000e+02 7.990000000000000000e+02 8.000000000000000000e+02 8.010000000000000000e+02 8.020000000000000000e+02 8.030000000000000000e+02 8.040000000000000000e+02 8.050000000000000000e+02 8.060000000000000000e+02 8.070000000000000000e+02 8.080000000000000000e+02 8.090000000000000000e+02 8.100000000000000000e+02 8.110000000000000000e+02 8.120000000000000000e+02 8.130000000000000000e+02 8.140000000000000000e+02 8.150000000000000000e+02 8.160000000000000000e+02 8.170000000000000000e+02 8.180000000000000000e+02 8.190000000000000000e+02 8.200000000000000000e+02 8.210000000000000000e+02 8.220000000000000000e+02 8.230000000000000000e+02 8.240000000000000000e+02 8.250000000000000000e+02 8.260000000000000000e+02 8.270000000000000000e+02 8.280000000000000000e+02 8.290000000000000000e+02 8.300000000000000000e+02 8.310000000000000000e+02 8.320000000000000000e+02 8.330000000000000000e+02 8.340000000000000000e+02 8.350000000000000000e+02 8.360000000000000000e+02 8.370000000000000000e+02 8.380000000000000000e+02 8.390000000000000000e+02 8.400000000000000000e+02 8.410000000000000000e+02 8.420000000000000000e+02 8.430000000000000000e+02 8.440000000000000000e+02 8.450000000000000000e+02 8.460000000000000000e+02 8.470000000000000000e+02 8.480000000000000000e+02 8.490000000000000000e+02 8.500000000000000000e+02 8.510000000000000000e+02 8.520000000000000000e+02 8.530000000000000000e+02 8.540000000000000000e+02 8.550000000000000000e+02 8.560000000000000000e+02 8.570000000000000000e+02 8.580000000000000000e+02 8.590000000000000000e+02 8.600000000000000000e+02 8.610000000000000000e+02 8.620000000000000000e+02 8.630000000000000000e+02 8.640000000000000000e+02 8.650000000000000000e+02 8.660000000000000000e+02 8.670000000000000000e+02 8.680000000000000000e+02 8.690000000000000000e+02 8.700000000000000000e+02 8.710000000000000000e+02 8.720000000000000000e+02 8.730000000000000000e+02 8.740000000000000000e+02 8.750000000000000000e+02 8.760000000000000000e+02 8.770000000000000000e+02 8.780000000000000000e+02 8.790000000000000000e+02 8.800000000000000000e+02 8.810000000000000000e+02 8.820000000000000000e+02 8.830000000000000000e+02 8.840000000000000000e+02 8.850000000000000000e+02 8.860000000000000000e+02 8.870000000000000000e+02 8.880000000000000000e+02 8.890000000000000000e+02 8.900000000000000000e+02 8.910000000000000000e+02 8.920000000000000000e+02 8.930000000000000000e+02 8.940000000000000000e+02 8.950000000000000000e+02 8.960000000000000000e+02 8.970000000000000000e+02 8.980000000000000000e+02 8.990000000000000000e+02 9.000000000000000000e+02 9.010000000000000000e+02 9.020000000000000000e+02 9.030000000000000000e+02 9.040000000000000000e+02 9.050000000000000000e+02 9.060000000000000000e+02 9.070000000000000000e+02 9.080000000000000000e+02 9.090000000000000000e+02 9.100000000000000000e+02 9.110000000000000000e+02 9.120000000000000000e+02 9.130000000000000000e+02 9.140000000000000000e+02 9.150000000000000000e+02 9.160000000000000000e+02 9.170000000000000000e+02 9.180000000000000000e+02 9.190000000000000000e+02 9.200000000000000000e+02 9.210000000000000000e+02 9.220000000000000000e+02 9.230000000000000000e+02 9.240000000000000000e+02 9.250000000000000000e+02 9.260000000000000000e+02 9.270000000000000000e+02 9.280000000000000000e+02 9.290000000000000000e+02 9.300000000000000000e+02 9.310000000000000000e+02 9.320000000000000000e+02 9.330000000000000000e+02 9.340000000000000000e+02 9.350000000000000000e+02 9.360000000000000000e+02 9.370000000000000000e+02 9.380000000000000000e+02 9.390000000000000000e+02 9.400000000000000000e+02 9.410000000000000000e+02 9.420000000000000000e+02 9.430000000000000000e+02 9.440000000000000000e+02 9.450000000000000000e+02 9.460000000000000000e+02 9.470000000000000000e+02 9.480000000000000000e+02 9.490000000000000000e+02 9.500000000000000000e+02 9.510000000000000000e+02 9.520000000000000000e+02 9.530000000000000000e+02 9.540000000000000000e+02 9.550000000000000000e+02 9.560000000000000000e+02 9.570000000000000000e+02 9.580000000000000000e+02 9.590000000000000000e+02 9.600000000000000000e+02 9.610000000000000000e+02 9.620000000000000000e+02 9.630000000000000000e+02 9.640000000000000000e+02 9.650000000000000000e+02 9.660000000000000000e+02 9.670000000000000000e+02 9.680000000000000000e+02 9.690000000000000000e+02 9.700000000000000000e+02 9.710000000000000000e+02 9.720000000000000000e+02 9.730000000000000000e+02 9.740000000000000000e+02 9.750000000000000000e+02 9.760000000000000000e+02 9.770000000000000000e+02 9.780000000000000000e+02 9.790000000000000000e+02 9.800000000000000000e+02 9.810000000000000000e+02 9.820000000000000000e+02 9.830000000000000000e+02 9.840000000000000000e+02 9.850000000000000000e+02 9.860000000000000000e+02 9.870000000000000000e+02 9.880000000000000000e+02 9.890000000000000000e+02 9.900000000000000000e+02 9.910000000000000000e+02 9.920000000000000000e+02 9.930000000000000000e+02 9.940000000000000000e+02 9.950000000000000000e+02 9.960000000000000000e+02 9.970000000000000000e+02 9.980000000000000000e+02 9.990000000000000000e+02
1.000000000000000000e+00 1.000000000000000000e+00 1.000000000000000000e+00 1.000000000000000000e+00 1.000000000000000000e+00 1.000000000000000000e+00 1.000000000000000000e+00 1.000000000000000000e+00 1.000000000000000000e+00 1.000000000000000000e+00 1.000000000000000000e+00 1.000000000000000000e+00 1.000000000000000000e+00 1.000000000000000000e+00 1.000000000000000000e+00 1.000000000000000000e+00 1.000000000000000000e+00 1.000000000000000000e+00 1.000000000000000000e+00 1.000000000000000000e+00 1.000000000000000000e+00 1.000000000000000000e+00 1.000000000000000000e+00 1.000000000000000000e+00 1.000000000000000000e+00 1.000000000000000000e+00 1.000000000000000000e+00 1.000000000000000000e+00 1.000000000000000000e+00 1.000000000000000000e+00 1.000000000000000000e+00 1.000000000000000000e+00 1.000000000000000000e+00 1.000000000000000000e+00 1.000000000000000000e+00 1.000000000000000000e+00 1.000000000000000000e+00 1.000000000000000000e+00 1.000000000000000000e+00 1.000000000000000000e+00 1.000000000000000000e+00 1.000000000000000000e+00 1.000000000000000000e+00 1.000000000000000000e+00 1.000000000000000000e+00 1.000000000000000000e+00 1.000000000000000000e+00 1.000000000000000000e+00 1.000000000000000000e+00 1.000000000000000000e+00 1.000000000000000000e+00 1.000000000000000000e+00 1.000000000000000000e+00 1.000000000000000000e+00 1.000000000000000000e+00 1.000000000000000000e+00 1.000000000000000000e+00 1.000000000000000000e+00 1.000000000000000000e+00 1.000000000000000000e+00 1.000000000000000000e+00 1.000000000000000000e+00 1.000000000000000000e+00 1.000000000000000000e+00 1.000000000000000000e+00 1.000000000000000000e+00 1.000000000000000000e+00 1.000000000000000000e+00 1.000000000000000000e+00 1.000000000000000000e+00 1.000000000000000000e+00 1.000000000000000000e+00 1.000000000000000000e+00 1.000000000000000000e+00 1.000000000000000000e+00 1.000000000000000000e+00 1.000000000000000000e+00 1.000000000000000000e+00 1.000000000000000000e+00 1.000000000000000000e+00 1.000000000000000000e+00 1.000000000000000000e+00 1.000000000000000000e+00 1.000000000000000000e+00 1.000000000000000000e+00 1.000000000000000000e+00 1.000000000000000000e+00 1.000000000000000000e+00 1.000000000000000000e+00 1.000000000000000000e+00 1.000000000000000000e+00 1.000000000000000000e+00 1.000000000000000000e+00 1.000000000000000000e+00 1.000000000000000000e+00 1.000000000000000000e+00 1.000000000000000000e+00 1.000000000000000000e+00 1.000000000000000000e+00 1.000000000000000000e+00 1.000000000000000000e+00 1.000000000000000000e+00 1.000000000000000000e+00 1.000000000000000000e+00 1.000000000000000000e+00 1.000000000000000000e+00 1.000000000000000000e+00 1.000000000000000000e+00 1.000000000000000000e+00 1.000000000000000000e+00 1.000000000000000000e+00 1.000000000000000000e+00 1.000000000000000000e+00 1.000000000000000000e+00 1.000000000000000000e+00 1.000000000000000000e+00 1.000000000000000000e+00 1.000000000000000000e+00 1.000000000000000000e+00 1.000000000000000000e+00 1.000000000000000000e+00 1.000000000000000000e+00 1.000000000000000000e+00 1.000000000000000000e+00 1.000000000000000000e+00 1.000000000000000000e+00 1.000000000000000000e+00 1.000000000000000000e+00 1.000000000000000000e+00 1.000000000000000000e+00 1.000000000000000000e+00 1.000000000000000000e+00 1.000000000000000000e+00 1.000000000000000000e+00 1.000000000000000000e+00 1.000000000000000000e+00 1.000000000000000000e+00 1.000000000000000000e+00 1.000000000000000000e+00 1.000000000000000000e+00 1.000000000000000000e+00 1.000000000000000000e+00 1.000000000000000000e+00 1.000000000000000000e+00 1.000000000000000000e+00 1.000000000000000000e+00 1.000000000000000000e+00 1.000000000000000000e+00 1.000000000000000000e+00 1.000000000000000000e+00 1.000000000000000000e+00 1.000000000000000000e+00 1.000000000000000000e+00 1.000000000000000000e+00 1.000000000000000000e+00 1.000000000000000000e+00 1.000000000000000000e+00 1.000000000000000000e+00 1.000000000000000000e+00 1.000000000000000000e+00 1.000000000000000000e+00 1.000000000000000000e+00 1.000000000000000000e+00 1.000000000000000000e+00 1.000000000000000000e+00 1.000000000000000000e+00 1.000000000000000000e+00 1.000000000000000000e+00 1.000000000000000000e+00 1.000000000000000000e+00 1.000000000000000000e+00 1.000000000000000000e+00 1.000000000000000000e+00 1.000000000000000000e+00 1.000000000000000000e+00 1.000000000000000000e+00 1.000000000000000000e+00 1.000000000000000000e+00 1.000000000000000000e+00 1.000000000000000000e+00 1.000000000000000000e+00 1.000000000000000000e+00 1.000000000000000000e+00 1.000000000000000000e+00 1.000000000000000000e+00 1.000000000000000000e+00 1.000000000000000000e+00 1.000000000000000000e+00 1.000000000000000000e+00 1.000000000000000000e+00 1.000000000000000000e+00 1.000000000000000000e+00 1.000000000000000000e+00 1.000000000000000000e+00 1.000000000000000000e+00 1.000000000000000000e+00 1.000000000000000000e+00 1.000000000000000000e+00 1.000000000000000000e+00 1.000000000000000000e+00 1.000000000000000000e+00 1.000000000000000000e+00 1.000000000000000000e+00 1.000000000000000000e+00 1.000000000000000000e+00 1.000000000000000000e+00 1.000000000000000000e+00 1.000000000000000000e+00 1.000000000000000000e+00 1.000000000000000000e+00 1.000000000000000000e+00 1.000000000000000000e+00 1.000000000000000000e+00 1.000000000000000000e+00 1.000000000000000000e+00 1.000000000000000000e+00 1.000000000000000000e+00 1.000000000000000000e+00 1.000000000000000000e+00 1.000000000000000000e+00 1.000000000000000000e+00 1.000000000000000000e+00 1.000000000000000000e+00 1.000000000000000000e+00 1.000000000000000000e+00 1.000000000000000000e+00 1.000000000000000000e+00 1.000000000000000000e+00 1.000000000000000000e+00 1.000000000000000000e+00 1.000000000000000000e+00 1.000000000000000000e+00 1.000000000000000000e+00 1.000000000000000000e+00 1.000000000000000000e+00 1.000000000000000000e+00 1.000000000000000000e+00 1.000000000000000000e+00 1.000000000000000000e+00 1.000000000000000000e+00 1.000000000000000000e+00 1.000000000000000000e+00 1.000000000000000000e+00 1.000000000000000000e+00 1.000000000000000000e+00 1.000000000000000000e+00 1.000000000000000000e+00 1.000000000000000000e+00 1.000000000000000000e+00 1.000000000000000000e+00 1.000000000000000000e+00 1.000000000000000000e+00 1.000000000000000000e+00 1.000000000000000000e+00 1.000000000000000000e+00 1.000000000000000000e+00 1.000000000000000000e+00 1.000000000000000000e+00 1.000000000000000000e+00 1.000000000000000000e+00 1.000000000000000000e+00 1.000000000000000000e+00 1.000000000000000000e+00 1.000000000000000000e+00 1.000000000000000000e+00 1.000000000000000000e+00 1.000000000000000000e+00 1.000000000000000000e+00 1.000000000000000000e+00 1.000000000000000000e+00 1.000000000000000000e+00 1.000000000000000000e+00 1.000000000000000000e+00 1.000000000000000000e+00 1.000000000000000000e+00 1.000000000000000000e+00 1.000000000000000000e+00 1.000000000000000000e+00 1.000000000000000000e+00 1.000000000000000000e+00 1.000000000000000000e+00 1.000000000000000000e+00 1.000000000000000000e+00 1.000000000000000000e+00 1.000000000000000000e+00 1.000000000000000000e+00 1.000000000000000000e+00 1.000000000000000000e+00 1.000000000000000000e+00 1.000000000000000000e+00 1.000000000000000000e+00 1.000000000000000000e+00 1.000000000000000000e+00 1.000000000000000000e+00 1.000000000000000000e+00 1.000000000000000000e+00 1.000000000000000000e+00 1.000000000000000000e+00 1.000000000000000000e+00 1.000000000000000000e+00 1.000000000000000000e+00 1.000000000000000000e+00 1.000000000000000000e+00 1.000000000000000000e+00 1.000000000000000000e+00 1.000000000000000000e+00 1.000000000000000000e+00 1.000000000000000000e+00 1.000000000000000000e+00 1.000000000000000000e+00 1.000000000000000000e+00 1.000000000000000000e+00 1.000000000000000000e+00 1.000000000000000000e+00 1.000000000000000000e+00 1.000000000000000000e+00 1.000000000000000000e+00 1.000000000000000000e+00 1.000000000000000000e+00 1.000000000000000000e+00 1.000000000000000000e+00 1.000000000000000000e+00 1.000000000000000000e+00 1.000000000000000000e+00 1.000000000000000000e+00 1.000000000000000000e+00 1.000000000000000000e+00 1.000000000000000000e+00 1.000000000000000000e+00 1.000000000000000000e+00 1.000000000000000000e+00 1.000000000000000000e+00 1.000000000000000000e+00 1.000000000000000000e+00 1.000000000000000000e+00 1.000000000000000000e+00 1.000000000000000000e+00 1.000000000000000000e+00 1.000000000000000000e+00 1.000000000000000000e+00 1.000000000000000000e+00 1.000000000000000000e+00 1.000000000000000000e+00 1.000000000000000000e+00 1.000000000000000000e+00 1.000000000000000000e+00 1.000000000000000000e+00 1.000000000000000000e+00 1.000000000000000000e+00 1.000000000000000000e+00 1.000000000000000000e+00 1.000000000000000000e+00 1.000000000000000000e+00 1.000000000000000000e+00 1.000000000000000000e+00 1.000000000000000000e+00 1.000000000000000000e+00 1.000000000000000000e+00 1.000000000000000000e+00 1.000000000000000000e+00 1.000000000000000000e+00 1.000000000000000000e+00 1.000000000000000000e+00 1.000000000000000000e+00 1.000000000000000000e+00 1.000000000000000000e+00 1.000000000000000000e+00 1.000000000000000000e+00 1.000000000000000000e+00 1.000000000000000000e+00 1.000000000000000000e+00 1.000000000000000000e+00 1.000000000000000000e+00 1.000000000000000000e+00 1.000000000000000000e+00 1.000000000000000000e+00 1.000000000000000000e+00 1.000000000000000000e+00 1.000000000000000000e+00 1.000000000000000000e+00 1.000000000000000000e+00 1.000000000000000000e+00 1.000000000000000000e+00 1.000000000000000000e+00 1.000000000000000000e+00 1.000000000000000000e+00 1.000000000000000000e+00 1.000000000000000000e+00 1.000000000000000000e+00 1.000000000000000000e+00 1.000000000000000000e+00 1.000000000000000000e+00 1.000000000000000000e+00 1.000000000000000000e+00 1.000000000000000000e+00 1.000000000000000000e+00 1.000000000000000000e+00 1.000000000000000000e+00 1.000000000000000000e+00 1.000000000000000000e+00 1.000000000000000000e+00 1.000000000000000000e+00 1.000000000000000000e+00 1.000000000000000000e+00 1.000000000000000000e+00 1.000000000000000000e+00 1.000000000000000000e+00 1.000000000000000000e+00 1.000000000000000000e+00 1.000000000000000000e+00 1.000000000000000000e+00 1.000000000000000000e+00 1.000000000000000000e+00 1.000000000000000000e+00 1.000000000000000000e+00 1.000000000000000000e+00 1.000000000000000000e+00 1.000000000000000000e+00 1.000000000000000000e+00 1.000000000000000000e+00 1.000000000000000000e+00 1.000000000000000000e+00 1.000000000000000000e+00 1.000000000000000000e+00 1.000000000000000000e+00 1.000000000000000000e+00 1.000000000000000000e+00 1.000000000000000000e+00 1.000000000000000000e+00 1.000000000000000000e+00 1.000000000000000000e+00 1.000000000000000000e+00 1.000000000000000000e+00 1.000000000000000000e+00 1.000000000000000000e+00 1.000000000000000000e+00 1.000000000000000000e+00 1.000000000000000000e+00 1.000000000000000000e+00 1.000000000000000000e+00 1.000000000000000000e+00 1.000000000000000000e+00 1.000000000000000000e+00 1.000000000000000000e+00 1.000000000000000000e+00 1.000000000000000000e+00 1.000000000000000000e+00 1.000000000000000000e+00 1.000000000000000000e+00 1.000000000000000000e+00 1.000000000000000000e+00 1.000000000000000000e+00 1.000000000000000000e+00 1.000000000000000000e+00 1.000000000000000000e+00 1.000000000000000000e+00 1.000000000000000000e+00 1.000000000000000000e+00 1.000000000000000000e+00 1.000000000000000000e+00 1.000000000000000000e+00 1.000000000000000000e+00 1.000000000000000000e+00 1.000000000000000000e+00 1.000000000000000000e+00 1.000000000000000000e+00 1.000000000000000000e+00 1.000000000000000000e+00 1.000000000000000000e+00 1.000000000000000000e+00 1.000000000000000000e+00 1.000000000000000000e+00 1.000000000000000000e+00 1.000000000000000000e+00 1.000000000000000000e+00 1.000000000000000000e+00 1.000000000000000000e+00 1.000000000000000000e+00 1.000000000000000000e+00 1.000000000000000000e+00 1.000000000000000000e+00 1.000000000000000000e+00 1.000000000000000000e+00 1.000000000000000000e+00 1.000000000000000000e+00 1.000000000000000000e+00 1.000000000000000000e+00 1.000000000000000000e+00 1.000000000000000000e+00 1.000000000000000000e+00 1.000000000000000000e+00 1.000000000000000000e+00 1.000000000000000000e+00 1.000000000000000000e+00 1.000000000000000000e+00 1.000000000000000000e+00 1.000000000000000000e+00 1.000000000000000000e+00 1.000000000000000000e+00 1.000000000000000000e+00 1.000000000000000000e+00 1.000000000000000000e+00 1.000000000000000000e+00 1.000000000000000000e+00 1.000000000000000000e+00 1.000000000000000000e+00 1.000000000000000000e+00 1.000000000000000000e+00 1.000000000000000000e+00 1.000000000000000000e+00 1.000000000000000000e+00 1.000000000000000000e+00 1.000000000000000000e+00 1.000000000000000000e+00 1.000000000000000000e+00 1.000000000000000000e+00 1.000000000000000000e+00 1.000000000000000000e+00 1.000000000000000000e+00 1.000000000000000000e+00 1.000000000000000000e+00 1.000000000000000000e+00 1.000000000000000000e+00 1.000000000000000000e+00 1.000000000000000000e+00 1.000000000000000000e+00 1.000000000000000000e+00 1.000000000000000000e+00 1.000000000000000000e+00 1.000000000000000000e+00 1.000000000000000000e+00 1.000000000000000000e+00 1.000000000000000000e+00 1.000000000000000000e+00 1.000000000000000000e+00 1.000000000000000000e+00 1.000000000000000000e+00 1.000000000000000000e+00 1.000000000000000000e+00 1.000000000000000000e+00 1.000000000000000000e+00 1.000000000000000000e+00 1.000000000000000000e+00 1.000000000000000000e+00 1.000000000000000000e+00 1.000000000000000000e+00 1.000000000000000000e+00 1.000000000000000000e+00 1.000000000000000000e+00 1.000000000000000000e+00 1.000000000000000000e+00 1.000000000000000000e+00 1.000000000000000000e+00 1.000000000000000000e+00 1.000000000000000000e+00 1.000000000000000000e+00 1.000000000000000000e+00 1.000000000000000000e+00 1.000000000000000000e+00 1.000000000000000000e+00 1.000000000000000000e+00 1.000000000000000000e+00 1.000000000000000000e+00 1.000000000000000000e+00 1.000000000000000000e+00 1.000000000000000000e+00 1.000000000000000000e+00 1.000000000000000000e+00 1.000000000000000000e+00 1.000000000000000000e+00 1.000000000000000000e+00 1.000000000000000000e+00 1.000000000000000000e+00 1.000000000000000000e+00 1.000000000000000000e+00 1.000000000000000000e+00 1.000000000000000000e+00 1.000000000000000000e+00 1.000000000000000000e+00 1.000000000000000000e+00 1.000000000000000000e+00 1.000000000000000000e+00 1.000000000000000000e+00 1.000000000000000000e+00 1.000000000000000000e+00 1.000000000000000000e+00 1.000000000000000000e+00 1.000000000000000000e+00 1.000000000000000000e+00 1.000000000000000000e+00 1.000000000000000000e+00 1.000000000000000000e+00 1.000000000000000000e+00 1.000000000000000000e+00 1.000000000000000000e+00 1.000000000000000000e+00 1.000000000000000000e+00 1.000000000000000000e+00 1.000000000000000000e+00 1.000000000000000000e+00 1.000000000000000000e+00 1.000000000000000000e+00 1.000000000000000000e+00 1.000000000000000000e+00 1.000000000000000000e+00 1.000000000000000000e+00 1.000000000000000000e+00 1.000000000000000000e+00 1.000000000000000000e+00 1.000000000000000000e+00 1.000000000000000000e+00 1.000000000000000000e+00 1.000000000000000000e+00 1.000000000000000000e+00 1.000000000000000000e+00 1.000000000000000000e+00 1.000000000000000000e+00 1.000000000000000000e+00 1.000000000000000000e+00 1.000000000000000000e+00 1.000000000000000000e+00 1.000000000000000000e+00 1.000000000000000000e+00 1.000000000000000000e+00 1.000000000000000000e+00 1.000000000000000000e+00 1.000000000000000000e+00 1.000000000000000000e+00 1.000000000000000000e+00 1.000000000000000000e+00 1.000000000000000000e+00 1.000000000000000000e+00 1.000000000000000000e+00 1.000000000000000000e+00 1.000000000000000000e+00 1.000000000000000000e+00 1.000000000000000000e+00 1.000000000000000000e+00 1.000000000000000000e+00 1.000000000000000000e+00 1.000000000000000000e+00 1.000000000000000000e+00 1.000000000000000000e+00 1.000000000000000000e+00 1.000000000000000000e+00 1.000000000000000000e+00 1.000000000000000000e+00 1.000000000000000000e+00 1.000000000000000000e+00 1.000000000000000000e+00 1.000000000000000000e+00 1.000000000000000000e+00 1.000000000000000000e+00 1.000000000000000000e+00 1.000000000000000000e+00 1.000000000000000000e+00 1.000000000000000000e+00 1.000000000000000000e+00 1.000000000000000000e+00 1.000000000000000000e+00 1.000000000000000000e+00 1.000000000000000000e+00 1.000000000000000000e+00 1.000000000000000000e+00 1.000000000000000000e+00 1.000000000000000000e+00 1.000000000000000000e+00 1.000000000000000000e+00 1.000000000000000000e+00 1.000000000000000000e+00 1.000000000000000000e+00 1.000000000000000000e+00 1.000000000000000000e+00 1.000000000000000000e+00 1.000000000000000000e+00 1.000000000000000000e+00 1.000000000000000000e+00 1.000000000000000000e+00 1.000000000000000000e+00 1.000000000000000000e+00 1.000000000000000000e+00 1.000000000000000000e+00 1.000000000000000000e+00 1.000000000000000000e+00 1.000000000000000000e+00 1.000000000000000000e+00 1.000000000000000000e+00 1.000000000000000000e+00 1.000000000000000000e+00 1.000000000000000000e+00 1.000000000000000000e+00 1.000000000000000000e+00 1.000000000000000000e+00 1.000000000000000000e+00 1.000000000000000000e+00 1.000000000000000000e+00 1.000000000000000000e+00 1.000000000000000000e+00 1.000000000000000000e+00 1.000000000000000000e+00 1.000000000000000000e+00 1.000000000000000000e+00 1.000000000000000000e+00 1.000000000000000000e+00 1.000000000000000000e+00 1.000000000000000000e+00 1.000000000000000000e+00 1.000000000000000000e+00 1.000000000000000000e+00 1.000000000000000000e+00 1.000000000000000000e+00 1.000000000000000000e+00 1.000000000000000000e+00 1.000000000000000000e+00 1.000000000000000000e+00 1.000000000000000000e+00 1.000000000000000000e+00 1.000000000000000000e+00 1.000000000000000000e+00 1.000000000000000000e+00 1.000000000000000000e+00 1.000000000000000000e+00 1.000000000000000000e+00 1.000000000000000000e+00 1.000000000000000000e+00 1.000000000000000000e+00 1.000000000000000000e+00 1.000000000000000000e+00 1.000000000000000000e+00 1.000000000000000000e+00 1.000000000000000000e+00 1.000000000000000000e+00 1.000000000000000000e+00 1.000000000000000000e+00 1.000000000000000000e+00 1.000000000000000000e+00 1.000000000000000000e+00 1.000000000000000000e+00 1.000000000000000000e+00 1.000000000000000000e+00 1.000000000000000000e+00 1.000000000000000000e+00 1.000000000000000000e+00 1.000000000000000000e+00 1.000000000000000000e+00 1.000000000000000000e+00 1.000000000000000000e+00 1.000000000000000000e+00 1.000000000000000000e+00 1.000000000000000000e+00 1.000000000000000000e+00 1.000000000000000000e+00 1.000000000000000000e+00 1.000000000000000000e+00 1.000000000000000000e+00 1.000000000000000000e+00 1.000000000000000000e+00 1.000000000000000000e+00 1.000000000000000000e+00 1.000000000000000000e+00 1.000000000000000000e+00 1.000000000000000000e+00 1.000000000000000000e+00 1.000000000000000000e+00 1.000000000000000000e+00 1.000000000000000000e+00 1.000000000000000000e+00 1.000000000000000000e+00 1.000000000000000000e+00 1.000000000000000000e+00 1.000000000000000000e+00 1.000000000000000000e+00 1.000000000000000000e+00 1.000000000000000000e+00 1.000000000000000000e+00 1.000000000000000000e+00 1.000000000000000000e+00 1.000000000000000000e+00 1.000000000000000000e+00 1.000000000000000000e+00 1.000000000000000000e+00 1.000000000000000000e+00 1.000000000000000000e+00 1.000000000000000000e+00 1.000000000000000000e+00 1.000000000000000000e+00 1.000000000000000000e+00 1.000000000000000000e+00 1.000000000000000000e+00 1.000000000000000000e+00 1.000000000000000000e+00 1.000000000000000000e+00 1.000000000000000000e+00 1.000000000000000000e+00 1.000000000000000000e+00 1.000000000000000000e+00 1.000000000000000000e+00 1.000000000000000000e+00 1.000000000000000000e+00 1.000000000000000000e+00 1.000000000000000000e+00 1.000000000000000000e+00 1.000000000000000000e+00 1.000000000000000000e+00 1.000000000000000000e+00 1.000000000000000000e+00 1.000000000000000000e+00 1.000000000000000000e+00 1.000000000000000000e+00 1.000000000000000000e+00 1.000000000000000000e+00 1.000000000000000000e+00 1.000000000000000000e+00 1.000000000000000000e+00 1.000000000000000000e+00 1.000000000000000000e+00 1.000000000000000000e+00 1.000000000000000000e+00 1.000000000000000000e+00 1.000000000000000000e+00 1.000000000000000000e+00 1.000000000000000000e+00 1.000000000000000000e+00 1.000000000000000000e+00 1.000000000000000000e+00 1.000000000000000000e+00 1.000000000000000000e+00 1.000000000000000000e+00 1.000000000000000000e+00 1.000000000000000000e+00 1.000000000000000000e+00 1.000000000000000000e+00 1.000000000000000000e+00 1.000000000000000000e+00 1.000000000000000000e+00 1.000000000000000000e+00 1.000000000000000000e+00 1.000000000000000000e+00 1.000000000000000000e+00 1.000000000000000000e+00 1.000000000000000000e+00 1.000000000000000000e+00 1.000000000000000000e+00 1.000000000000000000e+00 1.000000000000000000e+00 1.000000000000000000e+00 1.000000000000000000e+00 1.000000000000000000e+00 1.000000000000000000e+00 1.000000000000000000e+00 1.000000000000000000e+00 1.000000000000000000e+00 1.000000000000000000e+00 1.000000000000000000e+00 1.000000000000000000e+00 1.000000000000000000e+00 1.000000000000000000e+00 1.000000000000000000e+00 1.000000000000000000e+00 1.000000000000000000e+00 1.000000000000000000e+00 1.000000000000000000e+00 1.000000000000000000e+00 1.000000000000000000e+00 1.000000000000000000e+00 1.000000000000000000e+00 1.000000000000000000e+00 1.000000000000000000e+00 1.000000000000000000e+00 1.000000000000000000e+00 1.000000000000000000e+00 1.000000000000000000e+00 1.000000000000000000e+00 1.000000000000000000e+00 1.000000000000000000e+00 1.000000000000000000e+00 1.000000000000000000e+00 1.000000000000000000e+00 1.000000000000000000e+00 1.000000000000000000e+00 1.000000000000000000e+00 1.000000000000000000e+00 1.000000000000000000e+00 1.000000000000000000e+00 1.000000000000000000e+00 1.000000000000000000e+00 1.000000000000000000e+00 1.000000000000000000e+00 1.000000000000000000e+00 1.000000000000000000e+00 1.000000000000000000e+00 1.000000000000000000e+00 1.000000000000000000e+00 1.000000000000000000e+00 1.000000000000000000e+00 1.000000000000000000e+00 1.000000000000000000e+00 1.000000000000000000e+00 1.000000000000000000e+00 1.000000000000000000e+00 1.000000000000000000e+00 1.000000000000000000e+00 1.000000000000000000e+00 1.000000000000000000e+00 1.000000000000000000e+00 1.000000000000000000e+00 1.000000000000000000e+00 1.000000000000000000e+00 1.000000000000000000e+00 1.000000000000000000e+00 1.000000000000000000e+00 1.000000000000000000e+00 1.000000000000000000e+00 1.000000000000000000e+00 1.000000000000000000e+00 1.000000000000000000e+00 1.000000000000000000e+00 1.000000000000000000e+00 1.000000000000000000e+00 1.000000000000000000e+00 1.000000000000000000e+00 1.000000000000000000e+00 1.000000000000000000e+00 1.000000000000000000e+00 1.000000000000000000e+00 1.000000000000000000e+00 1.000000000000000000e+00 1.000000000000000000e+00 1.000000000000000000e+00 1.000000000000000000e+00 1.000000000000000000e+00 1.000000000000000000e+00 1.000000000000000000e+00 1.000000000000000000e+00 1.000000000000000000e+00 1.000000000000000000e+00 1.000000000000000000e+00 1.000000000000000000e+00 1.000000000000000000e+00 1.000000000000000000e+00 1.000000000000000000e+00 1.000000000000000000e+00 1.000000000000000000e+00 1.000000000000000000e+00 1.000000000000000000e+00 1.000000000000000000e+00 1.000000000000000000e+00 1.000000000000000000e+00 1.000000000000000000e+00 1.000000000000000000e+00 1.000000000000000000e+00 1.000000000000000000e+00 1.000000000000000000e+00 1.000000000000000000e+00 1.000000000000000000e+00 1.000000000000000000e+00 1.000000000000000000e+00 1.000000000000000000e+00 1.000000000000000000e+00 1.000000000000000000e+00 1.000000000000000000e+00 1.000000000000000000e+00 1.000000000000000000e+00 1.000000000000000000e+00 1.000000000000000000e+00 1.000000000000000000e+00 1.000000000000000000e+00 1.000000000000000000e+00 1.000000000000000000e+00 1.000000000000000000e+00 1.000000000000000000e+00 1.000000000000000000e+00 1.000000000000000000e+00 1.000000000000000000e+00 1.000000000000000000e+00 1.000000000000000000e+00 1.000000000000000000e+00 1.000000000000000000e+00 1.000000000000000000e+00 1.000000000000000000e+00 1.000000000000000000e+00 1.000000000000000000e+00 1.000000000000000000e+00 1.000000000000000000e+00 1.000000000000000000e+00 1.000000000000000000e+00 1.000000000000000000e+00 1.000000000000000000e+00 1.000000000000000000e+00 1.000000000000000000e+00 1.000000000000000000e+00 1.000000000000000000e+00 1.000000000000000000e+00 1.000000000000000000e+00 1.000000000000000000e+00 1.000000000000000000e+00 1.000000000000000000e+00 1.000000000000000000e+00 1.000000000000000000e+00 1.000000000000000000e+00
1.848927774314597719e-02 5.482672486339750240e-01 -2.308856212515313366e-01 7.463680883005232580e-01 5.150203310322739592e-01 5.206855880256825442e-01 6.181726442045171188e-01 2.907316004580665636e-01 5.257380550264708630e-01 5.057137239170254039e-01 1.079830778176816164e+00 -6.912529558053737144e-01 1.401954008010975139e+00 4.522980002859009474e-01 5.175794143905843026e-01 3.947505141712440158e-01 8.891613773765184581e-01 9.761545455163493923e-01 7.021997585865576985e-01 5.124531914698251533e-01 3.981035089943671390e-01 9.823156729132447307e-01 4.258541003267264369e-01 4.828467336042743807e-01 9.595992642030451436e-02 6.739296695163777828e-01 3.737505660106088534e-01 6.525981454659920411e-01 5.504045441607343658e-01 1.570585549362947253e+00 5.186089702396091683e-01 6.113668018799903736e-01 7.196251740704885380e-01 5.001930180398835857e-01 7.065637917568580173e-01 4.506585443398441471e-01 5.222687898228087766e-01 1.780628392128938975e+00 -6.891564622283150032e-02 5.283438813070576723e-01 -1.659842648926561082e-01 -5.608207456089482346e-01 7.494901530282156443e-01 2.259405892266718452e-01 2.787116007343864443e-01 5.256031010300495909e-01 7.467082900109859311e-01 5.200579175124173670e-01 6.162644545769645488e-01 2.005396703386674515e-02 6.757474098226624176e-03 8.222836997425979622e-01 6.748471077228448411e-01 4.481857690027384322e-01 4.563228475974967502e-01 1.795598068549237800e-02 4.844195907858708239e-01 5.320839633448176675e-01 1.902255743016319778e-01 4.654338266741069874e-01 9.138680724118957155e-01 5.280188279024004006e-01 5.415330817141267294e-01 4.258541472744178935e-01 6.809770926622098486e-01 5.732468069560487933e-01 5.168184006164746602e-01 3.124350127625050710e-01 5.577796098724453477e-01 2.682719329031029495e-03 4.191773945964750170e-01 5.329480250816612807e-01 5.128982014152287938e-01 2.032033318767120095e-02 1.504386570666994993e+00 5.545727715235202471e-01 6.343013872474906334e-01 7.343474232709629179e-01 5.192172317975815021e-01 1.382590410109460821e+00 5.112631410581259805e-01 3.117652349749217566e-01 1.396932631469475883e+00 7.121964838906487127e-01 4.927374063045427133e-01 7.561359128650406713e-01 8.083035434953492748e-01 5.475770734270447582e-01 4.113284298050642884e-01 5.758646243658206432e-01 2.790720357266475160e-01 2.170289029904605371e+00 7.433707467260868285e-01 -2.491424488954126215e-02 5.407080530763933579e-01 4.875802296367707234e-01 5.590591749523010634e-01 4.761837603302739863e-01 1.895038536843100530e-01 6.694732071975837417e-01 1.600900035883902506e+00 6.889534206533469707e-01 5.512116174310603967e-01 7.179467666205665566e-01 8.601026743241920736e-01 -2.056273365393027408e+00 -1.212963538224935078e+00 5.422388874223190713e-01 5.858186314463347255e-01 9.716635895193918016e-01 5.528028828468201095e-01 4.432956880089931606e-01 1.669343082912453369e-01 4.866447979167733973e-01 5.211393000256886454e-01 5.017228433260300102e-01 4.931510305665375293e-01 5.432752679920573868e-01 9.155967032686527229e-01 5.156828615907029789e-01 1.300916804463837062e+00 5.541300575748080437e-01 5.806461533791704710e-01 -4.233727433365600534e-01 5.110811105678357835e-01 1.941941485303372072e+00 5.584046252546787104e-01 5.441254053788528999e-01 6.859501058321304523e-01 5.141225360288085300e-01 5.005179392784767645e-01 5.160526624984995703e-01 4.194261147007019019e-01 3.286189224853046653e-01 -2.760254831072964099e-01 -1.630873453598408185e-01 6.390584922095390308e-01 4.908060631856019096e-02 9.983162443217096227e-01 6.417605764314119332e-01 5.187687187082503648e-01 8.632085829588508341e-01 6.130886584863326494e-01 5.876502492932884625e-01 5.173634251281462593e-01 5.126769690309956190e-02 9.092469239955921489e-01 6.908812804746180571e-03 4.531974446064981343e-01 -8.836982436489848602e-01 7.715420553795295788e-01 -2.954223649199717583e-01 5.256008563339290562e-01 5.563795979260068858e-01 4.563685623144861925e-01 5.179913066570335234e-01 1.932967381920753791e+00 -9.686052530052080556e-02 8.133977669725918069e-01 6.923280297664704541e-01 5.253553158479392637e-01 4.129201344747162050e-01 4.978867979770030261e-01 5.171076637464122605e-01 1.082375888851703438e+00 1.823096658758395772e-01 8.489167773774196624e-01 3.801468721080029090e-01 5.141756982669504206e-01 6.506242698526387702e-01 4.911378750734844423e-01 7.451828872407969540e-01 5.256073544336059555e-01 5.180209972797740203e-01 4.050554539403065646e-01 4.200329381676494445e-02 1.902478107238268490e-01 8.745988513455067725e-02 7.453835476723292830e-01 1.141771017176740344e+00 7.026411027731459535e-01 5.254160582441200766e-01 -1.793126529370764610e-01 4.449448770984733015e-01 6.415463339493615580e-01 5.308020355060686368e-01 5.117601331537079412e-01 5.168772054593824272e-01 2.779445092224197555e+00 5.556513577329423859e-01 5.335135919130641335e-01 -8.852456490771570818e-01 4.921912423568262640e-01 5.602200677084172575e-01 1.862989977614862569e-01 5.178393471155257055e-01 9.331277083691901231e-01 5.068200644013830525e-01 6.260583282020921736e-01 4.287518207428115957e-01 6.261096135062264034e-01 5.178432147529642426e-01 9.288028699917143527e-01 6.006958126060163439e-01 5.432326928964705814e-01 6.260582730109001126e-01 2.521193177650439265e-01 1.286238523485647933e+00 5.409980962288248874e-01 3.877529968579163655e-01 4.345812266259179157e-01 -8.018483828881911579e-02 4.802684985818634900e-01 1.594303372348948311e-01 5.295377137499238662e-01 5.198166465943010461e-01 5.128527888582479211e-01 5.118046429090640226e-01 5.128437108722511129e-01 5.174647196683999084e-01 4.386264249573608720e-01 5.994515952478114418e-01 -7.045755972171615644e-01 5.927267852143983662e-01 3.658956767340506011e-01 3.811106132250129952e-01 1.038073760583242827e-01 1.298990448850813495e+00 9.570264118851926627e-01 4.980796302104169015e-01 -1.037156951843341696e-01 1.053626982865547568e+00 5.175831795736091090e-01 4.443680618840267771e-01 5.584927627393766469e-01 4.136260223090582611e-01 3.473239778078657247e-01 1.875881575602172668e-01 -1.523970186964991036e-01 -1.032000891043550611e-01 3.670615170474995637e-01 5.155891758737449759e-01 -1.052115958839860560e-01 4.389531236729626862e-01 5.129766151104017124e-01 4.759670678268332344e-01 -1.008952878851171187e-01 7.508112663810804221e-01 -2.262969653942696002e+00 6.071124574632321691e-01 -5.894065975654383394e-01 4.969584690135194216e-01 5.184736353476375736e-01 4.258523706296560296e-01 4.734993962237480369e-01 5.605036085008175961e-01 5.376942551032900530e-01 7.545377125312194844e-01 5.507870209914222936e-01 1.689144844729346895e+00 6.772561511704079384e-01 6.932588329556637063e-01 4.848541148421094404e-01 3.508074957049288067e-01 9.138680532372647214e-01 4.032125775138606372e-01 2.665777793292030129e+00 5.181548235797818203e-01 2.348312920545282401e-01 7.175569005707101988e-01 5.098972314439266240e-01 9.138269784643450189e-01 5.165172146918568519e-01 5.516784523730071665e-01 5.178648158140773949e-01 1.090846969534916333e+00 7.685359911051153903e-01 8.636420280217016465e-01 8.084065577041988915e-01 4.281555737223614044e-01 6.780505830039462722e-01 5.298803137010671405e-01 3.877575058784389350e-01 -7.159993565807989402e-01 3.848297543912667651e-01 6.283717798148632516e-01 5.603377908216605752e-01 5.067364209693131505e-01 5.017228130179041123e-01 6.073790404245036356e-01 5.475929205402533251e-01 -8.219870709094886374e-01 7.151607414298386534e-01 5.378461293197446258e-01 2.942003317185260675e-02 5.581927612420493068e-01 1.847797459981695312e+00 5.009679709797095759e-01 5.180775630931623299e-01 4.531895231529098900e-01 -3.395740102514298364e+00 5.150853283643647140e-01 2.786915970491176786e+00 7.453669991613877110e-01 5.398005917886100624e-01 -5.782499215355246802e-01 5.217278575643546912e-01 5.161293439550450612e-01 4.365769151056791975e-01 4.541024609438829018e-01 3.665114209116732136e-01 6.408723582967621457e-01 3.144826915049188099e-01 5.195615731093137235e-01 5.171151720695070786e-01 3.551606406636413915e-01 5.174947646127422418e-01 7.455698772655882101e-01 5.146865090884104044e-01 1.196474211131814513e+00 5.746600704753488352e-03 2.214543271770247124e+00 2.628629492874882789e+00 5.212772958054779915e-01 -2.092731275437809957e-01 4.233493987194261732e-01 4.024791662068600839e-01 7.289914968069985957e-01 1.372531196245283969e+00 5.362439840748719488e-01 1.123869994212092882e+00 5.172186831832187304e-01 1.249476658237646393e-01 1.250915094230379498e+00 4.342032057912729170e-01 5.313727344305174682e-01 5.025513477976777388e-01 8.904181612372390475e-01 -3.690457340188147306e+00 1.627215584568108886e+00 5.403462729633526918e-01 6.381962875244838740e-01 5.157554537814051931e-01 1.780628395179715717e+00 3.055336132372734603e-01 5.471434044157337251e-01 5.386517711547712528e-01 4.455269731237413988e-01 1.379067341467318020e+00 5.900230978569546147e-01 6.260585413132067067e-01 4.389565496134356648e-01 6.006958152274194385e-01 5.825987918872244098e-01 5.655099298998467194e-01 8.948012467747247234e-01 5.153739910219488074e-01 3.882420241261226312e-01 1.966589195707589000e-01 6.575350437677828230e-01 5.142070879436522191e-01 3.921300519142413843e-01 5.471433997848548225e-01 6.601286517370102969e-01 5.118702119232935166e-01 1.013245593271064227e+00 9.825118637186435189e-01 1.132289323664831926e+00 5.115299729127789075e-01 2.315141167028357816e-01 9.138680398374628977e-01 -1.090564753840500972e-01 9.333889921957534419e-01 6.286356225820530774e-01 5.214356721549183969e-03 5.821468066930819418e-01 9.678164698543445521e-01 3.890794546110138419e-01 5.145276623289657403e-01 2.818782486518871533e-01 -3.332188040234199122e-01 -2.451641277768518812e+00 4.813100908576730674e-01 6.006958162872058082e-01 6.006958608362810148e-01 5.023661430196938449e-01 4.205049517265780912e-01 -2.160812866853149827e-01 3.165751211768990103e-01 5.146264233509768582e-01 6.801043871880905201e-01 5.167107877611268885e-01 1.050157050538671699e+00 6.260585039561857856e-01 5.171882244307074439e-01 4.830036795640447744e-01 2.698793914287920814e-01 6.533471328376636578e-01 5.225989379637498988e-01 5.143743285936618337e-01 5.445096428321392068e-01 2.830406488538050880e-01 1.992398875343107806e-02 6.006958163713794763e-01 6.590124554072315233e-01 5.195992081156025622e-01 4.168300227467844343e-01 8.583349419559720417e-01 7.050388796030857552e-01 5.635147703725931212e-01 1.843977607220236292e+00 5.129615337168765832e-01 -3.044079819243164398e+00 7.467525499781862974e-01 1.515935457779036044e+00 5.341230301569641625e-01 -1.061411596746588915e+00 7.551071274373367670e-01 4.548282684133026499e-01 5.213555954244137869e-01 5.128975513736099279e-01 -3.242429668735137271e-01 5.112816739333408966e-01 1.068306661467504304e+00 5.774170580415490805e-01 -3.479352797494680294e-01 5.171042336620591540e-01 5.135318958140460133e-01 7.768422697541880195e-01 5.420060865158582430e-01 5.414337322606607161e-01 -5.178649372143586671e-01 5.616847106931419642e-01 5.204092546196168456e-01 6.712194341014939836e-01 5.375887676848720709e-01 7.662818291112258873e-01 5.218592553584054938e-01 5.926425910243174888e-01 6.533621154293826061e-01 5.353373801311516189e-01 3.024462630970222166e-01 2.861294218930195976e-01 3.269669705668156734e-01 9.597081469002167742e-01 5.493796903146239696e-01 3.185516376314910580e+00 6.598204115368725420e-01 6.266897318852135967e-01 5.553643472595446440e-01 6.081110528136361992e-01 2.727427276275738374e-02 4.858698963365547518e-01 5.460218600049415727e-01 5.120314046164303745e-01 1.163384910798829441e+00 7.662239070032766941e-01 5.054399200135804016e-01 4.459812560204756138e-01 1.116535550596173376e+00 5.008587984145155270e-01 5.558614799793610839e-01 5.267679887493876834e-01 7.670768986925868838e-01 5.184771174653425296e-01 9.276790739260110108e-01 5.034207795947058806e-01 5.175468350943157603e-01 6.601492234610949195e-03 5.088790103088702832e-01 1.230789110499315962e-02 3.377774411110124331e-01 4.107245239897185929e-01 5.691983127606768944e-01 7.766505423900973426e-01 5.163731665942664639e-01 3.933022200010827807e-01 6.708607350238784961e-02 5.264437728849030718e-01 5.516964422559033077e-01 4.736319021677682373e-01 4.500022758611483403e-02 5.196171783057984550e-01 2.460002264042101816e-01 5.201731947287622226e-01 4.194021376414152069e-01 1.255550339126690895e+00 7.828109956855836549e-01 5.474919463596583658e-01 2.647758893025397575e-01 6.918096331032893564e-01 4.256315754710425781e-01 9.914262309835411013e-01 6.007334390069613006e-01 5.747612905043387732e-01 6.913194902555125365e-01 1.985236189077942415e+00 4.587012612004084944e-01 4.500816857316279895e-01 5.134722799333487631e-01 7.154862406749012971e-01 4.692823923929394514e-01 8.374570049318530440e-01 -5.695643388283144759e-01 3.378373023610330428e-01 5.159288232689657194e-01 4.275714015223631148e-01 3.711522416808942793e-01 -6.113034419367034955e-01 3.887555464119605841e-01 5.143328749089431939e-01 7.373303390660168599e-01 6.660397069482253407e-01 1.462190753947103294e+00 5.127150784391110161e-01 5.129066168010634197e-01 -6.969307149351491315e-01 5.181373444992349864e-01 1.212433252355720192e+00 7.043649656476514975e-01 2.641392595335094184e-01 2.661912869966252537e-01 -1.653224032520707487e+00 4.977345491890321494e-01 1.862164862121564735e-01 1.097452650833145915e+00 8.157582673028679343e-01 5.126059365370491117e-01 5.144944403251109355e-01 6.292218612599965732e-01 7.465792794075023497e-01 4.502919437816801929e-01 5.613214181908360301e-01 2.891630358499254136e-02 5.021563731006342124e-01 6.201424065672729302e-01 5.959859803314310200e-01 5.043725657340443203e-01 5.431410297424698053e-01 1.203152705509082487e+00 -1.055915140445310846e-01 -2.327434245181400074e-01 4.279482273336128739e-01 5.442562554419122511e-01 5.495751014620797736e-01 4.942254321390512350e-01 -8.480944632020835927e-01 3.150596807411198963e+00 5.631971481415890546e-01 4.502933308013851721e-01 4.181564015346092011e-01 5.195321752659256553e-01 5.131594857339343285e-01 5.980370729810839947e-01 3.258202996085323710e-01 5.889128738245988925e-01 5.189851483339793514e-01 6.150112034658483662e-01 3.557367537381325162e-01 4.392707002296293850e-01 5.412133469456571477e-01 4.059087948628620768e-01 4.938953938450104109e-01 5.465145404188681555e-01 6.555300044995145958e-01 1.007622574688773920e+00 2.308143077220520478e+00 5.491930171037565644e-01 4.959772840887511913e-01 4.638902287141943304e-01 5.124446422201632823e-01 3.654141741147629019e-01 5.152126640134615521e-01 5.140817467991145584e-01 5.256123112053885382e-01 5.080795440579439770e-01 4.765521967714395624e-01 7.461033069474324320e-01 3.667471268711812726e-01 4.969970174343560920e-01 4.767537956637113439e-01 5.499687188839857965e-01 1.195191552643529442e-01 9.138680576347983919e-01 5.585990202510907610e-01 1.266806442540842903e-01 1.909936861393656482e+00 2.792619375809304860e-01 4.350556289157622158e-01 5.885546634414503542e-01 6.217059678128177697e-02 5.099465323441561004e-01 1.508214382092018635e+00 7.706146566693019562e-01 7.604043215497832131e-01 5.146070481608219227e-01 5.485449450991548570e-01 4.770639329190686229e-01 6.506222271523429690e-01 5.002559298521060960e-01 5.143330083496069349e-01 -1.960761488047848000e-01 5.528478130465088736e-01 -1.444711454834021191e+00 4.992793530337447105e-01 5.006379805935043947e-01 5.420908139375183454e-01 4.531763629216320477e-01 9.138680575756941149e-01 2.216215795743324002e-01 5.515263710082688453e-01 1.330248765667221056e+00 -5.485380048168300160e-01 5.181420093879429700e-01 1.129689033396939823e+00 1.503299335028233097e+00 4.396281346843782245e-01 5.203094963906349513e-01 -5.145020027179765532e-02 -1.665454145638048056e+00 2.786425988178778956e-01 7.750049222493257117e-01 5.204512057137277159e-01 5.200589743550284583e-01 5.571117183314391319e-01 4.857522989525384638e-01 -4.009590809242543630e-01 8.159951431111746034e-01 5.017233459440223475e-01 3.349338993869219183e-01 5.524547733604948663e-01 -1.526012808049711893e-02 -1.727791154636130477e-01 1.778332027045820718e+00 4.149342486489527304e-01 4.832240067667639138e-01 5.146022116939766855e-01 3.284411224382540739e-01 6.001488187014614173e-01 -5.662189264340548867e-02 -1.104097927039864091e+00 5.193143659220977870e-01 5.191696296566385982e-01 5.424004833939490844e-01 6.161274025513578945e-01 5.402898206567025019e-01 5.441628117242489626e-01 5.596597884010343638e-01 5.758489823430592569e-01 1.029372117464695036e+00 7.255158144382719554e-01 5.405209050294956796e-01 5.784860231825317278e-01 4.539246466832683735e-01 4.268932963573412454e-01 2.339260045742322727e-02 5.471433956256100961e-01 5.057109881057619827e-01 4.704850810406749351e-01 7.547533817538242262e-01 9.328253489659429354e-01 8.374753250894454437e-01 -4.917780041104157784e-01 5.405397628999913939e-01 4.687364318742663349e-01 5.138195497278685853e-01 5.845800021320217699e-01 9.039171889713248920e-01 5.626124402748856612e-01 5.235530597204388625e-01 -2.375995519188286165e-01 -8.584790601007695754e-01 2.280038072668116200e+00 5.130373055678019156e-01 8.930459464306340633e-01 4.475868235088708569e-01 5.719822588139445996e-01 3.731031228254181875e-01 1.498563862411269321e-01 5.144024236493741631e-01 5.495733216104061736e-01 -2.626861146214114900e-03 5.235916710817216657e-01 4.271828880010359875e-01 5.234094986466201194e-01 6.806902281140564392e-01 5.154445128746099059e-01 6.031470425219530584e-01 4.002242146530208267e-01 4.847082684734128621e-01 3.969070125143485117e-01 5.122599314928176772e-01 4.234062925438961678e-01 5.037610163793712070e-01 -2.795794766104447437e-01 5.099311641007368001e-01 6.427913383411177906e-01 4.819711348588092692e-01 7.465196291275737472e-01 9.138679458095531061e-01 7.322763349118783793e-01 -5.915203658782697271e-01 9.890630860770217581e-01 1.780628392103903890e+00 4.866294532703583919e-01 4.638369379270984028e-01 1.074650420635305803e+00 5.562404970280143690e-01 7.465787904553098375e-01 5.134300154529058968e-01 1.814548463489962904e+00 5.198563669701491419e-01 4.389531475229549451e-01 1.234009590295126690e+00 -5.822630213161043150e-02 5.618203730291693176e-01 -1.646668695629009693e-01 -9.513161865109940329e-01 -1.726652465207411391e-01 7.766195923844859683e-01 5.586954986347497654e-01 5.333511068324336968e-01 -3.303518234030178857e-01 5.073382165990076853e-01 4.216352796568176992e-02 -3.690315299980851949e-01 4.849307589501203886e-01 5.152513104988120096e-01 5.126041232804648962e-01 5.602486202186197639e-01 5.543411629770402804e-01 9.068718831738512565e-01 -4.002794978335279530e-01 5.142276574611813755e-01 5.648472125282159029e-01 6.178330471203659080e-01 1.163697282502770269e+00 5.046337838230616768e-01 6.357209604480106302e-01 5.145528539081309916e-01 3.692735787109689694e-02 -3.238466897012472479e-01 5.262724035157142488e-01 4.975098194829518650e-01 6.743802275171102423e-01 5.103754385655279169e-01 3.420084469907185842e-01 5.183303032273428590e-01 5.137055243465493692e-01 3.569862295555241150e-01 5.169020100295212972e-01 8.384966890142168117e-01 2.542271380727935792e+00 -2.404318525657824224e-01 6.650602697443551703e-01 3.310438516062547687e-01 2.138581436254771984e-01 6.759537459154290051e-01 -5.737109019046134767e-02 -1.516857959577412762e+00 5.174844586044855532e-01 2.603509655211869944e+00 5.093980362122628724e-01 1.527235960236203172e-01 1.727946195938451224e-01 5.017228434158099715e-01 5.732193286429193568e-01 1.551623759638908195e+00 4.913749635602844279e-01 1.259666648581484472e-01 4.351529584211539792e-01 1.687798200432855777e+00 5.894700082630282001e-01 7.421734148542226128e-01 5.369550263089780673e-01 7.402395213703094612e-01 4.567568979386354422e-01 5.656598183378509503e-01 1.506908155131229596e-02 5.104131370374679344e-01 4.894256294616838310e-01 -5.699098045859027906e-01 -5.440082967015411053e-02 1.172961549809699688e+00 2.363500029663227198e-01 4.875811870929376846e-01 6.907801875330769059e-01 5.479973876821185863e-01 1.997614567765459759e+00 6.961959570521987217e-01 2.822063576465125290e-02 2.865807977884584634e-01 3.987077102325932709e-01 1.110212180311648478e+00 5.139616017809980342e-01 -2.570028532842301081e-02 5.184179728655459174e-01 -1.878901333091635359e-02 5.118890883427259508e-01 5.114432603579461833e-01 3.681400534047372334e-03 -5.807113054788170386e-02 6.674173026715661816e-01 6.072057112296951331e-01 5.530156640195855733e-01 2.692563336796686135e-01 4.738204016772126215e-01 4.925099438131214646e-01 5.562278061054830580e-01 5.590089238923273696e-01 4.799082462517187397e-01 6.226465993513415897e-01 1.015549610772437994e+00 3.112146340322062166e+00 9.188606470100140200e-01 5.136044632461486126e-01 6.404655841854534071e-01 2.130910366416177981e-01 5.132755209822210674e-01 8.433289206563373552e-01 4.923142532373396829e-01 1.316414173660897191e+00 4.536849288478847497e-01 -5.725308620003682902e-01 -1.554292098391965062e-02 4.082071253025902347e-01 6.123689594636666511e-01 4.939300268101998181e-01 5.236433396871456036e-01 2.702631188498644949e-02 5.471240048302163927e-01 4.002990971255002695e-01 -3.636122897512591656e+00 4.840698741648322700e-01 5.157479591004484609e-01 1.124293081432933272e+00 5.144168910055481048e-01 5.499760448868356022e-01 6.819210038438583421e-01 -8.763968149996504975e-01 -5.048807577041041217e-01 4.628176502375194734e-02 5.145557013379670197e-01 4.267238833968466927e-01 2.200229459068789306e-01 4.977957090931016126e-01 -3.353054258559968748e-01 6.246652177992486621e-01 4.999620177342662397e-01 6.944298974192469887e-01 5.406427734519272388e-01 4.736557184807356768e-01 1.594026323979732540e-01 -7.462399139381920010e-01 6.537228823907852426e-01 4.972969495562394315e-01 1.628840695766083924e-01 5.135808216768872336e-01 5.790482628697263268e-01 5.288056353251637809e-01 6.712245154947025227e-01 5.706766845662889498e-01 5.408946834091741263e-01 4.997932900447126237e-01 1.780628396423164395e+00 3.651563202421039822e-01 5.489827117293588632e-01 -1.149442729837051591e-01 5.515905962098746063e-01 6.247217710817896119e-01 5.200803579100091723e-01 4.966501187377030946e-01 3.505562123566601240e-01 9.256193933530088014e-01 1.194330796567379060e+00 5.570508348338512050e-01 5.716978032188392289e-01 5.959660759483093040e-01 4.654311665239102003e-01 4.856730023858240597e-01 5.167707677352914031e-01 9.890063234758648125e-01 7.221495456929917234e-01 -4.532596031309701901e-01 4.497992094426141452e-01 9.158456604968359116e-01 5.012092751146189906e-01 -1.221303499377468169e-02 5.101530919316240587e-01 1.283199994296676527e+00 -1.386735256171652830e-01 5.763032461266232032e-01 2.473136855378122723e-01 5.422888264652950818e-01 8.275000993925166748e-01 5.126527810139132058e-01 3.685035623740506305e-01 1.396235230323118248e+00 4.823579809602082658e-01 5.282374626346794111e-01 -6.422263064283246781e-01 4.543666418917557959e-01 1.042729338797560246e+00 5.968089088507488871e-01 9.007502883911983060e-02 9.605737000987170093e-01 -5.038392843268526405e-02 6.164660741600200833e-01 1.606674189039022815e+00 -8.549291228415807353e-01 5.548418543696014282e-01 5.152149360408496692e-01 -4.484914124043700712e-01 3.195382442967185099e-01 5.926793934340154335e-01 4.755160933377157173e-01 5.190859851791924662e-01 3.644262569902408377e-01 2.635995665378024211e-01 3.448422540765783140e-01 5.571078935637014951e-01 5.145404976016345611e-01 5.903543962736998441e-03 -8.960639086629289263e-02 5.297227538083064680e-01 1.061517999950561508e+00 4.365444713624961337e-01 -5.697359712110616758e-01 5.654757459639071504e-01 5.188609809533329953e-01 5.130673196817637782e-01 3.743160214460528046e-02 3.350599627815920578e-01 5.146580047174995620e-01 5.299655174824312587e-01 4.528593233701261878e-01 2.861807966618413676e-02 4.720307011840984002e-01 5.130378579412121498e-01 6.416977141728845702e-01 2.077636268859961444e+00 1.322910162879180514e-02 3.837390564362795908e-01 4.961127075317139923e-01 1.823185434785122627e+00 5.811098946081625360e-01 4.806058991295150684e-01 1.547824886855059257e-02 5.471434078443490057e-01 5.181287240344800704e-01 4.738286246812283831e-01 3.808271936817235193e-01 5.074360423835660994e-01 5.187908246076218255e-01 5.671136849787898893e-01 -5.222007247144015984e-01 5.157920642887925400e-01 5.400924052191288238e-01 5.244578181939758554e-01 1.051860302828670601e+00 5.082121504763552622e-01 -2.424662415304937313e-01 1.068875674163306311e+00 -1.248769109672784872e+00 -5.152105444323679118e-01 5.202142278687472698e-01 5.171202171003558279e-01 6.504812087285242184e-01 5.129563580028523306e-01 3.937130817489080115e-01 6.035644173016738723e-01 5.471434084270693221e-01 5.154981338407539360e-01 5.482043130493864380e-01 5.827367240658056780e-01 5.144147508858062379e-01 2.912965372998547187e-01 4.986712098830201612e-01 4.857228073075278152e-01 3.754160256936786011e-01 5.066454301815909167e-01 5.213800084488925402e-01 5.483242986327944157e-01 6.436483569206268296e-01 5.208825431271586481e-01 6.766306048911773230e-01 4.859505840179171310e-01 5.196512846628448257e-01 5.438943108074820731e-01 3.571268098271269120e-01 4.205802004980117026e-01 2.395992938016436646e+00 5.107448651605632772e-01 5.837175008311242808e-01 3.100176637197147311e-01 5.832584382395458178e-01 1.109491775933494351e+00 4.905605352436310240e-01 7.075218019723632512e-01 5.174746842297045513e-01
6.930393451202173649e-01 2.859095601954593224e-01 4.210699477938812940e-01 1.845693752399129445e-02 3.179831609887441846e-01 2.970145247649813025e-01 5.310196683163546094e-01 4.388770049942866125e-01 2.485682180219354609e-01 2.945315592394038839e-01 2.041645903130966833e+00 1.707909415102522255e+00 -1.431797217349398244e+00 6.215716415741153744e-01 3.118703483917389385e-01 4.170729766681045558e-01 1.295943640771232974e-01 4.299606465475780959e-01 4.418282397037286979e-01 3.095051033481140412e-01 4.655119013464972810e-01 2.101631222530836673e+00 3.926433732914042518e-01 3.718974210105918110e-01 7.212962638382596214e-01 -2.322673555024289127e-01 4.531934767326757929e-01 2.305573984783927111e-01 2.790375422483570844e-01 -8.641131042603072965e-01 2.965496293706239017e-01 -1.218090876911078063e-01 2.890572251586925323e-01 2.711794609244909671e-01 -4.251302449706063080e-01 4.606987683332801620e-01 3.032736570348877336e-01 -3.461397960418052810e-01 -3.210438271231387031e+00 3.416955474622190847e-01 1.136402536309322864e+00 1.409571194614149259e-01 -1.651946352594274858e-01 7.917382021063744668e-01 6.275842882168156667e-01 2.943420128696704885e-01 1.810264759898764023e-02 3.313185968740296472e-01 2.291742141508818220e-01 6.788127322968794397e-01 6.793745298852200687e-01 4.708997858272472303e-01 -2.425901943840780839e-01 2.069547140848509437e-01 6.041907479652037782e-01 6.594399990744800322e-01 3.624233828125902335e-01 2.582407897823832954e-01 3.470575778596545202e-01 3.559751608619709518e-01 4.248766633411812932e-01 3.932233572059006810e-01 2.996235560029582579e-01 3.926433706542318269e-01 -3.465128129826628434e-01 1.775221736885333468e-01 2.942189155888245145e-01 3.305019193595905569e-01 2.135700222138105786e-01 7.281487986732042561e-01 1.192103438084868711e-01 2.845240158739236191e-01 3.184644319169965820e-01 7.232246591809217140e-01 1.907437031237679159e+00 4.927763098253889473e-01 4.700851908228300680e-01 4.801822266643953618e-01 3.154644382645250267e-01 -1.328902988159197607e+00 3.127649531565842578e-01 6.140456046798301593e-01 2.295971222237878973e+00 1.050286004675178297e-01 2.740435191131828097e-01 -4.077601742157729858e-01 1.253982231780622070e-01 2.698367149234122131e-01 -5.739778698061148710e-01 -8.781180097578281663e-01 6.279936330986713999e-01 1.564816820351870419e+00 8.383582054720069288e-02 6.957479725509198021e-01 2.804213389551286073e-01 3.104494474930002967e-01 2.747343858306657838e-01 7.434352575987540623e-01 7.382416968876091001e-01 -2.377059083867216760e-01 -1.705641577968682598e-01 5.515190524924377252e-02 2.700891868211652280e-01 2.152859191668583527e-01 -8.247801912493350762e-03 3.078942123555149735e+00 -2.827080759080902173e-01 1.349260184156346742e-01 1.517838239762487051e-01 8.086191931744479700e-01 2.382495315232203148e-01 4.516647903119545560e-01 1.663273061617553950e-01 4.556346999954654087e-01 -4.879049577486265776e-01 2.056064173697421671e-01 2.307295466660942429e-01 4.227734605568497228e-01 1.028835079508526595e+00 3.159414279187717778e-01 -1.442013911310034313e+00 2.252423293321871023e-01 1.662960016304413091e-01 1.348841490271663668e+00 3.218315357092094153e-01 2.153318605436314481e+00 2.178440725270563982e-01 3.302184057803945194e-01 2.981460720078367155e-01 3.086593760881169435e-01 3.029198081240985219e-01 3.186218866570577068e-01 6.750629266731636990e-01 4.127087741057181014e-01 1.769342272027777385e-01 8.722872345693173379e-01 7.061513534424342931e-01 7.225914555360704039e-01 -3.317714420307485979e-01 2.008413039104899322e-01 3.634982303794734304e-01 3.215618677160736461e-01 2.762664947113655511e-01 2.898319205985447899e-01 3.201000948292244686e-01 6.931846410631038458e-01 -1.357499877934913446e-01 3.187589963026023487e-01 4.491335889991488473e-01 3.973558191232839931e-01 -2.616020487541959039e-01 2.218301904873700922e-02 2.943449478050786383e-01 2.650309223127482738e-01 3.421933125164255962e-01 3.210421686626305227e-01 -2.309570280436676004e+00 4.515357571140675708e-01 -5.909391191124605536e-01 -2.394859119744279508e-01 2.706778327799657657e-01 2.419218332974451546e-01 3.327536226700690269e-01 3.133787483019752074e-01 1.143165411165266293e-01 7.424778401802402394e-02 3.151325498924080759e-01 4.318104326044383545e-01 3.130829311977568197e-01 3.475639989944820929e-01 1.785736570623449315e-01 1.691407803737858193e-02 2.943060626512998268e-01 3.114221824200326671e-01 -2.482844485015720970e+00 7.038576105804044136e-01 6.191325168245310762e-01 9.695720100263018892e-01 -4.547719237702812500e-01 1.170279788826401601e+00 -6.887327357057189750e-03 3.053478145171898417e-01 1.232169948451946162e+00 2.829719573384273379e-01 3.061033091379302684e-01 2.576683036022905937e-01 3.434620956706867512e-01 3.280202435209239042e-01 -4.689218180409671088e-01 3.243669369044911432e-01 2.369981812724937797e-01 8.083553369683149636e-01 3.198571331931924222e-01 2.648044411203396842e-01 2.293469025394683503e-01 3.210044377763908718e-01 -1.634049582695168423e+00 3.169274521148461865e-01 2.264879759656971692e-01 3.529540867209345900e-01 8.992945979263983203e-02 2.737705143620290382e-01 3.810270635062451006e-01 1.339041282620304918e-01 -7.913976043445375419e-01 2.264880029970362252e-01 4.613180390356421134e-01 -5.086171162984457483e-01 3.605826304788602998e-01 1.624465779301264567e-01 2.558421538550436636e-01 -3.217802721025350365e+00 4.475547042356580740e-01 9.320656967439494567e-01 3.082374054337642111e-01 3.076718927400828307e-01 3.145892673795234740e-01 3.383383015178133557e-01 3.209437627458196496e-01 3.141435813510295438e-01 3.357473975222458606e-01 1.473540458601101943e-01 6.613957797393088534e-01 1.215520616433375944e-01 5.132603520615626191e-01 4.679381031585567730e-01 3.885543743815754736e-01 -6.534040270841915410e-01 2.261481490418191687e+00 3.875330309388657635e-01 1.234003161112786628e+00 -1.383692952644635987e+00 3.201280881285355484e-01 2.129670250959300737e-01 3.512035328350672780e-01 1.157949520437511648e+00 4.954657933168151729e-01 8.025537070674029216e-01 2.808619955423056758e-01 6.700575218468074468e-01 3.047570823152664921e-01 2.855830098886805724e-01 -1.156843180010485250e+00 3.821144955007679811e-01 3.167690328287694479e-01 4.816059637584455544e-01 9.060853615655739546e-01 -3.501781069381779132e-01 3.112946410539405573e+00 4.819678591601894158e-01 1.238607220658501262e+00 -1.511087758510900325e-01 3.100276734056316430e-01 3.926398265960557299e-01 3.162383425120333658e-01 2.510880981120446331e-01 3.669984578711073531e-01 -1.091302640975205795e-01 1.378161129810412389e-01 5.612678042245672350e-01 2.745350879054690996e-01 9.253270501365332135e-02 2.578471085534623786e-01 3.752106766952215122e-01 4.248766654392297504e-01 2.646635957008695028e-01 3.196428140316383004e+00 3.763430675936439429e-01 6.546710570164953058e-01 5.412590333402023113e-01 2.499295125774648463e-01 4.249635949389339307e-01 3.218498347878634425e-01 2.744567625469335748e-01 3.146752778829762787e-01 -5.350736076934368146e-01 4.619552562452124977e-01 2.854361443794622977e-01 1.242623505455852373e-01 2.634224373405758546e-01 1.522779765121666129e+00 2.714998251403697438e-01 2.898294077629673948e-01 1.986494264918762243e+00 4.960392593511580572e-01 3.099714224416669772e-01 2.670263365351356888e-01 2.921828774889937419e-01 2.056061665730747334e-01 -2.050954178805248329e+00 2.697523411335994714e-01 1.501761355610552462e+00 -1.811412508976520397e-02 3.072416479576831061e-01 7.042466923604927542e-01 2.726701561847115762e-01 -7.167400023247987306e-01 4.250680179413265369e-01 3.263353180993582847e-01 4.491126141795848681e-01 -3.840341674020540386e-01 3.236144330573868522e-01 -2.178079600652875314e+00 1.709612711669666885e-02 2.856812873041758016e-01 6.044534528895266767e-01 3.094805887061503613e-01 3.183333968382473511e-01 4.668394177380887355e-01 2.052552345245212684e-01 -1.157599127363717756e-01 -7.577083593096869407e-01 3.361232473928052640e-03 6.843620344300961333e-01 3.293664671638329433e-01 4.940904919929768324e-01 3.154616168266910492e-01 1.748665038298829674e-02 3.193518262828998755e-01 2.418933716418464552e+00 6.959806473585428144e-01 2.467030452022918319e-01 -1.144045022684343049e+00 2.200508186900431984e-01 4.626543672266404172e+00 3.427950854713471274e-01 -1.307405064079511792e-01 5.693328274173220516e-01 -5.520311064459072270e+00 5.085574469708540324e-01 1.530469786373173102e+00 3.142198705265125680e-01 5.379984726982854903e-01 -4.379445046238149009e-01 3.990810493356840016e-01 3.321018107023060995e-01 2.830935293130756869e-01 2.434393118969411240e-01 2.894273143038897267e+00 -3.671254242329984874e-01 2.966301586273281110e-01 -1.902517989219391081e+00 3.382068762961696340e-01 -3.461397951080856239e-01 7.444353365890938878e-01 5.420100811332345669e-01 3.036658870359429385e-01 3.134682465493245362e-01 1.281285013000029283e+00 1.392853952896506708e-01 2.264877933625571715e-01 3.821095321378402687e-01 1.339041304404397503e-01 2.774780774575166253e-01 3.955237772310321587e-01 -6.042974396319862329e-01 3.175492783652459905e-01 5.439672771690582387e-01 3.782488335498165322e-01 1.666534113066761025e-01 3.168620062070395260e-01 4.683128214469099992e-01 5.420100991019950465e-01 4.021498653382791777e-01 3.178648397585728258e-01 1.952090596435337999e-01 4.363089029167929178e-01 3.361705994698841238e+00 3.092596120487249856e-01 1.515199870319239028e-01 4.248765071112975966e-01 8.503355006587475229e-01 4.652582800499749927e-01 -1.925881873947252187e-01 6.858422495030808141e-01 2.747246231063475985e-01 1.149881500764954878e-01 3.973732966207522699e-01 6.610149845067315733e-01 6.335463151557054751e-01 7.781354148177802577e-01 8.104345326620640000e-01 3.777322089566760854e-01 1.339041282925701737e-01 1.339040548711964707e-01 2.635047064551607199e-01 1.330784705287348380e-01 1.120044997860450309e+00 4.085402363751590715e-01 3.130999856515191415e-01 3.527633726541115067e-01 3.122280745062467333e-01 7.766189800840326285e-01 2.264875697307447422e-01 3.181924715580691787e-01 4.421196778757657819e-01 2.776831756558546527e-01 -6.322235415657661006e-01 3.197102310067103659e-01 3.215511289694372166e-01 3.720769129891929317e-01 6.978790477811053217e-01 7.313076066214235782e-01 1.339041295509432739e-01 6.299191775488924283e-02 3.133441994618703097e-01 4.588776733817096498e-01 -5.904379295385733251e-01 2.001732869807962556e-01 -3.473840597132363595e+00 1.931817274435516874e+00 6.310418228029655019e-01 -4.491839864713433883e-01 1.856761606815744703e-02 2.036836749281562664e+00 3.095201555949028682e-01 6.354897304691581317e-01 2.056610184593391649e-02 3.164571492044583323e-01 4.451408857415171672e-01 2.910218233150712597e-01 -4.469870747660056320e-01 2.553708860867284214e-01 2.039306046342261869e+00 3.520852570147400828e-01 -4.111258195975970864e-01 3.245495072621287225e-01 3.170305673465990126e-01 -1.448547816987546977e+00 3.191375046954203487e-01 3.531185887335936968e-01 4.029167785944984259e-01 1.856374214102633202e-01 3.135347056199164761e-01 2.218173937378702110e-01 3.215942732386611880e-01 -1.606514135619562522e-01 3.047026275651105731e-01 1.215962401045401209e-01 3.297969037480278365e-01 2.957700679417624157e-01 1.967940341729996351e-02 4.283392580413745709e-01 5.991015001482783431e-01 -1.367605152470946939e+00 -5.319065408969166908e-01 -1.079594614583657269e-01 7.123035583711512242e-02 2.733037649644181610e-01 4.272273656199256364e-01 3.625267474148320956e-01 7.287396532347083511e-01 -1.132838127552070057e-01 3.182416090517924956e-01 3.186481840266308097e-01 9.257639033961251318e-02 -1.603784346948289308e-01 3.014933007175622515e-01 4.469968180677017511e-01 4.791026938920916467e-01 3.205603425585645816e-01 2.610543679042959253e-01 3.133624018141384360e-01 2.570281541604034770e-01 3.123376023143920044e-01 5.094188812760119811e-01 4.242723342520220431e-01 3.137560480658155848e-01 6.844249138441405034e-01 3.259352744561240245e-01 7.303757996839095323e-01 7.237343187235498188e-02 5.079783360858737273e-01 2.297170746558351018e-01 -1.439724866187680030e+00 2.963309204014038523e-01 6.448579558550400215e-01 3.802463810769834973e-01 2.747079215805650065e-01 2.782887079539858033e-01 2.376533420414466691e-01 6.913706562024952706e-01 3.092916135720187865e-01 3.801972233194957362e-01 3.148754590736765335e-01 2.868648379450743358e-01 2.104558469063718684e-01 5.169402397103614044e-01 2.863060969622006624e-01 2.467127621827967521e-01 1.543952115526865954e-01 5.153666175357267398e-02 1.621308376407603280e+00 2.759881439948644322e-01 3.706337302156089142e-01 3.773059662010923576e-01 -8.315294956009393612e-01 4.114757104671389887e-01 3.117648737170798934e-01 4.869519951308169392e-01 -1.815266915401698988e-02 3.238216528123942228e-01 1.545295762033848108e+00 8.882216593127224558e-01 4.130655928627159357e-01 2.890936006770835065e-01 3.722349593681591462e-01 3.309481201471228817e-01 9.142061526328666421e-01 3.007086879131297685e+00 3.173388698106190953e-01 4.649847347749267584e-02 5.933947678148792093e-01 -1.825525076253471934e-01 3.132218479566794556e-01 3.126339983209849849e-01 1.061038453847982677e+00 3.062746023269858897e-01 -3.155893802949754634e-01 3.744273620211240883e-01 1.198037891737704641e-01 6.532309952581506485e-01 1.723837808638873925e+00 3.346885517840232360e-01 2.465435613518195679e-01 1.650441712886438594e+00 4.085157148401957761e-01 3.241296521001493236e-01 2.296444970996544266e-01 3.097315704202923126e-01 1.791460833512512757e-02 4.697408820973227317e-01 2.371963304184123433e-01 7.291415252879752673e-01 2.699129143104945783e-01 2.984250956670260191e-01 3.020589291012612532e-01 4.542668467787169817e-01 2.882846250259853416e-01 2.550232506566829649e-01 9.134843905270979558e-01 5.051325335331000588e-01 4.279679816724312746e-01 2.797376198553416238e-01 2.943710385406343999e-01 2.982289319808502093e-01 5.853675930095577629e-01 7.684514667980767433e-01 3.426290368758093119e-01 2.870676844648627490e-01 4.624613924128574971e-01 3.136948500053258759e-01 7.353558673801965373e-01 2.216282846772317516e-01 4.485445230567697283e-01 -3.162875569321208502e-01 3.153526140215178741e-01 2.735945555915295646e-01 4.178041060380253136e-01 3.158025006877963614e-01 2.426650781235532017e-01 1.762908519874279323e+00 9.992298228378439229e-02 2.684475577742757579e-01 -1.648073268216847798e-01 1.618276271057183857e+00 1.143211033700615831e+00 5.790456595819137159e-02 -4.596205190500118887e-01 3.899280377699962941e-01 3.669671450405388446e-01 5.152503453893124696e-01 3.170146913110306608e-01 3.158859139935686899e-01 1.949719029709150453e-01 3.431185144630745087e-01 3.744594494434665966e-01 1.849189458119682161e-02 -1.887012638495449424e-01 3.787398330979933059e-01 3.267364818011280758e-01 2.060571470643597081e-01 8.621575524264274426e-01 4.248766660738242384e-01 2.311228502812582020e-01 8.328106617319281924e-01 4.761006534393719680e-01 6.275409047602812374e-01 4.512654310811550773e-01 6.884912747382758713e-01 1.463847771855137481e+00 3.095247791256385272e-01 2.056499522777878397e+00 -2.008477938360066217e-02 1.381969974922612476e-01 3.178692673322242590e-01 2.683713749415213012e-01 3.331227707700272211e-01 3.475339672167001015e-01 3.149529140368276248e-01 3.176412551294677256e-01 3.570712156038172713e-01 1.852570943402757631e-01 -2.972281621892088888e-01 2.541686291756689031e-01 -7.691833618454295418e-02 2.977866183451950977e-01 4.490783817676873291e-01 4.248766661294719471e-01 2.049055850128762013e-01 2.081592192374477346e-01 -1.211999999204470768e+00 1.938038941974529639e+00 3.144155643109639020e-01 -7.069976806663121893e-01 2.977172434787851429e-01 3.104713739646629000e-01 3.113037369539076171e-01 -4.710918713007938408e+00 3.492109956043858876e+00 6.222207798649470600e-01 8.546733873350914612e-02 3.109986013121006643e-01 3.128273919548321125e-01 3.012786082238947394e-01 2.586762936985354422e+00 6.180523544489303633e-01 3.200154090768876358e-01 2.056062934996686353e-01 2.570406093993461427e-01 2.601582561633029589e-01 8.705112274829467367e-01 -3.779937574467536754e-01 -1.158250933969611651e+00 -1.196090137711972368e+00 3.120397315547385197e-01 3.113746658203798146e-01 7.123759943881076140e-01 3.523194488984644490e-01 1.321877811294083660e+00 4.685061433422373911e-01 3.105903911177093635e-01 3.038909190963279827e-01 3.274138059891513186e-01 2.868780002524221606e-01 2.971395341646537736e-01 6.503596493219871988e-01 2.761452789845092459e-01 6.484882754799181637e-01 2.195597079850136746e-01 2.777331810553205008e-02 2.970449617205172532e-01 1.963267242397644385e-01 3.509332257939221100e-01 3.124877435176378060e-01 6.779843118465553875e-01 5.420100792396098655e-01 4.445811627426224377e-01 3.745490271953448858e-01 3.157021268845053852e-01 2.588199158373858944e-01 1.545278961761511693e+00 1.848703028746933930e+00 2.981118921830029911e-01 3.638884836593083705e-01 3.228905844240954615e-01 1.664080891979924093e-01 2.345478764609677524e-01 2.358187623228611141e-01 2.953260060886662708e-01 3.219848129109959545e-01 7.929109243800673834e-01 8.711446365014114956e-01 2.378864684854162803e-01 1.845700408067170173e+00 2.203961752185005785e-01 -1.789912088003366986e-01 -2.723785277059391219e-01 -3.194959545607933271e-01 3.150673130611932882e-01 2.706149267012513127e-01 7.067893193062471102e-01 3.062077193540655440e-01 4.575314882653416793e-01 3.192421270573977954e-01 3.747854268190054516e-01 4.000599686809432343e-01 1.982894741523618179e-02 1.021268144985335358e+00 3.169520639257688011e-01 4.644317322010363402e-01 3.166993985252701815e-01 3.622741938282569851e-01 3.227388633813389474e-01 3.887752429358110606e-01 -1.110180199396830075e-01 2.231856573057682536e-01 3.236481020136002251e-01 1.810924849105711651e-02 4.248768508623673723e-01 1.114980167671344446e+00 9.486626393898014431e-01 -7.349278607976345024e-01 -3.461397960630245851e-01 6.475112614972138303e-01 -3.277831880457967362e+00 1.559444649030116592e+00 2.625275008367568552e-01 1.891102186732505561e-02 3.145169450087857976e-01 8.768448634312187018e-01 3.110876120844477954e-01 3.821141049735082285e-01 -4.360203548689456921e-01 8.275075317291085142e-01 2.661857090975633389e-01 8.845314054967564621e-01 2.068576997768679426e+00 -3.781360808093172099e-01 -1.438828971734479323e+00 2.570692353653515339e-01 2.896312621242095875e-01 7.725937892367387150e-01 3.309009244285824880e-01 7.022672942447478750e-01 4.690704137106685434e-01 1.727771386374241658e-01 3.149562040228468529e-01 3.135773493203156681e-01 2.212353403152812481e-01 3.393498325549560990e-01 1.388022914236501260e+00 1.601810596109593643e+00 3.141825261179507223e-01 2.554997910756623414e-01 6.777012061199325088e-02 -2.382487132273308494e-01 2.043015954833811987e-01 -2.480743327278480456e-03 3.086470513419657391e-01 7.075919873679576977e-01 -4.470876354031957378e-01 2.846250981908933220e-01 3.311764895963392186e-01 1.549378596655631157e-01 3.147237069457111125e-01 2.532198128092196243e-01 3.123291198219049769e-01 3.125975515097307866e-01 -1.341775634787957527e-02 2.584365807507557067e-01 4.399249543920557559e-01 1.108795124031321189e+00 1.099670384513287136e+00 9.349563635429551933e-01 1.944754286422273049e-01 7.740601155602386818e-01 1.307616667068294547e-01 4.656951508858390709e-01 -2.081290242717048322e+00 2.901584220418660376e-01 6.528760406561939789e-01 2.717487449448587888e-01 9.567880638626604650e-01 1.359674925856151795e+00 2.056064180179126843e-01 2.815839776269450367e-01 3.729100859528515222e-01 2.691892788953879068e-01 5.543275736465731462e-01 8.395960818796971425e-01 -7.616610407712619546e-01 1.585982629556922652e-01 1.036297893531082093e-01 2.990942348802241857e-01 3.429991494101070626e-01 7.707824821259282588e-01 -1.816368525975977088e-01 3.925173205114507735e-01 3.226026206609672875e-01 3.049190908909461539e-01 8.880416205844260391e-01 4.244863309386407435e-01 -2.073107440795155521e-01 8.594062807928725123e-01 -4.590439852092489947e-02 5.730577756410013546e-01 2.703076988060323371e-01 1.277784232679308518e+00 5.586155648901006687e-01 7.283001171125561557e-01 4.381085209069904840e-01 4.835584442433740193e-01 -5.301648452101775932e-01 2.707865648584919516e-01 7.636967095784203963e-01 3.323590717740626532e-01 6.369735806847890425e-01 2.708331974658027552e-01 3.184560565593715364e-01 7.308749826159333107e-01 1.316446721912983286e-01 -2.027894631617740639e+00 2.551149322523468266e-01 2.800929313804776388e-01 7.828831517437782050e-01 3.990153912891368782e-01 4.033524114209379174e-01 2.990870814636112929e-01 2.633065050465971946e-01 3.731874551485687141e-01 4.209076295193953099e-02 -1.612475040791305103e+00 7.476173498072071766e-01 2.596226796646673440e-01 3.315689758210126348e-01 1.938058510729652462e-01 8.235397090592810887e-01 3.141517682661712496e-01 -1.352949212735582163e-01 3.212201426600651555e-01 1.116737175008946314e+00 2.799041258086314987e-01 4.149488722348997349e-01 1.060606469691295795e+00 3.462054626544286973e-01 2.736885855731458150e+00 3.174204229859594606e-01 2.958159733672829916e-01 6.897833906089201328e-01 2.918989454791888760e-01 3.010957764636650880e-01 -2.050692578418896073e+00 4.002877107426711656e-01 3.207888964035077728e-01 5.135914800674113989e-01 3.247103506815073315e-01 2.650444851671084900e-01 -2.298804642457783209e-01 2.031060045894435007e+00 -5.202584957610058014e-01 8.286438268927976969e-01 3.142049059293905433e-01 3.554048859550711925e-01 7.792200661311261545e-01 3.634187541115393438e-01 1.321711517465951280e+00 1.742792641420329025e-01 2.997948467986158438e-01 -8.801071286854085240e-01 -1.316200389584344932e-01 -3.442075731712124775e-01 -3.868984831515892786e+00 2.916149404700747461e+00 5.716951196072413144e-02 3.365309018145468678e-01 -1.600300791728642480e+00 3.118767095598182215e-01 2.591704804659213934e-01 2.926385554264651634e-01 1.461297518148981789e-01 6.388315208575687798e-01 5.947700364431084408e-01 1.009074083883694017e+00 -3.461397980607545666e-01 -2.186665777493425056e-01 2.116570787450660629e-01 -1.178226829293893330e+00 2.778040841568276131e-01 -6.358798885890891706e-01 2.824394585660803814e-01 4.726867082206090975e-01 5.543551176013451764e-02 4.335171901809383166e-01 2.708939214608028778e-01 -8.915436736827131448e-02 2.054876101556851742e-01 2.991587963097363523e-01 3.556019052251697676e-01 3.066835001254423765e-01 3.110188662006039828e-01 -7.348152835145401740e-01 5.548404440777973123e-01 1.530734550176950703e+00 5.956450504810197749e-02 2.406127076346754601e-01 3.991051231048866610e-01 1.212225764453766619e+00 3.167766186103769255e-01 1.444705482150126508e-01 8.952469605414765663e-01 3.061017755622906233e-01 1.841970259107019725e+00 3.475731264902612305e-01 1.224901016407710319e+00 3.193854393583506202e-01 7.368165865824097827e-01 1.344875691018384334e+00 3.129624397940745095e-01 4.032277353957272048e-01 9.156227955258393614e-01 -1.874149283827847012e-01 -5.285757323299034721e-02 1.759878714543063605e-01 2.978237897941375389e-01 3.492398231444079904e-01 1.420928234102114551e-01 2.064250077578466125e-01 -3.564498003136196691e-01 1.292566854806624255e+00 2.688991071287473722e-01 3.155236661740534743e-01 -3.127023773181667465e+00 5.051101523013595829e-01 3.482730612977982254e-01 4.449890203818381296e-01 4.278471969616582382e-01 4.936459659836047176e-01 -1.056456261313457379e+00 6.049850696399660110e-01 2.719260007690545988e-01 3.164608719166743245e-01 1.038669765569676162e+00 4.501227714390680923e-01 3.042045127517691294e-01 -1.389393017869749336e+00 4.349613245966411079e-01 8.880841986982480618e-01 2.969376229727383465e-01 3.060933772941366593e-01 3.538181480856744665e-01 7.043196271818021881e-01 -7.758808644652528952e-02 3.185253929843940290e-01 2.871798165517289725e-01 7.386454873689235479e-02 6.899403640857828535e-01 3.517578747646986637e-01 7.294841851736153515e-01 1.721342181021663642e-01 6.866364255844445985e-01 -2.170057345508728253e-01 -1.503241421183992177e+00 3.371421270237263124e-01 -1.613422162475064772e-02 3.269553054086828947e-01 3.615676836298040708e-01 5.506149225660266627e-02 5.420100993928060884e-01 3.167556431837831310e-01 8.558478192794716222e-02 4.562549624009187843e-01 2.525975048521124644e-01 3.339022285346394114e-01 2.711552692346159144e-01 -8.176540616928986704e-01 3.212319103453902813e-01 3.567517619065816437e-01 2.902686906705901349e-01 -1.479141597959268417e-01 3.157222393583559161e-01 8.035161653769899992e-01 -5.181277867861862063e-01 1.099232729351508286e+00 6.055147995713482389e-01 2.549596557612235914e-01 3.148469068923250846e-01 -2.027638993303299664e+00 3.179213971791002291e-01 1.858028142706792951e-01 2.420533639670143511e-01 5.420100674192183110e-01 3.172278010535256043e-01 2.654942263979792050e-01 1.010249310264008799e-01 3.115687278154101736e-01 4.361299334383434423e-01 4.082727937693785836e-01 3.616928283706457581e-01 2.983574911121769091e-01 3.188952110379921767e-01 3.044155747116343291e-01 2.691736359020103775e-01 3.606767515161901638e-02 3.118073814274798239e-01 5.993388200224835094e-01 2.095938224128509886e-01 3.307554383839234058e-01 -1.269932426466279518e-01 1.416937198649859952e-01 5.331488968482882562e-01 4.387147500333140826e+00 3.049986605447290722e-01 1.173697482897222144e-01 5.341585717506330822e-01 2.060800335050334553e-01 1.538766180416506479e+00 3.528547071482678321e-01 6.552122217840912199e-01 3.178507906870519650e-01
