# 
#                 ----------------------------------------------------
#                 Data from a 3D direct N-body simulation. 
# 
#                 rows are i-particle; 
#                 coumns are :mass, tag, x ,y, z, vx, vy, vz, ax, ay, az
# 
#                 NTHU, Computational Physics 
# 
#                 ----------------------------------------------------
#                 Time = 0.0
0.000000000000000000e+00 1.000000000000000000e+00 2.000000000000000000e+00 3.000000000000000000e+00 4.000000000000000000e+00 5.000000000000000000e+00 6.000000000000000000e+00 7.000000000000000000e+00 8.000000000000000000e+00 9.000000000000000000e+00 1.000000000000000000e+01 1.100000000000000000e+01 1.200000000000000000e+01 1.300000000000000000e+01 1.400000000000000000e+01 1.500000000000000000e+01 1.600000000000000000e+01 1.700000000000000000e+01 1.800000000000000000e+01 1.900000000000000000e+01 2.000000000000000000e+01 2.100000000000000000e+01 2.200000000000000000e+01 2.300000000000000000e+01 2.400000000000000000e+01 2.500000000000000000e+01 2.600000000000000000e+01 2.700000000000000000e+01 2.800000000000000000e+01 2.900000000000000000e+01 3.000000000000000000e+01 3.100000000000000000e+01 3.200000000000000000e+01 3.300000000000000000e+01 3.400000000000000000e+01 3.500000000000000000e+01 3.600000000000000000e+01 3.700000000000000000e+01 3.800000000000000000e+01 3.900000000000000000e+01 4.000000000000000000e+01 4.100000000000000000e+01 4.200000000000000000e+01 4.300000000000000000e+01 4.400000000000000000e+01 4.500000000000000000e+01 4.600000000000000000e+01 4.700000000000000000e+01 4.800000000000000000e+01 4.900000000000000000e+01 5.000000000000000000e+01 5.100000000000000000e+01 5.200000000000000000e+01 5.300000000000000000e+01 5.400000000000000000e+01 5.500000000000000000e+01 5.600000000000000000e+01 5.700000000000000000e+01 5.800000000000000000e+01 5.900000000000000000e+01 6.000000000000000000e+01 6.100000000000000000e+01 6.200000000000000000e+01 6.300000000000000000e+01 6.400000000000000000e+01 6.500000000000000000e+01 6.600000000000000000e+01 6.700000000000000000e+01 6.800000000000000000e+01 6.900000000000000000e+01 7.000000000000000000e+01 7.100000000000000000e+01 7.200000000000000000e+01 7.300000000000000000e+01 7.400000000000000000e+01 7.500000000000000000e+01 7.600000000000000000e+01 7.700000000000000000e+01 7.800000000000000000e+01 7.900000000000000000e+01 8.000000000000000000e+01 8.100000000000000000e+01 8.200000000000000000e+01 8.300000000000000000e+01 8.400000000000000000e+01 8.500000000000000000e+01 8.600000000000000000e+01 8.700000000000000000e+01 8.800000000000000000e+01 8.900000000000000000e+01 9.000000000000000000e+01 9.100000000000000000e+01 9.200000000000000000e+01 9.300000000000000000e+01 9.400000000000000000e+01 9.500000000000000000e+01 9.600000000000000000e+01 9.700000000000000000e+01 9.800000000000000000e+01 9.900000000000000000e+01 1.000000000000000000e+02 1.010000000000000000e+02 1.020000000000000000e+02 1.030000000000000000e+02 1.040000000000000000e+02 1.050000000000000000e+02 1.060000000000000000e+02 1.070000000000000000e+02 1.080000000000000000e+02 1.090000000000000000e+02 1.100000000000000000e+02 1.110000000000000000e+02 1.120000000000000000e+02 1.130000000000000000e+02 1.140000000000000000e+02 1.150000000000000000e+02 1.160000000000000000e+02 1.170000000000000000e+02 1.180000000000000000e+02 1.190000000000000000e+02 1.200000000000000000e+02 1.210000000000000000e+02 1.220000000000000000e+02 1.230000000000000000e+02 1.240000000000000000e+02 1.250000000000000000e+02 1.260000000000000000e+02 1.270000000000000000e+02 1.280000000000000000e+02 1.290000000000000000e+02 1.300000000000000000e+02 1.310000000000000000e+02 1.320000000000000000e+02 1.330000000000000000e+02 1.340000000000000000e+02 1.350000000000000000e+02 1.360000000000000000e+02 1.370000000000000000e+02 1.380000000000000000e+02 1.390000000000000000e+02 1.400000000000000000e+02 1.410000000000000000e+02 1.420000000000000000e+02 1.430000000000000000e+02 1.440000000000000000e+02 1.450000000000000000e+02 1.460000000000000000e+02 1.470000000000000000e+02 1.480000000000000000e+02 1.490000000000000000e+02 1.500000000000000000e+02 1.510000000000000000e+02 1.520000000000000000e+02 1.530000000000000000e+02 1.540000000000000000e+02 1.550000000000000000e+02 1.560000000000000000e+02 1.570000000000000000e+02 1.580000000000000000e+02 1.590000000000000000e+02 1.600000000000000000e+02 1.610000000000000000e+02 1.620000000000000000e+02 1.630000000000000000e+02 1.640000000000000000e+02 1.650000000000000000e+02 1.660000000000000000e+02 1.670000000000000000e+02 1.680000000000000000e+02 1.690000000000000000e+02 1.700000000000000000e+02 1.710000000000000000e+02 1.720000000000000000e+02 1.730000000000000000e+02 1.740000000000000000e+02 1.750000000000000000e+02 1.760000000000000000e+02 1.770000000000000000e+02 1.780000000000000000e+02 1.790000000000000000e+02 1.800000000000000000e+02 1.810000000000000000e+02 1.820000000000000000e+02 1.830000000000000000e+02 1.840000000000000000e+02 1.850000000000000000e+02 1.860000000000000000e+02 1.870000000000000000e+02 1.880000000000000000e+02 1.890000000000000000e+02 1.900000000000000000e+02 1.910000000000000000e+02 1.920000000000000000e+02 1.930000000000000000e+02 1.940000000000000000e+02 1.950000000000000000e+02 1.960000000000000000e+02 1.970000000000000000e+02 1.980000000000000000e+02 1.990000000000000000e+02 2.000000000000000000e+02 2.010000000000000000e+02 2.020000000000000000e+02 2.030000000000000000e+02 2.040000000000000000e+02 2.050000000000000000e+02 2.060000000000000000e+02 2.070000000000000000e+02 2.080000000000000000e+02 2.090000000000000000e+02 2.100000000000000000e+02 2.110000000000000000e+02 2.120000000000000000e+02 2.130000000000000000e+02 2.140000000000000000e+02 2.150000000000000000e+02 2.160000000000000000e+02 2.170000000000000000e+02 2.180000000000000000e+02 2.190000000000000000e+02 2.200000000000000000e+02 2.210000000000000000e+02 2.220000000000000000e+02 2.230000000000000000e+02 2.240000000000000000e+02 2.250000000000000000e+02 2.260000000000000000e+02 2.270000000000000000e+02 2.280000000000000000e+02 2.290000000000000000e+02 2.300000000000000000e+02 2.310000000000000000e+02 2.320000000000000000e+02 2.330000000000000000e+02 2.340000000000000000e+02 2.350000000000000000e+02 2.360000000000000000e+02 2.370000000000000000e+02 2.380000000000000000e+02 2.390000000000000000e+02 2.400000000000000000e+02 2.410000000000000000e+02 2.420000000000000000e+02 2.430000000000000000e+02 2.440000000000000000e+02 2.450000000000000000e+02 2.460000000000000000e+02 2.470000000000000000e+02 2.480000000000000000e+02 2.490000000000000000e+02 2.500000000000000000e+02 2.510000000000000000e+02 2.520000000000000000e+02 2.530000000000000000e+02 2.540000000000000000e+02 2.550000000000000000e+02 2.560000000000000000e+02 2.570000000000000000e+02 2.580000000000000000e+02 2.590000000000000000e+02 2.600000000000000000e+02 2.610000000000000000e+02 2.620000000000000000e+02 2.630000000000000000e+02 2.640000000000000000e+02 2.650000000000000000e+02 2.660000000000000000e+02 2.670000000000000000e+02 2.680000000000000000e+02 2.690000000000000000e+02 2.700000000000000000e+02 2.710000000000000000e+02 2.720000000000000000e+02 2.730000000000000000e+02 2.740000000000000000e+02 2.750000000000000000e+02 2.760000000000000000e+02 2.770000000000000000e+02 2.780000000000000000e+02 2.790000000000000000e+02 2.800000000000000000e+02 2.810000000000000000e+02 2.820000000000000000e+02 2.830000000000000000e+02 2.840000000000000000e+02 2.850000000000000000e+02 2.860000000000000000e+02 2.870000000000000000e+02 2.880000000000000000e+02 2.890000000000000000e+02 2.900000000000000000e+02 2.910000000000000000e+02 2.920000000000000000e+02 2.930000000000000000e+02 2.940000000000000000e+02 2.950000000000000000e+02 2.960000000000000000e+02 2.970000000000000000e+02 2.980000000000000000e+02 2.990000000000000000e+02 3.000000000000000000e+02 3.010000000000000000e+02 3.020000000000000000e+02 3.030000000000000000e+02 3.040000000000000000e+02 3.050000000000000000e+02 3.060000000000000000e+02 3.070000000000000000e+02 3.080000000000000000e+02 3.090000000000000000e+02 3.100000000000000000e+02 3.110000000000000000e+02 3.120000000000000000e+02 3.130000000000000000e+02 3.140000000000000000e+02 3.150000000000000000e+02 3.160000000000000000e+02 3.170000000000000000e+02 3.180000000000000000e+02 3.190000000000000000e+02 3.200000000000000000e+02 3.210000000000000000e+02 3.220000000000000000e+02 3.230000000000000000e+02 3.240000000000000000e+02 3.250000000000000000e+02 3.260000000000000000e+02 3.270000000000000000e+02 3.280000000000000000e+02 3.290000000000000000e+02 3.300000000000000000e+02 3.310000000000000000e+02 3.320000000000000000e+02 3.330000000000000000e+02 3.340000000000000000e+02 3.350000000000000000e+02 3.360000000000000000e+02 3.370000000000000000e+02 3.380000000000000000e+02 3.390000000000000000e+02 3.400000000000000000e+02 3.410000000000000000e+02 3.420000000000000000e+02 3.430000000000000000e+02 3.440000000000000000e+02 3.450000000000000000e+02 3.460000000000000000e+02 3.470000000000000000e+02 3.480000000000000000e+02 3.490000000000000000e+02 3.500000000000000000e+02 3.510000000000000000e+02 3.520000000000000000e+02 3.530000000000000000e+02 3.540000000000000000e+02 3.550000000000000000e+02 3.560000000000000000e+02 3.570000000000000000e+02 3.580000000000000000e+02 3.590000000000000000e+02 3.600000000000000000e+02 3.610000000000000000e+02 3.620000000000000000e+02 3.630000000000000000e+02 3.640000000000000000e+02 3.650000000000000000e+02 3.660000000000000000e+02 3.670000000000000000e+02 3.680000000000000000e+02 3.690000000000000000e+02 3.700000000000000000e+02 3.710000000000000000e+02 3.720000000000000000e+02 3.730000000000000000e+02 3.740000000000000000e+02 3.750000000000000000e+02 3.760000000000000000e+02 3.770000000000000000e+02 3.780000000000000000e+02 3.790000000000000000e+02 3.800000000000000000e+02 3.810000000000000000e+02 3.820000000000000000e+02 3.830000000000000000e+02 3.840000000000000000e+02 3.850000000000000000e+02 3.860000000000000000e+02 3.870000000000000000e+02 3.880000000000000000e+02 3.890000000000000000e+02 3.900000000000000000e+02 3.910000000000000000e+02 3.920000000000000000e+02 3.930000000000000000e+02 3.940000000000000000e+02 3.950000000000000000e+02 3.960000000000000000e+02 3.970000000000000000e+02 3.980000000000000000e+02 3.990000000000000000e+02 4.000000000000000000e+02 4.010000000000000000e+02 4.020000000000000000e+02 4.030000000000000000e+02 4.040000000000000000e+02 4.050000000000000000e+02 4.060000000000000000e+02 4.070000000000000000e+02 4.080000000000000000e+02 4.090000000000000000e+02 4.100000000000000000e+02 4.110000000000000000e+02 4.120000000000000000e+02 4.130000000000000000e+02 4.140000000000000000e+02 4.150000000000000000e+02 4.160000000000000000e+02 4.170000000000000000e+02 4.180000000000000000e+02 4.190000000000000000e+02 4.200000000000000000e+02 4.210000000000000000e+02 4.220000000000000000e+02 4.230000000000000000e+02 4.240000000000000000e+02 4.250000000000000000e+02 4.260000000000000000e+02 4.270000000000000000e+02 4.280000000000000000e+02 4.290000000000000000e+02 4.300000000000000000e+02 4.310000000000000000e+02 4.320000000000000000e+02 4.330000000000000000e+02 4.340000000000000000e+02 4.350000000000000000e+02 4.360000000000000000e+02 4.370000000000000000e+02 4.380000000000000000e+02 4.390000000000000000e+02 4.400000000000000000e+02 4.410000000000000000e+02 4.420000000000000000e+02 4.430000000000000000e+02 4.440000000000000000e+02 4.450000000000000000e+02 4.460000000000000000e+02 4.470000000000000000e+02 4.480000000000000000e+02 4.490000000000000000e+02 4.500000000000000000e+02 4.510000000000000000e+02 4.520000000000000000e+02 4.530000000000000000e+02 4.540000000000000000e+02 4.550000000000000000e+02 4.560000000000000000e+02 4.570000000000000000e+02 4.580000000000000000e+02 4.590000000000000000e+02 4.600000000000000000e+02 4.610000000000000000e+02 4.620000000000000000e+02 4.630000000000000000e+02 4.640000000000000000e+02 4.650000000000000000e+02 4.660000000000000000e+02 4.670000000000000000e+02 4.680000000000000000e+02 4.690000000000000000e+02 4.700000000000000000e+02 4.710000000000000000e+02 4.720000000000000000e+02 4.730000000000000000e+02 4.740000000000000000e+02 4.750000000000000000e+02 4.760000000000000000e+02 4.770000000000000000e+02 4.780000000000000000e+02 4.790000000000000000e+02 4.800000000000000000e+02 4.810000000000000000e+02 4.820000000000000000e+02 4.830000000000000000e+02 4.840000000000000000e+02 4.850000000000000000e+02 4.860000000000000000e+02 4.870000000000000000e+02 4.880000000000000000e+02 4.890000000000000000e+02 4.900000000000000000e+02 4.910000000000000000e+02 4.920000000000000000e+02 4.930000000000000000e+02 4.940000000000000000e+02 4.950000000000000000e+02 4.960000000000000000e+02 4.970000000000000000e+02 4.980000000000000000e+02 4.990000000000000000e+02 5.000000000000000000e+02 5.010000000000000000e+02 5.020000000000000000e+02 5.030000000000000000e+02 5.040000000000000000e+02 5.050000000000000000e+02 5.060000000000000000e+02 5.070000000000000000e+02 5.080000000000000000e+02 5.090000000000000000e+02 5.100000000000000000e+02 5.110000000000000000e+02 5.120000000000000000e+02 5.130000000000000000e+02 5.140000000000000000e+02 5.150000000000000000e+02 5.160000000000000000e+02 5.170000000000000000e+02 5.180000000000000000e+02 5.190000000000000000e+02 5.200000000000000000e+02 5.210000000000000000e+02 5.220000000000000000e+02 5.230000000000000000e+02 5.240000000000000000e+02 5.250000000000000000e+02 5.260000000000000000e+02 5.270000000000000000e+02 5.280000000000000000e+02 5.290000000000000000e+02 5.300000000000000000e+02 5.310000000000000000e+02 5.320000000000000000e+02 5.330000000000000000e+02 5.340000000000000000e+02 5.350000000000000000e+02 5.360000000000000000e+02 5.370000000000000000e+02 5.380000000000000000e+02 5.390000000000000000e+02 5.400000000000000000e+02 5.410000000000000000e+02 5.420000000000000000e+02 5.430000000000000000e+02 5.440000000000000000e+02 5.450000000000000000e+02 5.460000000000000000e+02 5.470000000000000000e+02 5.480000000000000000e+02 5.490000000000000000e+02 5.500000000000000000e+02 5.510000000000000000e+02 5.520000000000000000e+02 5.530000000000000000e+02 5.540000000000000000e+02 5.550000000000000000e+02 5.560000000000000000e+02 5.570000000000000000e+02 5.580000000000000000e+02 5.590000000000000000e+02 5.600000000000000000e+02 5.610000000000000000e+02 5.620000000000000000e+02 5.630000000000000000e+02 5.640000000000000000e+02 5.650000000000000000e+02 5.660000000000000000e+02 5.670000000000000000e+02 5.680000000000000000e+02 5.690000000000000000e+02 5.700000000000000000e+02 5.710000000000000000e+02 5.720000000000000000e+02 5.730000000000000000e+02 5.740000000000000000e+02 5.750000000000000000e+02 5.760000000000000000e+02 5.770000000000000000e+02 5.780000000000000000e+02 5.790000000000000000e+02 5.800000000000000000e+02 5.810000000000000000e+02 5.820000000000000000e+02 5.830000000000000000e+02 5.840000000000000000e+02 5.850000000000000000e+02 5.860000000000000000e+02 5.870000000000000000e+02 5.880000000000000000e+02 5.890000000000000000e+02 5.900000000000000000e+02 5.910000000000000000e+02 5.920000000000000000e+02 5.930000000000000000e+02 5.940000000000000000e+02 5.950000000000000000e+02 5.960000000000000000e+02 5.970000000000000000e+02 5.980000000000000000e+02 5.990000000000000000e+02 6.000000000000000000e+02 6.010000000000000000e+02 6.020000000000000000e+02 6.030000000000000000e+02 6.040000000000000000e+02 6.050000000000000000e+02 6.060000000000000000e+02 6.070000000000000000e+02 6.080000000000000000e+02 6.090000000000000000e+02 6.100000000000000000e+02 6.110000000000000000e+02 6.120000000000000000e+02 6.130000000000000000e+02 6.140000000000000000e+02 6.150000000000000000e+02 6.160000000000000000e+02 6.170000000000000000e+02 6.180000000000000000e+02 6.190000000000000000e+02 6.200000000000000000e+02 6.210000000000000000e+02 6.220000000000000000e+02 6.230000000000000000e+02 6.240000000000000000e+02 6.250000000000000000e+02 6.260000000000000000e+02 6.270000000000000000e+02 6.280000000000000000e+02 6.290000000000000000e+02 6.300000000000000000e+02 6.310000000000000000e+02 6.320000000000000000e+02 6.330000000000000000e+02 6.340000000000000000e+02 6.350000000000000000e+02 6.360000000000000000e+02 6.370000000000000000e+02 6.380000000000000000e+02 6.390000000000000000e+02 6.400000000000000000e+02 6.410000000000000000e+02 6.420000000000000000e+02 6.430000000000000000e+02 6.440000000000000000e+02 6.450000000000000000e+02 6.460000000000000000e+02 6.470000000000000000e+02 6.480000000000000000e+02 6.490000000000000000e+02 6.500000000000000000e+02 6.510000000000000000e+02 6.520000000000000000e+02 6.530000000000000000e+02 6.540000000000000000e+02 6.550000000000000000e+02 6.560000000000000000e+02 6.570000000000000000e+02 6.580000000000000000e+02 6.590000000000000000e+02 6.600000000000000000e+02 6.610000000000000000e+02 6.620000000000000000e+02 6.630000000000000000e+02 6.640000000000000000e+02 6.650000000000000000e+02 6.660000000000000000e+02 6.670000000000000000e+02 6.680000000000000000e+02 6.690000000000000000e+02 6.700000000000000000e+02 6.710000000000000000e+02 6.720000000000000000e+02 6.730000000000000000e+02 6.740000000000000000e+02 6.750000000000000000e+02 6.760000000000000000e+02 6.770000000000000000e+02 6.780000000000000000e+02 6.790000000000000000e+02 6.800000000000000000e+02 6.810000000000000000e+02 6.820000000000000000e+02 6.830000000000000000e+02 6.840000000000000000e+02 6.850000000000000000e+02 6.860000000000000000e+02 6.870000000000000000e+02 6.880000000000000000e+02 6.890000000000000000e+02 6.900000000000000000e+02 6.910000000000000000e+02 6.920000000000000000e+02 6.930000000000000000e+02 6.940000000000000000e+02 6.950000000000000000e+02 6.960000000000000000e+02 6.970000000000000000e+02 6.980000000000000000e+02 6.990000000000000000e+02 7.000000000000000000e+02 7.010000000000000000e+02 7.020000000000000000e+02 7.030000000000000000e+02 7.040000000000000000e+02 7.050000000000000000e+02 7.060000000000000000e+02 7.070000000000000000e+02 7.080000000000000000e+02 7.090000000000000000e+02 7.100000000000000000e+02 7.110000000000000000e+02 7.120000000000000000e+02 7.130000000000000000e+02 7.140000000000000000e+02 7.150000000000000000e+02 7.160000000000000000e+02 7.170000000000000000e+02 7.180000000000000000e+02 7.190000000000000000e+02 7.200000000000000000e+02 7.210000000000000000e+02 7.220000000000000000e+02 7.230000000000000000e+02 7.240000000000000000e+02 7.250000000000000000e+02 7.260000000000000000e+02 7.270000000000000000e+02 7.280000000000000000e+02 7.290000000000000000e+02 7.300000000000000000e+02 7.310000000000000000e+02 7.320000000000000000e+02 7.330000000000000000e+02 7.340000000000000000e+02 7.350000000000000000e+02 7.360000000000000000e+02 7.370000000000000000e+02 7.380000000000000000e+02 7.390000000000000000e+02 7.400000000000000000e+02 7.410000000000000000e+02 7.420000000000000000e+02 7.430000000000000000e+02 7.440000000000000000e+02 7.450000000000000000e+02 7.460000000000000000e+02 7.470000000000000000e+02 7.480000000000000000e+02 7.490000000000000000e+02 7.500000000000000000e+02 7.510000000000000000e+02 7.520000000000000000e+02 7.530000000000000000e+02 7.540000000000000000e+02 7.550000000000000000e+02 7.560000000000000000e+02 7.570000000000000000e+02 7.580000000000000000e+02 7.590000000000000000e+02 7.600000000000000000e+02 7.610000000000000000e+02 7.620000000000000000e+02 7.630000000000000000e+02 7.640000000000000000e+02 7.650000000000000000e+02 7.660000000000000000e+02 7.670000000000000000e+02 7.680000000000000000e+02 7.690000000000000000e+02 7.700000000000000000e+02 7.710000000000000000e+02 7.720000000000000000e+02 7.730000000000000000e+02 7.740000000000000000e+02 7.750000000000000000e+02 7.760000000000000000e+02 7.770000000000000000e+02 7.780000000000000000e+02 7.790000000000000000e+02 7.800000000000000000e+02 7.810000000000000000e+02 7.820000000000000000e+02 7.830000000000000000e+02 7.840000000000000000e+02 7.850000000000000000e+02 7.860000000000000000e+02 7.870000000000000000e+02 7.880000000000000000e+02 7.890000000000000000e+02 7.900000000000000000e+02 7.910000000000000000e+02 7.920000000000000000e+02 7.930000000000000000e+02 7.940000000000000000e+02 7.950000000000000000e+02 7.960000000000000000e+02 7.970000000000000000e+02 7.980000000000000000e+02 7.990000000000000000e+02 8.000000000000000000e+02 8.010000000000000000e+02 8.020000000000000000e+02 8.030000000000000000e+02 8.040000000000000000e+02 8.050000000000000000e+02 8.060000000000000000e+02 8.070000000000000000e+02 8.080000000000000000e+02 8.090000000000000000e+02 8.100000000000000000e+02 8.110000000000000000e+02 8.120000000000000000e+02 8.130000000000000000e+02 8.140000000000000000e+02 8.150000000000000000e+02 8.160000000000000000e+02 8.170000000000000000e+02 8.180000000000000000e+02 8.190000000000000000e+02 8.200000000000000000e+02 8.210000000000000000e+02 8.220000000000000000e+02 8.230000000000000000e+02 8.240000000000000000e+02 8.250000000000000000e+02 8.260000000000000000e+02 8.270000000000000000e+02 8.280000000000000000e+02 8.290000000000000000e+02 8.300000000000000000e+02 8.310000000000000000e+02 8.320000000000000000e+02 8.330000000000000000e+02 8.340000000000000000e+02 8.350000000000000000e+02 8.360000000000000000e+02 8.370000000000000000e+02 8.380000000000000000e+02 8.390000000000000000e+02 8.400000000000000000e+02 8.410000000000000000e+02 8.420000000000000000e+02 8.430000000000000000e+02 8.440000000000000000e+02 8.450000000000000000e+02 8.460000000000000000e+02 8.470000000000000000e+02 8.480000000000000000e+02 8.490000000000000000e+02 8.500000000000000000e+02 8.510000000000000000e+02 8.520000000000000000e+02 8.530000000000000000e+02 8.540000000000000000e+02 8.550000000000000000e+02 8.560000000000000000e+02 8.570000000000000000e+02 8.580000000000000000e+02 8.590000000000000000e+02 8.600000000000000000e+02 8.610000000000000000e+02 8.620000000000000000e+02 8.630000000000000000e+02 8.640000000000000000e+02 8.650000000000000000e+02 8.660000000000000000e+02 8.670000000000000000e+02 8.680000000000000000e+02 8.690000000000000000e+02 8.700000000000000000e+02 8.710000000000000000e+02 8.720000000000000000e+02 8.730000000000000000e+02 8.740000000000000000e+02 8.750000000000000000e+02 8.760000000000000000e+02 8.770000000000000000e+02 8.780000000000000000e+02 8.790000000000000000e+02 8.800000000000000000e+02 8.810000000000000000e+02 8.820000000000000000e+02 8.830000000000000000e+02 8.840000000000000000e+02 8.850000000000000000e+02 8.860000000000000000e+02 8.870000000000000000e+02 8.880000000000000000e+02 8.890000000000000000e+02 8.900000000000000000e+02 8.910000000000000000e+02 8.920000000000000000e+02 8.930000000000000000e+02 8.940000000000000000e+02 8.950000000000000000e+02 8.960000000000000000e+02 8.970000000000000000e+02 8.980000000000000000e+02 8.990000000000000000e+02 9.000000000000000000e+02 9.010000000000000000e+02 9.020000000000000000e+02 9.030000000000000000e+02 9.040000000000000000e+02 9.050000000000000000e+02 9.060000000000000000e+02 9.070000000000000000e+02 9.080000000000000000e+02 9.090000000000000000e+02 9.100000000000000000e+02 9.110000000000000000e+02 9.120000000000000000e+02 9.130000000000000000e+02 9.140000000000000000e+02 9.150000000000000000e+02 9.160000000000000000e+02 9.170000000000000000e+02 9.180000000000000000e+02 9.190000000000000000e+02 9.200000000000000000e+02 9.210000000000000000e+02 9.220000000000000000e+02 9.230000000000000000e+02 9.240000000000000000e+02 9.250000000000000000e+02 9.260000000000000000e+02 9.270000000000000000e+02 9.280000000000000000e+02 9.290000000000000000e+02 9.300000000000000000e+02 9.310000000000000000e+02 9.320000000000000000e+02 9.330000000000000000e+02 9.340000000000000000e+02 9.350000000000000000e+02 9.360000000000000000e+02 9.370000000000000000e+02 9.380000000000000000e+02 9.390000000000000000e+02 9.400000000000000000e+02 9.410000000000000000e+02 9.420000000000000000e+02 9.430000000000000000e+02 9.440000000000000000e+02 9.450000000000000000e+02 9.460000000000000000e+02 9.470000000000000000e+02 9.480000000000000000e+02 9.490000000000000000e+02 9.500000000000000000e+02 9.510000000000000000e+02 9.520000000000000000e+02 9.530000000000000000e+02 9.540000000000000000e+02 9.550000000000000000e+02 9.560000000000000000e+02 9.570000000000000000e+02 9.580000000000000000e+02 9.590000000000000000e+02 9.600000000000000000e+02 9.610000000000000000e+02 9.620000000000000000e+02 9.630000000000000000e+02 9.640000000000000000e+02 9.650000000000000000e+02 9.660000000000000000e+02 9.670000000000000000e+02 9.680000000000000000e+02 9.690000000000000000e+02 9.700000000000000000e+02 9.710000000000000000e+02 9.720000000000000000e+02 9.730000000000000000e+02 9.740000000000000000e+02 9.750000000000000000e+02 9.760000000000000000e+02 9.770000000000000000e+02 9.780000000000000000e+02 9.790000000000000000e+02 9.800000000000000000e+02 9.810000000000000000e+02 9.820000000000000000e+02 9.830000000000000000e+02 9.840000000000000000e+02 9.850000000000000000e+02 9.860000000000000000e+02 9.870000000000000000e+02 9.880000000000000000e+02 9.890000000000000000e+02 9.900000000000000000e+02 9.910000000000000000e+02 9.920000000000000000e+02 9.930000000000000000e+02 9.940000000000000000e+02 9.950000000000000000e+02 9.960000000000000000e+02 9.970000000000000000e+02 9.980000000000000000e+02 9.990000000000000000e+02
1.000000000000000000e+00 1.000000000000000000e+00 1.000000000000000000e+00 1.000000000000000000e+00 1.000000000000000000e+00 1.000000000000000000e+00 1.000000000000000000e+00 1.000000000000000000e+00 1.000000000000000000e+00 1.000000000000000000e+00 1.000000000000000000e+00 1.000000000000000000e+00 1.000000000000000000e+00 1.000000000000000000e+00 1.000000000000000000e+00 1.000000000000000000e+00 1.000000000000000000e+00 1.000000000000000000e+00 1.000000000000000000e+00 1.000000000000000000e+00 1.000000000000000000e+00 1.000000000000000000e+00 1.000000000000000000e+00 1.000000000000000000e+00 1.000000000000000000e+00 1.000000000000000000e+00 1.000000000000000000e+00 1.000000000000000000e+00 1.000000000000000000e+00 1.000000000000000000e+00 1.000000000000000000e+00 1.000000000000000000e+00 1.000000000000000000e+00 1.000000000000000000e+00 1.000000000000000000e+00 1.000000000000000000e+00 1.000000000000000000e+00 1.000000000000000000e+00 1.000000000000000000e+00 1.000000000000000000e+00 1.000000000000000000e+00 1.000000000000000000e+00 1.000000000000000000e+00 1.000000000000000000e+00 1.000000000000000000e+00 1.000000000000000000e+00 1.000000000000000000e+00 1.000000000000000000e+00 1.000000000000000000e+00 1.000000000000000000e+00 1.000000000000000000e+00 1.000000000000000000e+00 1.000000000000000000e+00 1.000000000000000000e+00 1.000000000000000000e+00 1.000000000000000000e+00 1.000000000000000000e+00 1.000000000000000000e+00 1.000000000000000000e+00 1.000000000000000000e+00 1.000000000000000000e+00 1.000000000000000000e+00 1.000000000000000000e+00 1.000000000000000000e+00 1.000000000000000000e+00 1.000000000000000000e+00 1.000000000000000000e+00 1.000000000000000000e+00 1.000000000000000000e+00 1.000000000000000000e+00 1.000000000000000000e+00 1.000000000000000000e+00 1.000000000000000000e+00 1.000000000000000000e+00 1.000000000000000000e+00 1.000000000000000000e+00 1.000000000000000000e+00 1.000000000000000000e+00 1.000000000000000000e+00 1.000000000000000000e+00 1.000000000000000000e+00 1.000000000000000000e+00 1.000000000000000000e+00 1.000000000000000000e+00 1.000000000000000000e+00 1.000000000000000000e+00 1.000000000000000000e+00 1.000000000000000000e+00 1.000000000000000000e+00 1.000000000000000000e+00 1.000000000000000000e+00 1.000000000000000000e+00 1.000000000000000000e+00 1.000000000000000000e+00 1.000000000000000000e+00 1.000000000000000000e+00 1.000000000000000000e+00 1.000000000000000000e+00 1.000000000000000000e+00 1.000000000000000000e+00 1.000000000000000000e+00 1.000000000000000000e+00 1.000000000000000000e+00 1.000000000000000000e+00 1.000000000000000000e+00 1.000000000000000000e+00 1.000000000000000000e+00 1.000000000000000000e+00 1.000000000000000000e+00 1.000000000000000000e+00 1.000000000000000000e+00 1.000000000000000000e+00 1.000000000000000000e+00 1.000000000000000000e+00 1.000000000000000000e+00 1.000000000000000000e+00 1.000000000000000000e+00 1.000000000000000000e+00 1.000000000000000000e+00 1.000000000000000000e+00 1.000000000000000000e+00 1.000000000000000000e+00 1.000000000000000000e+00 1.000000000000000000e+00 1.000000000000000000e+00 1.000000000000000000e+00 1.000000000000000000e+00 1.000000000000000000e+00 1.000000000000000000e+00 1.000000000000000000e+00 1.000000000000000000e+00 1.000000000000000000e+00 1.000000000000000000e+00 1.000000000000000000e+00 1.000000000000000000e+00 1.000000000000000000e+00 1.000000000000000000e+00 1.000000000000000000e+00 1.000000000000000000e+00 1.000000000000000000e+00 1.000000000000000000e+00 1.000000000000000000e+00 1.000000000000000000e+00 1.000000000000000000e+00 1.000000000000000000e+00 1.000000000000000000e+00 1.000000000000000000e+00 1.000000000000000000e+00 1.000000000000000000e+00 1.000000000000000000e+00 1.000000000000000000e+00 1.000000000000000000e+00 1.000000000000000000e+00 1.000000000000000000e+00 1.000000000000000000e+00 1.000000000000000000e+00 1.000000000000000000e+00 1.000000000000000000e+00 1.000000000000000000e+00 1.000000000000000000e+00 1.000000000000000000e+00 1.000000000000000000e+00 1.000000000000000000e+00 1.000000000000000000e+00 1.000000000000000000e+00 1.000000000000000000e+00 1.000000000000000000e+00 1.000000000000000000e+00 1.000000000000000000e+00 1.000000000000000000e+00 1.000000000000000000e+00 1.000000000000000000e+00 1.000000000000000000e+00 1.000000000000000000e+00 1.000000000000000000e+00 1.000000000000000000e+00 1.000000000000000000e+00 1.000000000000000000e+00 1.000000000000000000e+00 1.000000000000000000e+00 1.000000000000000000e+00 1.000000000000000000e+00 1.000000000000000000e+00 1.000000000000000000e+00 1.000000000000000000e+00 1.000000000000000000e+00 1.000000000000000000e+00 1.000000000000000000e+00 1.000000000000000000e+00 1.000000000000000000e+00 1.000000000000000000e+00 1.000000000000000000e+00 1.000000000000000000e+00 1.000000000000000000e+00 1.000000000000000000e+00 1.000000000000000000e+00 1.000000000000000000e+00 1.000000000000000000e+00 1.000000000000000000e+00 1.000000000000000000e+00 1.000000000000000000e+00 1.000000000000000000e+00 1.000000000000000000e+00 1.000000000000000000e+00 1.000000000000000000e+00 1.000000000000000000e+00 1.000000000000000000e+00 1.000000000000000000e+00 1.000000000000000000e+00 1.000000000000000000e+00 1.000000000000000000e+00 1.000000000000000000e+00 1.000000000000000000e+00 1.000000000000000000e+00 1.000000000000000000e+00 1.000000000000000000e+00 1.000000000000000000e+00 1.000000000000000000e+00 1.000000000000000000e+00 1.000000000000000000e+00 1.000000000000000000e+00 1.000000000000000000e+00 1.000000000000000000e+00 1.000000000000000000e+00 1.000000000000000000e+00 1.000000000000000000e+00 1.000000000000000000e+00 1.000000000000000000e+00 1.000000000000000000e+00 1.000000000000000000e+00 1.000000000000000000e+00 1.000000000000000000e+00 1.000000000000000000e+00 1.000000000000000000e+00 1.000000000000000000e+00 1.000000000000000000e+00 1.000000000000000000e+00 1.000000000000000000e+00 1.000000000000000000e+00 1.000000000000000000e+00 1.000000000000000000e+00 1.000000000000000000e+00 1.000000000000000000e+00 1.000000000000000000e+00 1.000000000000000000e+00 1.000000000000000000e+00 1.000000000000000000e+00 1.000000000000000000e+00 1.000000000000000000e+00 1.000000000000000000e+00 1.000000000000000000e+00 1.000000000000000000e+00 1.000000000000000000e+00 1.000000000000000000e+00 1.000000000000000000e+00 1.000000000000000000e+00 1.000000000000000000e+00 1.000000000000000000e+00 1.000000000000000000e+00 1.000000000000000000e+00 1.000000000000000000e+00 1.000000000000000000e+00 1.000000000000000000e+00 1.000000000000000000e+00 1.000000000000000000e+00 1.000000000000000000e+00 1.000000000000000000e+00 1.000000000000000000e+00 1.000000000000000000e+00 1.000000000000000000e+00 1.000000000000000000e+00 1.000000000000000000e+00 1.000000000000000000e+00 1.000000000000000000e+00 1.000000000000000000e+00 1.000000000000000000e+00 1.000000000000000000e+00 1.000000000000000000e+00 1.000000000000000000e+00 1.000000000000000000e+00 1.000000000000000000e+00 1.000000000000000000e+00 1.000000000000000000e+00 1.000000000000000000e+00 1.000000000000000000e+00 1.000000000000000000e+00 1.000000000000000000e+00 1.000000000000000000e+00 1.000000000000000000e+00 1.000000000000000000e+00 1.000000000000000000e+00 1.000000000000000000e+00 1.000000000000000000e+00 1.000000000000000000e+00 1.000000000000000000e+00 1.000000000000000000e+00 1.000000000000000000e+00 1.000000000000000000e+00 1.000000000000000000e+00 1.000000000000000000e+00 1.000000000000000000e+00 1.000000000000000000e+00 1.000000000000000000e+00 1.000000000000000000e+00 1.000000000000000000e+00 1.000000000000000000e+00 1.000000000000000000e+00 1.000000000000000000e+00 1.000000000000000000e+00 1.000000000000000000e+00 1.000000000000000000e+00 1.000000000000000000e+00 1.000000000000000000e+00 1.000000000000000000e+00 1.000000000000000000e+00 1.000000000000000000e+00 1.000000000000000000e+00 1.000000000000000000e+00 1.000000000000000000e+00 1.000000000000000000e+00 1.000000000000000000e+00 1.000000000000000000e+00 1.000000000000000000e+00 1.000000000000000000e+00 1.000000000000000000e+00 1.000000000000000000e+00 1.000000000000000000e+00 1.000000000000000000e+00 1.000000000000000000e+00 1.000000000000000000e+00 1.000000000000000000e+00 1.000000000000000000e+00 1.000000000000000000e+00 1.000000000000000000e+00 1.000000000000000000e+00 1.000000000000000000e+00 1.000000000000000000e+00 1.000000000000000000e+00 1.000000000000000000e+00 1.000000000000000000e+00 1.000000000000000000e+00 1.000000000000000000e+00 1.000000000000000000e+00 1.000000000000000000e+00 1.000000000000000000e+00 1.000000000000000000e+00 1.000000000000000000e+00 1.000000000000000000e+00 1.000000000000000000e+00 1.000000000000000000e+00 1.000000000000000000e+00 1.000000000000000000e+00 1.000000000000000000e+00 1.000000000000000000e+00 1.000000000000000000e+00 1.000000000000000000e+00 1.000000000000000000e+00 1.000000000000000000e+00 1.000000000000000000e+00 1.000000000000000000e+00 1.000000000000000000e+00 1.000000000000000000e+00 1.000000000000000000e+00 1.000000000000000000e+00 1.000000000000000000e+00 1.000000000000000000e+00 1.000000000000000000e+00 1.000000000000000000e+00 1.000000000000000000e+00 1.000000000000000000e+00 1.000000000000000000e+00 1.000000000000000000e+00 1.000000000000000000e+00 1.000000000000000000e+00 1.000000000000000000e+00 1.000000000000000000e+00 1.000000000000000000e+00 1.000000000000000000e+00 1.000000000000000000e+00 1.000000000000000000e+00 1.000000000000000000e+00 1.000000000000000000e+00 1.000000000000000000e+00 1.000000000000000000e+00 1.000000000000000000e+00 1.000000000000000000e+00 1.000000000000000000e+00 1.000000000000000000e+00 1.000000000000000000e+00 1.000000000000000000e+00 1.000000000000000000e+00 1.000000000000000000e+00 1.000000000000000000e+00 1.000000000000000000e+00 1.000000000000000000e+00 1.000000000000000000e+00 1.000000000000000000e+00 1.000000000000000000e+00 1.000000000000000000e+00 1.000000000000000000e+00 1.000000000000000000e+00 1.000000000000000000e+00 1.000000000000000000e+00 1.000000000000000000e+00 1.000000000000000000e+00 1.000000000000000000e+00 1.000000000000000000e+00 1.000000000000000000e+00 1.000000000000000000e+00 1.000000000000000000e+00 1.000000000000000000e+00 1.000000000000000000e+00 1.000000000000000000e+00 1.000000000000000000e+00 1.000000000000000000e+00 1.000000000000000000e+00 1.000000000000000000e+00 1.000000000000000000e+00 1.000000000000000000e+00 1.000000000000000000e+00 1.000000000000000000e+00 1.000000000000000000e+00 1.000000000000000000e+00 1.000000000000000000e+00 1.000000000000000000e+00 1.000000000000000000e+00 1.000000000000000000e+00 1.000000000000000000e+00 1.000000000000000000e+00 1.000000000000000000e+00 1.000000000000000000e+00 1.000000000000000000e+00 1.000000000000000000e+00 1.000000000000000000e+00 1.000000000000000000e+00 1.000000000000000000e+00 1.000000000000000000e+00 1.000000000000000000e+00 1.000000000000000000e+00 1.000000000000000000e+00 1.000000000000000000e+00 1.000000000000000000e+00 1.000000000000000000e+00 1.000000000000000000e+00 1.000000000000000000e+00 1.000000000000000000e+00 1.000000000000000000e+00 1.000000000000000000e+00 1.000000000000000000e+00 1.000000000000000000e+00 1.000000000000000000e+00 1.000000000000000000e+00 1.000000000000000000e+00 1.000000000000000000e+00 1.000000000000000000e+00 1.000000000000000000e+00 1.000000000000000000e+00 1.000000000000000000e+00 1.000000000000000000e+00 1.000000000000000000e+00 1.000000000000000000e+00 1.000000000000000000e+00 1.000000000000000000e+00 1.000000000000000000e+00 1.000000000000000000e+00 1.000000000000000000e+00 1.000000000000000000e+00 1.000000000000000000e+00 1.000000000000000000e+00 1.000000000000000000e+00 1.000000000000000000e+00 1.000000000000000000e+00 1.000000000000000000e+00 1.000000000000000000e+00 1.000000000000000000e+00 1.000000000000000000e+00 1.000000000000000000e+00 1.000000000000000000e+00 1.000000000000000000e+00 1.000000000000000000e+00 1.000000000000000000e+00 1.000000000000000000e+00 1.000000000000000000e+00 1.000000000000000000e+00 1.000000000000000000e+00 1.000000000000000000e+00 1.000000000000000000e+00 1.000000000000000000e+00 1.000000000000000000e+00 1.000000000000000000e+00 1.000000000000000000e+00 1.000000000000000000e+00 1.000000000000000000e+00 1.000000000000000000e+00 1.000000000000000000e+00 1.000000000000000000e+00 1.000000000000000000e+00 1.000000000000000000e+00 1.000000000000000000e+00 1.000000000000000000e+00 1.000000000000000000e+00 1.000000000000000000e+00 1.000000000000000000e+00 1.000000000000000000e+00 1.000000000000000000e+00 1.000000000000000000e+00 1.000000000000000000e+00 1.000000000000000000e+00 1.000000000000000000e+00 1.000000000000000000e+00 1.000000000000000000e+00 1.000000000000000000e+00 1.000000000000000000e+00 1.000000000000000000e+00 1.000000000000000000e+00 1.000000000000000000e+00 1.000000000000000000e+00 1.000000000000000000e+00 1.000000000000000000e+00 1.000000000000000000e+00 1.000000000000000000e+00 1.000000000000000000e+00 1.000000000000000000e+00 1.000000000000000000e+00 1.000000000000000000e+00 1.000000000000000000e+00 1.000000000000000000e+00 1.000000000000000000e+00 1.000000000000000000e+00 1.000000000000000000e+00 1.000000000000000000e+00 1.000000000000000000e+00 1.000000000000000000e+00 1.000000000000000000e+00 1.000000000000000000e+00 1.000000000000000000e+00 1.000000000000000000e+00 1.000000000000000000e+00 1.000000000000000000e+00 1.000000000000000000e+00 1.000000000000000000e+00 1.000000000000000000e+00 1.000000000000000000e+00 1.000000000000000000e+00 1.000000000000000000e+00 1.000000000000000000e+00 1.000000000000000000e+00 1.000000000000000000e+00 1.000000000000000000e+00 1.000000000000000000e+00 1.000000000000000000e+00 1.000000000000000000e+00 1.000000000000000000e+00 1.000000000000000000e+00 1.000000000000000000e+00 1.000000000000000000e+00 1.000000000000000000e+00 1.000000000000000000e+00 1.000000000000000000e+00 1.000000000000000000e+00 1.000000000000000000e+00 1.000000000000000000e+00 1.000000000000000000e+00 1.000000000000000000e+00 1.000000000000000000e+00 1.000000000000000000e+00 1.000000000000000000e+00 1.000000000000000000e+00 1.000000000000000000e+00 1.000000000000000000e+00 1.000000000000000000e+00 1.000000000000000000e+00 1.000000000000000000e+00 1.000000000000000000e+00 1.000000000000000000e+00 1.000000000000000000e+00 1.000000000000000000e+00 1.000000000000000000e+00 1.000000000000000000e+00 1.000000000000000000e+00 1.000000000000000000e+00 1.000000000000000000e+00 1.000000000000000000e+00 1.000000000000000000e+00 1.000000000000000000e+00 1.000000000000000000e+00 1.000000000000000000e+00 1.000000000000000000e+00 1.000000000000000000e+00 1.000000000000000000e+00 1.000000000000000000e+00 1.000000000000000000e+00 1.000000000000000000e+00 1.000000000000000000e+00 1.000000000000000000e+00 1.000000000000000000e+00 1.000000000000000000e+00 1.000000000000000000e+00 1.000000000000000000e+00 1.000000000000000000e+00 1.000000000000000000e+00 1.000000000000000000e+00 1.000000000000000000e+00 1.000000000000000000e+00 1.000000000000000000e+00 1.000000000000000000e+00 1.000000000000000000e+00 1.000000000000000000e+00 1.000000000000000000e+00 1.000000000000000000e+00 1.000000000000000000e+00 1.000000000000000000e+00 1.000000000000000000e+00 1.000000000000000000e+00 1.000000000000000000e+00 1.000000000000000000e+00 1.000000000000000000e+00 1.000000000000000000e+00 1.000000000000000000e+00 1.000000000000000000e+00 1.000000000000000000e+00 1.000000000000000000e+00 1.000000000000000000e+00 1.000000000000000000e+00 1.000000000000000000e+00 1.000000000000000000e+00 1.000000000000000000e+00 1.000000000000000000e+00 1.000000000000000000e+00 1.000000000000000000e+00 1.000000000000000000e+00 1.000000000000000000e+00 1.000000000000000000e+00 1.000000000000000000e+00 1.000000000000000000e+00 1.000000000000000000e+00 1.000000000000000000e+00 1.000000000000000000e+00 1.000000000000000000e+00 1.000000000000000000e+00 1.000000000000000000e+00 1.000000000000000000e+00 1.000000000000000000e+00 1.000000000000000000e+00 1.000000000000000000e+00 1.000000000000000000e+00 1.000000000000000000e+00 1.000000000000000000e+00 1.000000000000000000e+00 1.000000000000000000e+00 1.000000000000000000e+00 1.000000000000000000e+00 1.000000000000000000e+00 1.000000000000000000e+00 1.000000000000000000e+00 1.000000000000000000e+00 1.000000000000000000e+00 1.000000000000000000e+00 1.000000000000000000e+00 1.000000000000000000e+00 1.000000000000000000e+00 1.000000000000000000e+00 1.000000000000000000e+00 1.000000000000000000e+00 1.000000000000000000e+00 1.000000000000000000e+00 1.000000000000000000e+00 1.000000000000000000e+00 1.000000000000000000e+00 1.000000000000000000e+00 1.000000000000000000e+00 1.000000000000000000e+00 1.000000000000000000e+00 1.000000000000000000e+00 1.000000000000000000e+00 1.000000000000000000e+00 1.000000000000000000e+00 1.000000000000000000e+00 1.000000000000000000e+00 1.000000000000000000e+00 1.000000000000000000e+00 1.000000000000000000e+00 1.000000000000000000e+00 1.000000000000000000e+00 1.000000000000000000e+00 1.000000000000000000e+00 1.000000000000000000e+00 1.000000000000000000e+00 1.000000000000000000e+00 1.000000000000000000e+00 1.000000000000000000e+00 1.000000000000000000e+00 1.000000000000000000e+00 1.000000000000000000e+00 1.000000000000000000e+00 1.000000000000000000e+00 1.000000000000000000e+00 1.000000000000000000e+00 1.000000000000000000e+00 1.000000000000000000e+00 1.000000000000000000e+00 1.000000000000000000e+00 1.000000000000000000e+00 1.000000000000000000e+00 1.000000000000000000e+00 1.000000000000000000e+00 1.000000000000000000e+00 1.000000000000000000e+00 1.000000000000000000e+00 1.000000000000000000e+00 1.000000000000000000e+00 1.000000000000000000e+00 1.000000000000000000e+00 1.000000000000000000e+00 1.000000000000000000e+00 1.000000000000000000e+00 1.000000000000000000e+00 1.000000000000000000e+00 1.000000000000000000e+00 1.000000000000000000e+00 1.000000000000000000e+00 1.000000000000000000e+00 1.000000000000000000e+00 1.000000000000000000e+00 1.000000000000000000e+00 1.000000000000000000e+00 1.000000000000000000e+00 1.000000000000000000e+00 1.000000000000000000e+00 1.000000000000000000e+00 1.000000000000000000e+00 1.000000000000000000e+00 1.000000000000000000e+00 1.000000000000000000e+00 1.000000000000000000e+00 1.000000000000000000e+00 1.000000000000000000e+00 1.000000000000000000e+00 1.000000000000000000e+00 1.000000000000000000e+00 1.000000000000000000e+00 1.000000000000000000e+00 1.000000000000000000e+00 1.000000000000000000e+00 1.000000000000000000e+00 1.000000000000000000e+00 1.000000000000000000e+00 1.000000000000000000e+00 1.000000000000000000e+00 1.000000000000000000e+00 1.000000000000000000e+00 1.000000000000000000e+00 1.000000000000000000e+00 1.000000000000000000e+00 1.000000000000000000e+00 1.000000000000000000e+00 1.000000000000000000e+00 1.000000000000000000e+00 1.000000000000000000e+00 1.000000000000000000e+00 1.000000000000000000e+00 1.000000000000000000e+00 1.000000000000000000e+00 1.000000000000000000e+00 1.000000000000000000e+00 1.000000000000000000e+00 1.000000000000000000e+00 1.000000000000000000e+00 1.000000000000000000e+00 1.000000000000000000e+00 1.000000000000000000e+00 1.000000000000000000e+00 1.000000000000000000e+00 1.000000000000000000e+00 1.000000000000000000e+00 1.000000000000000000e+00 1.000000000000000000e+00 1.000000000000000000e+00 1.000000000000000000e+00 1.000000000000000000e+00 1.000000000000000000e+00 1.000000000000000000e+00 1.000000000000000000e+00 1.000000000000000000e+00 1.000000000000000000e+00 1.000000000000000000e+00 1.000000000000000000e+00 1.000000000000000000e+00 1.000000000000000000e+00 1.000000000000000000e+00 1.000000000000000000e+00 1.000000000000000000e+00 1.000000000000000000e+00 1.000000000000000000e+00 1.000000000000000000e+00 1.000000000000000000e+00 1.000000000000000000e+00 1.000000000000000000e+00 1.000000000000000000e+00 1.000000000000000000e+00 1.000000000000000000e+00 1.000000000000000000e+00 1.000000000000000000e+00 1.000000000000000000e+00 1.000000000000000000e+00 1.000000000000000000e+00 1.000000000000000000e+00 1.000000000000000000e+00 1.000000000000000000e+00 1.000000000000000000e+00 1.000000000000000000e+00 1.000000000000000000e+00 1.000000000000000000e+00 1.000000000000000000e+00 1.000000000000000000e+00 1.000000000000000000e+00 1.000000000000000000e+00 1.000000000000000000e+00 1.000000000000000000e+00 1.000000000000000000e+00 1.000000000000000000e+00 1.000000000000000000e+00 1.000000000000000000e+00 1.000000000000000000e+00 1.000000000000000000e+00 1.000000000000000000e+00 1.000000000000000000e+00 1.000000000000000000e+00 1.000000000000000000e+00 1.000000000000000000e+00 1.000000000000000000e+00 1.000000000000000000e+00 1.000000000000000000e+00 1.000000000000000000e+00 1.000000000000000000e+00 1.000000000000000000e+00 1.000000000000000000e+00 1.000000000000000000e+00 1.000000000000000000e+00 1.000000000000000000e+00 1.000000000000000000e+00 1.000000000000000000e+00 1.000000000000000000e+00 1.000000000000000000e+00 1.000000000000000000e+00 1.000000000000000000e+00 1.000000000000000000e+00 1.000000000000000000e+00 1.000000000000000000e+00 1.000000000000000000e+00 1.000000000000000000e+00 1.000000000000000000e+00 1.000000000000000000e+00 1.000000000000000000e+00 1.000000000000000000e+00 1.000000000000000000e+00 1.000000000000000000e+00 1.000000000000000000e+00 1.000000000000000000e+00 1.000000000000000000e+00 1.000000000000000000e+00 1.000000000000000000e+00 1.000000000000000000e+00 1.000000000000000000e+00 1.000000000000000000e+00 1.000000000000000000e+00 1.000000000000000000e+00 1.000000000000000000e+00 1.000000000000000000e+00 1.000000000000000000e+00 1.000000000000000000e+00 1.000000000000000000e+00 1.000000000000000000e+00 1.000000000000000000e+00 1.000000000000000000e+00 1.000000000000000000e+00 1.000000000000000000e+00 1.000000000000000000e+00 1.000000000000000000e+00 1.000000000000000000e+00 1.000000000000000000e+00 1.000000000000000000e+00 1.000000000000000000e+00 1.000000000000000000e+00 1.000000000000000000e+00 1.000000000000000000e+00 1.000000000000000000e+00 1.000000000000000000e+00 1.000000000000000000e+00 1.000000000000000000e+00 1.000000000000000000e+00 1.000000000000000000e+00 1.000000000000000000e+00 1.000000000000000000e+00 1.000000000000000000e+00 1.000000000000000000e+00 1.000000000000000000e+00 1.000000000000000000e+00 1.000000000000000000e+00 1.000000000000000000e+00 1.000000000000000000e+00 1.000000000000000000e+00 1.000000000000000000e+00 1.000000000000000000e+00 1.000000000000000000e+00 1.000000000000000000e+00 1.000000000000000000e+00 1.000000000000000000e+00 1.000000000000000000e+00 1.000000000000000000e+00 1.000000000000000000e+00 1.000000000000000000e+00 1.000000000000000000e+00 1.000000000000000000e+00 1.000000000000000000e+00 1.000000000000000000e+00 1.000000000000000000e+00 1.000000000000000000e+00 1.000000000000000000e+00 1.000000000000000000e+00 1.000000000000000000e+00 1.000000000000000000e+00 1.000000000000000000e+00 1.000000000000000000e+00 1.000000000000000000e+00 1.000000000000000000e+00 1.000000000000000000e+00 1.000000000000000000e+00 1.000000000000000000e+00 1.000000000000000000e+00 1.000000000000000000e+00 1.000000000000000000e+00 1.000000000000000000e+00 1.000000000000000000e+00 1.000000000000000000e+00 1.000000000000000000e+00 1.000000000000000000e+00 1.000000000000000000e+00 1.000000000000000000e+00 1.000000000000000000e+00 1.000000000000000000e+00 1.000000000000000000e+00 1.000000000000000000e+00 1.000000000000000000e+00 1.000000000000000000e+00 1.000000000000000000e+00 1.000000000000000000e+00 1.000000000000000000e+00 1.000000000000000000e+00 1.000000000000000000e+00 1.000000000000000000e+00 1.000000000000000000e+00 1.000000000000000000e+00 1.000000000000000000e+00 1.000000000000000000e+00 1.000000000000000000e+00 1.000000000000000000e+00 1.000000000000000000e+00 1.000000000000000000e+00 1.000000000000000000e+00 1.000000000000000000e+00 1.000000000000000000e+00 1.000000000000000000e+00 1.000000000000000000e+00 1.000000000000000000e+00 1.000000000000000000e+00 1.000000000000000000e+00 1.000000000000000000e+00 1.000000000000000000e+00 1.000000000000000000e+00 1.000000000000000000e+00 1.000000000000000000e+00 1.000000000000000000e+00 1.000000000000000000e+00 1.000000000000000000e+00 1.000000000000000000e+00 1.000000000000000000e+00 1.000000000000000000e+00 1.000000000000000000e+00 1.000000000000000000e+00 1.000000000000000000e+00 1.000000000000000000e+00 1.000000000000000000e+00 1.000000000000000000e+00 1.000000000000000000e+00 1.000000000000000000e+00 1.000000000000000000e+00 1.000000000000000000e+00 1.000000000000000000e+00 1.000000000000000000e+00 1.000000000000000000e+00 1.000000000000000000e+00 1.000000000000000000e+00 1.000000000000000000e+00 1.000000000000000000e+00 1.000000000000000000e+00 1.000000000000000000e+00 1.000000000000000000e+00 1.000000000000000000e+00 1.000000000000000000e+00
7.322506664777733709e-02 4.890611632873422820e-01 8.891683500167699705e-01 5.010664540768324793e-01 4.972975055112371923e-01 5.641394207498474644e-01 1.676737518804834737e-01 3.680137804645176036e-01 5.770058361252842216e-01 5.072294096011349396e-01 1.000626759946722233e+00 -2.247431195471766840e-01 1.103602810477079865e+00 5.046480585040262756e-01 4.983547571744832982e-01 6.082510551064581605e-01 9.042766333531369050e-01 6.709014663867474138e-01 5.119029616180492681e-01 4.923096857375602320e-01 4.161123397916324240e-01 8.462963967507868279e-01 4.053595116565940071e-01 4.881267936455602752e-01 6.366121958210123610e-01 7.934867000715647434e-01 3.926615229861648015e-01 5.228847489337999921e-01 5.349752655300182846e-01 8.123467307939328252e-01 5.057627304816767477e-01 5.551257555105979513e-01 7.902444422143050096e-01 5.129467504581337600e-01 7.218932532900840249e-01 4.733041348852846664e-01 7.434123819892798357e-01 7.495114096504000845e-01 1.526246694769829437e-01 4.895730638142496427e-01 5.892761134436834691e-01 -3.122918504191102285e-01 7.379219081914296652e-01 2.060222029416626244e-01 2.341127121875476447e-01 5.103622967294161317e-01 4.992134679594869562e-01 5.064410591857188004e-01 4.748934545754855407e-01 7.899428235837925583e-02 4.646215548940525741e-02 3.833057802131745184e-01 4.939198235700101858e-01 5.257098577614781609e-01 4.964249165964286781e-01 7.719824047099188569e-02 4.626309941505710732e-01 8.418015798931790528e-01 1.782317266845276638e-01 5.350189765210802140e-01 7.277935795636846228e-01 4.661791667155997798e-01 4.668030791527349455e-01 4.053581472844535738e-01 4.382980112067202394e-01 4.702168201492247235e-01 4.810832185537669003e-01 4.051153722998268036e-01 6.028698534154488531e-01 3.655291340110933263e-02 4.310953283763738764e-01 4.896571756699888978e-01 5.353537860131933890e-01 5.938715995983139678e-02 1.232303454168378831e+00 4.773135025482680982e-01 5.858835078107386130e-01 7.521873183109180072e-01 4.739930011522744957e-01 1.241611040475491423e+00 4.817768099588547459e-01 2.222842998494433953e-01 7.646573986447580129e-01 5.298404942616788960e-01 5.052163581544294457e-01 7.233167839348469963e-01 8.531405165585543848e-01 5.322329134860960265e-01 2.928962306836297991e-01 5.612545159795129246e-01 2.242970597316979453e-01 1.385183496644218248e+00 5.145432605910874591e-01 8.146017504363714523e-02 3.606746485063400121e-01 5.406407912118615933e-01 5.619710871322817214e-01 6.667040643918994425e-01 2.218292435186129119e-01 7.912064907893006094e-01 7.273171895346610683e-01 5.102279360562789190e-01 5.029205474573662515e-01 1.033517238675570438e+00 1.635706719094505435e-01 -1.016440433666076837e+00 -7.594662086130750112e-01 5.475410697910458868e-01 5.191675918254643474e-01 8.783263244942747239e-01 3.848780879218281492e-01 5.188091366835712037e-01 9.071132271483339782e-01 4.735077096883499315e-01 4.376573675998388091e-01 5.867422311858254691e-01 4.674544922263336733e-01 6.690942562297571561e-01 5.877896306413477046e-01 4.355583595643225947e-01 1.076044136918934413e+00 4.198193284075941167e-01 6.392889038500645382e-01 5.728488651483171212e-01 4.835165336609251185e-01 1.517811585237148098e+00 3.049766479085485038e-01 7.965255767279804111e-01 5.092619494767198773e-01 4.688449850008459818e-01 4.694605285617775570e-01 5.117293005771736958e-01 5.237334101245813001e-01 4.573988549221946198e-01 4.683251411527885044e-01 -9.148516612159094882e-03 9.413436315287662115e-01 -1.761516848341261945e-02 8.488650628486248406e-01 4.670164240756843332e-01 5.004856367813692586e-01 5.801682519640782854e-01 5.457053881650977267e-01 4.999997626253758209e-01 4.870662202838891841e-01 1.358029343012562631e-02 5.525874318064106783e-01 4.551205530575616609e-01 4.339036182754660853e-01 -3.885982946708521069e-01 7.495598201798406857e-01 1.072205024559626588e-02 5.099819686165495414e-01 5.400395803794209026e-01 7.573829686102588887e-01 6.009203694332684309e-01 6.322355895977700424e-01 5.864689980356432297e-01 7.819840145130657616e-01 7.731846958280967907e-01 3.684769089553507904e-01 5.171620021628756669e-01 5.210633171883777282e-01 5.087950897562192321e-01 1.121699958894000204e+00 -1.403216033970658971e-01 7.579922071783500304e-01 4.984571771914320104e-01 5.352251171531952068e-01 5.485104624186227795e-01 6.104148315407696979e-01 4.994002727596451030e-01 5.105037775462751837e-01 4.992566095873748333e-01 4.352164305662299393e-01 1.593262611854462732e-02 1.741309739344580887e-01 9.549622405943226922e-02 5.725398096570741835e-01 1.012601378528628304e+00 4.835126997584719422e-01 4.905882466599957303e-01 -2.255949732522871676e-01 7.701074574869571920e-01 4.818459157986418884e-01 6.050852105255947189e-01 5.447565141012898904e-01 5.153385456489656402e-01 1.636642463370069800e+00 7.209327117276715935e-01 3.970435614708986982e-01 -1.819031338965303446e-01 5.169644452634214460e-01 6.950145137927505878e-01 1.020805417702882190e-01 5.619923007803195869e-01 7.535600139673588327e-01 4.867365339984141004e-01 4.930676890427397874e-01 4.974568496341333912e-01 3.714165789354160752e-01 4.692113066276737965e-01 9.120779322293460778e-01 5.544605386060423857e-01 5.381424806634890201e-01 4.930672726484480739e-01 4.751833280206854693e-01 1.075751752828271401e+00 4.891958575208977256e-01 4.509661013675509422e-01 3.675279090069966670e-01 1.540703025992010144e-01 5.317700978000394763e-01 4.162557565730737319e-01 4.974758116863913782e-01 5.301075216473722929e-01 4.837223558705748827e-01 5.077151908137740310e-01 5.180006281443964022e-01 5.072990127577305941e-01 4.927475477571511830e-01 4.793665454613626475e-01 -3.043372590140075440e-01 6.223995530770622953e-01 7.813856895687789628e-01 4.192557262396824913e-01 6.703653198983106076e-01 4.472921555451907505e-01 7.656446917775591166e-01 8.255307014285924172e-01 -1.110118011882372246e-01 8.705216081668313288e-01 5.057048518988538355e-01 4.706865638050848899e-01 -2.716112697522025943e-02 6.617255466233404881e-01 3.801726468646004498e-01 4.651521013051646558e-01 1.524515734037665271e-02 -6.078821813142758906e-02 6.270438567909485394e-01 5.070201397214155747e-01 9.934630647509268275e-02 4.715114812847937542e-01 5.054768624761775131e-01 1.061621077941856672e+00 -9.284854431250944007e-02 5.350449168760208485e-01 -9.124004634256397406e-01 6.922393863453867313e-01 6.254529478745666227e-01 5.056908753710929183e-01 4.778943741028697789e-01 4.053531031243508553e-01 5.048575071415322135e-01 5.224639869374924084e-01 4.614135736519785480e-01 4.082796475512059375e-01 6.168764356365483703e-01 1.388100032885917212e+00 4.067197781158226610e-01 5.140223970035021628e-01 3.203928338150497934e-01 3.973263955941047088e-01 7.273733524430621156e-01 4.730061249350470121e-01 1.725866709489181972e+00 4.952480210309218034e-01 4.046779837806744329e-01 9.558769034420899757e-01 5.026272267804856586e-01 7.141227323800445337e-01 4.814550334890533301e-01 5.271947901630376077e-01 4.963699385119103580e-01 5.010466587244807313e-01 1.409298962168748226e-01 8.747142731481292177e-01 8.451018079188236110e-01 -7.059412745102361386e-02 5.933349200398785328e-01 5.241906740083293048e-01 6.194217486017503660e-01 -3.009024942990563001e-01 3.426568079957574287e-01 7.412814270141303563e-01 4.748013981701008079e-01 5.044994489615616251e-01 5.867435750526508453e-01 5.895169861538773759e-01 5.186846708815009421e-01 6.523863687764412944e-01 5.225374141842377140e-01 5.547306597432534181e-01 2.134602460584390446e-02 4.869983048908169687e-01 1.565424512804218349e+00 5.184318669627896448e-01 4.839672784694208918e-01 4.337712406636342610e-01 -2.055131060298135637e+00 5.473007272341678942e-01 8.573259675750066755e-01 4.990649880103333880e-01 5.620650613236664039e-01 -5.266403267063859417e-01 4.957424811673618037e-01 4.723980790021126697e-01 4.475696714243371788e-01 5.396634770105140921e-01 7.657688986447037660e-01 5.364354767164585258e-01 3.391055894518679170e-01 4.677523258012159513e-01 5.037306510368189105e-01 4.929765083865690345e-01 4.956509087772361100e-01 5.002693304685970066e-01 5.011831723468306299e-01 9.859267161026352699e-01 7.748819059634880213e-02 1.839566341534599969e+00 1.893924603943225593e+00 5.185945547682077050e-01 1.113933238749322679e-01 4.357320461844471637e-01 3.773795693818760011e-01 4.968081744959421120e-01 1.073069547101630272e+00 5.054388659044789511e-01 9.633549665021154951e-01 5.034675359956052310e-01 4.329851642499087938e-01 1.108599611539298646e+00 6.035651101793783058e-01 6.543377482163218462e-01 4.917503199969697758e-01 6.765100427745404099e-01 -1.828500951164013566e+00 1.231811549947003481e+00 5.360430083391972689e-01 6.348910422610349880e-01 5.021654812874355445e-01 7.495114134511812187e-01 4.605515531734556411e-01 5.324441979979950279e-01 3.992285723091557048e-01 5.466251769819635564e-01 1.349741927538625985e+00 3.054327682470190375e-01 4.930689301549724401e-01 4.715053014029293998e-01 5.544605386060442731e-01 3.549007608750315290e-01 4.219072044442883085e-01 7.620499718210441698e-01 4.824022383110575518e-01 5.189818860005062096e-01 4.880458864805367614e-01 6.357958654506197238e-01 4.941088253979218914e-01 3.981243537819529887e-01 5.324433367826544306e-01 5.667129045897324469e-01 5.065625346826915232e-01 6.909167923017567325e-01 9.888338282423773107e-01 7.908687467738028110e-01 5.267324106978084064e-01 4.773637706438015327e-01 7.256699713271426155e-01 2.157617802358889614e-02 6.855400259949253616e-01 6.042399008457229881e-01 6.975807444663552348e-02 5.002375625160465633e-01 9.471420472074182362e-01 5.601125776389297428e-01 3.891077792659911050e-01 2.282581006603961182e-01 -1.964709186126886442e-01 -1.533306529684067998e+00 4.854127911359104042e-01 5.544605386067289476e-01 5.544605386057896990e-01 5.116702481469060926e-01 3.372032704709394535e-01 7.487350545723150952e-02 4.914254243922318577e-01 4.953831693629800470e-01 4.913145521964839557e-01 4.984299234694508640e-01 1.155045637760994781e+00 4.930673047259432895e-01 4.971743717533722018e-01 4.995971114948297154e-01 3.744735585571637992e-01 4.897267620080738015e-01 6.239136003320867596e-01 3.767081184729214605e-01 6.891121018640993245e-01 4.820737474452954641e-01 3.221018238248683080e-02 5.544605386075576181e-01 5.640249051945602776e-01 5.022393819351744781e-01 6.320574019967288848e-01 6.998136722236604212e-01 7.445150740756443231e-01 5.476959784674331200e-01 9.105869013689559255e-01 5.497647061104914412e-01 -1.200292865574277723e+00 4.995067508344078755e-01 1.163774431240487406e+00 4.820360901712092971e-01 -3.875243088136639535e-01 4.828779958034354336e-01 4.600316279262728347e-01 9.339417274725851925e-01 4.953778676171081141e-01 7.126220746792388816e-01 4.771284140031152310e-01 9.496190516158542483e-01 5.295257551563847809e-01 6.522666823285098170e-01 4.811577385309284693e-01 5.257415869937508424e-01 6.717129766476526154e-01 4.910611724008220325e-01 8.224117087997351305e-01 2.000366106064626337e-01 4.138253504279826300e-01 4.928277023395842837e-01 6.451578519962798408e-01 5.036727033330541392e-01 7.103695363821895814e-01 4.915528849328442140e-01 6.220729184219025987e-01 4.787793841346709156e-01 4.866423544280168989e-01 1.605937116321857205e-01 1.068085966075079246e-01 1.488488661034584604e-01 7.942914424803501072e-01 5.012030207612483412e-01 2.299836978218619432e+00 5.593189536113157834e-01 6.904920070566690216e-01 5.719357843918579931e-01 7.273751153001646319e-01 4.047287740869418005e-02 4.960313316296907082e-01 4.713497155012492112e-01 5.680741076176228921e-01 9.917590294940017426e-01 7.094161443909882125e-01 4.902804758207887081e-01 4.702199493205702630e-01 7.694431715992493537e-01 5.534670819459359681e-01 4.911837921470678103e-01 4.825999144114926920e-01 5.007303472006137124e-01 4.924353444227993482e-01 7.182128985591115233e-01 5.451836587660162659e-01 4.918140605640410334e-01 8.120846541501162974e-02 5.041995357509192477e-01 4.838113637453583110e-02 5.194347749929374425e-01 4.782009532449835176e-01 5.153598376146959481e-01 6.566030583462941772e-01 5.297507907557362783e-01 4.628997956647319389e-01 3.557038585868215197e-01 4.965667105787344715e-01 5.236786684273996295e-01 4.704198540082070723e-01 5.855223920307817131e-02 4.642938778792570220e-01 3.879473356064313538e-01 5.069359927289511791e-01 4.771323115874006593e-01 3.801518860914986919e-01 4.209133912469985028e-01 4.988428771496341008e-01 4.283741293411613693e-01 3.929342948961573878e-01 6.038415521295793509e-01 8.344206475478049834e-01 6.277189195688068768e-01 4.608838993442111454e-01 5.732835708537076247e-01 1.452513767684734614e+00 4.900638453711296805e-01 4.678400359299720868e-01 6.463508648059784756e-01 5.231064867845324207e-01 2.102202499904894106e-01 4.402910628498634682e-01 -3.195239192826236363e-01 3.484944432424350036e-01 5.233699883738640590e-01 4.898992429133224302e-01 5.795658369555523048e-01 -6.539250911445200487e-02 4.331906443127128692e-01 4.734610445691767588e-01 6.401900961382114286e-01 5.535511851434681274e-01 5.476726286742024108e-01 4.899773519949955358e-01 4.727946892668719037e-01 -3.329185700863909053e-02 4.825760516213563056e-01 7.918010080524584549e-01 4.381448437713433286e-01 7.056029071925665197e-02 4.469860034057704934e-01 6.868892819079966960e-01 4.832402010014841265e-01 3.752741472062595673e-01 9.197261106898496630e-01 8.477040814628126197e-01 4.940423169722741870e-01 4.180943212646792140e-01 3.096473487528087487e-01 4.983174214691362125e-01 3.440216013266474970e-01 6.906340149222364166e-01 3.594672160066628153e-02 5.471791996830052129e-01 3.877532545517332618e-01 6.707775072381132464e-01 6.290843636398715244e-01 7.256868095352776438e-01 1.847106692539587924e-01 -2.805262963934128037e-02 -5.842209776118190839e-02 4.743249454723068581e-01 5.394549645520747561e-01 5.520099114751981784e-01 4.664321190771508752e-01 -3.711623724831405458e-01 2.272310631041704276e+00 5.716107959030998220e-01 5.080628417864856416e-01 1.049556985151818722e+00 4.978018736994073712e-01 4.635619104498928666e-01 4.809149567236269407e-01 5.929298317774284177e-01 5.339737689218475580e-01 5.010547386738749553e-01 4.212506296092785041e-01 4.137977095541572337e-01 5.012986257392985090e-01 5.257502508287429377e-01 4.179654354946579220e-01 5.786760400096959689e-01 5.429601562231602951e-01 5.705645844688624901e-01 6.694721757606271195e-01 1.754237921682537449e+00 5.533743171834617502e-01 4.984375496584336762e-01 5.414415269606713821e-01 3.887170581421738325e-01 4.894999145192863166e-01 4.778188719887386249e-01 4.970564330069451864e-01 4.610296168884552848e-01 5.112210982769856971e-01 3.811989610382582327e-01 5.020296874194144499e-01 4.839984159204515635e-01 6.206255058670784308e-01 1.028220725642267075e+00 9.682719661870069494e-01 2.980488960458666514e-01 7.249323318262103077e-01 5.015630706656025728e-01 4.190411735188157571e-01 1.659448197006507142e+00 2.272622378671851906e-01 3.768433159544216093e-01 4.864538842331949664e-01 2.956647248812022122e-02 5.536823497794124416e-01 1.175898742753028747e+00 4.330556863170232362e-01 8.104364521071067973e-01 4.937437948808089394e-01 4.746064064097519908e-01 5.262749515779125975e-01 5.484715920958791457e-01 4.867662402798839660e-01 4.916324432555886914e-01 4.759692073452452266e-01 5.117640296966591285e-01 5.501347686070590104e-01 5.156489073954531044e-01 4.137805806304611922e-01 5.189740571473712150e-01 4.339337609703089460e-01 7.248420935299590973e-01 5.109505071874851367e-01 4.423935101080864185e-01 6.941094543645962567e-01 -1.207044705476162105e-01 4.892738669511371707e-01 5.653164127451919541e-01 6.161639906467600847e-01 5.586302719774167702e-01 5.014760487976009928e-01 1.281351145645732992e-01 -9.473381710028259128e-01 4.079185104824242236e-01 4.529611715172606190e-01 6.731580560535985747e-01 4.890908420787132838e-01 4.794215820759674673e-01 5.519120562393515783e-01 -6.459366584349388041e-02 7.732569781987485014e-01 5.867391382684391532e-01 6.448544930328797831e-01 4.806925960394152209e-01 -1.157217539484442226e-01 -1.485585418146871395e-01 1.009707240346698898e+00 4.894252528781513623e-01 5.247791514180468742e-01 5.003543561613211788e-01 4.450268075902004128e-01 4.675412578487198600e-01 5.029480027545238929e-01 7.646302184261790647e-01 4.962162951438722214e-01 5.179231207640092594e-01 4.719173517119469863e-01 6.136133292992836941e-01 5.081532521650617973e-01 5.409200322660517868e-01 4.727980439002406610e-01 6.311554236003178442e-01 8.155542794063126433e-01 5.385855072009605449e-01 5.165434708181005918e-01 4.939483194228440621e-01 4.016838923186682453e-01 4.699167092936984980e-01 2.471574016225014034e-02 5.324443328296574185e-01 2.543155682740651513e-01 4.923415110694482344e-01 4.607019179924275454e-01 1.126338372924000852e+00 4.403430999793714329e-01 1.890973644266541742e-01 5.532688958973274174e-01 5.079517650395972694e-01 4.608397834599186060e-01 5.440954536800272079e-01 6.018357678669756794e-01 4.811057130338879384e-01 5.076997365364197545e-01 8.903248696363642578e-01 -3.306999394059249586e-01 1.359955673612067928e+00 8.538248873912321901e-01 7.398277622829050326e-01 1.980707365886975602e-01 3.714981120231128364e-01 7.505362093035756743e-01 1.776705774599414145e-01 4.900292758377329250e-01 4.975535465911817834e-01 2.444064893043929390e-02 5.402397105191445448e-01 3.799774338371189053e-01 4.880877733314190614e-01 9.274911867153530221e-01 5.026740596702419239e-01 2.955902202013119817e-01 3.092361307661976588e-01 4.737255611834468860e-01 6.115504090726513464e-01 4.863199530344738952e-01 4.600975511164638876e-01 5.236848324799935339e-01 -4.693827961514221991e-01 4.328751921285866056e-01 5.565385166336394018e-01 5.173752382441428876e-01 5.015774517629831841e-01 7.305937199668905979e-01 7.514529925067696681e-01 -2.690115236326324211e-01 1.000309045859796520e+00 7.495112858945650602e-01 4.471138819129615305e-01 4.651553705353863588e-01 8.962491161973215048e-01 5.221149795991707476e-01 5.005890142697331235e-01 4.520560004710287849e-01 8.561979477004245664e-01 4.871155669719552384e-01 4.715040799414973449e-01 1.135028663446666197e+00 5.082571956775397415e-02 6.652575388546141388e-01 -2.461388066039680786e-03 -4.750154935978380677e-01 -1.477169040357656504e-01 6.639436913451822742e-01 5.144143380228753948e-01 4.250254074913900060e-01 -2.705852501758650441e-01 4.789992687192166643e-01 7.003049317777858274e-02 6.372123747799297577e-01 5.238860340630580037e-01 5.064019447773780991e-01 4.931713290810992856e-01 5.067370036957656865e-01 6.069091911952344542e-01 7.475271179675631039e-01 1.899187714437588215e-01 5.349967548105376558e-01 5.634542762693068862e-01 5.344463286138414482e-01 9.776551573038955167e-01 3.878681788884852377e-01 7.061111543451867867e-01 5.019004128961065403e-01 5.035837774929313726e-02 7.110305547114010860e-01 5.005660149784622037e-01 4.906418084683055181e-01 4.978897674951393570e-01 4.988854307396654586e-01 3.807966892294540884e-01 5.158928111030762764e-01 5.206114995082731234e-01 6.531427928597747234e-01 5.664538733662025649e-01 7.579062239465892414e-01 1.819432173278365816e+00 -7.549232765552814362e-02 4.973838619435139718e-01 5.014712682118676046e-01 4.754759238358948759e-01 6.964230779219852119e-01 4.641405583930085510e-01 -5.474188679647028488e-01 4.812202368228006288e-01 1.895535303263641502e+00 4.831940705693528182e-01 3.554461751903159605e-01 4.062265803365701644e-01 5.867412564956974164e-01 6.852475609692978420e-01 1.033408406184174622e+00 4.381459341178732259e-01 2.347370595256290451e-02 5.393521950790567399e-01 8.250856407207398657e-01 3.272479387478991475e-01 6.558394316408516778e-01 4.937232082021326685e-01 7.236802337590846346e-01 4.579387766278619210e-01 3.797991037191558172e-01 -1.434626529234553360e-03 4.828136480091362870e-01 4.878052057420417809e-01 -3.129789239047898186e-01 6.540153077569899054e-01 9.773789001625131645e-01 2.686685769612510155e-01 5.150896943519646110e-01 9.308235651474114913e-01 4.739498161919116215e-01 1.635691951461247573e+00 3.553183943500076158e-01 3.767293727025142897e-02 3.993040489234225277e-01 4.958428094293209631e-01 2.786107652851933514e-01 4.896605263732061175e-01 1.444769219341606251e-02 4.881540016284979244e-01 -6.731760230827489588e-02 4.827071923396781261e-01 4.961824026538141919e-01 8.953991095901384090e-02 3.832689610557922510e-02 6.036532023290887006e-01 6.037447382769649540e-01 4.799298768843403562e-01 5.247451710540931291e-01 7.443517688760105111e-01 4.747947407117853458e-01 5.126503581749062288e-01 3.740344417941550148e-01 4.722174896542782330e-01 3.325759009279933842e-01 9.293648977626625118e-01 2.259399042908096344e+00 4.928750159322092261e-01 5.104637319060550960e-01 4.854519636699257124e-01 6.174509710680246843e-02 5.031025503038516478e-01 5.070224094224837774e-01 4.860416441985787039e-01 1.246494917911747047e+00 5.980310479038863924e-01 -2.964258784997915730e-01 1.108686782077785843e-01 4.342576035420455116e-01 5.700402739865265689e-01 4.929416578492604728e-01 5.084306414718743339e-01 4.194535269753725537e-02 4.899606438672718389e-01 4.882103003087137072e-01 -1.177270728162085778e+00 4.809269888541156113e-01 5.304751336017978769e-01 9.192457194773896445e-01 5.997000946452049064e-01 6.059002823251663505e-01 7.892154753195460559e-01 -4.212058091367196777e-01 -3.943885939938459040e-01 -2.152456415855329500e-02 5.531296346033803824e-01 4.211860815734312369e-01 1.167878815002393100e+00 4.942885655328833061e-01 -7.115526556215957810e-02 9.149046232675615009e-01 5.017200789168158037e-01 6.390325991277914230e-01 4.334274712621041803e-01 5.394248585549118458e-01 3.348347490464872456e-01 -2.597823903211428087e-01 4.039490992008310521e-01 5.298906838920848239e-01 2.995390581114330542e-01 4.807144413333188648e-01 3.549513578117147183e-01 4.912055772084228944e-01 4.786044003180428552e-01 4.770828380648634015e-01 5.722681858512700392e-01 5.340678328791492735e-01 7.495114578192849653e-01 3.753386661352304809e-01 4.954502749843601173e-01 1.393227176338934226e-01 5.398534975037059258e-01 5.173537941622726732e-01 4.985322167597953658e-01 2.990570625130469784e-01 2.152871519781604792e-01 6.682550222066633294e-01 3.665414690334369285e-01 3.563947978803009287e-01 4.812337679952852221e-01 4.803568887220964756e-01 3.916458201309829246e-01 4.946904092817202558e-01 4.883759828357482902e-01 1.000141537190562424e+00 7.139014290198327783e-01 -2.292470337722222751e-01 3.287669937421474620e-01 6.762702708093214499e-01 5.512613827945169742e-01 2.979018988397891254e-01 5.202839396666650851e-01 1.529419107975363845e-01 -1.668783605390245645e-02 8.417038487054171458e-01 4.119735971057025825e-01 5.656003632979405005e-01 7.304954932470073548e-01 4.868780195437927283e-01 5.242291640293659238e-01 1.180151428969810068e+00 3.816177350452542583e-01 5.496240989890459616e-01 4.604068557420731844e-01 2.536320420955080479e-01 1.039944887509569371e+00 3.275417267638711660e-01 3.949579056202998650e-01 3.510538913452905252e-01 -2.312071941313674217e-01 6.373466820373153707e-01 8.595417959505958772e-01 -6.098332192441225930e-01 4.934091059304748783e-01 5.129904790069109710e-01 -5.248606643276598066e-02 5.127464902603149355e-01 6.728335010325871002e-01 5.520567235972834164e-01 5.127178000739511798e-01 3.393209077935547824e-01 3.634273888420732068e-01 4.828499066949238916e-01 5.366594774333993678e-01 4.978344720036788074e-01 1.246792384101004653e-01 1.145630723213926672e+00 4.848588473123503495e-01 9.520624448153908181e-01 6.398401230090746683e-01 -3.197199694264154513e-01 6.954386620274031205e-01 4.871404511009230220e-01 3.187681715589556486e-01 5.641320312578484986e-02 2.918217078114892504e-01 4.868471249823743130e-01 4.943498942242207095e-01 3.188163175166503494e-01 7.538303795680326158e-02 4.840464645591264214e-01 5.094621469967872684e-01 5.159561614815469932e-01 1.660588392667170288e+00 9.123313114109775634e-01 3.317932331701847759e-01 4.920386100441457300e-01 1.376625311267683838e+00 3.130129687597479893e-01 4.760640146095170833e-01 9.222710461503191848e-01 5.324443999099397473e-01 5.034989011440036411e-01 5.166455579805664389e-01 5.394610645749809974e-01 4.801416006810588222e-01 4.970224337110252799e-01 5.060687875405023295e-01 8.036524611340280233e-02 5.083800129437625603e-01 6.379225414187543741e-01 4.405032280394859945e-01 4.717513933498457268e-01 4.994868422009289266e-01 6.144241326873892128e-02 3.203877127960160776e-01 -3.862589208369640592e-01 -1.611810558378414249e-01 4.983319391798403108e-01 4.817359054351080250e-01 6.058784533595192867e-01 5.183567315021194721e-01 4.318101851424716586e-01 4.880594000351993755e-01 5.324440783180759418e-01 4.921598011143590301e-01 5.362110340393708707e-01 4.130668507071771911e-01 5.032902159811719622e-01 1.081837152450056072e+00 4.697176750009751656e-01 4.822242030257407608e-01 1.260891143160469685e-01 4.976063647313979099e-01 5.053988987235054076e-01 5.184700561761697024e-01 8.614970594743366350e-01 5.288849939873863093e-01 8.462004730583181367e-01 7.765460451108503470e-01 4.670663510455957956e-01 4.295528275596675050e-01 2.729923251079422464e-01 7.057955064999975603e-01 1.423625414388810295e+00 5.303328823024350269e-01 2.576972405585593040e-01 4.909717258798101391e-01 5.106924483907127055e-01 9.804960840589890259e-01 3.979410090131621502e-01 8.036984302592059537e-01 5.048225155899090932e-01
7.720143599127130551e-01 3.324521338077535138e-01 7.185422309584683642e-01 3.170525757728526739e-01 3.259341199379633958e-01 2.522539072535342486e-01 2.867731663401322795e-01 4.975683232440709092e-01 2.723846687785446141e-01 3.291010131207109390e-01 1.535729309243049512e+00 1.346579805424463316e+00 -8.069675628463496286e-01 3.151593953957038674e-01 1.166547164389405700e-01 4.259379096228525508e-01 2.669800461960593063e-01 3.473252727324294131e-01 2.477024258460339690e-01 3.299490747603808782e-01 5.284702284297377872e-01 1.466105714926856152e+00 4.827536054860205317e-01 3.281799188390989164e-01 1.642682383386963041e-01 -6.191358788244814004e-01 4.663981780572200586e-01 3.821980483683682928e-01 2.817253277899113839e-01 -2.917600791269293892e-02 2.721107106650877405e-01 3.042268970163220509e-01 3.355125529487336111e-01 3.422274459442110617e-01 -9.674109846056416773e-02 3.885849151437082982e-01 1.602340309230595450e-01 2.640582744498929380e-01 -2.070556720440404952e+00 3.436444037744710855e-01 -1.552535165523617061e-02 1.303764939245640464e-01 -3.210232037011312434e-02 6.704703422850998296e-01 9.097118772442491785e-01 3.036710198900245961e-01 3.088689685143415353e-01 3.203832305466009500e-01 3.437054239126873245e-01 7.549601272059585089e-01 7.658548048524240759e-01 5.457059692179769828e-01 -7.315215908137990830e-01 2.759462705658799475e-01 3.373340947867886075e-01 8.297338465179500133e-01 3.462358073743841413e-01 1.642025079396717824e-01 3.900840711736736632e-01 3.203102035242847978e-01 3.617749594957509474e-01 3.166324147867173311e-01 3.296263490285886166e-01 4.827552063237769420e-01 3.561218861967712646e-01 3.074485600995016665e-01 3.122432347027390143e-01 2.643252444344862950e-01 2.265787972612274825e-01 7.762194789249134974e-01 5.212349992194242887e-01 3.112759308086065491e-01 3.130553162527396349e-01 7.427992857173603136e-01 1.415440162985221129e+00 3.506706015183494451e-01 3.719510093930740169e-01 3.363178975081470568e-01 3.651106596381447633e-01 -8.545248177987719851e-01 2.824701113786819984e-01 9.173217684290598806e-01 9.477701651635924707e-01 2.880907353449042030e-01 3.740731756244859429e-01 -6.999704652284053363e-01 -5.150080845871526924e-02 3.110510113834821233e-01 -3.460643350958846343e-01 -3.526390875162689897e-01 9.082046445505156385e-01 9.512549637057824414e-01 2.846021813839588743e-01 6.851916264578841176e-01 4.969794928836281933e-01 2.595789912042631986e-01 1.557975197460734762e-01 1.842840664404857831e-01 7.686803402229271942e-01 -6.150854138346930622e-01 1.403977582535930468e-01 3.297740311151363124e-01 3.370438424019890356e-01 3.096971920776787068e-01 2.811167140530587139e-01 1.948482065958275555e+00 -1.240718298584528589e-01 -6.388240149906568854e-01 3.163365855021535444e-01 6.352886899408770605e-01 4.413985343593259669e-01 3.023947965604212307e-01 3.981593570668799931e-01 3.104307108185279107e-01 -5.551237636498679295e-01 3.406418580309532596e-01 3.718844756589981260e-01 4.834761989603679200e-01 -3.010768160362216062e-01 2.452620946244079836e-01 -9.913036027298833819e-01 2.993493420077174005e-01 1.992129811201252820e-01 3.020751232670922104e-02 3.492842217068068411e-01 1.512451700250422526e+00 5.338533533727445324e-01 3.729702375332311082e-01 2.789783063075878533e-01 3.411506792891179640e-01 3.303173826534651636e-01 3.096133299319837606e-01 2.429509888946251861e-01 1.942684586006933611e-01 4.303595241076068056e-01 9.130250870575051803e-01 8.541712391833479467e-02 8.218895947939779401e-01 -1.991118520599080566e-01 3.743683888751163646e-01 3.534268221229390217e-01 3.234150844870724018e-01 4.338017340441118197e-01 3.366534917566009755e-01 3.345897744196295598e-01 7.721730458004145703e-01 6.797353427324364095e-01 4.163232702563909315e-01 1.712537950552781574e-01 3.242505752556700260e-01 -5.611340433880991352e-01 1.084469621484321911e-01 3.038781809155675084e-01 2.834157763458192147e-01 4.153972207248400883e-01 2.526744105881920111e-01 6.394556953255166321e-02 2.811535663495598469e-01 -4.390875636888936784e-01 -6.228948265318901001e-01 3.179707849567300348e-01 1.796344222858896680e-02 3.018365617826823111e-01 3.347767381753720128e-01 -2.489250020153594214e-03 -1.224662134166677463e-01 3.152157837158284237e-01 4.919332277881750537e-01 2.656043838929479928e-01 4.279942918491786985e-01 7.203800802065229991e-01 3.149024761433725228e-01 3.033812377096762325e-01 3.123846959225821118e-01 -1.737916457838652340e+00 7.788495691405886712e-01 8.429529698693799533e-01 9.552984756100832975e-01 -2.732267768382357076e-01 9.858475289120612883e-01 3.258153848613319359e-01 3.244111370808802630e-01 9.194403626938160157e-01 2.211784651334793295e-01 4.663928076862202676e-01 2.237894776858887769e-01 2.896711645621184439e-01 3.082007857932749229e-01 -5.967213307139559997e-02 1.598731743886502576e-01 2.274385219641990863e-01 5.388964163824924158e-01 3.595238978367218952e-01 1.748874822162181097e-01 3.651877086582788062e-02 2.841971911145773633e-01 -7.532441806927315797e-01 3.276458217547441043e-01 4.141745352410191039e-01 2.936226562966373632e-01 3.658979410355287509e-01 3.787378374731036335e-01 1.766662918483095646e-01 5.030675407154565348e-02 -9.273769794195393379e-01 4.141802180934435196e-01 3.640560869038402259e-01 -3.023333332552680108e-01 3.358592050039826415e-01 1.282660554859750557e-01 5.836535690201640758e-01 -2.067583363615293379e+00 3.157995949492994892e-01 7.026765323626591453e-01 3.214882049654432805e-01 2.957657658636534959e-01 3.454917329301701034e-01 3.185137677434378700e-01 3.330079929535635364e-01 3.480623466860415238e-01 3.308358816115458678e-01 2.637349537987950243e-01 4.927747803395479131e-01 8.310097834530150163e-02 2.097335825044654156e-01 4.573786640759759936e-01 7.684638489748026047e-02 3.963051431017197146e-01 1.351204133205607727e+00 -4.471659977275468240e-02 9.951651376998031928e-01 -1.100320132862457001e+00 3.074292775263629540e-01 3.741479755107231520e-01 2.607702532233235893e-01 2.048028196390680178e-01 -1.279972622219719414e-01 4.096250199938716863e-01 2.012275132050947712e-01 4.969690496598441753e-01 3.964373395602255323e-01 3.362109131057637312e-01 -8.050740397856143149e-01 3.824712430806802566e-01 3.079494865256063307e-01 5.470621165139095271e-02 1.030928178177779264e+00 2.981683581534894656e-01 1.753455352767062214e+00 1.357487800669936462e-01 1.723007129145877891e-01 2.962053516515876228e-01 3.457892475775576346e-01 4.827562776700973224e-01 3.613315457783974893e-01 2.919414735754338186e-01 -7.553397624230710761e-02 4.576950496431203552e-01 2.591550225265417673e-01 5.096197838483984555e-01 3.411188334367514785e-01 2.975041836883105528e-01 3.078801700578986944e-01 2.833828640155680589e-01 3.622547370372140585e-01 2.207318988312120811e-02 1.928281981313820337e+00 3.352951557763477752e-01 6.700291354263092636e-01 8.852242431827467284e-02 3.300134607388063301e-01 3.270347368156643064e-01 3.489229969103625484e-01 2.973923792885992401e-01 3.305616876944458271e-01 3.332726640355995196e-01 1.186981790987117757e-01 2.796614875199915917e-01 -5.900356428401042769e-02 9.780857562223178869e-02 1.127850385123006172e+00 2.536229333002862907e-01 -2.917581498283591118e-02 1.636176071136517862e+00 3.223596898217516715e-01 7.110306614276415971e-01 3.297997265540140721e-01 3.267405789646669056e-01 3.406445301318384855e-01 -1.479472686520822311e+00 2.951623462608415904e-01 2.283738327828785664e-01 2.914089098393549682e-01 -5.213146067267535599e-01 8.002054948604198081e-01 3.406036491727498228e-01 -4.465528399078640964e-01 2.849537476146329351e-01 3.445024693249155723e-01 1.728330793106117869e-01 -1.474380743386737302e-01 2.856261318706598273e-01 -5.330511250002221979e-02 3.097849639437945668e-01 2.886148228963092977e-01 6.556643007246628629e-01 3.487754411159871837e-01 3.643809720004342889e-01 3.716259172494519314e-01 2.559516454393971907e-01 2.071016235565432129e-01 -5.044793695448935855e-01 1.039793231200115686e-01 3.529738987910160941e-01 3.474697994833929604e-01 3.248212321489064580e-01 3.290958453568906816e-01 3.145480641307267788e-01 3.500816836900679796e-01 1.698725541607795986e+00 7.553601458871936902e-01 2.415362413928125451e-01 -6.463560084830907160e-01 3.102790263704425233e-01 2.751535000230752814e+00 3.931937356369187286e-01 2.562389237353998594e-02 5.100487032829635892e-01 -3.527613501166418253e+00 3.542588257906212901e-01 9.873173743410933456e-01 3.293766873968334563e-01 5.210844662876200628e-01 -2.901194455748641876e-01 2.249861451033676740e-01 2.357745383444382059e-01 3.281873051032514477e-01 3.797646919791679565e-01 1.747053602012301088e+00 -1.822268276144395627e-01 3.106018142436065554e-01 -1.508259676949888606e+00 3.444226390557428852e-01 2.640582750634801190e-01 4.420429828419839002e-01 2.497534284570472329e-01 3.247848496690786124e-01 3.891414369616565949e-01 1.330543618578011511e+00 4.218741296541764774e-01 4.141701566530477940e-01 3.824423885043942706e-01 5.030675407154465428e-02 1.895467988192313380e-01 4.207277462905134602e-01 -4.048706802182682751e-01 3.597576438435053370e-01 4.148654514982323960e-01 4.768489860720573903e-01 1.892028289212886738e-01 3.318914856423840209e-01 2.997687047244589342e-01 2.497541933726522279e-01 3.317386180292051234e-01 3.355838908714308122e-01 3.104280247723679165e-01 7.546943681552203964e-01 1.531193047410453367e+00 2.964034746412094745e-01 2.121812425315582340e-01 3.667346384593733744e-01 9.122370316668191315e-01 3.448055210876973531e-01 2.327509451928268247e-01 7.618455437327079638e-01 4.001059849152324155e-01 2.245190633936833546e-01 2.027235402738989667e-01 5.831237592899286559e-01 9.046047649276637292e-01 5.562514221441826612e-01 6.687089911295652778e-01 3.278250325259685627e-01 5.030675406945908645e-02 5.030675403584975586e-02 2.886812184023033190e-01 1.975982554237285249e-01 1.080748758332550796e+00 -7.239426193337694659e-02 3.303239900553146535e-01 2.889122882193485009e-01 3.226028193222580942e-01 9.120993594544946070e-01 4.141823276784997732e-01 3.118391179119660017e-01 3.320794210717396000e-01 -4.892513549591757244e-02 -4.279093537020760563e-01 1.700006701273210075e-01 2.775008818492403218e-01 1.363483954463586001e-01 3.234033222124652052e-01 7.668394578221118252e-01 5.030675406525673271e-02 -4.141653665186378341e-01 3.410464830752864551e-01 1.810610861723302989e-01 -3.878889619308121262e-01 1.334492898137836503e-01 -2.253477645460276069e+00 8.281507269169251506e-01 3.289567896469536290e-01 -5.695765527247811238e-02 3.136273318668353904e-01 1.416886413630650043e+00 3.338175008015386025e-01 4.554852323928125779e-01 7.338431314546323136e-01 2.405703997712213271e-01 1.645028419564210920e-01 3.467283966432480602e-01 7.814634501354766893e-01 3.584573331804012386e-01 1.431738781017978468e+00 2.691890927074798712e-01 4.006542732662578543e-01 3.586837766317914067e-01 2.893706348940446316e-01 -1.028716747899037109e+00 3.292132255142384278e-01 1.177515061215229364e-01 3.711923020863620581e-01 4.046745883992907689e-01 3.475129721190477472e-01 3.171641284377373915e-01 3.153190717867317416e-01 -1.195087392858353859e-01 3.265332150178896775e-01 8.328386735964680987e-02 2.688261763350520139e-01 3.827561528626823861e-01 5.864076145429867326e-01 7.380076476759058757e-01 8.495308010129599685e-01 -7.368749567990142690e-01 3.992514711161205820e-01 2.002352269625298775e-02 -4.022476104490694815e-01 1.472641162375299961e-01 3.240469181099617235e-01 3.085072163943755608e-01 7.590066897706941873e-01 3.385576026894314694e-01 3.323296234297036245e-01 2.575909017817938906e-01 1.390412299624024239e-01 -1.182842278726846802e-01 3.327795834124874785e-01 3.620466298938291860e-01 3.791449487026399834e-01 2.848836559457535444e-01 1.937909902162942288e-01 3.311170075104096777e-01 1.831529668998291560e-01 3.349831777181209724e-01 3.355154354707899911e-01 2.942908339992604261e-01 3.409719336655266941e-01 7.499503522219026497e-01 2.983517602956153869e-01 7.700417476235593695e-01 -4.696206779443710261e-02 3.312535129838619641e-01 3.098097861148407794e-01 -1.049520096305633032e+00 2.878624224686332500e-01 4.014455758317846956e-01 4.779078536426775714e-01 3.453107290444780153e-01 2.588086943414566465e-01 3.913166277727464504e-01 7.781461788608914354e-01 3.779475412992234773e-01 4.536402392594301447e-01 3.204480573919485376e-01 4.037711508121041293e-01 2.874420388273896676e-01 1.840928271198452593e-01 3.429844968321911214e-01 -5.266499249605636340e-02 4.738313898877796193e-01 2.865162429226472685e-01 1.061218925912312594e+00 2.949835005659375287e-01 4.393520815578481065e-01 2.612243012668131192e-01 -4.399894992549036599e-01 3.334158194568457856e-01 4.274984702932720371e-01 4.374165695353736116e-01 2.910340972930975378e-01 5.262430629666763338e-01 -6.042519500723465831e-02 7.858863054787662561e-01 4.529182101743057243e-01 2.630972314407665213e-01 3.087546150841017911e-01 1.884956441310003672e-01 6.004499865641735878e-01 2.060026007133047621e+00 3.625598566860924188e-01 2.311307998215444137e-01 5.592960076146270554e-01 3.005308939588139383e-01 3.264507791427712635e-01 3.628041561074297205e-01 6.324140559454107802e-01 3.042686427023630347e-01 3.601248792711084917e-02 4.681990007799035625e-01 4.926609505661877497e-02 -1.359162994667741653e-01 1.249948405317568290e-01 3.219082588699441194e-01 3.226676719841267138e-01 1.322959908325664902e+00 4.557955730091477475e-01 3.449885413328873662e-01 5.517862987931706487e-01 2.515861909589723888e-01 3.122650150608700659e-01 3.132471244038953495e-01 2.095848922736766873e-01 7.561468228714833817e-01 3.074665753481575226e-01 4.003164711082405347e-01 1.627843796705130408e-01 2.683274693289658952e-01 1.517417646109498475e-01 4.915137929519278193e-01 8.935512997950583181e-01 3.630330764029118251e-01 2.928937622666948348e-01 2.934858526344282237e-01 4.059529090721334388e-01 3.060737828053647913e-01 5.110128139975149697e-01 5.855982486778028573e-01 2.826537827651585677e-01 3.035536537803424917e-01 5.020103773474616782e-01 3.307147659709547272e-01 3.035366526170407697e-01 3.522298331226247914e-01 2.503859973320496368e-01 5.773169829387323482e-01 3.108355781092572157e-01 4.750028261649298922e-01 3.776831637859593416e-01 3.030814600019491323e-01 2.887040599840540733e-01 1.051573362134566425e+00 1.050200065528762994e-01 2.998212428783206818e-01 2.649142005423932300e-01 6.077278393290390657e-01 8.892774836711831998e-01 3.947401961998274755e-01 1.480067047785433437e-02 -5.432497430436740438e-02 3.658582178054434753e-01 3.218149830992505511e-01 3.228832939645457367e-01 3.486096721705954637e-01 3.949196381999993122e-01 3.004148995843329284e-01 3.297493249849787755e-01 3.131708677983650602e-01 4.428622797999705596e-01 3.244435298691957237e-01 8.078559713020492250e-01 -3.967498569819707249e-02 6.253770094538747548e-01 3.679434501453273665e-01 3.310572549440295997e-01 -9.819377729708403738e-03 4.562067616583670993e-01 9.111577149426396405e-01 3.731747326973998136e-01 5.707719906919824782e-01 1.195829556402126626e+00 3.161968772030753771e-01 1.373668759275313178e+00 5.041764100080361466e-01 1.745502593022040805e-01 3.243079419876594982e-01 3.560131790540631003e-01 2.772957093081832025e-01 4.279764100735634624e-01 3.273931584710451093e-01 3.315404740556108232e-01 1.226072295501167975e-01 2.561391549517640365e-01 3.756475146608013183e-01 3.044285819065739029e-01 3.995435127469740277e-01 2.885844939407304910e-01 1.753347632390787336e-01 3.682158889965744808e-01 3.414424329928085755e-01 2.794844842417008035e-01 -7.096770193003547333e-02 1.389829710556347742e+00 3.312445672717799772e-01 2.265366559438206639e-01 3.100696180520352563e-01 1.675347125603298959e-01 3.362194691401858559e-01 -3.066213887049858755e+00 2.434951777754054802e+00 4.831767164188646713e-01 4.357467763852107545e-01 1.832027407618255221e-01 3.294412194046928422e-01 3.506160359143671301e-01 1.791737017099228613e+00 4.734833855053915408e-01 3.453111271330829846e-01 3.406399456621909683e-01 8.670890225281319141e-01 3.573475598772904438e-01 9.031259233014806709e-01 -3.115730932453993907e-01 -2.896256652178059721e-01 -5.251386040804008060e-01 3.964000447476099809e-01 3.390894803510441369e-01 3.759758898664274374e-01 4.423561636578412504e-01 3.175984425980452053e-01 1.498824789056823759e-01 3.361664315266227887e-01 3.030336807284326195e-01 3.110813694993712075e-01 1.870109080628863385e-01 3.051058298022980564e-01 2.786605953263021074e-01 3.420989517150452297e-01 3.934144178569314865e-01 9.891063308829227407e-02 2.994333174590498858e-01 3.037585266255158900e-01 3.302515461588700352e-01 3.919557985369341302e-01 3.827314795445695972e-01 7.700660879025743588e-01 2.497535128590358533e-01 4.890194254689413378e-01 3.354199152866458311e-01 3.744832566961138753e-01 1.925132284878741940e-01 -6.047535729992560560e-02 8.363444162473715471e-01 3.154743310964716607e-01 3.206970713119615679e-01 3.340827197634065326e-01 2.372977950475691489e-01 2.771603801624888397e-01 1.079247787611060383e-01 3.086217586835500182e-01 1.878046481920632449e-01 5.966052902796550317e-01 5.631052328767159887e-01 2.005392632790757579e-01 1.324765456939525299e+00 1.598284333130868817e-01 1.006793356711521981e-01 4.492865005081885243e-01 -3.996338816337959288e-01 3.309833542406692142e-01 2.765470371344310729e-01 7.282180242374743928e-01 2.815845480799791245e-01 4.004108335795030782e-01 3.634567760825085370e-01 2.215281187901606830e-01 3.127669711285820942e-01 6.816846998911592070e-01 4.172017192023718124e-01 3.566403134917930373e-01 2.751983051234249134e-01 3.325311689828712169e-01 3.701938360303044240e-01 3.153362931193335883e-01 3.376530905519281034e-01 -3.358102237476895957e-01 2.041393711712003178e-01 2.927606743302342829e-01 3.129146283884664537e-01 3.664435534375263259e-01 1.148556278645456619e+00 6.913778565949186827e-01 -6.770816437006037525e-01 2.640581739290131513e-01 3.286008452813837244e-01 -2.164172075538899787e+00 1.293246712232840823e+00 3.052558544401088314e-01 3.141971913152721840e-01 3.450312603536046518e-01 5.116242252905829346e-01 3.460257645046849184e-01 3.824637849341906426e-01 -3.015006634325508306e-01 8.030167725077723695e-01 4.931410130074649623e-02 9.376797007792625482e-01 1.554722527920896713e+00 -3.116363643901459146e-01 -1.032926325454679883e+00 3.114634253283232734e-01 6.251671567431866805e-01 9.676461784022937218e-01 3.580106378266607603e-01 7.647357990409785478e-01 8.571813491680169150e-02 2.970773708368746324e-01 3.106187272973709446e-01 3.238354471665306766e-01 2.815108858338154496e-01 -2.304142221608713320e-02 8.528443486120366179e-01 8.152464458297663530e-01 2.921760332944183802e-01 2.115701957557903634e-01 9.227204479040010399e-02 -2.690680710802053482e-03 4.317313372541180527e-01 1.692574981265326794e-01 3.244552430456691394e-01 7.676196739214954379e-01 7.832495083098104383e-01 3.275354063535139137e-01 3.436781009088350491e-01 3.507020696623650013e-01 3.276265815253456837e-01 2.310454321950487777e-02 3.041875276590756405e-01 2.743396695274076813e-01 4.728918986820741521e-01 2.104857807884412124e-01 4.816402609246948630e-01 8.063697059186237803e-01 9.356162866482240492e-01 2.922845831175245324e-01 3.382514159545548793e-01 3.285804029420130723e-01 -5.017556944221175652e-02 1.682249739107791187e-01 -9.396433454067726343e-01 3.289633045200332506e-01 5.440727351675789247e-01 3.651377101630997046e-01 4.463790169745109893e-01 1.010781975069499961e+00 3.406394367266769585e-01 1.714493255262387605e-01 3.321204603688652779e-01 1.654907462465493584e-01 7.888052635144364721e-01 4.542479459846145984e-01 2.274281159169315447e-02 5.080537524155072093e-01 1.913629709070428231e-01 3.328344518311799893e-01 3.680262451796943446e-01 4.150501012073533613e-01 1.115474377795391270e-01 2.113607848461075966e-01 2.907678344107629820e-01 3.341110277555275898e-01 7.842839398182405164e-01 1.324452728287968950e-01 -1.065491578119705379e-01 6.973440528469015964e-01 3.209307673689080209e-01 2.762218442076701530e-01 3.620663890122111650e-01 1.038214818546417950e+00 3.833604140686151796e-02 7.596126081226874938e-01 2.862195462561378245e-01 3.303199263552390463e-01 5.038894988879524250e-01 3.553480391353319723e-01 8.109617995254334577e-01 3.286170152115166498e-01 9.634835799192869032e-01 3.843625852990610881e-01 3.242485262248634981e-01 7.079788373502389209e-01 -8.607449852734445211e-04 -1.499192163921575061e+00 1.931688574417693149e-01 3.472026656434261116e-01 2.917065806534450134e-01 7.389857725979503966e-01 3.513174857963916042e-01 2.881574729299414273e-01 4.745202705993685210e-01 3.530823113955169346e-01 4.521038735107842932e-01 -1.297895242523036563e+00 6.092184044534175724e-01 3.132539776311499269e-01 2.991062373971477562e-01 3.415156354524364057e-01 6.874738275320299019e-01 3.203596545198967860e-01 3.171183825867079364e-01 3.434296343237008275e-01 9.557310580086539886e-01 3.122546864583302106e-01 3.990780245451523989e-01 1.072748248202558541e+00 3.655746194242601166e-01 1.484776043191776695e+00 3.386013766676011505e-01 3.053310366099162843e-01 7.687716545040340632e-01 3.338257498678128266e-01 4.030918368152303644e-01 -6.687268029135543523e-01 3.796186483449792703e-01 2.989377028598061425e-01 4.421574198128032651e-01 1.717252343442737250e-01 4.907267417909284002e-01 -6.289568494199003768e-01 1.445541052772823187e+00 -3.989666112525950825e-01 4.622993283661562258e-01 2.332280833334741676e-01 3.920181495419736151e-01 4.048049238586640119e-01 3.639015669222072646e-01 8.906780846630346637e-01 -7.077017964097576108e-02 3.054903651127161557e-01 -5.233712004112397453e-01 4.928245458122094691e-01 2.857048202948271887e-01 -1.657710438660870533e+00 1.903071225287309876e+00 4.297577393812043733e-01 2.950723820835721156e-01 -7.248520546363714789e-01 3.108805877458072908e-01 4.011568714997207352e-02 3.341036780740809231e-01 3.573056527670809834e-01 5.545157326495887551e-01 2.316004567478562315e-01 2.819888374824606192e-01 2.640583183360254993e-01 5.487086833046852519e-01 3.212585715955794674e-01 -8.191269832873689927e-01 2.906518908163558956e-01 -4.423444478572592931e-01 3.378858923982592244e-01 -5.746211398284760408e-02 2.845763302635292424e-01 2.844786320483963515e-01 4.660975265676372548e-01 4.980536016341828298e-01 3.470832433860372435e-01 3.695825093451138299e-01 4.391517908125553427e-01 3.334175779447880461e-01 3.349168561101868447e-01 -6.771830291575067218e-01 1.335355868923610301e-01 1.224768431409777536e+00 2.230224695409192305e-03 2.808265448981796530e-01 2.699219061725519064e-01 1.191934390841254521e+00 2.878443150833661091e-01 2.478181411749177110e-01 9.087756381200351452e-01 1.615483940103830118e-01 1.127082472493899923e+00 3.128899109212404106e-01 4.051614527118976294e-01 3.459435251044616910e-01 2.835806466916669932e-01 1.165708515986459082e+00 4.670813177643645675e-01 2.061048802190567630e-01 3.793674053216234965e-01 4.143733718671706034e-01 9.769366602057982796e-02 -3.153679056638012401e-01 4.092581790242690865e-01 6.727199880731374870e-01 1.842211085425780603e-01 4.199202652241176836e-01 7.614047034129174663e-02 1.228070832112485800e+00 2.960969515824081744e-01 3.005183228824147013e-01 -1.607026106453176117e+00 2.983254296883618428e-01 3.076759027796980850e-01 2.877557835683323684e-01 6.175297756316958098e-02 3.422158243085990925e-01 -3.273408402783429400e-02 1.292858261444722046e-01 3.072054871186588598e-01 3.347047232574923425e-01 1.070198175157911491e+00 1.168682967539285966e-01 3.343331626452322181e-01 -1.002138995761122420e+00 2.354227997182351817e-01 7.818111302698870224e-01 8.283969284654464360e-01 3.349510232247230324e-01 -2.509207715880873990e-01 7.593782766253135419e-01 3.923862014195479420e-01 3.412265342797192180e-01 3.490832590327006546e-01 6.344929144609978700e-01 7.526324771283280368e-01 3.513448918968189449e-01 2.938478899762965724e-01 3.107535984216458491e-01 5.966338137790718754e-01 5.665150423690877846e-01 -1.263848856770465323e+00 3.250303137529983455e-01 5.302708770434823998e-02 4.486845353116914459e-01 3.496935261536881501e-01 2.770721085762063440e-01 2.497534354263163392e-01 3.023043352759987035e-01 3.242747505126730712e-01 3.519712546977445400e-01 3.340030355537496054e-01 3.266993264786623996e-01 3.743624413430879372e-01 -1.510806143600558205e-01 2.860304895505044742e-01 2.632946655337524144e-01 2.766427262810345900e-01 2.883055903080424809e-01 3.325064292362834850e-01 3.358959411349675683e-01 3.409137491298757650e-01 6.600962895762841898e-01 4.388745701701480817e-01 3.021601708454471624e-01 3.435621037942165334e-01 -1.516968715536201273e+00 2.953173128466418107e-01 1.062826355888286944e-01 2.644466541898055634e-01 2.497533276119142387e-01 3.236477244304159506e-01 2.435128788006585832e-01 3.225530803263226276e-01 3.834157234727555985e-01 1.882630171254847662e-01 3.744962496753730941e-01 3.216226826320556786e-01 4.837392743329576028e-01 3.219842505910694985e-01 3.286123980530222255e-01 3.059914027106019341e-01 4.421904872914259044e-01 2.773274926289341358e-01 3.305068339249628284e-01 2.145865581453942558e-03 3.690411501442437125e-01 3.526582465034213687e-01 1.184373931927877044e-01 -4.184775062095936748e-01 2.281492002703692012e+00 3.028060068575532116e-01 7.107403304996053883e-01 2.570694058036396279e-01 3.031762325351118337e-01 1.135276880135698496e+00 5.986911562973095124e-01 7.619507036102065589e-01 3.633497807508806465e-01
