# 
#                 ----------------------------------------------------
#                 Data from a 3D direct N-body simulation. 
# 
#                 rows are i-particle; 
#                 coumns are :mass, tag, x ,y, z, vx, vy, vz, ax, ay, az
# 
#                 NTHU, Computational Physics 
# 
#                 ----------------------------------------------------
#                 Time = 0.0
0.000000000000000000e+00 1.000000000000000000e+00 2.000000000000000000e+00 3.000000000000000000e+00 4.000000000000000000e+00 5.000000000000000000e+00 6.000000000000000000e+00 7.000000000000000000e+00 8.000000000000000000e+00 9.000000000000000000e+00 1.000000000000000000e+01 1.100000000000000000e+01 1.200000000000000000e+01 1.300000000000000000e+01 1.400000000000000000e+01 1.500000000000000000e+01 1.600000000000000000e+01 1.700000000000000000e+01 1.800000000000000000e+01 1.900000000000000000e+01 2.000000000000000000e+01 2.100000000000000000e+01 2.200000000000000000e+01 2.300000000000000000e+01 2.400000000000000000e+01 2.500000000000000000e+01 2.600000000000000000e+01 2.700000000000000000e+01 2.800000000000000000e+01 2.900000000000000000e+01 3.000000000000000000e+01 3.100000000000000000e+01 3.200000000000000000e+01 3.300000000000000000e+01 3.400000000000000000e+01 3.500000000000000000e+01 3.600000000000000000e+01 3.700000000000000000e+01 3.800000000000000000e+01 3.900000000000000000e+01 4.000000000000000000e+01 4.100000000000000000e+01 4.200000000000000000e+01 4.300000000000000000e+01 4.400000000000000000e+01 4.500000000000000000e+01 4.600000000000000000e+01 4.700000000000000000e+01 4.800000000000000000e+01 4.900000000000000000e+01 5.000000000000000000e+01 5.100000000000000000e+01 5.200000000000000000e+01 5.300000000000000000e+01 5.400000000000000000e+01 5.500000000000000000e+01 5.600000000000000000e+01 5.700000000000000000e+01 5.800000000000000000e+01 5.900000000000000000e+01 6.000000000000000000e+01 6.100000000000000000e+01 6.200000000000000000e+01 6.300000000000000000e+01 6.400000000000000000e+01 6.500000000000000000e+01 6.600000000000000000e+01 6.700000000000000000e+01 6.800000000000000000e+01 6.900000000000000000e+01 7.000000000000000000e+01 7.100000000000000000e+01 7.200000000000000000e+01 7.300000000000000000e+01 7.400000000000000000e+01 7.500000000000000000e+01 7.600000000000000000e+01 7.700000000000000000e+01 7.800000000000000000e+01 7.900000000000000000e+01 8.000000000000000000e+01 8.100000000000000000e+01 8.200000000000000000e+01 8.300000000000000000e+01 8.400000000000000000e+01 8.500000000000000000e+01 8.600000000000000000e+01 8.700000000000000000e+01 8.800000000000000000e+01 8.900000000000000000e+01 9.000000000000000000e+01 9.100000000000000000e+01 9.200000000000000000e+01 9.300000000000000000e+01 9.400000000000000000e+01 9.500000000000000000e+01 9.600000000000000000e+01 9.700000000000000000e+01 9.800000000000000000e+01 9.900000000000000000e+01 1.000000000000000000e+02 1.010000000000000000e+02 1.020000000000000000e+02 1.030000000000000000e+02 1.040000000000000000e+02 1.050000000000000000e+02 1.060000000000000000e+02 1.070000000000000000e+02 1.080000000000000000e+02 1.090000000000000000e+02 1.100000000000000000e+02 1.110000000000000000e+02 1.120000000000000000e+02 1.130000000000000000e+02 1.140000000000000000e+02 1.150000000000000000e+02 1.160000000000000000e+02 1.170000000000000000e+02 1.180000000000000000e+02 1.190000000000000000e+02 1.200000000000000000e+02 1.210000000000000000e+02 1.220000000000000000e+02 1.230000000000000000e+02 1.240000000000000000e+02 1.250000000000000000e+02 1.260000000000000000e+02 1.270000000000000000e+02 1.280000000000000000e+02 1.290000000000000000e+02 1.300000000000000000e+02 1.310000000000000000e+02 1.320000000000000000e+02 1.330000000000000000e+02 1.340000000000000000e+02 1.350000000000000000e+02 1.360000000000000000e+02 1.370000000000000000e+02 1.380000000000000000e+02 1.390000000000000000e+02 1.400000000000000000e+02 1.410000000000000000e+02 1.420000000000000000e+02 1.430000000000000000e+02 1.440000000000000000e+02 1.450000000000000000e+02 1.460000000000000000e+02 1.470000000000000000e+02 1.480000000000000000e+02 1.490000000000000000e+02 1.500000000000000000e+02 1.510000000000000000e+02 1.520000000000000000e+02 1.530000000000000000e+02 1.540000000000000000e+02 1.550000000000000000e+02 1.560000000000000000e+02 1.570000000000000000e+02 1.580000000000000000e+02 1.590000000000000000e+02 1.600000000000000000e+02 1.610000000000000000e+02 1.620000000000000000e+02 1.630000000000000000e+02 1.640000000000000000e+02 1.650000000000000000e+02 1.660000000000000000e+02 1.670000000000000000e+02 1.680000000000000000e+02 1.690000000000000000e+02 1.700000000000000000e+02 1.710000000000000000e+02 1.720000000000000000e+02 1.730000000000000000e+02 1.740000000000000000e+02 1.750000000000000000e+02 1.760000000000000000e+02 1.770000000000000000e+02 1.780000000000000000e+02 1.790000000000000000e+02 1.800000000000000000e+02 1.810000000000000000e+02 1.820000000000000000e+02 1.830000000000000000e+02 1.840000000000000000e+02 1.850000000000000000e+02 1.860000000000000000e+02 1.870000000000000000e+02 1.880000000000000000e+02 1.890000000000000000e+02 1.900000000000000000e+02 1.910000000000000000e+02 1.920000000000000000e+02 1.930000000000000000e+02 1.940000000000000000e+02 1.950000000000000000e+02 1.960000000000000000e+02 1.970000000000000000e+02 1.980000000000000000e+02 1.990000000000000000e+02 2.000000000000000000e+02 2.010000000000000000e+02 2.020000000000000000e+02 2.030000000000000000e+02 2.040000000000000000e+02 2.050000000000000000e+02 2.060000000000000000e+02 2.070000000000000000e+02 2.080000000000000000e+02 2.090000000000000000e+02 2.100000000000000000e+02 2.110000000000000000e+02 2.120000000000000000e+02 2.130000000000000000e+02 2.140000000000000000e+02 2.150000000000000000e+02 2.160000000000000000e+02 2.170000000000000000e+02 2.180000000000000000e+02 2.190000000000000000e+02 2.200000000000000000e+02 2.210000000000000000e+02 2.220000000000000000e+02 2.230000000000000000e+02 2.240000000000000000e+02 2.250000000000000000e+02 2.260000000000000000e+02 2.270000000000000000e+02 2.280000000000000000e+02 2.290000000000000000e+02 2.300000000000000000e+02 2.310000000000000000e+02 2.320000000000000000e+02 2.330000000000000000e+02 2.340000000000000000e+02 2.350000000000000000e+02 2.360000000000000000e+02 2.370000000000000000e+02 2.380000000000000000e+02 2.390000000000000000e+02 2.400000000000000000e+02 2.410000000000000000e+02 2.420000000000000000e+02 2.430000000000000000e+02 2.440000000000000000e+02 2.450000000000000000e+02 2.460000000000000000e+02 2.470000000000000000e+02 2.480000000000000000e+02 2.490000000000000000e+02 2.500000000000000000e+02 2.510000000000000000e+02 2.520000000000000000e+02 2.530000000000000000e+02 2.540000000000000000e+02 2.550000000000000000e+02 2.560000000000000000e+02 2.570000000000000000e+02 2.580000000000000000e+02 2.590000000000000000e+02 2.600000000000000000e+02 2.610000000000000000e+02 2.620000000000000000e+02 2.630000000000000000e+02 2.640000000000000000e+02 2.650000000000000000e+02 2.660000000000000000e+02 2.670000000000000000e+02 2.680000000000000000e+02 2.690000000000000000e+02 2.700000000000000000e+02 2.710000000000000000e+02 2.720000000000000000e+02 2.730000000000000000e+02 2.740000000000000000e+02 2.750000000000000000e+02 2.760000000000000000e+02 2.770000000000000000e+02 2.780000000000000000e+02 2.790000000000000000e+02 2.800000000000000000e+02 2.810000000000000000e+02 2.820000000000000000e+02 2.830000000000000000e+02 2.840000000000000000e+02 2.850000000000000000e+02 2.860000000000000000e+02 2.870000000000000000e+02 2.880000000000000000e+02 2.890000000000000000e+02 2.900000000000000000e+02 2.910000000000000000e+02 2.920000000000000000e+02 2.930000000000000000e+02 2.940000000000000000e+02 2.950000000000000000e+02 2.960000000000000000e+02 2.970000000000000000e+02 2.980000000000000000e+02 2.990000000000000000e+02 3.000000000000000000e+02 3.010000000000000000e+02 3.020000000000000000e+02 3.030000000000000000e+02 3.040000000000000000e+02 3.050000000000000000e+02 3.060000000000000000e+02 3.070000000000000000e+02 3.080000000000000000e+02 3.090000000000000000e+02 3.100000000000000000e+02 3.110000000000000000e+02 3.120000000000000000e+02 3.130000000000000000e+02 3.140000000000000000e+02 3.150000000000000000e+02 3.160000000000000000e+02 3.170000000000000000e+02 3.180000000000000000e+02 3.190000000000000000e+02 3.200000000000000000e+02 3.210000000000000000e+02 3.220000000000000000e+02 3.230000000000000000e+02 3.240000000000000000e+02 3.250000000000000000e+02 3.260000000000000000e+02 3.270000000000000000e+02 3.280000000000000000e+02 3.290000000000000000e+02 3.300000000000000000e+02 3.310000000000000000e+02 3.320000000000000000e+02 3.330000000000000000e+02 3.340000000000000000e+02 3.350000000000000000e+02 3.360000000000000000e+02 3.370000000000000000e+02 3.380000000000000000e+02 3.390000000000000000e+02 3.400000000000000000e+02 3.410000000000000000e+02 3.420000000000000000e+02 3.430000000000000000e+02 3.440000000000000000e+02 3.450000000000000000e+02 3.460000000000000000e+02 3.470000000000000000e+02 3.480000000000000000e+02 3.490000000000000000e+02 3.500000000000000000e+02 3.510000000000000000e+02 3.520000000000000000e+02 3.530000000000000000e+02 3.540000000000000000e+02 3.550000000000000000e+02 3.560000000000000000e+02 3.570000000000000000e+02 3.580000000000000000e+02 3.590000000000000000e+02 3.600000000000000000e+02 3.610000000000000000e+02 3.620000000000000000e+02 3.630000000000000000e+02 3.640000000000000000e+02 3.650000000000000000e+02 3.660000000000000000e+02 3.670000000000000000e+02 3.680000000000000000e+02 3.690000000000000000e+02 3.700000000000000000e+02 3.710000000000000000e+02 3.720000000000000000e+02 3.730000000000000000e+02 3.740000000000000000e+02 3.750000000000000000e+02 3.760000000000000000e+02 3.770000000000000000e+02 3.780000000000000000e+02 3.790000000000000000e+02 3.800000000000000000e+02 3.810000000000000000e+02 3.820000000000000000e+02 3.830000000000000000e+02 3.840000000000000000e+02 3.850000000000000000e+02 3.860000000000000000e+02 3.870000000000000000e+02 3.880000000000000000e+02 3.890000000000000000e+02 3.900000000000000000e+02 3.910000000000000000e+02 3.920000000000000000e+02 3.930000000000000000e+02 3.940000000000000000e+02 3.950000000000000000e+02 3.960000000000000000e+02 3.970000000000000000e+02 3.980000000000000000e+02 3.990000000000000000e+02 4.000000000000000000e+02 4.010000000000000000e+02 4.020000000000000000e+02 4.030000000000000000e+02 4.040000000000000000e+02 4.050000000000000000e+02 4.060000000000000000e+02 4.070000000000000000e+02 4.080000000000000000e+02 4.090000000000000000e+02 4.100000000000000000e+02 4.110000000000000000e+02 4.120000000000000000e+02 4.130000000000000000e+02 4.140000000000000000e+02 4.150000000000000000e+02 4.160000000000000000e+02 4.170000000000000000e+02 4.180000000000000000e+02 4.190000000000000000e+02 4.200000000000000000e+02 4.210000000000000000e+02 4.220000000000000000e+02 4.230000000000000000e+02 4.240000000000000000e+02 4.250000000000000000e+02 4.260000000000000000e+02 4.270000000000000000e+02 4.280000000000000000e+02 4.290000000000000000e+02 4.300000000000000000e+02 4.310000000000000000e+02 4.320000000000000000e+02 4.330000000000000000e+02 4.340000000000000000e+02 4.350000000000000000e+02 4.360000000000000000e+02 4.370000000000000000e+02 4.380000000000000000e+02 4.390000000000000000e+02 4.400000000000000000e+02 4.410000000000000000e+02 4.420000000000000000e+02 4.430000000000000000e+02 4.440000000000000000e+02 4.450000000000000000e+02 4.460000000000000000e+02 4.470000000000000000e+02 4.480000000000000000e+02 4.490000000000000000e+02 4.500000000000000000e+02 4.510000000000000000e+02 4.520000000000000000e+02 4.530000000000000000e+02 4.540000000000000000e+02 4.550000000000000000e+02 4.560000000000000000e+02 4.570000000000000000e+02 4.580000000000000000e+02 4.590000000000000000e+02 4.600000000000000000e+02 4.610000000000000000e+02 4.620000000000000000e+02 4.630000000000000000e+02 4.640000000000000000e+02 4.650000000000000000e+02 4.660000000000000000e+02 4.670000000000000000e+02 4.680000000000000000e+02 4.690000000000000000e+02 4.700000000000000000e+02 4.710000000000000000e+02 4.720000000000000000e+02 4.730000000000000000e+02 4.740000000000000000e+02 4.750000000000000000e+02 4.760000000000000000e+02 4.770000000000000000e+02 4.780000000000000000e+02 4.790000000000000000e+02 4.800000000000000000e+02 4.810000000000000000e+02 4.820000000000000000e+02 4.830000000000000000e+02 4.840000000000000000e+02 4.850000000000000000e+02 4.860000000000000000e+02 4.870000000000000000e+02 4.880000000000000000e+02 4.890000000000000000e+02 4.900000000000000000e+02 4.910000000000000000e+02 4.920000000000000000e+02 4.930000000000000000e+02 4.940000000000000000e+02 4.950000000000000000e+02 4.960000000000000000e+02 4.970000000000000000e+02 4.980000000000000000e+02 4.990000000000000000e+02 5.000000000000000000e+02 5.010000000000000000e+02 5.020000000000000000e+02 5.030000000000000000e+02 5.040000000000000000e+02 5.050000000000000000e+02 5.060000000000000000e+02 5.070000000000000000e+02 5.080000000000000000e+02 5.090000000000000000e+02 5.100000000000000000e+02 5.110000000000000000e+02 5.120000000000000000e+02 5.130000000000000000e+02 5.140000000000000000e+02 5.150000000000000000e+02 5.160000000000000000e+02 5.170000000000000000e+02 5.180000000000000000e+02 5.190000000000000000e+02 5.200000000000000000e+02 5.210000000000000000e+02 5.220000000000000000e+02 5.230000000000000000e+02 5.240000000000000000e+02 5.250000000000000000e+02 5.260000000000000000e+02 5.270000000000000000e+02 5.280000000000000000e+02 5.290000000000000000e+02 5.300000000000000000e+02 5.310000000000000000e+02 5.320000000000000000e+02 5.330000000000000000e+02 5.340000000000000000e+02 5.350000000000000000e+02 5.360000000000000000e+02 5.370000000000000000e+02 5.380000000000000000e+02 5.390000000000000000e+02 5.400000000000000000e+02 5.410000000000000000e+02 5.420000000000000000e+02 5.430000000000000000e+02 5.440000000000000000e+02 5.450000000000000000e+02 5.460000000000000000e+02 5.470000000000000000e+02 5.480000000000000000e+02 5.490000000000000000e+02 5.500000000000000000e+02 5.510000000000000000e+02 5.520000000000000000e+02 5.530000000000000000e+02 5.540000000000000000e+02 5.550000000000000000e+02 5.560000000000000000e+02 5.570000000000000000e+02 5.580000000000000000e+02 5.590000000000000000e+02 5.600000000000000000e+02 5.610000000000000000e+02 5.620000000000000000e+02 5.630000000000000000e+02 5.640000000000000000e+02 5.650000000000000000e+02 5.660000000000000000e+02 5.670000000000000000e+02 5.680000000000000000e+02 5.690000000000000000e+02 5.700000000000000000e+02 5.710000000000000000e+02 5.720000000000000000e+02 5.730000000000000000e+02 5.740000000000000000e+02 5.750000000000000000e+02 5.760000000000000000e+02 5.770000000000000000e+02 5.780000000000000000e+02 5.790000000000000000e+02 5.800000000000000000e+02 5.810000000000000000e+02 5.820000000000000000e+02 5.830000000000000000e+02 5.840000000000000000e+02 5.850000000000000000e+02 5.860000000000000000e+02 5.870000000000000000e+02 5.880000000000000000e+02 5.890000000000000000e+02 5.900000000000000000e+02 5.910000000000000000e+02 5.920000000000000000e+02 5.930000000000000000e+02 5.940000000000000000e+02 5.950000000000000000e+02 5.960000000000000000e+02 5.970000000000000000e+02 5.980000000000000000e+02 5.990000000000000000e+02 6.000000000000000000e+02 6.010000000000000000e+02 6.020000000000000000e+02 6.030000000000000000e+02 6.040000000000000000e+02 6.050000000000000000e+02 6.060000000000000000e+02 6.070000000000000000e+02 6.080000000000000000e+02 6.090000000000000000e+02 6.100000000000000000e+02 6.110000000000000000e+02 6.120000000000000000e+02 6.130000000000000000e+02 6.140000000000000000e+02 6.150000000000000000e+02 6.160000000000000000e+02 6.170000000000000000e+02 6.180000000000000000e+02 6.190000000000000000e+02 6.200000000000000000e+02 6.210000000000000000e+02 6.220000000000000000e+02 6.230000000000000000e+02 6.240000000000000000e+02 6.250000000000000000e+02 6.260000000000000000e+02 6.270000000000000000e+02 6.280000000000000000e+02 6.290000000000000000e+02 6.300000000000000000e+02 6.310000000000000000e+02 6.320000000000000000e+02 6.330000000000000000e+02 6.340000000000000000e+02 6.350000000000000000e+02 6.360000000000000000e+02 6.370000000000000000e+02 6.380000000000000000e+02 6.390000000000000000e+02 6.400000000000000000e+02 6.410000000000000000e+02 6.420000000000000000e+02 6.430000000000000000e+02 6.440000000000000000e+02 6.450000000000000000e+02 6.460000000000000000e+02 6.470000000000000000e+02 6.480000000000000000e+02 6.490000000000000000e+02 6.500000000000000000e+02 6.510000000000000000e+02 6.520000000000000000e+02 6.530000000000000000e+02 6.540000000000000000e+02 6.550000000000000000e+02 6.560000000000000000e+02 6.570000000000000000e+02 6.580000000000000000e+02 6.590000000000000000e+02 6.600000000000000000e+02 6.610000000000000000e+02 6.620000000000000000e+02 6.630000000000000000e+02 6.640000000000000000e+02 6.650000000000000000e+02 6.660000000000000000e+02 6.670000000000000000e+02 6.680000000000000000e+02 6.690000000000000000e+02 6.700000000000000000e+02 6.710000000000000000e+02 6.720000000000000000e+02 6.730000000000000000e+02 6.740000000000000000e+02 6.750000000000000000e+02 6.760000000000000000e+02 6.770000000000000000e+02 6.780000000000000000e+02 6.790000000000000000e+02 6.800000000000000000e+02 6.810000000000000000e+02 6.820000000000000000e+02 6.830000000000000000e+02 6.840000000000000000e+02 6.850000000000000000e+02 6.860000000000000000e+02 6.870000000000000000e+02 6.880000000000000000e+02 6.890000000000000000e+02 6.900000000000000000e+02 6.910000000000000000e+02 6.920000000000000000e+02 6.930000000000000000e+02 6.940000000000000000e+02 6.950000000000000000e+02 6.960000000000000000e+02 6.970000000000000000e+02 6.980000000000000000e+02 6.990000000000000000e+02 7.000000000000000000e+02 7.010000000000000000e+02 7.020000000000000000e+02 7.030000000000000000e+02 7.040000000000000000e+02 7.050000000000000000e+02 7.060000000000000000e+02 7.070000000000000000e+02 7.080000000000000000e+02 7.090000000000000000e+02 7.100000000000000000e+02 7.110000000000000000e+02 7.120000000000000000e+02 7.130000000000000000e+02 7.140000000000000000e+02 7.150000000000000000e+02 7.160000000000000000e+02 7.170000000000000000e+02 7.180000000000000000e+02 7.190000000000000000e+02 7.200000000000000000e+02 7.210000000000000000e+02 7.220000000000000000e+02 7.230000000000000000e+02 7.240000000000000000e+02 7.250000000000000000e+02 7.260000000000000000e+02 7.270000000000000000e+02 7.280000000000000000e+02 7.290000000000000000e+02 7.300000000000000000e+02 7.310000000000000000e+02 7.320000000000000000e+02 7.330000000000000000e+02 7.340000000000000000e+02 7.350000000000000000e+02 7.360000000000000000e+02 7.370000000000000000e+02 7.380000000000000000e+02 7.390000000000000000e+02 7.400000000000000000e+02 7.410000000000000000e+02 7.420000000000000000e+02 7.430000000000000000e+02 7.440000000000000000e+02 7.450000000000000000e+02 7.460000000000000000e+02 7.470000000000000000e+02 7.480000000000000000e+02 7.490000000000000000e+02 7.500000000000000000e+02 7.510000000000000000e+02 7.520000000000000000e+02 7.530000000000000000e+02 7.540000000000000000e+02 7.550000000000000000e+02 7.560000000000000000e+02 7.570000000000000000e+02 7.580000000000000000e+02 7.590000000000000000e+02 7.600000000000000000e+02 7.610000000000000000e+02 7.620000000000000000e+02 7.630000000000000000e+02 7.640000000000000000e+02 7.650000000000000000e+02 7.660000000000000000e+02 7.670000000000000000e+02 7.680000000000000000e+02 7.690000000000000000e+02 7.700000000000000000e+02 7.710000000000000000e+02 7.720000000000000000e+02 7.730000000000000000e+02 7.740000000000000000e+02 7.750000000000000000e+02 7.760000000000000000e+02 7.770000000000000000e+02 7.780000000000000000e+02 7.790000000000000000e+02 7.800000000000000000e+02 7.810000000000000000e+02 7.820000000000000000e+02 7.830000000000000000e+02 7.840000000000000000e+02 7.850000000000000000e+02 7.860000000000000000e+02 7.870000000000000000e+02 7.880000000000000000e+02 7.890000000000000000e+02 7.900000000000000000e+02 7.910000000000000000e+02 7.920000000000000000e+02 7.930000000000000000e+02 7.940000000000000000e+02 7.950000000000000000e+02 7.960000000000000000e+02 7.970000000000000000e+02 7.980000000000000000e+02 7.990000000000000000e+02 8.000000000000000000e+02 8.010000000000000000e+02 8.020000000000000000e+02 8.030000000000000000e+02 8.040000000000000000e+02 8.050000000000000000e+02 8.060000000000000000e+02 8.070000000000000000e+02 8.080000000000000000e+02 8.090000000000000000e+02 8.100000000000000000e+02 8.110000000000000000e+02 8.120000000000000000e+02 8.130000000000000000e+02 8.140000000000000000e+02 8.150000000000000000e+02 8.160000000000000000e+02 8.170000000000000000e+02 8.180000000000000000e+02 8.190000000000000000e+02 8.200000000000000000e+02 8.210000000000000000e+02 8.220000000000000000e+02 8.230000000000000000e+02 8.240000000000000000e+02 8.250000000000000000e+02 8.260000000000000000e+02 8.270000000000000000e+02 8.280000000000000000e+02 8.290000000000000000e+02 8.300000000000000000e+02 8.310000000000000000e+02 8.320000000000000000e+02 8.330000000000000000e+02 8.340000000000000000e+02 8.350000000000000000e+02 8.360000000000000000e+02 8.370000000000000000e+02 8.380000000000000000e+02 8.390000000000000000e+02 8.400000000000000000e+02 8.410000000000000000e+02 8.420000000000000000e+02 8.430000000000000000e+02 8.440000000000000000e+02 8.450000000000000000e+02 8.460000000000000000e+02 8.470000000000000000e+02 8.480000000000000000e+02 8.490000000000000000e+02 8.500000000000000000e+02 8.510000000000000000e+02 8.520000000000000000e+02 8.530000000000000000e+02 8.540000000000000000e+02 8.550000000000000000e+02 8.560000000000000000e+02 8.570000000000000000e+02 8.580000000000000000e+02 8.590000000000000000e+02 8.600000000000000000e+02 8.610000000000000000e+02 8.620000000000000000e+02 8.630000000000000000e+02 8.640000000000000000e+02 8.650000000000000000e+02 8.660000000000000000e+02 8.670000000000000000e+02 8.680000000000000000e+02 8.690000000000000000e+02 8.700000000000000000e+02 8.710000000000000000e+02 8.720000000000000000e+02 8.730000000000000000e+02 8.740000000000000000e+02 8.750000000000000000e+02 8.760000000000000000e+02 8.770000000000000000e+02 8.780000000000000000e+02 8.790000000000000000e+02 8.800000000000000000e+02 8.810000000000000000e+02 8.820000000000000000e+02 8.830000000000000000e+02 8.840000000000000000e+02 8.850000000000000000e+02 8.860000000000000000e+02 8.870000000000000000e+02 8.880000000000000000e+02 8.890000000000000000e+02 8.900000000000000000e+02 8.910000000000000000e+02 8.920000000000000000e+02 8.930000000000000000e+02 8.940000000000000000e+02 8.950000000000000000e+02 8.960000000000000000e+02 8.970000000000000000e+02 8.980000000000000000e+02 8.990000000000000000e+02 9.000000000000000000e+02 9.010000000000000000e+02 9.020000000000000000e+02 9.030000000000000000e+02 9.040000000000000000e+02 9.050000000000000000e+02 9.060000000000000000e+02 9.070000000000000000e+02 9.080000000000000000e+02 9.090000000000000000e+02 9.100000000000000000e+02 9.110000000000000000e+02 9.120000000000000000e+02 9.130000000000000000e+02 9.140000000000000000e+02 9.150000000000000000e+02 9.160000000000000000e+02 9.170000000000000000e+02 9.180000000000000000e+02 9.190000000000000000e+02 9.200000000000000000e+02 9.210000000000000000e+02 9.220000000000000000e+02 9.230000000000000000e+02 9.240000000000000000e+02 9.250000000000000000e+02 9.260000000000000000e+02 9.270000000000000000e+02 9.280000000000000000e+02 9.290000000000000000e+02 9.300000000000000000e+02 9.310000000000000000e+02 9.320000000000000000e+02 9.330000000000000000e+02 9.340000000000000000e+02 9.350000000000000000e+02 9.360000000000000000e+02 9.370000000000000000e+02 9.380000000000000000e+02 9.390000000000000000e+02 9.400000000000000000e+02 9.410000000000000000e+02 9.420000000000000000e+02 9.430000000000000000e+02 9.440000000000000000e+02 9.450000000000000000e+02 9.460000000000000000e+02 9.470000000000000000e+02 9.480000000000000000e+02 9.490000000000000000e+02 9.500000000000000000e+02 9.510000000000000000e+02 9.520000000000000000e+02 9.530000000000000000e+02 9.540000000000000000e+02 9.550000000000000000e+02 9.560000000000000000e+02 9.570000000000000000e+02 9.580000000000000000e+02 9.590000000000000000e+02 9.600000000000000000e+02 9.610000000000000000e+02 9.620000000000000000e+02 9.630000000000000000e+02 9.640000000000000000e+02 9.650000000000000000e+02 9.660000000000000000e+02 9.670000000000000000e+02 9.680000000000000000e+02 9.690000000000000000e+02 9.700000000000000000e+02 9.710000000000000000e+02 9.720000000000000000e+02 9.730000000000000000e+02 9.740000000000000000e+02 9.750000000000000000e+02 9.760000000000000000e+02 9.770000000000000000e+02 9.780000000000000000e+02 9.790000000000000000e+02 9.800000000000000000e+02 9.810000000000000000e+02 9.820000000000000000e+02 9.830000000000000000e+02 9.840000000000000000e+02 9.850000000000000000e+02 9.860000000000000000e+02 9.870000000000000000e+02 9.880000000000000000e+02 9.890000000000000000e+02 9.900000000000000000e+02 9.910000000000000000e+02 9.920000000000000000e+02 9.930000000000000000e+02 9.940000000000000000e+02 9.950000000000000000e+02 9.960000000000000000e+02 9.970000000000000000e+02 9.980000000000000000e+02 9.990000000000000000e+02
1.000000000000000000e+00 1.000000000000000000e+00 1.000000000000000000e+00 1.000000000000000000e+00 1.000000000000000000e+00 1.000000000000000000e+00 1.000000000000000000e+00 1.000000000000000000e+00 1.000000000000000000e+00 1.000000000000000000e+00 1.000000000000000000e+00 1.000000000000000000e+00 1.000000000000000000e+00 1.000000000000000000e+00 1.000000000000000000e+00 1.000000000000000000e+00 1.000000000000000000e+00 1.000000000000000000e+00 1.000000000000000000e+00 1.000000000000000000e+00 1.000000000000000000e+00 1.000000000000000000e+00 1.000000000000000000e+00 1.000000000000000000e+00 1.000000000000000000e+00 1.000000000000000000e+00 1.000000000000000000e+00 1.000000000000000000e+00 1.000000000000000000e+00 1.000000000000000000e+00 1.000000000000000000e+00 1.000000000000000000e+00 1.000000000000000000e+00 1.000000000000000000e+00 1.000000000000000000e+00 1.000000000000000000e+00 1.000000000000000000e+00 1.000000000000000000e+00 1.000000000000000000e+00 1.000000000000000000e+00 1.000000000000000000e+00 1.000000000000000000e+00 1.000000000000000000e+00 1.000000000000000000e+00 1.000000000000000000e+00 1.000000000000000000e+00 1.000000000000000000e+00 1.000000000000000000e+00 1.000000000000000000e+00 1.000000000000000000e+00 1.000000000000000000e+00 1.000000000000000000e+00 1.000000000000000000e+00 1.000000000000000000e+00 1.000000000000000000e+00 1.000000000000000000e+00 1.000000000000000000e+00 1.000000000000000000e+00 1.000000000000000000e+00 1.000000000000000000e+00 1.000000000000000000e+00 1.000000000000000000e+00 1.000000000000000000e+00 1.000000000000000000e+00 1.000000000000000000e+00 1.000000000000000000e+00 1.000000000000000000e+00 1.000000000000000000e+00 1.000000000000000000e+00 1.000000000000000000e+00 1.000000000000000000e+00 1.000000000000000000e+00 1.000000000000000000e+00 1.000000000000000000e+00 1.000000000000000000e+00 1.000000000000000000e+00 1.000000000000000000e+00 1.000000000000000000e+00 1.000000000000000000e+00 1.000000000000000000e+00 1.000000000000000000e+00 1.000000000000000000e+00 1.000000000000000000e+00 1.000000000000000000e+00 1.000000000000000000e+00 1.000000000000000000e+00 1.000000000000000000e+00 1.000000000000000000e+00 1.000000000000000000e+00 1.000000000000000000e+00 1.000000000000000000e+00 1.000000000000000000e+00 1.000000000000000000e+00 1.000000000000000000e+00 1.000000000000000000e+00 1.000000000000000000e+00 1.000000000000000000e+00 1.000000000000000000e+00 1.000000000000000000e+00 1.000000000000000000e+00 1.000000000000000000e+00 1.000000000000000000e+00 1.000000000000000000e+00 1.000000000000000000e+00 1.000000000000000000e+00 1.000000000000000000e+00 1.000000000000000000e+00 1.000000000000000000e+00 1.000000000000000000e+00 1.000000000000000000e+00 1.000000000000000000e+00 1.000000000000000000e+00 1.000000000000000000e+00 1.000000000000000000e+00 1.000000000000000000e+00 1.000000000000000000e+00 1.000000000000000000e+00 1.000000000000000000e+00 1.000000000000000000e+00 1.000000000000000000e+00 1.000000000000000000e+00 1.000000000000000000e+00 1.000000000000000000e+00 1.000000000000000000e+00 1.000000000000000000e+00 1.000000000000000000e+00 1.000000000000000000e+00 1.000000000000000000e+00 1.000000000000000000e+00 1.000000000000000000e+00 1.000000000000000000e+00 1.000000000000000000e+00 1.000000000000000000e+00 1.000000000000000000e+00 1.000000000000000000e+00 1.000000000000000000e+00 1.000000000000000000e+00 1.000000000000000000e+00 1.000000000000000000e+00 1.000000000000000000e+00 1.000000000000000000e+00 1.000000000000000000e+00 1.000000000000000000e+00 1.000000000000000000e+00 1.000000000000000000e+00 1.000000000000000000e+00 1.000000000000000000e+00 1.000000000000000000e+00 1.000000000000000000e+00 1.000000000000000000e+00 1.000000000000000000e+00 1.000000000000000000e+00 1.000000000000000000e+00 1.000000000000000000e+00 1.000000000000000000e+00 1.000000000000000000e+00 1.000000000000000000e+00 1.000000000000000000e+00 1.000000000000000000e+00 1.000000000000000000e+00 1.000000000000000000e+00 1.000000000000000000e+00 1.000000000000000000e+00 1.000000000000000000e+00 1.000000000000000000e+00 1.000000000000000000e+00 1.000000000000000000e+00 1.000000000000000000e+00 1.000000000000000000e+00 1.000000000000000000e+00 1.000000000000000000e+00 1.000000000000000000e+00 1.000000000000000000e+00 1.000000000000000000e+00 1.000000000000000000e+00 1.000000000000000000e+00 1.000000000000000000e+00 1.000000000000000000e+00 1.000000000000000000e+00 1.000000000000000000e+00 1.000000000000000000e+00 1.000000000000000000e+00 1.000000000000000000e+00 1.000000000000000000e+00 1.000000000000000000e+00 1.000000000000000000e+00 1.000000000000000000e+00 1.000000000000000000e+00 1.000000000000000000e+00 1.000000000000000000e+00 1.000000000000000000e+00 1.000000000000000000e+00 1.000000000000000000e+00 1.000000000000000000e+00 1.000000000000000000e+00 1.000000000000000000e+00 1.000000000000000000e+00 1.000000000000000000e+00 1.000000000000000000e+00 1.000000000000000000e+00 1.000000000000000000e+00 1.000000000000000000e+00 1.000000000000000000e+00 1.000000000000000000e+00 1.000000000000000000e+00 1.000000000000000000e+00 1.000000000000000000e+00 1.000000000000000000e+00 1.000000000000000000e+00 1.000000000000000000e+00 1.000000000000000000e+00 1.000000000000000000e+00 1.000000000000000000e+00 1.000000000000000000e+00 1.000000000000000000e+00 1.000000000000000000e+00 1.000000000000000000e+00 1.000000000000000000e+00 1.000000000000000000e+00 1.000000000000000000e+00 1.000000000000000000e+00 1.000000000000000000e+00 1.000000000000000000e+00 1.000000000000000000e+00 1.000000000000000000e+00 1.000000000000000000e+00 1.000000000000000000e+00 1.000000000000000000e+00 1.000000000000000000e+00 1.000000000000000000e+00 1.000000000000000000e+00 1.000000000000000000e+00 1.000000000000000000e+00 1.000000000000000000e+00 1.000000000000000000e+00 1.000000000000000000e+00 1.000000000000000000e+00 1.000000000000000000e+00 1.000000000000000000e+00 1.000000000000000000e+00 1.000000000000000000e+00 1.000000000000000000e+00 1.000000000000000000e+00 1.000000000000000000e+00 1.000000000000000000e+00 1.000000000000000000e+00 1.000000000000000000e+00 1.000000000000000000e+00 1.000000000000000000e+00 1.000000000000000000e+00 1.000000000000000000e+00 1.000000000000000000e+00 1.000000000000000000e+00 1.000000000000000000e+00 1.000000000000000000e+00 1.000000000000000000e+00 1.000000000000000000e+00 1.000000000000000000e+00 1.000000000000000000e+00 1.000000000000000000e+00 1.000000000000000000e+00 1.000000000000000000e+00 1.000000000000000000e+00 1.000000000000000000e+00 1.000000000000000000e+00 1.000000000000000000e+00 1.000000000000000000e+00 1.000000000000000000e+00 1.000000000000000000e+00 1.000000000000000000e+00 1.000000000000000000e+00 1.000000000000000000e+00 1.000000000000000000e+00 1.000000000000000000e+00 1.000000000000000000e+00 1.000000000000000000e+00 1.000000000000000000e+00 1.000000000000000000e+00 1.000000000000000000e+00 1.000000000000000000e+00 1.000000000000000000e+00 1.000000000000000000e+00 1.000000000000000000e+00 1.000000000000000000e+00 1.000000000000000000e+00 1.000000000000000000e+00 1.000000000000000000e+00 1.000000000000000000e+00 1.000000000000000000e+00 1.000000000000000000e+00 1.000000000000000000e+00 1.000000000000000000e+00 1.000000000000000000e+00 1.000000000000000000e+00 1.000000000000000000e+00 1.000000000000000000e+00 1.000000000000000000e+00 1.000000000000000000e+00 1.000000000000000000e+00 1.000000000000000000e+00 1.000000000000000000e+00 1.000000000000000000e+00 1.000000000000000000e+00 1.000000000000000000e+00 1.000000000000000000e+00 1.000000000000000000e+00 1.000000000000000000e+00 1.000000000000000000e+00 1.000000000000000000e+00 1.000000000000000000e+00 1.000000000000000000e+00 1.000000000000000000e+00 1.000000000000000000e+00 1.000000000000000000e+00 1.000000000000000000e+00 1.000000000000000000e+00 1.000000000000000000e+00 1.000000000000000000e+00 1.000000000000000000e+00 1.000000000000000000e+00 1.000000000000000000e+00 1.000000000000000000e+00 1.000000000000000000e+00 1.000000000000000000e+00 1.000000000000000000e+00 1.000000000000000000e+00 1.000000000000000000e+00 1.000000000000000000e+00 1.000000000000000000e+00 1.000000000000000000e+00 1.000000000000000000e+00 1.000000000000000000e+00 1.000000000000000000e+00 1.000000000000000000e+00 1.000000000000000000e+00 1.000000000000000000e+00 1.000000000000000000e+00 1.000000000000000000e+00 1.000000000000000000e+00 1.000000000000000000e+00 1.000000000000000000e+00 1.000000000000000000e+00 1.000000000000000000e+00 1.000000000000000000e+00 1.000000000000000000e+00 1.000000000000000000e+00 1.000000000000000000e+00 1.000000000000000000e+00 1.000000000000000000e+00 1.000000000000000000e+00 1.000000000000000000e+00 1.000000000000000000e+00 1.000000000000000000e+00 1.000000000000000000e+00 1.000000000000000000e+00 1.000000000000000000e+00 1.000000000000000000e+00 1.000000000000000000e+00 1.000000000000000000e+00 1.000000000000000000e+00 1.000000000000000000e+00 1.000000000000000000e+00 1.000000000000000000e+00 1.000000000000000000e+00 1.000000000000000000e+00 1.000000000000000000e+00 1.000000000000000000e+00 1.000000000000000000e+00 1.000000000000000000e+00 1.000000000000000000e+00 1.000000000000000000e+00 1.000000000000000000e+00 1.000000000000000000e+00 1.000000000000000000e+00 1.000000000000000000e+00 1.000000000000000000e+00 1.000000000000000000e+00 1.000000000000000000e+00 1.000000000000000000e+00 1.000000000000000000e+00 1.000000000000000000e+00 1.000000000000000000e+00 1.000000000000000000e+00 1.000000000000000000e+00 1.000000000000000000e+00 1.000000000000000000e+00 1.000000000000000000e+00 1.000000000000000000e+00 1.000000000000000000e+00 1.000000000000000000e+00 1.000000000000000000e+00 1.000000000000000000e+00 1.000000000000000000e+00 1.000000000000000000e+00 1.000000000000000000e+00 1.000000000000000000e+00 1.000000000000000000e+00 1.000000000000000000e+00 1.000000000000000000e+00 1.000000000000000000e+00 1.000000000000000000e+00 1.000000000000000000e+00 1.000000000000000000e+00 1.000000000000000000e+00 1.000000000000000000e+00 1.000000000000000000e+00 1.000000000000000000e+00 1.000000000000000000e+00 1.000000000000000000e+00 1.000000000000000000e+00 1.000000000000000000e+00 1.000000000000000000e+00 1.000000000000000000e+00 1.000000000000000000e+00 1.000000000000000000e+00 1.000000000000000000e+00 1.000000000000000000e+00 1.000000000000000000e+00 1.000000000000000000e+00 1.000000000000000000e+00 1.000000000000000000e+00 1.000000000000000000e+00 1.000000000000000000e+00 1.000000000000000000e+00 1.000000000000000000e+00 1.000000000000000000e+00 1.000000000000000000e+00 1.000000000000000000e+00 1.000000000000000000e+00 1.000000000000000000e+00 1.000000000000000000e+00 1.000000000000000000e+00 1.000000000000000000e+00 1.000000000000000000e+00 1.000000000000000000e+00 1.000000000000000000e+00 1.000000000000000000e+00 1.000000000000000000e+00 1.000000000000000000e+00 1.000000000000000000e+00 1.000000000000000000e+00 1.000000000000000000e+00 1.000000000000000000e+00 1.000000000000000000e+00 1.000000000000000000e+00 1.000000000000000000e+00 1.000000000000000000e+00 1.000000000000000000e+00 1.000000000000000000e+00 1.000000000000000000e+00 1.000000000000000000e+00 1.000000000000000000e+00 1.000000000000000000e+00 1.000000000000000000e+00 1.000000000000000000e+00 1.000000000000000000e+00 1.000000000000000000e+00 1.000000000000000000e+00 1.000000000000000000e+00 1.000000000000000000e+00 1.000000000000000000e+00 1.000000000000000000e+00 1.000000000000000000e+00 1.000000000000000000e+00 1.000000000000000000e+00 1.000000000000000000e+00 1.000000000000000000e+00 1.000000000000000000e+00 1.000000000000000000e+00 1.000000000000000000e+00 1.000000000000000000e+00 1.000000000000000000e+00 1.000000000000000000e+00 1.000000000000000000e+00 1.000000000000000000e+00 1.000000000000000000e+00 1.000000000000000000e+00 1.000000000000000000e+00 1.000000000000000000e+00 1.000000000000000000e+00 1.000000000000000000e+00 1.000000000000000000e+00 1.000000000000000000e+00 1.000000000000000000e+00 1.000000000000000000e+00 1.000000000000000000e+00 1.000000000000000000e+00 1.000000000000000000e+00 1.000000000000000000e+00 1.000000000000000000e+00 1.000000000000000000e+00 1.000000000000000000e+00 1.000000000000000000e+00 1.000000000000000000e+00 1.000000000000000000e+00 1.000000000000000000e+00 1.000000000000000000e+00 1.000000000000000000e+00 1.000000000000000000e+00 1.000000000000000000e+00 1.000000000000000000e+00 1.000000000000000000e+00 1.000000000000000000e+00 1.000000000000000000e+00 1.000000000000000000e+00 1.000000000000000000e+00 1.000000000000000000e+00 1.000000000000000000e+00 1.000000000000000000e+00 1.000000000000000000e+00 1.000000000000000000e+00 1.000000000000000000e+00 1.000000000000000000e+00 1.000000000000000000e+00 1.000000000000000000e+00 1.000000000000000000e+00 1.000000000000000000e+00 1.000000000000000000e+00 1.000000000000000000e+00 1.000000000000000000e+00 1.000000000000000000e+00 1.000000000000000000e+00 1.000000000000000000e+00 1.000000000000000000e+00 1.000000000000000000e+00 1.000000000000000000e+00 1.000000000000000000e+00 1.000000000000000000e+00 1.000000000000000000e+00 1.000000000000000000e+00 1.000000000000000000e+00 1.000000000000000000e+00 1.000000000000000000e+00 1.000000000000000000e+00 1.000000000000000000e+00 1.000000000000000000e+00 1.000000000000000000e+00 1.000000000000000000e+00 1.000000000000000000e+00 1.000000000000000000e+00 1.000000000000000000e+00 1.000000000000000000e+00 1.000000000000000000e+00 1.000000000000000000e+00 1.000000000000000000e+00 1.000000000000000000e+00 1.000000000000000000e+00 1.000000000000000000e+00 1.000000000000000000e+00 1.000000000000000000e+00 1.000000000000000000e+00 1.000000000000000000e+00 1.000000000000000000e+00 1.000000000000000000e+00 1.000000000000000000e+00 1.000000000000000000e+00 1.000000000000000000e+00 1.000000000000000000e+00 1.000000000000000000e+00 1.000000000000000000e+00 1.000000000000000000e+00 1.000000000000000000e+00 1.000000000000000000e+00 1.000000000000000000e+00 1.000000000000000000e+00 1.000000000000000000e+00 1.000000000000000000e+00 1.000000000000000000e+00 1.000000000000000000e+00 1.000000000000000000e+00 1.000000000000000000e+00 1.000000000000000000e+00 1.000000000000000000e+00 1.000000000000000000e+00 1.000000000000000000e+00 1.000000000000000000e+00 1.000000000000000000e+00 1.000000000000000000e+00 1.000000000000000000e+00 1.000000000000000000e+00 1.000000000000000000e+00 1.000000000000000000e+00 1.000000000000000000e+00 1.000000000000000000e+00 1.000000000000000000e+00 1.000000000000000000e+00 1.000000000000000000e+00 1.000000000000000000e+00 1.000000000000000000e+00 1.000000000000000000e+00 1.000000000000000000e+00 1.000000000000000000e+00 1.000000000000000000e+00 1.000000000000000000e+00 1.000000000000000000e+00 1.000000000000000000e+00 1.000000000000000000e+00 1.000000000000000000e+00 1.000000000000000000e+00 1.000000000000000000e+00 1.000000000000000000e+00 1.000000000000000000e+00 1.000000000000000000e+00 1.000000000000000000e+00 1.000000000000000000e+00 1.000000000000000000e+00 1.000000000000000000e+00 1.000000000000000000e+00 1.000000000000000000e+00 1.000000000000000000e+00 1.000000000000000000e+00 1.000000000000000000e+00 1.000000000000000000e+00 1.000000000000000000e+00 1.000000000000000000e+00 1.000000000000000000e+00 1.000000000000000000e+00 1.000000000000000000e+00 1.000000000000000000e+00 1.000000000000000000e+00 1.000000000000000000e+00 1.000000000000000000e+00 1.000000000000000000e+00 1.000000000000000000e+00 1.000000000000000000e+00 1.000000000000000000e+00 1.000000000000000000e+00 1.000000000000000000e+00 1.000000000000000000e+00 1.000000000000000000e+00 1.000000000000000000e+00 1.000000000000000000e+00 1.000000000000000000e+00 1.000000000000000000e+00 1.000000000000000000e+00 1.000000000000000000e+00 1.000000000000000000e+00 1.000000000000000000e+00 1.000000000000000000e+00 1.000000000000000000e+00 1.000000000000000000e+00 1.000000000000000000e+00 1.000000000000000000e+00 1.000000000000000000e+00 1.000000000000000000e+00 1.000000000000000000e+00 1.000000000000000000e+00 1.000000000000000000e+00 1.000000000000000000e+00 1.000000000000000000e+00 1.000000000000000000e+00 1.000000000000000000e+00 1.000000000000000000e+00 1.000000000000000000e+00 1.000000000000000000e+00 1.000000000000000000e+00 1.000000000000000000e+00 1.000000000000000000e+00 1.000000000000000000e+00 1.000000000000000000e+00 1.000000000000000000e+00 1.000000000000000000e+00 1.000000000000000000e+00 1.000000000000000000e+00 1.000000000000000000e+00 1.000000000000000000e+00 1.000000000000000000e+00 1.000000000000000000e+00 1.000000000000000000e+00 1.000000000000000000e+00 1.000000000000000000e+00 1.000000000000000000e+00 1.000000000000000000e+00 1.000000000000000000e+00 1.000000000000000000e+00 1.000000000000000000e+00 1.000000000000000000e+00 1.000000000000000000e+00 1.000000000000000000e+00 1.000000000000000000e+00 1.000000000000000000e+00 1.000000000000000000e+00 1.000000000000000000e+00 1.000000000000000000e+00 1.000000000000000000e+00 1.000000000000000000e+00 1.000000000000000000e+00 1.000000000000000000e+00 1.000000000000000000e+00 1.000000000000000000e+00 1.000000000000000000e+00 1.000000000000000000e+00 1.000000000000000000e+00 1.000000000000000000e+00 1.000000000000000000e+00 1.000000000000000000e+00 1.000000000000000000e+00 1.000000000000000000e+00 1.000000000000000000e+00 1.000000000000000000e+00 1.000000000000000000e+00 1.000000000000000000e+00 1.000000000000000000e+00 1.000000000000000000e+00 1.000000000000000000e+00 1.000000000000000000e+00 1.000000000000000000e+00 1.000000000000000000e+00 1.000000000000000000e+00 1.000000000000000000e+00 1.000000000000000000e+00 1.000000000000000000e+00 1.000000000000000000e+00 1.000000000000000000e+00 1.000000000000000000e+00 1.000000000000000000e+00 1.000000000000000000e+00 1.000000000000000000e+00 1.000000000000000000e+00 1.000000000000000000e+00 1.000000000000000000e+00 1.000000000000000000e+00 1.000000000000000000e+00 1.000000000000000000e+00 1.000000000000000000e+00 1.000000000000000000e+00 1.000000000000000000e+00 1.000000000000000000e+00 1.000000000000000000e+00 1.000000000000000000e+00 1.000000000000000000e+00 1.000000000000000000e+00 1.000000000000000000e+00 1.000000000000000000e+00 1.000000000000000000e+00 1.000000000000000000e+00 1.000000000000000000e+00 1.000000000000000000e+00 1.000000000000000000e+00 1.000000000000000000e+00 1.000000000000000000e+00 1.000000000000000000e+00 1.000000000000000000e+00 1.000000000000000000e+00 1.000000000000000000e+00 1.000000000000000000e+00 1.000000000000000000e+00 1.000000000000000000e+00 1.000000000000000000e+00 1.000000000000000000e+00 1.000000000000000000e+00 1.000000000000000000e+00 1.000000000000000000e+00 1.000000000000000000e+00 1.000000000000000000e+00 1.000000000000000000e+00 1.000000000000000000e+00 1.000000000000000000e+00 1.000000000000000000e+00 1.000000000000000000e+00 1.000000000000000000e+00 1.000000000000000000e+00 1.000000000000000000e+00 1.000000000000000000e+00 1.000000000000000000e+00 1.000000000000000000e+00 1.000000000000000000e+00 1.000000000000000000e+00 1.000000000000000000e+00 1.000000000000000000e+00 1.000000000000000000e+00 1.000000000000000000e+00 1.000000000000000000e+00 1.000000000000000000e+00 1.000000000000000000e+00 1.000000000000000000e+00 1.000000000000000000e+00 1.000000000000000000e+00 1.000000000000000000e+00 1.000000000000000000e+00 1.000000000000000000e+00 1.000000000000000000e+00 1.000000000000000000e+00 1.000000000000000000e+00 1.000000000000000000e+00 1.000000000000000000e+00 1.000000000000000000e+00 1.000000000000000000e+00 1.000000000000000000e+00 1.000000000000000000e+00 1.000000000000000000e+00 1.000000000000000000e+00 1.000000000000000000e+00 1.000000000000000000e+00 1.000000000000000000e+00 1.000000000000000000e+00 1.000000000000000000e+00 1.000000000000000000e+00 1.000000000000000000e+00 1.000000000000000000e+00 1.000000000000000000e+00 1.000000000000000000e+00 1.000000000000000000e+00 1.000000000000000000e+00 1.000000000000000000e+00 1.000000000000000000e+00 1.000000000000000000e+00 1.000000000000000000e+00 1.000000000000000000e+00 1.000000000000000000e+00 1.000000000000000000e+00 1.000000000000000000e+00 1.000000000000000000e+00 1.000000000000000000e+00 1.000000000000000000e+00 1.000000000000000000e+00 1.000000000000000000e+00 1.000000000000000000e+00 1.000000000000000000e+00 1.000000000000000000e+00 1.000000000000000000e+00 1.000000000000000000e+00 1.000000000000000000e+00 1.000000000000000000e+00 1.000000000000000000e+00 1.000000000000000000e+00 1.000000000000000000e+00 1.000000000000000000e+00 1.000000000000000000e+00 1.000000000000000000e+00 1.000000000000000000e+00 1.000000000000000000e+00 1.000000000000000000e+00 1.000000000000000000e+00 1.000000000000000000e+00 1.000000000000000000e+00 1.000000000000000000e+00 1.000000000000000000e+00 1.000000000000000000e+00 1.000000000000000000e+00 1.000000000000000000e+00 1.000000000000000000e+00 1.000000000000000000e+00 1.000000000000000000e+00 1.000000000000000000e+00 1.000000000000000000e+00 1.000000000000000000e+00 1.000000000000000000e+00 1.000000000000000000e+00 1.000000000000000000e+00 1.000000000000000000e+00 1.000000000000000000e+00 1.000000000000000000e+00 1.000000000000000000e+00 1.000000000000000000e+00 1.000000000000000000e+00 1.000000000000000000e+00 1.000000000000000000e+00 1.000000000000000000e+00 1.000000000000000000e+00 1.000000000000000000e+00 1.000000000000000000e+00 1.000000000000000000e+00 1.000000000000000000e+00 1.000000000000000000e+00 1.000000000000000000e+00 1.000000000000000000e+00 1.000000000000000000e+00 1.000000000000000000e+00 1.000000000000000000e+00 1.000000000000000000e+00 1.000000000000000000e+00 1.000000000000000000e+00 1.000000000000000000e+00 1.000000000000000000e+00 1.000000000000000000e+00 1.000000000000000000e+00 1.000000000000000000e+00 1.000000000000000000e+00 1.000000000000000000e+00 1.000000000000000000e+00 1.000000000000000000e+00 1.000000000000000000e+00 1.000000000000000000e+00 1.000000000000000000e+00 1.000000000000000000e+00 1.000000000000000000e+00 1.000000000000000000e+00 1.000000000000000000e+00 1.000000000000000000e+00 1.000000000000000000e+00 1.000000000000000000e+00 1.000000000000000000e+00 1.000000000000000000e+00 1.000000000000000000e+00 1.000000000000000000e+00 1.000000000000000000e+00 1.000000000000000000e+00 1.000000000000000000e+00 1.000000000000000000e+00 1.000000000000000000e+00 1.000000000000000000e+00 1.000000000000000000e+00 1.000000000000000000e+00 1.000000000000000000e+00 1.000000000000000000e+00 1.000000000000000000e+00 1.000000000000000000e+00 1.000000000000000000e+00 1.000000000000000000e+00 1.000000000000000000e+00 1.000000000000000000e+00 1.000000000000000000e+00 1.000000000000000000e+00 1.000000000000000000e+00 1.000000000000000000e+00 1.000000000000000000e+00 1.000000000000000000e+00 1.000000000000000000e+00 1.000000000000000000e+00 1.000000000000000000e+00 1.000000000000000000e+00 1.000000000000000000e+00 1.000000000000000000e+00 1.000000000000000000e+00 1.000000000000000000e+00 1.000000000000000000e+00 1.000000000000000000e+00 1.000000000000000000e+00 1.000000000000000000e+00 1.000000000000000000e+00 1.000000000000000000e+00 1.000000000000000000e+00 1.000000000000000000e+00 1.000000000000000000e+00 1.000000000000000000e+00 1.000000000000000000e+00 1.000000000000000000e+00 1.000000000000000000e+00 1.000000000000000000e+00 1.000000000000000000e+00 1.000000000000000000e+00 1.000000000000000000e+00 1.000000000000000000e+00 1.000000000000000000e+00 1.000000000000000000e+00 1.000000000000000000e+00 1.000000000000000000e+00 1.000000000000000000e+00 1.000000000000000000e+00 1.000000000000000000e+00 1.000000000000000000e+00 1.000000000000000000e+00 1.000000000000000000e+00 1.000000000000000000e+00 1.000000000000000000e+00 1.000000000000000000e+00 1.000000000000000000e+00 1.000000000000000000e+00 1.000000000000000000e+00 1.000000000000000000e+00 1.000000000000000000e+00 1.000000000000000000e+00 1.000000000000000000e+00 1.000000000000000000e+00 1.000000000000000000e+00 1.000000000000000000e+00 1.000000000000000000e+00 1.000000000000000000e+00 1.000000000000000000e+00 1.000000000000000000e+00 1.000000000000000000e+00 1.000000000000000000e+00 1.000000000000000000e+00 1.000000000000000000e+00 1.000000000000000000e+00 1.000000000000000000e+00 1.000000000000000000e+00 1.000000000000000000e+00 1.000000000000000000e+00 1.000000000000000000e+00 1.000000000000000000e+00 1.000000000000000000e+00 1.000000000000000000e+00 1.000000000000000000e+00 1.000000000000000000e+00 1.000000000000000000e+00 1.000000000000000000e+00 1.000000000000000000e+00 1.000000000000000000e+00 1.000000000000000000e+00 1.000000000000000000e+00 1.000000000000000000e+00 1.000000000000000000e+00 1.000000000000000000e+00 1.000000000000000000e+00 1.000000000000000000e+00 1.000000000000000000e+00 1.000000000000000000e+00 1.000000000000000000e+00
-5.206995274251822493e-03 5.535293147685896864e-01 -1.881484085134945694e-01 7.158621641828885052e-01 5.156904915885066609e-01 5.873808591826312764e-01 6.474873177388272838e-01 2.501126147132486932e-01 5.190537671078880866e-01 5.031372035777860185e-01 1.075231964013666941e+00 -6.635251549442265917e-01 1.386900617673097802e+00 4.441042730017798479e-01 5.108375296195485360e-01 4.063502082683054795e-01 9.174920405982716076e-01 9.683784814165076194e-01 6.461702875619240727e-01 5.202185490392657874e-01 4.450960773846551755e-01 9.740239701025914520e-01 5.065631211468576423e-01 4.641052534635187743e-01 1.203178702897293589e-01 6.862923597468578718e-01 3.584017033926922280e-01 5.580207825813200406e-01 5.276421846560710449e-01 1.527711419338053878e+00 5.365757830100430503e-01 6.136942916233067979e-01 7.214007264117427987e-01 4.890279486614981241e-01 7.162190250957748416e-01 4.543746469294960288e-01 5.665082876887332919e-01 1.725770300835783200e+00 -6.091660425671711898e-02 4.910860549809664688e-01 -1.266699517932947106e-01 -5.580625102254455072e-01 7.514665569637525300e-01 2.224415417006009865e-01 2.588546057297508307e-01 5.189781561366229035e-01 7.162493720735347846e-01 5.263976992415101419e-01 5.475513794260038480e-01 2.736409318319171086e-02 1.099762092081922257e-02 8.494655738266657652e-01 6.672842323355615557e-01 4.865813531470547515e-01 4.501964114865298905e-01 1.435791837584423324e-02 4.918788285117666748e-01 5.477802388602980299e-01 1.840001213414431680e-01 4.844566107984310532e-01 9.070187351231081552e-01 5.564245329966732712e-01 4.652462527669569692e-01 5.065631021197265493e-01 6.834127740225750536e-01 5.095048186130719525e-01 5.101978434357902215e-01 2.811992429796356108e-01 5.285836434606396850e-01 -1.153579665760482570e-02 4.069977580245813797e-01 4.624156213194296483e-01 5.238347614043183942e-01 4.263833870718190117e-02 1.488571201617095552e+00 5.600535925310428098e-01 6.313140298289043884e-01 7.451094687492811897e-01 5.120112244218640862e-01 1.377772345708123236e+00 5.429991944439386264e-01 2.801453925004783185e-01 1.360736509661296889e+00 6.600316967234870491e-01 4.872241276279743460e-01 7.581450468264810949e-01 8.175097142888939628e-01 5.390525417160693111e-01 4.018170385566903202e-01 5.752738890433793939e-01 2.610770807226190926e-01 2.124461260703146337e+00 7.019402585703325981e-01 -5.999378003987423241e-02 5.523258943124396136e-01 5.961856834804502014e-01 5.164531126379169335e-01 4.705766488212392851e-01 1.895670855726800941e-01 6.934081420875628510e-01 1.568326866029817079e+00 6.862558540275344177e-01 5.378708412079775680e-01 7.882186518718425905e-01 8.575333816607013659e-01 -1.993580789848693691e+00 -1.186396782224280688e+00 5.495889148792354462e-01 5.453528971020593641e-01 9.732798361682307720e-01 5.174297862888299626e-01 4.817172978594637667e-01 1.673029267649361607e-01 4.679563052194936623e-01 5.162513315486135790e-01 5.179539201243875679e-01 5.256241528148052344e-01 5.500862517873328361e-01 8.549033670074178692e-01 5.153687880706837587e-01 1.288446022964988558e+00 5.651361421468046320e-01 5.262260140182632995e-01 -3.364854235801799653e-01 5.112744196973045829e-01 1.916377134326048282e+00 5.504649733718057769e-01 4.706687472644261461e-01 6.864858407913069227e-01 5.020177585361582651e-01 5.558819758362731900e-01 5.171009877799072063e-01 4.085483438250590571e-01 2.500155475174671293e-01 -1.982338836668476878e-01 -1.514643869281100952e-01 6.124644146388189547e-01 3.589596624021761800e-02 9.894712164669536847e-01 6.847868065923483627e-01 4.922844924713415948e-01 8.545112403155523673e-01 6.540240854480530164e-01 5.917141326349658614e-01 5.037121627161987858e-01 2.048447742873566943e-02 8.569910461481391462e-01 1.330795066296470430e-01 4.835411722451234406e-01 -8.537387542206223978e-01 7.808022549576533189e-01 -2.997156447333100826e-01 5.189785084518281355e-01 5.252355180225094511e-01 5.078274793207933069e-01 5.193999754113631795e-01 1.857369907530802333e+00 -4.729185090186755619e-02 8.066022330160584897e-01 6.998545719385650399e-01 5.098936714314661334e-01 4.304911948592901605e-01 5.053370756215741499e-01 5.085390643213708595e-01 1.092676500349144320e+00 1.395562289867770811e-01 8.430407389588885358e-01 4.538883298628181295e-01 6.065619896545796363e-01 5.955418194632580153e-01 4.221764252213958679e-01 7.140073714722741105e-01 5.189723553593397209e-01 5.065970100445161828e-01 4.066748359775984589e-01 1.640409779771208332e-02 1.739199229424837345e-01 7.412913176345156674e-02 7.366441931042443381e-01 1.139349272176123140e+00 7.197623709052283214e-01 5.024283002270265586e-01 -1.878050897158412835e-01 4.712349279199263274e-01 6.790626933675305565e-01 5.217903910536311196e-01 5.263571512287252840e-01 5.002915945931264430e-01 2.714925327633439966e+00 5.257922105120074185e-01 5.058778576363027746e-01 -8.555414356932423692e-01 5.229362537157217217e-01 5.720938964430467566e-01 1.762832414209954124e-01 5.055617521015484117e-01 9.237717334432621330e-01 5.240582465112549881e-01 6.926455639233496386e-01 4.247253001348387236e-01 6.115242350047322972e-01 5.502243723280709764e-01 9.720821701862886188e-01 5.992065429860435888e-01 5.432567009667561564e-01 6.926455834667214484e-01 2.968688492440589299e-01 1.275167357743757224e+00 5.121611978299495105e-01 3.514541786748396901e-01 4.488797087280491094e-01 -6.072358832483222557e-02 4.693226024506979566e-01 1.650402139726989681e-01 5.283532411059220779e-01 5.070101670339111077e-01 5.169135381323319844e-01 5.243205755666868750e-01 5.076575164509521398e-01 5.039264137488896900e-01 4.552625933648453693e-01 6.143733621904585718e-01 -6.907968393487207148e-01 5.580100053666778859e-01 3.074382978329147642e-01 4.058201417211495521e-01 1.717981102777676183e-01 1.268135969840429533e+00 9.459006778053459241e-01 5.030351154815100312e-01 -1.048593842012008753e-01 1.043508008695913869e+00 5.138675143899200659e-01 4.561176456213966723e-01 4.524665561596778462e-01 4.187328642496986886e-01 4.367045294794651977e-01 2.039755688992304361e-01 -1.428838799992411257e-01 -1.261818060805189323e-01 3.000456231229480242e-01 5.114150125499473676e-01 -9.576141747996488873e-02 4.865302286032018309e-01 5.163711919318491050e-01 4.478656619332521127e-01 -1.057049490032776345e-01 7.407794366677645792e-01 -2.182196930170660742e+00 5.825052003250843491e-01 -5.313802369004032577e-01 4.960587459867595306e-01 5.120601139343622377e-01 5.065631065794535814e-01 4.757873661810516630e-01 5.250229703094855260e-01 5.131898534965861902e-01 7.258630906796943449e-01 5.339318026054007404e-01 1.678835715505649251e+00 6.699296167338539831e-01 6.980025346109068884e-01 5.168316355169231269e-01 3.516564921093711660e-01 9.070187624025352058e-01 3.704450006775180104e-01 2.609661926518607622e+00 5.672208259637256944e-01 2.452867842241182317e-01 6.678336329880293354e-01 5.030428224401104487e-01 9.064218455398060925e-01 5.038762297588336159e-01 5.279513700020881384e-01 5.107299286680349049e-01 1.046682782541172418e+00 7.582839078299243862e-01 8.682043529979525109e-01 8.120125139439990924e-01 3.268616987874489732e-01 6.729406536998887578e-01 5.647140524731916189e-01 3.993926065697200878e-01 -6.925647879076198832e-01 3.806614148630057537e-01 7.077196644151452221e-01 5.438856679368669900e-01 5.253824975752090509e-01 5.179539195512915528e-01 6.060365580352569115e-01 5.349711674733876876e-01 -7.478166084310038375e-01 6.780360011096243644e-01 5.134854230381608042e-01 5.921255940752157693e-02 5.319595695649415035e-01 1.837982628164197552e+00 4.916431220388849388e-01 5.037987235716653300e-01 4.835467411265724769e-01 -3.315882909609079388e+00 5.179674868923302977e-01 2.672537616423782847e+00 7.145092947425802921e-01 4.953274273971023378e-01 -5.828910788454186864e-01 5.112034070910628225e-01 5.090005409695773642e-01 4.316178982639230499e-01 4.666688913054966581e-01 3.902063547864316750e-01 6.335929738846285408e-01 3.150647609709903985e-01 5.161032509689118530e-01 5.235453217908486723e-01 3.753381620553253861e-01 4.998284981214038969e-01 7.148919983428824176e-01 5.110128893829313235e-01 1.183919639899647658e+00 1.524920761840846579e-02 2.195191143992635485e+00 2.587594633689752399e+00 5.607562066167709469e-01 -1.899532656305163159e-01 4.888430851404847455e-01 4.065204673564283278e-01 7.184689221008313531e-01 1.354298799596604930e+00 5.396603839936089386e-01 1.114601002973633515e+00 5.068637862173591691e-01 1.311149018470285088e-01 1.240442155364213761e+00 3.801940446084152159e-01 4.975698568660353871e-01 5.448273847326382535e-01 8.623156819958194275e-01 -3.578055170918875039e+00 1.603387916724264173e+00 5.497360680901306473e-01 6.403482120430579183e-01 5.050589072331957974e-01 1.725770293806772271e+00 3.127970324855640083e-01 5.312914357303899493e-01 4.793563747453908341e-01 4.271467926016180860e-01 1.384150576060778404e+00 6.333280343016572944e-01 6.926455637640830387e-01 4.865272106435408195e-01 5.992065435737526924e-01 6.667140342352204652e-01 5.578577423203007202e-01 8.863454617607826602e-01 5.097704673431450173e-01 4.003591626759741007e-01 2.492708855334072326e-01 6.344222780183410570e-01 5.161769258302560948e-01 4.900179065852756088e-01 5.312914358200810927e-01 6.581663637151962121e-01 5.065411498314618122e-01 9.813449130295697209e-01 1.010351703809249990e+00 1.112344303929941436e+00 5.242659346876392679e-01 2.514833807871224569e-01 9.070193827642605289e-01 -1.085358875722087224e-01 9.327472553914503139e-01 6.260987951959270381e-01 1.499061285531125623e-02 5.431240853958090309e-01 1.010855495554562999e+00 3.940041785149913101e-01 5.374548577267048710e-01 2.625928239412627652e-01 -3.272984638431669646e-01 -2.397141573902365597e+00 4.643323963102139462e-01 5.992065429421116196e-01 5.992064955406085636e-01 5.221908920806060950e-01 4.777333357394084046e-01 -1.997359601942451657e-01 3.495282566538777114e-01 4.984664227354733690e-01 6.219907653059584263e-01 5.095920143514665046e-01 1.067323948005548528e+00 6.926454019609232793e-01 5.130606238822990051e-01 4.681791653928564778e-01 2.659102533650444244e-01 6.440028943649656057e-01 5.326420796686895942e-01 5.158904556256725948e-01 5.630250737694452168e-01 2.644987960053066245e-01 2.828659137222336306e-02 5.992065436209819129e-01 6.541083493950928807e-01 5.085104227323739012e-01 4.605622965233515109e-01 8.563804842103805992e-01 6.310994312626355685e-01 5.626980501482066188e-01 1.788890099237824938e+00 5.287363742828121715e-01 -2.933628626518994142e+00 7.161754843953950234e-01 1.492319524763172867e+00 5.244098370561179889e-01 -1.023191010923087285e+00 6.797954950387150586e-01 4.817898238037661707e-01 5.116044785637220427e-01 5.415542816871864451e-01 -2.409152891346917902e-01 5.140408048338638292e-01 1.061185924290526827e+00 6.384533703008720140e-01 -3.050079305503385352e-01 5.221469954635911126e-01 5.034508188664306161e-01 7.608169369609633081e-01 5.223887082911139457e-01 4.991042410148807118e-01 -4.944351799828357041e-01 5.619479841873794568e-01 5.130348921479862545e-01 7.222999438602148992e-01 5.032256966178022539e-01 7.629701286358534507e-01 5.079044589631546147e-01 5.580873188442531108e-01 7.479634314724360467e-01 5.517712797445576411e-01 3.589821964578845948e-01 2.558684689622477415e-01 3.028466111510417225e-01 9.498320592886427827e-01 5.428532976532822740e-01 3.132164361995120050e+00 6.606803173517025174e-01 5.862276635594720897e-01 5.624052255887721508e-01 6.439227992058692562e-01 2.728737800180389486e-02 4.817593445095428861e-01 6.030454246705907462e-01 5.182756725198514047e-01 1.166365058424699397e+00 7.631650922967576633e-01 5.262273586396842839e-01 4.560394903804775302e-01 1.112628214754803668e+00 5.267484946102614085e-01 5.237803431500545059e-01 5.224764796566320202e-01 6.873172763705038824e-01 5.139498870634474637e-01 9.127410524527526103e-01 4.726135173121456257e-01 5.093943122241482158e-01 1.404523394244790342e-02 5.389831399203600659e-01 4.271536474132493766e-02 3.776521197115167983e-01 4.238737158443035558e-01 5.408353259950554603e-01 7.678861483363308427e-01 5.016279883661312056e-01 4.058063636505104821e-01 3.730803148845131256e-02 5.752891001824350647e-01 5.343540416757184275e-01 5.316850104386450226e-01 4.164768705362208862e-02 5.131899563142926501e-01 2.494882882534959212e-01 5.110708966077570636e-01 4.402372403968622949e-01 1.246036419163888853e+00 7.941263206533846208e-01 5.053918691203267421e-01 2.849898563022635334e-01 5.920752708060116332e-01 4.157552177854336728e-01 9.828140491650846355e-01 5.697709766308780566e-01 5.087682609781358778e-01 6.798170070408217081e-01 1.952870246377057750e+00 4.534912347524842624e-01 4.010274500700266587e-01 5.138079233065167006e-01 6.777323910730389533e-01 4.355897868230775294e-01 8.136545574116467172e-01 -5.579192961177555921e-01 3.100904477185115193e-01 5.552059287842344704e-01 4.463748190429952523e-01 3.797430173125561081e-01 -5.896743856335143752e-01 3.914245088112090487e-01 5.143471997024675613e-01 7.387945362473038458e-01 6.626225282957193263e-01 1.393020455116299239e+00 5.097363228195687102e-01 5.201290280006425348e-01 -6.693974108341247398e-01 4.890859244070945855e-01 1.188213534696462848e+00 6.866099377130832071e-01 2.454949211627298900e-01 2.940666667231073284e-01 -1.514072076201744554e+00 4.897002149170752716e-01 1.979321221549195653e-01 1.088166175049784190e+00 8.101482219789101213e-01 5.168471006757323627e-01 5.055935502860826603e-01 6.067255695996358611e-01 7.159210379712229733e-01 4.829987206549446466e-01 5.673413229002141067e-01 2.588144398019386061e-02 5.342480409573938660e-01 6.186311898620021621e-01 6.696641505986947740e-01 4.936156832996281274e-01 5.972554029926523400e-01 1.173063873336716467e+00 -1.120183351947601769e-01 -2.228351482362013747e-01 4.695986521276428460e-01 5.416162326891666989e-01 5.647802570722640914e-01 5.260008910163750384e-01 -8.191880029901379423e-01 3.096978890043584620e+00 5.921510112561336747e-01 4.643403670013264151e-01 4.153249079098567664e-01 5.127061438660072135e-01 5.180741804120037042e-01 6.493489889030329421e-01 3.287598252526747200e-01 5.709009104412924307e-01 5.146414699540182713e-01 6.644381307317688279e-01 3.846478672234595053e-01 5.678637131777131142e-01 5.220824619899667729e-01 4.064919394348465165e-01 4.581507054224609465e-01 5.399939291174481459e-01 6.359643358722525397e-01 9.939083787564608752e-01 2.278505463008694498e+00 5.891194770701843053e-01 4.928060483463845287e-01 5.640306789909184104e-01 5.474266311188947798e-01 3.650589780335694035e-01 5.100478996426820455e-01 5.118267302748029657e-01 5.593424491161528289e-01 4.940723988018883572e-01 4.958349196952003268e-01 7.154736015559239881e-01 3.717488604004801078e-01 5.993599368574045183e-01 5.490505802684471082e-01 5.942307618588962281e-01 1.298147819710697148e-01 9.070187473420696644e-01 5.382433887466229194e-01 1.591601483551852159e-01 1.905170507824942572e+00 2.608944446791660043e-01 4.829545698357946004e-01 5.822881162069782901e-01 5.942584449471313007e-02 5.467145861643224469e-01 1.490270631281984892e+00 7.364802835007913107e-01 8.014161519619662499e-01 5.125900229736145564e-01 5.348966981614121652e-01 5.174264133918355935e-01 5.955392698980253030e-01 5.205851684152584813e-01 5.109293196144120142e-01 -1.358992840371624211e-01 6.029544999687777018e-01 -1.325932584376048773e+00 5.404098267392710708e-01 4.874732230538688094e-01 5.484682644495758597e-01 4.835583782277627640e-01 9.070187472855177901e-01 2.310697013976512060e-01 5.673055956853637616e-01 1.298292862622720367e+00 -5.228812303158176800e-01 5.022416866697991811e-01 1.108108712290267528e+00 1.459070998367458127e+00 3.734628398349407741e-01 5.040468311886648900e-01 -4.059826860675599947e-02 -1.622722297499343380e+00 2.864282177729169376e-01 7.047299730422544872e-01 5.271336726560217345e-01 5.092837752552066277e-01 4.601229883964463863e-01 4.897961916158777851e-01 -3.812318651750906118e-01 8.050249790854994147e-01 5.179539261321559618e-01 3.494915981910101666e-01 5.339201443574319583e-01 -2.761254717574741779e-02 -1.776362390082087406e-01 1.736683804524677965e+00 4.181680160521000222e-01 4.265410300453169601e-01 5.057535648266582307e-01 3.345978857294034658e-01 6.284538554159420087e-01 6.069616298762396667e-03 -9.342459648455734289e-01 5.103570206284736566e-01 5.136084392325279691e-01 4.671472486885401842e-01 5.705639938913672493e-01 5.495124094195066311e-01 5.398826440851891562e-01 5.165433744664940097e-01 5.837336834925135332e-01 1.020711911968976704e+00 7.289591041508168834e-01 5.495965825978631480e-01 5.303677543721103671e-01 4.898875555413427785e-01 4.344184090116490760e-01 -3.324193836931366251e-03 5.312914364251227761e-01 5.761298399588741237e-01 4.623360108050607598e-01 7.348493681849693759e-01 9.881671131629909954e-01 8.136432274099323347e-01 -4.515665280078167143e-01 5.492980201655133232e-01 5.472409111634369827e-01 5.044899254630872409e-01 5.648685936288156961e-01 8.914544221484658193e-01 5.420890683847880975e-01 4.967143305568100242e-01 -1.821302034800951763e-01 -8.263663061898788298e-01 2.230445922815060378e+00 5.274336551631648717e-01 8.837835392489773456e-01 5.031257630170852257e-01 5.634530277571291323e-01 3.545632630890446779e-01 1.483459497238926172e-01 5.107935334974058605e-01 5.362628450413987613e-01 7.417522320847406113e-03 5.111535860070184345e-01 4.259586978937735524e-01 5.152658736198216793e-01 7.746204372987064435e-01 4.975178312110333234e-01 5.779235873418792080e-01 3.802633781018208703e-01 5.658751528625532989e-01 3.306155434655884129e-01 5.131248567743413869e-01 4.700845190744841751e-01 5.169362963829329249e-01 -3.007136906081446792e-01 5.044371501603904795e-01 6.430751329157207152e-01 5.297159607874272202e-01 7.160878234491538930e-01 9.070184472940370224e-01 7.367538349188893498e-01 -5.725074373757260693e-01 9.957626392032882245e-01 1.725770300854955419e+00 4.702851523954109103e-01 4.639011478838925284e-01 1.064154065774481461e+00 5.247226698063578443e-01 7.162258954122514565e-01 5.086111506908596036e-01 1.762264631126669201e+00 5.046296694890824996e-01 4.865302370509870800e-01 1.234286433987543896e+00 -4.758537122184068602e-02 5.293707787001122878e-01 -1.691915196247258668e-01 -9.232356598694726468e-01 -1.778504892634049372e-01 7.807427130262200032e-01 5.266044204933192363e-01 5.849164255733245721e-01 -3.375221080734598922e-01 4.957128280542512089e-01 -1.081910529961416928e-03 -3.342893408186469184e-01 4.503437506260503098e-01 5.087487223408354575e-01 5.130482278228066795e-01 5.691817332457775880e-01 5.642411300369662985e-01 8.977810608061315145e-01 -3.671928398595836196e-01 5.157491661205383382e-01 5.581522096560149748e-01 6.323419893792039392e-01 1.154195231095132002e+00 5.248313982306848091e-01 5.945977855806495738e-01 5.172246098999307984e-01 1.501161157867422248e-02 -2.409736840256928303e-01 4.997343989544571485e-01 5.195571031561977415e-01 6.507083371980005859e-01 4.876080286713962986e-01 3.329590049733658352e-01 5.100093735677768692e-01 5.035452431135145623e-01 3.241072047755432783e-01 5.064262268586575688e-01 8.361496615298967816e-01 2.500480678207217089e+00 -2.323749661395833888e-01 6.695004088390799080e-01 3.493192338598816171e-01 2.284571605418030671e-01 6.906887379082581324e-01 -5.564909579839096704e-02 -1.459594595812761630e+00 5.232612518061876550e-01 2.560854638837128494e+00 5.153403389606205920e-01 1.425623346216640386e-01 1.861466410373720792e-01 5.179539201372100887e-01 5.438803711459546664e-01 1.525254249178092936e+00 4.876095953378123959e-01 1.253498892075586568e-01 4.511460305769390278e-01 1.646049567905514932e+00 5.596652997451683209e-01 6.882221183146297605e-01 4.881322962842899460e-01 7.436013588096559435e-01 4.510074390804280076e-01 5.596368211788623759e-01 7.764079674109622409e-03 5.147055373460573957e-01 5.772738522852598475e-01 -5.575743195667733909e-01 -1.493410340437081353e-02 1.164642717633586955e+00 2.340354749402851209e-01 4.962856161615130657e-01 6.600280442131404302e-01 5.367010166134643656e-01 1.977818822057457515e+00 7.121302455583317093e-01 2.616935855523707874e-02 2.471745129895639437e-01 4.122981016205330418e-01 1.083768210414602473e+00 5.570470359917226721e-01 -1.699303509614121660e-02 4.896272099096530828e-01 -2.686456532010348189e-02 5.230999013113258878e-01 5.161662624499573360e-01 1.352304921696989223e-02 -7.837937909531673963e-02 6.631051498789750642e-01 6.179430041076604541e-01 5.185683247892771686e-01 3.290768762040843787e-01 5.521596581729341091e-01 4.788181531077605468e-01 5.634648006487827931e-01 5.436838107625133754e-01 4.834671143589182596e-01 6.503945618314751487e-01 1.011220080359012785e+00 3.061357149243256970e+00 8.741104533120563902e-01 5.215630275630359636e-01 6.585897726344694947e-01 2.093306522593312291e-01 5.058901917117911706e-01 8.290533666399381163e-01 4.783412872625584233e-01 1.315384048579215648e+00 5.532171949971428360e-01 -5.568711315433869657e-01 -8.242612280566824837e-03 4.266341469364676731e-01 6.098225584570607927e-01 5.638630820499709317e-01 5.038824653631690520e-01 -1.205914284620836045e-02 4.709840236509703071e-01 3.948774447150217859e-01 -3.487546363935550620e+00 4.958611471621904299e-01 5.343161934842982630e-01 1.112615407211782648e+00 5.153708629121195317e-01 6.024998903697804664e-01 6.794802884249024899e-01 -8.490637463794281636e-01 -5.077731955347812853e-01 6.082436149588228008e-02 5.060531187556186472e-01 4.023620490579166709e-01 2.295417316747174752e-01 4.857201914160633183e-01 -3.262283422673664668e-01 6.706032840194383615e-01 5.696712661113064735e-01 6.925589381827776947e-01 5.315546447328207691e-01 4.794624147092335087e-01 1.699363920100084580e-01 -7.176338461314556438e-01 6.448046217026700555e-01 5.449228364017232318e-01 1.689679477120236417e-01 5.091338295430438698e-01 5.857177180225636715e-01 4.952297797241594912e-01 6.665077683546207776e-01 5.634913950520532566e-01 5.338701339460295570e-01 4.964135929143150827e-01 1.725770300312386318e+00 3.763624944702301245e-01 5.528631035840528840e-01 -9.777063456621837290e-02 5.268233198527759731e-01 6.159905826744015434e-01 5.212496425001779121e-01 5.061856172231905537e-01 3.467313271178553702e-01 8.817819023885359320e-01 1.164842510884393834e+00 5.577460961894827873e-01 5.434416059085164230e-01 5.945724267490291037e-01 4.757853127465384024e-01 5.163166133411227765e-01 5.083359096025695800e-01 9.958151697490764676e-01 7.355904654243607954e-01 -4.439770886879372824e-01 4.390834897818197691e-01 9.222738005740868106e-01 4.805632786316744176e-01 6.271330475930992840e-03 5.385947771316157429e-01 1.124915929459935571e+00 -1.379755305794591047e-01 5.140545767946110844e-01 2.563446520500202719e-01 5.385930793049338305e-01 7.957130073947773496e-01 5.085302336859655048e-01 3.653108449878160191e-01 1.384719803110180614e+00 5.419945857576978776e-01 5.162076188460524850e-01 -5.923481606506110220e-01 4.660319870546373866e-01 1.044951820336847748e+00 5.753599668368400977e-01 1.175705231462420147e-01 9.333836848168148848e-01 -7.193032535992381626e-02 5.059571269132482341e-01 1.569175342115061600e+00 -8.449428008988052463e-01 5.255316567975468756e-01 5.125582367765321168e-01 -4.251969738253806308e-01 3.518064816618287072e-01 5.401623723581815417e-01 4.593836955879655459e-01 5.360111870851381743e-01 3.413439188571103511e-01 2.645572868971782787e-01 3.499175365329465492e-01 5.234872208955058115e-01 5.114298291267623808e-01 2.355560176291700454e-03 -3.523461494404681732e-02 5.189657777875392730e-01 1.056059972814961778e+00 3.753373355537052980e-01 -5.578108721044163776e-01 5.436664013318471822e-01 5.073254330685020852e-01 4.618826432169359508e-01 1.866679659431358038e-02 3.476040563326739941e-01 5.123377491313988452e-01 4.969187482443541692e-01 4.576010559329435345e-01 5.124802223780546701e-02 4.444268884162377864e-01 4.985935861872971553e-01 6.676751070893238715e-01 2.054379006309647426e+00 3.420370968862235239e-02 3.798494644746153170e-01 4.798174152172669515e-01 1.798420454044530992e+00 4.846516782010273361e-01 5.286192278323480487e-01 1.431374166026111970e-02 5.312914339189412916e-01 4.997758012639050285e-01 4.677078849219276080e-01 3.841702682866410812e-01 5.156564105698314693e-01 5.818817562129102727e-01 5.225913360878700065e-01 -4.929151676075135269e-01 5.054582797855778908e-01 5.031872762949580746e-01 5.280951910076150391e-01 9.042673019509633869e-01 5.211143129241072591e-01 -2.365018091692508706e-01 1.025510271182441757e+00 -1.197802126127488931e+00 -4.939537722169448641e-01 4.984972181951746184e-01 5.052666422574421112e-01 6.470055805196203158e-01 5.244918010674842757e-01 3.450722058166396100e-01 6.368106196066500857e-01 5.312914383508040572e-01 5.072045664042592605e-01 6.180724331720258702e-01 5.660979422300130848e-01 5.068961839364060085e-01 2.781843842815328038e-01 4.874449944966794956e-01 4.383100911708292524e-01 3.532234465979159910e-01 5.222289799951371769e-01 5.127579652857828796e-01 5.392417217389061657e-01 6.274483736231438735e-01 5.043562163513630736e-01 6.370775890144807496e-01 4.678457156111566762e-01 4.907435291541697442e-01 5.483653352803062875e-01 3.167478134792324207e-01 4.723776128787353645e-01 2.337070226267381035e+00 5.950366429201202623e-01 5.491940583259673492e-01 3.368828967284575038e-01 5.713683450919150308e-01 1.101409553431724531e+00 5.942041262290645998e-01 7.189999511284607125e-01 5.125265600913008202e-01
6.824798643984038016e-01 2.416549907688382848e-01 3.993182502941615697e-01 6.572703836195578631e-02 3.070959130567207374e-01 2.806374811872664465e-01 5.234061051809185683e-01 4.625609849603258272e-01 2.118929176946586224e-01 2.990115371760654339e-01 2.011909990500775347e+00 1.686812290254439350e+00 -1.399558299727420740e+00 6.201335910446040822e-01 3.122152269295089266e-01 3.621338290724247511e-01 1.279988290421937014e-01 4.171698670376782769e-01 4.493019112018272754e-01 2.848751391045544756e-01 4.720714490008660058e-01 2.063341519335359031e+00 4.059640215164355137e-01 3.476817982458034750e-01 6.947201468133634705e-01 -2.791182942338539807e-01 4.756456151984028713e-01 2.796165526058103645e-01 2.888110775381518280e-01 -8.164750977273084187e-01 2.172323712738395696e-01 -8.321361701877566519e-02 2.898123532302229743e-01 2.615176846381742637e-01 -4.306083696174742848e-01 3.965846989105108467e-01 3.111971177947588929e-01 -3.115632840230152523e-01 -3.144123914318753599e+00 2.845662521166785197e-01 1.090023424264686014e+00 1.374418900200087001e-01 -1.617276032656150275e-01 7.911374597233994388e-01 6.705958739883688402e-01 2.756666394477702564e-01 6.528167627794963235e-02 3.000791762704124177e-01 2.984128888951059766e-01 7.327856666792850193e-01 7.049436569646245765e-01 4.385898574092089719e-01 -3.008040587807210287e-01 1.952822902853535436e-01 6.040916297668406099e-01 7.065059456439398700e-01 3.115549556543239507e-01 2.924589254344107103e-01 3.486378122948138869e-01 3.244147178829464018e-01 4.210690197609176511e-01 3.110559082777926143e-01 3.340069810219450930e-01 4.059640260005632495e-01 -3.446443397823014676e-01 2.488326259885379477e-01 2.933083110209116495e-01 3.466065355468456177e-01 2.925387860122234396e-01 7.295087505819208840e-01 1.211202501864750286e-01 3.459416942364106906e-01 2.877614844647007342e-01 7.037462304160139182e-01 1.878284127442455320e+00 5.266488118556771347e-01 4.641431597293988465e-01 4.773806578773884257e-01 3.169785444191771662e-01 -1.306210090021968195e+00 2.694670360280368993e-01 6.601566545589093726e-01 2.218884871442115880e+00 1.463361848129256793e-01 2.904863086479186340e-01 -4.430672040776980625e-01 1.142310543373233345e-01 2.954104885415656523e-01 -5.655771103898419305e-01 -8.525299914843471605e-01 6.700050832228566788e-01 1.529019888684304940e+00 1.225671206924508760e-01 7.134023978453377657e-01 3.149682791329859732e-01 2.866449812645215922e-01 2.892762288953525940e-01 7.103419619114275108e-01 7.393956301372374140e-01 -2.769244207404492064e-01 -1.613967125604952313e-01 5.781239654655295074e-02 2.863961835817776524e-01 2.183707823133798354e-01 3.234622659591115251e-02 3.010755359977003387e+00 -2.734495510015209074e-01 2.917311920648976709e-02 2.466376750757725556e-01 8.050919951701831501e-01 2.254029650250653494e-01 3.521214286320609177e-01 1.747661582234335542e-01 4.905784594950899913e-01 -4.978667332421830571e-01 2.138957340002614893e-01 3.875052064645992389e-01 3.456693598773875054e-01 9.163537640487497971e-01 3.165036171943862442e-01 -1.416557791188858273e+00 2.955080576595443542e-01 2.785259775418401085e-01 1.253402785159403177e+00 3.096671187733077146e-01 2.114482777006901681e+00 1.535686711483064681e-01 3.889531547688135360e-01 2.888071377318084942e-01 3.285200128973278511e-01 2.359108073678770623e-01 3.148619668693626306e-01 6.685371407127345122e-01 3.920632116225943320e-01 1.894600477911629055e-01 8.909060053129704837e-01 6.853255685205035252e-01 7.267833643566720125e-01 -3.251190080146965644e-01 1.948888813486693294e-01 2.813391357054071951e-01 3.211506392026368117e-01 2.039302664156390221e-01 3.438811018594158941e-01 3.191607519839907425e-01 7.010769341765182849e-01 -9.683643321252323466e-02 3.181547321905568437e-01 4.409524634221683725e-01 3.928161707722798712e-01 -3.028102588881880219e-01 1.906318453381585995e-02 2.756668618414039873e-01 3.006777826431739076e-01 3.852135497660570396e-01 3.000983861271399045e-01 -2.171615689174577923e+00 4.387575587858887904e-01 -5.775433541541101778e-01 -2.753351289139301938e-01 3.999787609890074203e-01 1.661785003385611026e-01 2.887357774411936084e-01 3.182147457674934232e-01 1.033696028586244126e-01 4.632722740301861014e-02 3.132830427221262037e-01 3.742028833115710329e-01 2.340842484225343911e-01 3.772675805169053986e-01 2.010434014197652608e-01 6.336643985901663223e-02 2.756904591544384053e-01 3.135366355364486712e-01 -2.441259811783668798e+00 7.214519930931811986e-01 6.477804702353722188e-01 9.906783734651591899e-01 -4.497454835709497334e-01 1.166046085221523310e+00 -3.036276627707478609e-02 3.523148741818561414e-01 1.220579443381872631e+00 2.409639298361823112e-01 3.019940165970891321e-01 2.584695234108037032e-01 2.604459541878155204e-01 3.080002298157923368e-01 -4.455592928852363799e-01 3.910963655516306314e-01 1.783959537435306775e-01 7.958363964609289631e-01 3.196194603224306041e-01 2.069968056970221959e-01 2.154660665945731801e-01 3.130136987204287236e-01 -1.588019915498615209e+00 2.921684090437501324e-01 1.604718374880850229e-01 3.435448247654575016e-01 1.502398094637215353e-01 3.149094974702354999e-01 3.713535986231787933e-01 1.223046891272398240e-01 -8.132295617524698539e-01 1.604718262406154283e-01 4.359484094410140398e-01 -4.970267351197318884e-01 2.902854049929650682e-01 1.505002065539473577e-01 2.741189237913197463e-01 -3.145461636713791975e+00 4.208199825066810673e-01 9.418659980362167339e-01 3.173885686996788524e-01 3.137044799278144169e-01 3.049905961164879886e-01 2.953989299199812346e-01 3.232355289756103089e-01 3.204795467046751001e-01 3.082411543417784006e-01 2.283842852814358948e-01 6.531814192830543986e-01 1.705814102105314700e-01 5.343198533567575792e-01 4.230864873296618645e-01 3.739730624267214032e-01 -6.142962952690806944e-01 2.207938348254780525e+00 3.696585727758252560e-01 1.220412743270430811e+00 -1.369732204475318849e+00 3.151516026747926968e-01 1.988053316268616200e-01 3.432330961165187544e-01 1.128652469742256192e+00 4.519488947983235638e-01 7.795967046998155681e-01 2.754192130366405200e-01 6.704741328158798641e-01 3.633757745730252786e-01 3.434689574025362457e-01 -1.131917947305226324e+00 3.106732350536066667e-01 3.070355924051781371e-01 4.467412718822624806e-01 9.268613311630847784e-01 -3.239051845653995731e-01 3.031633730576890340e+00 4.374931310116181304e-01 1.189000122095719369e+00 -4.193091184602541766e-02 2.952546483405180666e-01 4.059640954633308985e-01 2.964992126154216145e-01 3.110138254979760708e-01 3.314213325928514475e-01 -6.464346454838687528e-02 1.813179848016984730e-01 5.599695594275740929e-01 2.985357711831042593e-01 9.051936076169210532e-02 2.902401855629451743e-01 2.880641266003916012e-01 4.210689879246122258e-01 2.754988807107556781e-01 3.120638244670512762e+00 3.826782431975093157e-01 6.570683434959164737e-01 5.440206684395354486e-01 3.710921441103293139e-01 4.215611349588060941e-01 3.210203550117172178e-01 2.796735762117704693e-01 3.159690576846866938e-01 -4.727580979198269251e-01 4.865252071191280558e-01 2.855744560666474974e-01 1.090685141311538570e-01 2.228308012576303565e-01 1.499654748376933799e+00 2.165799743420049606e-01 2.683218013979320471e-01 1.967906795312076351e+00 4.854672663930172938e-01 3.751498216890790105e-01 2.840865040699744326e-01 3.250104829295631381e-01 2.138957350381279210e-01 -2.031585251287496341e+00 2.887585998597995141e-01 1.434250792972399102e+00 3.339100949797031009e-02 1.874127535660806421e-01 7.193504818059609507e-01 2.448234582886459065e-01 -7.053099127192886675e-01 4.526823232546405840e-01 3.161640245238024338e-01 4.409698810757882170e-01 -3.699525798145410493e-01 3.029179087320217900e-01 -2.051902019473039740e+00 6.390538990652296081e-02 3.381133177907001963e-01 6.092101591706979846e-01 3.187013819953358751e-01 3.135330632940441231e-01 4.254644555061407596e-01 2.374293086157979182e-01 -1.333486000124757265e-01 -7.444119866778637906e-01 8.473872432200959398e-03 6.756165151168903593e-01 2.963887861152461611e-01 4.673697068248418574e-01 3.139464057408911102e-01 6.454081995681480721e-02 3.136795739907337621e-01 2.375773885981178335e+00 6.922918392326670167e-01 2.463476294769273156e-01 -1.116094870855047105e+00 2.283056649808279659e-01 4.513766326407337104e+00 3.038214296304621032e-01 -8.461138484458231857e-02 5.670847947947680323e-01 -5.398992090725462489e+00 4.919246335969244543e-01 1.495625686677213073e+00 3.238981532742358227e-01 5.464537583192535797e-01 -4.257250675051088562e-01 3.230195211554786616e-01 2.755659202758373727e-01 3.659736369827671920e-01 2.638883932136458776e-01 2.824990466068793893e+00 -3.560839845740148002e-01 2.452913130155870980e-01 -1.877695534278028378e+00 2.799544390276018091e-01 -3.115632820861493069e-01 7.337149468062044155e-01 5.627777871190047243e-01 3.774596134301903549e-01 3.600467627863056519e-01 1.291883309832807525e+00 1.322711579409739657e-01 1.604718386214009918e-01 3.106773574927740866e-01 1.223046879904159667e-01 2.322601209009635403e-01 4.004511127006937787e-01 -5.897773002903049511e-01 3.155648989235202984e-01 5.205309099458500510e-01 3.582377467205661858e-01 1.798552906999091316e-01 3.031939177052953016e-01 4.172340909649838170e-01 5.627777817271462091e-01 3.167217130371816625e-01 3.157874035483406727e-01 2.155882209703104957e-01 4.711452306330294881e-01 3.253861654941837322e+00 2.806520393808404901e-01 1.852804223141740203e-01 4.210679569292588020e-01 8.588946942023549802e-01 4.607854886847859155e-01 -1.864801002662688223e-01 7.009185063763406776e-01 2.146162579327924036e-01 1.100520248426903464e-01 3.799949772141508753e-01 6.396586373711222739e-01 6.771271230208975034e-01 7.652170976843191141e-01 8.020103429167457776e-01 3.896870998363644034e-01 1.223046892083009679e-01 1.223047650081828391e-01 3.782124069468351113e-01 9.540150939280221676e-02 1.120006780511123123e+00 4.203270672497201321e-01 3.013044469883933152e-01 3.996394792902750459e-01 3.131634553752305483e-01 7.942484306286298201e-01 1.604722748497116880e-01 3.137656102597257135e-01 4.268345339847720576e-01 3.277277783278639833e-01 -6.264011954596702125e-01 2.926553517125320969e-01 2.959266941578002075e-01 3.438652773599771284e-01 7.075846896392503638e-01 7.514478640088162464e-01 1.223046879911488805e-01 2.085332550017137201e-02 3.127351936213052519e-01 3.805849838626235160e-01 -5.876715950321893533e-01 2.312117164392077096e-01 -3.400018856333828499e+00 1.866591081300170929e+00 6.110114736670143598e-01 -4.257194901886932614e-01 6.586205625965071975e-02 2.006565774240165023e+00 3.216702446439969054e-01 6.246055945232220630e-01 8.615023175452354853e-02 2.579584249888360326e-01 4.711290766358450233e-01 3.241442783175048636e-01 -3.754221304189287456e-01 2.985941226324966835e-01 2.002494392578973326e+00 3.403958673816513403e-01 -3.764102443657689756e-01 2.288913321150806146e-01 3.310964794474619000e-01 -1.428223113928277055e+00 2.632749938392034972e-01 2.472201623805946324e-01 4.024603488614772462e-01 2.552698318483748730e-01 3.171193807361241679e-01 2.521359818125045726e-01 3.289698177631772968e-01 -1.594839903688916871e-01 3.146722627601865607e-01 1.705221523566442521e-01 3.461002532888637351e-01 2.538668593207287771e-01 3.657103039108610537e-02 4.609738003859543132e-01 6.522262660791359190e-01 -1.329901028957670039e+00 -4.395938810191015178e-01 -1.003330246084699617e-01 2.468563849149459782e-02 3.454570657260913058e-01 4.211916114971738789e-01 3.620818858926848627e-01 7.072631802876485629e-01 -8.185839978690039043e-02 3.283809267368436591e-01 2.969996007768641588e-01 9.108837123271029679e-02 -1.598170220024925092e-01 3.395179292925492032e-01 4.177510937790886447e-01 4.780064696270074909e-01 3.171981980301278869e-01 3.033596479153212178e-01 3.075752702155901130e-01 2.644241180148866888e-01 3.028078299960625386e-01 5.190156257399205497e-01 4.221697776387099421e-01 3.168491506736817453e-01 7.020022776516638974e-01 2.767252233870776124e-01 6.997822882475764894e-01 1.389161086496512043e-01 4.566042114839398147e-01 2.123914351014988267e-01 -1.420423899610228968e+00 3.304125316172730198e-01 6.363496484046249346e-01 3.998144845511865664e-01 2.503126842204982938e-01 2.781360126244035724e-01 3.581643075041792690e-01 7.174640904619333792e-01 3.057615159525298165e-01 3.460367159560276962e-01 3.186568342977688650e-01 3.023603332534898769e-01 2.313396067700499714e-01 5.337823619465733582e-01 3.052787482917740380e-01 2.994204095220406869e-01 2.475043373667968338e-01 3.050247220977453377e-02 1.589421482378326145e+00 3.648193119053657618e-01 3.758101482474054400e-01 3.686081110486336687e-01 -8.077595219805211446e-01 4.495573505061784547e-01 3.701965791578294418e-01 5.547417944760288933e-01 3.368223875047155619e-02 3.406748762124562901e-01 1.445360669035563372e+00 8.831215018579996467e-01 3.644722646666783694e-01 2.604582510155140085e-01 4.048580267220602269e-01 3.135408088423007333e-01 9.003560281573463886e-01 2.949506043394849453e+00 3.039642500597708463e-01 7.559705559808679864e-02 5.977839691765018948e-01 -1.438302139031444327e-01 3.092258222422565872e-01 3.232744667949207229e-01 1.042445238346198400e+00 3.508308815519325941e-01 -2.956400243984517173e-01 3.633653592563395596e-01 1.084333542107406428e-01 6.701282686843865743e-01 1.633703112790219514e+00 3.856349393226205513e-01 2.270912307242835826e-01 1.634254574426621920e+00 4.207241884810015708e-01 2.775738911057165081e-01 3.162036100595847499e-01 3.974894165528722878e-01 6.522342328387840948e-02 3.874478016015698301e-01 2.320128258995644011e-01 7.070227853149363417e-01 3.642587926649870078e-01 3.662823050552799220e-01 2.963849016627658206e-01 4.558306340572807480e-01 2.587102820676255299e-01 2.493284993850524989e-01 9.327014154594130968e-01 4.967951454842381431e-01 3.435009648138580007e-01 2.907492595199788754e-01 3.257642809431456898e-01 3.383002655674859360e-01 5.803185763881159032e-01 7.601597110695927917e-01 2.845032485858920990e-01 2.666160270946590360e-01 3.527577744100076074e-01 3.221621486641860210e-01 7.510968897082302975e-01 2.024277604924754892e-01 4.258595989600029719e-01 -3.170168296117067408e-01 3.113402776413748962e-01 2.094254120093891613e-01 3.941466750582052203e-01 3.445469936146712264e-01 2.337985003698862252e-01 1.721025047613289782e+00 1.753338823184538708e-01 2.935927719272866665e-01 -1.257489225650048614e-01 1.572094799736694526e+00 1.129613198941355146e+00 9.775174712712161873e-02 -4.665872942635441167e-01 2.590003745977574878e-01 2.993980769979338041e-01 5.103667269630032255e-01 3.158025656704395723e-01 3.204623063572198949e-01 2.143085307578328214e-01 3.106156845250100385e-01 3.386829143827524424e-01 6.588086901553813490e-02 -1.505426712547026646e-01 3.846473423277972370e-01 3.968521839311969224e-01 1.805438466830838751e-01 8.486730032752400898e-01 4.210690043123022086e-01 2.140052416205400210e-01 8.104296300585820401e-01 4.764216378115953554e-01 6.704954518121383211e-01 4.045179639353180256e-01 6.812883404176163227e-01 1.450102737781635787e+00 3.041255268195806605e-01 2.007570008054848643e+00 -5.654694210513629138e-03 1.278070779697930703e-01 3.083500453359744320e-01 2.853536932829316974e-01 3.007899688027395602e-01 3.772943433359066123e-01 3.165214363371678385e-01 3.092921730101529376e-01 3.484198205702179196e-01 1.816394941074440383e-01 -2.590247043001981941e-01 3.331947466003266078e-01 -7.598593879710985322e-02 2.467065176115409986e-01 4.409959148526131356e-01 4.210690042978664227e-01 1.913461527090781489e-01 2.842423826552787358e-01 -1.154938048629803315e+00 1.905381937866895470e+00 3.161116509452701062e-01 -6.716646860620369974e-01 2.983476209560478876e-01 3.188116008816321290e-01 3.166373663262919691e-01 -4.611403950312051414e+00 3.429261958802605204e+00 6.139327466726084426e-01 1.364390757648052399e-01 3.527660992653117167e-01 3.170862765662860183e-01 3.491829984645545282e-01 2.538393515605905204e+00 6.094024732004785783e-01 3.213075269058126016e-01 2.138957266156521764e-01 2.276648199275683460e-01 2.966638423863706686e-01 8.796691868030931394e-01 -3.804082668676029289e-01 -1.110569805564706858e+00 -1.166485405308075762e+00 3.248320096741089680e-01 3.111592522530912674e-01 6.940475409348805247e-01 3.139987111993876034e-01 1.206612452153594361e+00 4.536392336641449918e-01 3.240567256790479744e-01 3.328899530735340284e-01 2.866435849765280874e-01 2.629990313332668528e-01 2.451270599968889408e-01 6.544384622897427839e-01 2.932522216015094885e-01 6.223624717518920768e-01 2.101961600925331686e-01 1.397512765778397871e-02 2.452582826666517002e-01 2.393809041884611410e-01 3.120733760795423306e-01 3.808030631828512313e-01 7.269488021636887343e-01 5.627777789072994086e-01 5.030518879775229824e-01 3.954061135176832331e-01 3.226974841197361443e-01 2.490016199625733895e-01 1.445383576180337748e+00 1.788852622090176370e+00 2.449258438455758913e-01 3.110349761942242663e-01 3.261774537772448301e-01 2.014733048455175091e-01 2.436877375455031303e-01 1.770854826931262949e-01 3.432598636285865146e-01 3.183908654042037489e-01 7.815461636904862397e-01 8.545231812622834378e-01 2.741211087900394805e-01 1.814305214043898218e+00 1.527284315530710590e-01 -1.131544672549401886e-01 -2.679426389784813622e-01 -3.289940511704436132e-01 3.090106415394737738e-01 2.877893585085898320e-01 7.022720006180956931e-01 3.054063851303446264e-01 4.398228955991151379e-01 3.140439898905393878e-01 3.804319915203552838e-01 4.025989937040463928e-01 7.963907911242004700e-02 1.023332472664430393e+00 3.073288775383760107e-01 5.125405996227094807e-01 3.111502061594445534e-01 3.589075935378667759e-01 3.185165969968770661e-01 3.838646281107108704e-01 -1.303208976862060553e-01 2.239853983925970404e-01 3.076844877648507448e-01 6.521423531133649365e-02 4.210693234589821810e-01 1.125850480229156458e+00 9.333708784242419343e-01 -7.427118139928892138e-01 -3.115632839978131341e-01 6.294080395658192550e-01 -3.210858124700858074e+00 1.543597028544248850e+00 3.024581955567911540e-01 6.621651115188187386e-02 3.072864632751950431e-01 8.575969558156227857e-01 3.159194117160109561e-01 3.106737340203102882e-01 -4.344725365791462512e-01 8.299780116348649539e-01 2.780534884941011642e-01 8.909817158512346458e-01 2.038449461120417361e+00 -3.803397200851794113e-01 -1.411768466767681307e+00 3.019947173559768827e-01 2.206673528742500445e-01 7.874651338664117040e-01 3.167258524896391925e-01 6.963627590587367910e-01 4.688587139017512118e-01 1.192981860473020378e-01 3.314010833609538076e-01 3.420353761713370022e-01 2.273654086506176342e-01 3.774956367568557680e-01 1.356502369090951010e+00 1.558062328560756216e+00 3.134098585700574313e-01 2.670841273502630453e-01 -8.890654460985325871e-03 -2.289886276089298511e-01 1.926312375510858266e-01 4.111045733688349635e-02 3.099269428179776686e-01 6.997167949540145093e-01 -3.759308437158507821e-01 3.267714612779422656e-01 3.206987964353328890e-01 1.660258830740979075e-01 3.289657912132324391e-01 3.005823678970560575e-01 3.140880225781201851e-01 3.163423873768482220e-01 -4.466642737299979932e-02 2.351427519371482588e-01 4.442232100972868802e-01 1.091231136470774299e+00 1.091968378631239744e+00 9.435369747556690001e-01 2.001791482728590144e-01 7.555983418126658302e-01 1.121056981320916052e-01 4.406947648986391242e-01 -2.013820970581574610e+00 3.091042678779135633e-01 6.462686746000221305e-01 3.088822366261372299e-01 9.593469456943024554e-01 1.344357416005935502e+00 2.138957339441611150e-01 3.147643425594588984e-01 3.708251505988433006e-01 1.763117853490124287e-01 5.598695505215411927e-01 7.536573850713589318e-01 -7.233257688171719213e-01 1.405013858529543802e-01 1.619026338338515336e-01 3.276187952257146874e-01 3.446918579775991032e-01 7.647240499108745038e-01 -1.167649474501530338e-01 3.804871701820061181e-01 3.076801104988535762e-01 2.467676344277360267e-01 8.832485320475376156e-01 4.179938019691816220e-01 -1.988231328389455654e-01 8.590386287084378347e-01 -3.933208082013520818e-02 5.700868204996277777e-01 2.880487234066874125e-01 1.264409297005140154e+00 5.184122408468359033e-01 7.074508862820322319e-01 4.310063158848750908e-01 4.694675169649036306e-01 -4.888339235080276790e-01 3.007976410613751317e-01 7.613317909218351165e-01 2.899631471004437966e-01 6.557592458552385928e-01 3.564855931758699192e-01 3.062299546868378353e-01 7.328878506513242241e-01 1.115028079477028977e-01 -1.995946767793463250e+00 3.415744999250917568e-01 2.917272055450719215e-01 6.796831377064116442e-01 3.585269564149137778e-01 3.734805823542332592e-01 2.314665061463372642e-01 2.378092425841394908e-01 3.522269089116706886e-01 8.581996498849459726e-03 -1.597363091888134967e+00 7.365824375578834404e-01 2.727313448155375686e-01 2.948295010121960158e-01 1.812841562376267257e-01 8.240489673957163141e-01 3.217771396619026336e-01 -1.188751567542717102e-01 3.063555338609216250e-01 1.109954028991277264e+00 3.261695815272721566e-01 4.139187078407080000e-01 1.069761225019895345e+00 2.842965824679141718e-01 2.662054451993905779e+00 2.652035171303910310e-01 3.284810370374476318e-01 6.936956345282732084e-01 3.168238066341983461e-01 2.749415336117592701e-01 -1.967214402726194411e+00 3.387063953504499403e-01 2.812289685889342028e-01 5.096117026807541750e-01 3.077161189079340442e-01 3.799545390625246322e-01 -2.749599939846510965e-01 1.995867647668182032e+00 -5.205044554355856556e-01 8.249046873999730245e-01 3.179259021129477447e-01 4.129799044446827994e-01 7.262131110734967310e-01 3.322168181360447559e-01 1.303647802139653811e+00 1.430118277306407226e-01 2.825784128412738294e-01 -8.731437734063675071e-01 -1.213713335238756491e-01 -1.725887686164754020e-01 -3.735672876469958936e+00 2.856686812274504383e+00 1.025789572335227412e-01 2.661304533229657543e-01 -1.554776561233249144e+00 3.228856881228736042e-01 1.492565643038982759e-01 3.361729421508951599e-01 1.246054282301908150e-01 6.357550213928969685e-01 5.874735868607233735e-01 9.483981095179997434e-01 -3.115632838462383813e-01 -2.047846380958770196e-01 2.100526381708599510e-01 -1.163274393628705994e+00 2.838110586437357363e-01 -6.196893079116385650e-01 3.440620639155853033e-01 4.896596514054979976e-01 2.967525167127956984e-02 4.025885958759102268e-01 2.766853205817594863e-01 -1.258850218685380606e-01 2.115346576417906355e-01 3.097604153025383389e-01 3.351487379532030464e-01 3.090095741882502023e-01 3.143257430485734694e-01 -7.427190002545394076e-01 5.966489973826680782e-01 1.518147481680141464e+00 4.928026267869445309e-02 2.440282300189555997e-01 4.086231761368278037e-01 1.217169676447443560e+00 2.738158100278276219e-01 1.807596645635332067e-01 8.985659360141186047e-01 3.458703821155291180e-01 1.808580178727358323e+00 4.111323437123383662e-01 1.128673219834664065e+00 3.213498111542682500e-01 7.366139583107863542e-01 1.335558798470056319e+00 3.216234805723639512e-01 3.883100293106799827e-01 8.916789544910855847e-01 -1.799550097310490815e-01 -4.314372706615014763e-02 1.279169050857068557e-01 2.929634788696318659e-01 3.386947768772594625e-01 1.405635013753299967e-01 2.901041623485987597e-01 -3.354906344512612604e-01 1.292285189481639174e+00 2.875078270581698514e-01 3.102054845389250470e-01 -3.036923325105318927e+00 4.515958046300355688e-01 4.016691988253274781e-01 4.786324310647604996e-01 4.347969533507421991e-01 5.115916186786558795e-01 -1.009571866774308768e+00 5.744257252450760687e-01 2.877145186307519809e-01 3.144394079461316771e-01 1.052262713073019551e+00 4.363065359363771933e-01 2.940807371644734713e-01 -1.368498353521782951e+00 4.764428603789795380e-01 8.831877557392447953e-01 2.876250195608439642e-01 3.174077174114125488e-01 2.670008407842577869e-01 6.937890772124528649e-01 -9.266059569976184407e-02 3.094950304115227091e-01 3.357116513357991661e-01 6.293872320940524512e-02 7.286263756237539857e-01 3.556565917878721228e-01 7.498363899394452359e-01 1.849701663444784649e-01 6.816865932983785514e-01 -1.932064502912649306e-01 -1.495950853947018988e+00 3.365603703958000015e-01 -1.262719022164415610e-02 2.980897321563993896e-01 2.666393449793663661e-01 5.831307272374636197e-02 5.627777813922312244e-01 3.241825165653672847e-01 9.069843386362817783e-02 4.571362976572291847e-01 3.619296345321454389e-01 2.740790167434545288e-01 2.778647568661996581e-01 -7.850624505522171281e-01 3.170436722904985682e-01 2.820202239183629556e-01 3.588488485439291775e-01 -2.166874172586995273e-02 3.058638364664996723e-01 7.791396826534796594e-01 -4.498561306956109784e-01 1.072965736818390248e+00 5.953861727373379598e-01 3.657247319762798599e-01 3.213640164859349335e-01 -2.000911510276590199e+00 2.901549923016065180e-01 1.763554066105605667e-01 2.161906694992472566e-01 5.627777769351968162e-01 3.196283308571993276e-01 2.630353878638644338e-01 1.517919808319513897e-01 3.129571175918527959e-01 4.338201209962122551e-01 4.281291011905065114e-01 4.055367763366553024e-01 3.096020595150044130e-01 3.194395905902723265e-01 3.030067287098924811e-01 2.940563126770985858e-01 -1.007793153353138751e-02 3.165775606738872594e-01 5.635973203578413804e-01 2.443600803405381605e-01 2.724982668372961103e-01 -1.103135258433347171e-01 1.085537006384605374e-01 4.334088319694899827e-01 4.259512942033970795e+00 2.423446257724625186e-01 1.648472558196134308e-01 4.913168480927262438e-01 2.387198915548182643e-01 1.516120622203772861e+00 2.783880750303129870e-01 6.688706619189945801e-01 3.195961033027135967e-01
