# 
#                 ----------------------------------------------------
#                 Data from a 3D direct N-body simulation. 
# 
#                 rows are i-particle; 
#                 coumns are :mass, tag, x ,y, z, vx, vy, vz, ax, ay, az
# 
#                 NTHU, Computational Physics 
# 
#                 ----------------------------------------------------
#                 Time = 0.0
0.000000000000000000e+00 1.000000000000000000e+00 2.000000000000000000e+00 3.000000000000000000e+00 4.000000000000000000e+00 5.000000000000000000e+00 6.000000000000000000e+00 7.000000000000000000e+00 8.000000000000000000e+00 9.000000000000000000e+00 1.000000000000000000e+01 1.100000000000000000e+01 1.200000000000000000e+01 1.300000000000000000e+01 1.400000000000000000e+01 1.500000000000000000e+01 1.600000000000000000e+01 1.700000000000000000e+01 1.800000000000000000e+01 1.900000000000000000e+01 2.000000000000000000e+01 2.100000000000000000e+01 2.200000000000000000e+01 2.300000000000000000e+01 2.400000000000000000e+01 2.500000000000000000e+01 2.600000000000000000e+01 2.700000000000000000e+01 2.800000000000000000e+01 2.900000000000000000e+01 3.000000000000000000e+01 3.100000000000000000e+01 3.200000000000000000e+01 3.300000000000000000e+01 3.400000000000000000e+01 3.500000000000000000e+01 3.600000000000000000e+01 3.700000000000000000e+01 3.800000000000000000e+01 3.900000000000000000e+01 4.000000000000000000e+01 4.100000000000000000e+01 4.200000000000000000e+01 4.300000000000000000e+01 4.400000000000000000e+01 4.500000000000000000e+01 4.600000000000000000e+01 4.700000000000000000e+01 4.800000000000000000e+01 4.900000000000000000e+01 5.000000000000000000e+01 5.100000000000000000e+01 5.200000000000000000e+01 5.300000000000000000e+01 5.400000000000000000e+01 5.500000000000000000e+01 5.600000000000000000e+01 5.700000000000000000e+01 5.800000000000000000e+01 5.900000000000000000e+01 6.000000000000000000e+01 6.100000000000000000e+01 6.200000000000000000e+01 6.300000000000000000e+01 6.400000000000000000e+01 6.500000000000000000e+01 6.600000000000000000e+01 6.700000000000000000e+01 6.800000000000000000e+01 6.900000000000000000e+01 7.000000000000000000e+01 7.100000000000000000e+01 7.200000000000000000e+01 7.300000000000000000e+01 7.400000000000000000e+01 7.500000000000000000e+01 7.600000000000000000e+01 7.700000000000000000e+01 7.800000000000000000e+01 7.900000000000000000e+01 8.000000000000000000e+01 8.100000000000000000e+01 8.200000000000000000e+01 8.300000000000000000e+01 8.400000000000000000e+01 8.500000000000000000e+01 8.600000000000000000e+01 8.700000000000000000e+01 8.800000000000000000e+01 8.900000000000000000e+01 9.000000000000000000e+01 9.100000000000000000e+01 9.200000000000000000e+01 9.300000000000000000e+01 9.400000000000000000e+01 9.500000000000000000e+01 9.600000000000000000e+01 9.700000000000000000e+01 9.800000000000000000e+01 9.900000000000000000e+01 1.000000000000000000e+02 1.010000000000000000e+02 1.020000000000000000e+02 1.030000000000000000e+02 1.040000000000000000e+02 1.050000000000000000e+02 1.060000000000000000e+02 1.070000000000000000e+02 1.080000000000000000e+02 1.090000000000000000e+02 1.100000000000000000e+02 1.110000000000000000e+02 1.120000000000000000e+02 1.130000000000000000e+02 1.140000000000000000e+02 1.150000000000000000e+02 1.160000000000000000e+02 1.170000000000000000e+02 1.180000000000000000e+02 1.190000000000000000e+02 1.200000000000000000e+02 1.210000000000000000e+02 1.220000000000000000e+02 1.230000000000000000e+02 1.240000000000000000e+02 1.250000000000000000e+02 1.260000000000000000e+02 1.270000000000000000e+02 1.280000000000000000e+02 1.290000000000000000e+02 1.300000000000000000e+02 1.310000000000000000e+02 1.320000000000000000e+02 1.330000000000000000e+02 1.340000000000000000e+02 1.350000000000000000e+02 1.360000000000000000e+02 1.370000000000000000e+02 1.380000000000000000e+02 1.390000000000000000e+02 1.400000000000000000e+02 1.410000000000000000e+02 1.420000000000000000e+02 1.430000000000000000e+02 1.440000000000000000e+02 1.450000000000000000e+02 1.460000000000000000e+02 1.470000000000000000e+02 1.480000000000000000e+02 1.490000000000000000e+02 1.500000000000000000e+02 1.510000000000000000e+02 1.520000000000000000e+02 1.530000000000000000e+02 1.540000000000000000e+02 1.550000000000000000e+02 1.560000000000000000e+02 1.570000000000000000e+02 1.580000000000000000e+02 1.590000000000000000e+02 1.600000000000000000e+02 1.610000000000000000e+02 1.620000000000000000e+02 1.630000000000000000e+02 1.640000000000000000e+02 1.650000000000000000e+02 1.660000000000000000e+02 1.670000000000000000e+02 1.680000000000000000e+02 1.690000000000000000e+02 1.700000000000000000e+02 1.710000000000000000e+02 1.720000000000000000e+02 1.730000000000000000e+02 1.740000000000000000e+02 1.750000000000000000e+02 1.760000000000000000e+02 1.770000000000000000e+02 1.780000000000000000e+02 1.790000000000000000e+02 1.800000000000000000e+02 1.810000000000000000e+02 1.820000000000000000e+02 1.830000000000000000e+02 1.840000000000000000e+02 1.850000000000000000e+02 1.860000000000000000e+02 1.870000000000000000e+02 1.880000000000000000e+02 1.890000000000000000e+02 1.900000000000000000e+02 1.910000000000000000e+02 1.920000000000000000e+02 1.930000000000000000e+02 1.940000000000000000e+02 1.950000000000000000e+02 1.960000000000000000e+02 1.970000000000000000e+02 1.980000000000000000e+02 1.990000000000000000e+02 2.000000000000000000e+02 2.010000000000000000e+02 2.020000000000000000e+02 2.030000000000000000e+02 2.040000000000000000e+02 2.050000000000000000e+02 2.060000000000000000e+02 2.070000000000000000e+02 2.080000000000000000e+02 2.090000000000000000e+02 2.100000000000000000e+02 2.110000000000000000e+02 2.120000000000000000e+02 2.130000000000000000e+02 2.140000000000000000e+02 2.150000000000000000e+02 2.160000000000000000e+02 2.170000000000000000e+02 2.180000000000000000e+02 2.190000000000000000e+02 2.200000000000000000e+02 2.210000000000000000e+02 2.220000000000000000e+02 2.230000000000000000e+02 2.240000000000000000e+02 2.250000000000000000e+02 2.260000000000000000e+02 2.270000000000000000e+02 2.280000000000000000e+02 2.290000000000000000e+02 2.300000000000000000e+02 2.310000000000000000e+02 2.320000000000000000e+02 2.330000000000000000e+02 2.340000000000000000e+02 2.350000000000000000e+02 2.360000000000000000e+02 2.370000000000000000e+02 2.380000000000000000e+02 2.390000000000000000e+02 2.400000000000000000e+02 2.410000000000000000e+02 2.420000000000000000e+02 2.430000000000000000e+02 2.440000000000000000e+02 2.450000000000000000e+02 2.460000000000000000e+02 2.470000000000000000e+02 2.480000000000000000e+02 2.490000000000000000e+02 2.500000000000000000e+02 2.510000000000000000e+02 2.520000000000000000e+02 2.530000000000000000e+02 2.540000000000000000e+02 2.550000000000000000e+02 2.560000000000000000e+02 2.570000000000000000e+02 2.580000000000000000e+02 2.590000000000000000e+02 2.600000000000000000e+02 2.610000000000000000e+02 2.620000000000000000e+02 2.630000000000000000e+02 2.640000000000000000e+02 2.650000000000000000e+02 2.660000000000000000e+02 2.670000000000000000e+02 2.680000000000000000e+02 2.690000000000000000e+02 2.700000000000000000e+02 2.710000000000000000e+02 2.720000000000000000e+02 2.730000000000000000e+02 2.740000000000000000e+02 2.750000000000000000e+02 2.760000000000000000e+02 2.770000000000000000e+02 2.780000000000000000e+02 2.790000000000000000e+02 2.800000000000000000e+02 2.810000000000000000e+02 2.820000000000000000e+02 2.830000000000000000e+02 2.840000000000000000e+02 2.850000000000000000e+02 2.860000000000000000e+02 2.870000000000000000e+02 2.880000000000000000e+02 2.890000000000000000e+02 2.900000000000000000e+02 2.910000000000000000e+02 2.920000000000000000e+02 2.930000000000000000e+02 2.940000000000000000e+02 2.950000000000000000e+02 2.960000000000000000e+02 2.970000000000000000e+02 2.980000000000000000e+02 2.990000000000000000e+02 3.000000000000000000e+02 3.010000000000000000e+02 3.020000000000000000e+02 3.030000000000000000e+02 3.040000000000000000e+02 3.050000000000000000e+02 3.060000000000000000e+02 3.070000000000000000e+02 3.080000000000000000e+02 3.090000000000000000e+02 3.100000000000000000e+02 3.110000000000000000e+02 3.120000000000000000e+02 3.130000000000000000e+02 3.140000000000000000e+02 3.150000000000000000e+02 3.160000000000000000e+02 3.170000000000000000e+02 3.180000000000000000e+02 3.190000000000000000e+02 3.200000000000000000e+02 3.210000000000000000e+02 3.220000000000000000e+02 3.230000000000000000e+02 3.240000000000000000e+02 3.250000000000000000e+02 3.260000000000000000e+02 3.270000000000000000e+02 3.280000000000000000e+02 3.290000000000000000e+02 3.300000000000000000e+02 3.310000000000000000e+02 3.320000000000000000e+02 3.330000000000000000e+02 3.340000000000000000e+02 3.350000000000000000e+02 3.360000000000000000e+02 3.370000000000000000e+02 3.380000000000000000e+02 3.390000000000000000e+02 3.400000000000000000e+02 3.410000000000000000e+02 3.420000000000000000e+02 3.430000000000000000e+02 3.440000000000000000e+02 3.450000000000000000e+02 3.460000000000000000e+02 3.470000000000000000e+02 3.480000000000000000e+02 3.490000000000000000e+02 3.500000000000000000e+02 3.510000000000000000e+02 3.520000000000000000e+02 3.530000000000000000e+02 3.540000000000000000e+02 3.550000000000000000e+02 3.560000000000000000e+02 3.570000000000000000e+02 3.580000000000000000e+02 3.590000000000000000e+02 3.600000000000000000e+02 3.610000000000000000e+02 3.620000000000000000e+02 3.630000000000000000e+02 3.640000000000000000e+02 3.650000000000000000e+02 3.660000000000000000e+02 3.670000000000000000e+02 3.680000000000000000e+02 3.690000000000000000e+02 3.700000000000000000e+02 3.710000000000000000e+02 3.720000000000000000e+02 3.730000000000000000e+02 3.740000000000000000e+02 3.750000000000000000e+02 3.760000000000000000e+02 3.770000000000000000e+02 3.780000000000000000e+02 3.790000000000000000e+02 3.800000000000000000e+02 3.810000000000000000e+02 3.820000000000000000e+02 3.830000000000000000e+02 3.840000000000000000e+02 3.850000000000000000e+02 3.860000000000000000e+02 3.870000000000000000e+02 3.880000000000000000e+02 3.890000000000000000e+02 3.900000000000000000e+02 3.910000000000000000e+02 3.920000000000000000e+02 3.930000000000000000e+02 3.940000000000000000e+02 3.950000000000000000e+02 3.960000000000000000e+02 3.970000000000000000e+02 3.980000000000000000e+02 3.990000000000000000e+02 4.000000000000000000e+02 4.010000000000000000e+02 4.020000000000000000e+02 4.030000000000000000e+02 4.040000000000000000e+02 4.050000000000000000e+02 4.060000000000000000e+02 4.070000000000000000e+02 4.080000000000000000e+02 4.090000000000000000e+02 4.100000000000000000e+02 4.110000000000000000e+02 4.120000000000000000e+02 4.130000000000000000e+02 4.140000000000000000e+02 4.150000000000000000e+02 4.160000000000000000e+02 4.170000000000000000e+02 4.180000000000000000e+02 4.190000000000000000e+02 4.200000000000000000e+02 4.210000000000000000e+02 4.220000000000000000e+02 4.230000000000000000e+02 4.240000000000000000e+02 4.250000000000000000e+02 4.260000000000000000e+02 4.270000000000000000e+02 4.280000000000000000e+02 4.290000000000000000e+02 4.300000000000000000e+02 4.310000000000000000e+02 4.320000000000000000e+02 4.330000000000000000e+02 4.340000000000000000e+02 4.350000000000000000e+02 4.360000000000000000e+02 4.370000000000000000e+02 4.380000000000000000e+02 4.390000000000000000e+02 4.400000000000000000e+02 4.410000000000000000e+02 4.420000000000000000e+02 4.430000000000000000e+02 4.440000000000000000e+02 4.450000000000000000e+02 4.460000000000000000e+02 4.470000000000000000e+02 4.480000000000000000e+02 4.490000000000000000e+02 4.500000000000000000e+02 4.510000000000000000e+02 4.520000000000000000e+02 4.530000000000000000e+02 4.540000000000000000e+02 4.550000000000000000e+02 4.560000000000000000e+02 4.570000000000000000e+02 4.580000000000000000e+02 4.590000000000000000e+02 4.600000000000000000e+02 4.610000000000000000e+02 4.620000000000000000e+02 4.630000000000000000e+02 4.640000000000000000e+02 4.650000000000000000e+02 4.660000000000000000e+02 4.670000000000000000e+02 4.680000000000000000e+02 4.690000000000000000e+02 4.700000000000000000e+02 4.710000000000000000e+02 4.720000000000000000e+02 4.730000000000000000e+02 4.740000000000000000e+02 4.750000000000000000e+02 4.760000000000000000e+02 4.770000000000000000e+02 4.780000000000000000e+02 4.790000000000000000e+02 4.800000000000000000e+02 4.810000000000000000e+02 4.820000000000000000e+02 4.830000000000000000e+02 4.840000000000000000e+02 4.850000000000000000e+02 4.860000000000000000e+02 4.870000000000000000e+02 4.880000000000000000e+02 4.890000000000000000e+02 4.900000000000000000e+02 4.910000000000000000e+02 4.920000000000000000e+02 4.930000000000000000e+02 4.940000000000000000e+02 4.950000000000000000e+02 4.960000000000000000e+02 4.970000000000000000e+02 4.980000000000000000e+02 4.990000000000000000e+02 5.000000000000000000e+02 5.010000000000000000e+02 5.020000000000000000e+02 5.030000000000000000e+02 5.040000000000000000e+02 5.050000000000000000e+02 5.060000000000000000e+02 5.070000000000000000e+02 5.080000000000000000e+02 5.090000000000000000e+02 5.100000000000000000e+02 5.110000000000000000e+02 5.120000000000000000e+02 5.130000000000000000e+02 5.140000000000000000e+02 5.150000000000000000e+02 5.160000000000000000e+02 5.170000000000000000e+02 5.180000000000000000e+02 5.190000000000000000e+02 5.200000000000000000e+02 5.210000000000000000e+02 5.220000000000000000e+02 5.230000000000000000e+02 5.240000000000000000e+02 5.250000000000000000e+02 5.260000000000000000e+02 5.270000000000000000e+02 5.280000000000000000e+02 5.290000000000000000e+02 5.300000000000000000e+02 5.310000000000000000e+02 5.320000000000000000e+02 5.330000000000000000e+02 5.340000000000000000e+02 5.350000000000000000e+02 5.360000000000000000e+02 5.370000000000000000e+02 5.380000000000000000e+02 5.390000000000000000e+02 5.400000000000000000e+02 5.410000000000000000e+02 5.420000000000000000e+02 5.430000000000000000e+02 5.440000000000000000e+02 5.450000000000000000e+02 5.460000000000000000e+02 5.470000000000000000e+02 5.480000000000000000e+02 5.490000000000000000e+02 5.500000000000000000e+02 5.510000000000000000e+02 5.520000000000000000e+02 5.530000000000000000e+02 5.540000000000000000e+02 5.550000000000000000e+02 5.560000000000000000e+02 5.570000000000000000e+02 5.580000000000000000e+02 5.590000000000000000e+02 5.600000000000000000e+02 5.610000000000000000e+02 5.620000000000000000e+02 5.630000000000000000e+02 5.640000000000000000e+02 5.650000000000000000e+02 5.660000000000000000e+02 5.670000000000000000e+02 5.680000000000000000e+02 5.690000000000000000e+02 5.700000000000000000e+02 5.710000000000000000e+02 5.720000000000000000e+02 5.730000000000000000e+02 5.740000000000000000e+02 5.750000000000000000e+02 5.760000000000000000e+02 5.770000000000000000e+02 5.780000000000000000e+02 5.790000000000000000e+02 5.800000000000000000e+02 5.810000000000000000e+02 5.820000000000000000e+02 5.830000000000000000e+02 5.840000000000000000e+02 5.850000000000000000e+02 5.860000000000000000e+02 5.870000000000000000e+02 5.880000000000000000e+02 5.890000000000000000e+02 5.900000000000000000e+02 5.910000000000000000e+02 5.920000000000000000e+02 5.930000000000000000e+02 5.940000000000000000e+02 5.950000000000000000e+02 5.960000000000000000e+02 5.970000000000000000e+02 5.980000000000000000e+02 5.990000000000000000e+02 6.000000000000000000e+02 6.010000000000000000e+02 6.020000000000000000e+02 6.030000000000000000e+02 6.040000000000000000e+02 6.050000000000000000e+02 6.060000000000000000e+02 6.070000000000000000e+02 6.080000000000000000e+02 6.090000000000000000e+02 6.100000000000000000e+02 6.110000000000000000e+02 6.120000000000000000e+02 6.130000000000000000e+02 6.140000000000000000e+02 6.150000000000000000e+02 6.160000000000000000e+02 6.170000000000000000e+02 6.180000000000000000e+02 6.190000000000000000e+02 6.200000000000000000e+02 6.210000000000000000e+02 6.220000000000000000e+02 6.230000000000000000e+02 6.240000000000000000e+02 6.250000000000000000e+02 6.260000000000000000e+02 6.270000000000000000e+02 6.280000000000000000e+02 6.290000000000000000e+02 6.300000000000000000e+02 6.310000000000000000e+02 6.320000000000000000e+02 6.330000000000000000e+02 6.340000000000000000e+02 6.350000000000000000e+02 6.360000000000000000e+02 6.370000000000000000e+02 6.380000000000000000e+02 6.390000000000000000e+02 6.400000000000000000e+02 6.410000000000000000e+02 6.420000000000000000e+02 6.430000000000000000e+02 6.440000000000000000e+02 6.450000000000000000e+02 6.460000000000000000e+02 6.470000000000000000e+02 6.480000000000000000e+02 6.490000000000000000e+02 6.500000000000000000e+02 6.510000000000000000e+02 6.520000000000000000e+02 6.530000000000000000e+02 6.540000000000000000e+02 6.550000000000000000e+02 6.560000000000000000e+02 6.570000000000000000e+02 6.580000000000000000e+02 6.590000000000000000e+02 6.600000000000000000e+02 6.610000000000000000e+02 6.620000000000000000e+02 6.630000000000000000e+02 6.640000000000000000e+02 6.650000000000000000e+02 6.660000000000000000e+02 6.670000000000000000e+02 6.680000000000000000e+02 6.690000000000000000e+02 6.700000000000000000e+02 6.710000000000000000e+02 6.720000000000000000e+02 6.730000000000000000e+02 6.740000000000000000e+02 6.750000000000000000e+02 6.760000000000000000e+02 6.770000000000000000e+02 6.780000000000000000e+02 6.790000000000000000e+02 6.800000000000000000e+02 6.810000000000000000e+02 6.820000000000000000e+02 6.830000000000000000e+02 6.840000000000000000e+02 6.850000000000000000e+02 6.860000000000000000e+02 6.870000000000000000e+02 6.880000000000000000e+02 6.890000000000000000e+02 6.900000000000000000e+02 6.910000000000000000e+02 6.920000000000000000e+02 6.930000000000000000e+02 6.940000000000000000e+02 6.950000000000000000e+02 6.960000000000000000e+02 6.970000000000000000e+02 6.980000000000000000e+02 6.990000000000000000e+02 7.000000000000000000e+02 7.010000000000000000e+02 7.020000000000000000e+02 7.030000000000000000e+02 7.040000000000000000e+02 7.050000000000000000e+02 7.060000000000000000e+02 7.070000000000000000e+02 7.080000000000000000e+02 7.090000000000000000e+02 7.100000000000000000e+02 7.110000000000000000e+02 7.120000000000000000e+02 7.130000000000000000e+02 7.140000000000000000e+02 7.150000000000000000e+02 7.160000000000000000e+02 7.170000000000000000e+02 7.180000000000000000e+02 7.190000000000000000e+02 7.200000000000000000e+02 7.210000000000000000e+02 7.220000000000000000e+02 7.230000000000000000e+02 7.240000000000000000e+02 7.250000000000000000e+02 7.260000000000000000e+02 7.270000000000000000e+02 7.280000000000000000e+02 7.290000000000000000e+02 7.300000000000000000e+02 7.310000000000000000e+02 7.320000000000000000e+02 7.330000000000000000e+02 7.340000000000000000e+02 7.350000000000000000e+02 7.360000000000000000e+02 7.370000000000000000e+02 7.380000000000000000e+02 7.390000000000000000e+02 7.400000000000000000e+02 7.410000000000000000e+02 7.420000000000000000e+02 7.430000000000000000e+02 7.440000000000000000e+02 7.450000000000000000e+02 7.460000000000000000e+02 7.470000000000000000e+02 7.480000000000000000e+02 7.490000000000000000e+02 7.500000000000000000e+02 7.510000000000000000e+02 7.520000000000000000e+02 7.530000000000000000e+02 7.540000000000000000e+02 7.550000000000000000e+02 7.560000000000000000e+02 7.570000000000000000e+02 7.580000000000000000e+02 7.590000000000000000e+02 7.600000000000000000e+02 7.610000000000000000e+02 7.620000000000000000e+02 7.630000000000000000e+02 7.640000000000000000e+02 7.650000000000000000e+02 7.660000000000000000e+02 7.670000000000000000e+02 7.680000000000000000e+02 7.690000000000000000e+02 7.700000000000000000e+02 7.710000000000000000e+02 7.720000000000000000e+02 7.730000000000000000e+02 7.740000000000000000e+02 7.750000000000000000e+02 7.760000000000000000e+02 7.770000000000000000e+02 7.780000000000000000e+02 7.790000000000000000e+02 7.800000000000000000e+02 7.810000000000000000e+02 7.820000000000000000e+02 7.830000000000000000e+02 7.840000000000000000e+02 7.850000000000000000e+02 7.860000000000000000e+02 7.870000000000000000e+02 7.880000000000000000e+02 7.890000000000000000e+02 7.900000000000000000e+02 7.910000000000000000e+02 7.920000000000000000e+02 7.930000000000000000e+02 7.940000000000000000e+02 7.950000000000000000e+02 7.960000000000000000e+02 7.970000000000000000e+02 7.980000000000000000e+02 7.990000000000000000e+02 8.000000000000000000e+02 8.010000000000000000e+02 8.020000000000000000e+02 8.030000000000000000e+02 8.040000000000000000e+02 8.050000000000000000e+02 8.060000000000000000e+02 8.070000000000000000e+02 8.080000000000000000e+02 8.090000000000000000e+02 8.100000000000000000e+02 8.110000000000000000e+02 8.120000000000000000e+02 8.130000000000000000e+02 8.140000000000000000e+02 8.150000000000000000e+02 8.160000000000000000e+02 8.170000000000000000e+02 8.180000000000000000e+02 8.190000000000000000e+02 8.200000000000000000e+02 8.210000000000000000e+02 8.220000000000000000e+02 8.230000000000000000e+02 8.240000000000000000e+02 8.250000000000000000e+02 8.260000000000000000e+02 8.270000000000000000e+02 8.280000000000000000e+02 8.290000000000000000e+02 8.300000000000000000e+02 8.310000000000000000e+02 8.320000000000000000e+02 8.330000000000000000e+02 8.340000000000000000e+02 8.350000000000000000e+02 8.360000000000000000e+02 8.370000000000000000e+02 8.380000000000000000e+02 8.390000000000000000e+02 8.400000000000000000e+02 8.410000000000000000e+02 8.420000000000000000e+02 8.430000000000000000e+02 8.440000000000000000e+02 8.450000000000000000e+02 8.460000000000000000e+02 8.470000000000000000e+02 8.480000000000000000e+02 8.490000000000000000e+02 8.500000000000000000e+02 8.510000000000000000e+02 8.520000000000000000e+02 8.530000000000000000e+02 8.540000000000000000e+02 8.550000000000000000e+02 8.560000000000000000e+02 8.570000000000000000e+02 8.580000000000000000e+02 8.590000000000000000e+02 8.600000000000000000e+02 8.610000000000000000e+02 8.620000000000000000e+02 8.630000000000000000e+02 8.640000000000000000e+02 8.650000000000000000e+02 8.660000000000000000e+02 8.670000000000000000e+02 8.680000000000000000e+02 8.690000000000000000e+02 8.700000000000000000e+02 8.710000000000000000e+02 8.720000000000000000e+02 8.730000000000000000e+02 8.740000000000000000e+02 8.750000000000000000e+02 8.760000000000000000e+02 8.770000000000000000e+02 8.780000000000000000e+02 8.790000000000000000e+02 8.800000000000000000e+02 8.810000000000000000e+02 8.820000000000000000e+02 8.830000000000000000e+02 8.840000000000000000e+02 8.850000000000000000e+02 8.860000000000000000e+02 8.870000000000000000e+02 8.880000000000000000e+02 8.890000000000000000e+02 8.900000000000000000e+02 8.910000000000000000e+02 8.920000000000000000e+02 8.930000000000000000e+02 8.940000000000000000e+02 8.950000000000000000e+02 8.960000000000000000e+02 8.970000000000000000e+02 8.980000000000000000e+02 8.990000000000000000e+02 9.000000000000000000e+02 9.010000000000000000e+02 9.020000000000000000e+02 9.030000000000000000e+02 9.040000000000000000e+02 9.050000000000000000e+02 9.060000000000000000e+02 9.070000000000000000e+02 9.080000000000000000e+02 9.090000000000000000e+02 9.100000000000000000e+02 9.110000000000000000e+02 9.120000000000000000e+02 9.130000000000000000e+02 9.140000000000000000e+02 9.150000000000000000e+02 9.160000000000000000e+02 9.170000000000000000e+02 9.180000000000000000e+02 9.190000000000000000e+02 9.200000000000000000e+02 9.210000000000000000e+02 9.220000000000000000e+02 9.230000000000000000e+02 9.240000000000000000e+02 9.250000000000000000e+02 9.260000000000000000e+02 9.270000000000000000e+02 9.280000000000000000e+02 9.290000000000000000e+02 9.300000000000000000e+02 9.310000000000000000e+02 9.320000000000000000e+02 9.330000000000000000e+02 9.340000000000000000e+02 9.350000000000000000e+02 9.360000000000000000e+02 9.370000000000000000e+02 9.380000000000000000e+02 9.390000000000000000e+02 9.400000000000000000e+02 9.410000000000000000e+02 9.420000000000000000e+02 9.430000000000000000e+02 9.440000000000000000e+02 9.450000000000000000e+02 9.460000000000000000e+02 9.470000000000000000e+02 9.480000000000000000e+02 9.490000000000000000e+02 9.500000000000000000e+02 9.510000000000000000e+02 9.520000000000000000e+02 9.530000000000000000e+02 9.540000000000000000e+02 9.550000000000000000e+02 9.560000000000000000e+02 9.570000000000000000e+02 9.580000000000000000e+02 9.590000000000000000e+02 9.600000000000000000e+02 9.610000000000000000e+02 9.620000000000000000e+02 9.630000000000000000e+02 9.640000000000000000e+02 9.650000000000000000e+02 9.660000000000000000e+02 9.670000000000000000e+02 9.680000000000000000e+02 9.690000000000000000e+02 9.700000000000000000e+02 9.710000000000000000e+02 9.720000000000000000e+02 9.730000000000000000e+02 9.740000000000000000e+02 9.750000000000000000e+02 9.760000000000000000e+02 9.770000000000000000e+02 9.780000000000000000e+02 9.790000000000000000e+02 9.800000000000000000e+02 9.810000000000000000e+02 9.820000000000000000e+02 9.830000000000000000e+02 9.840000000000000000e+02 9.850000000000000000e+02 9.860000000000000000e+02 9.870000000000000000e+02 9.880000000000000000e+02 9.890000000000000000e+02 9.900000000000000000e+02 9.910000000000000000e+02 9.920000000000000000e+02 9.930000000000000000e+02 9.940000000000000000e+02 9.950000000000000000e+02 9.960000000000000000e+02 9.970000000000000000e+02 9.980000000000000000e+02 9.990000000000000000e+02
1.000000000000000000e+00 1.000000000000000000e+00 1.000000000000000000e+00 1.000000000000000000e+00 1.000000000000000000e+00 1.000000000000000000e+00 1.000000000000000000e+00 1.000000000000000000e+00 1.000000000000000000e+00 1.000000000000000000e+00 1.000000000000000000e+00 1.000000000000000000e+00 1.000000000000000000e+00 1.000000000000000000e+00 1.000000000000000000e+00 1.000000000000000000e+00 1.000000000000000000e+00 1.000000000000000000e+00 1.000000000000000000e+00 1.000000000000000000e+00 1.000000000000000000e+00 1.000000000000000000e+00 1.000000000000000000e+00 1.000000000000000000e+00 1.000000000000000000e+00 1.000000000000000000e+00 1.000000000000000000e+00 1.000000000000000000e+00 1.000000000000000000e+00 1.000000000000000000e+00 1.000000000000000000e+00 1.000000000000000000e+00 1.000000000000000000e+00 1.000000000000000000e+00 1.000000000000000000e+00 1.000000000000000000e+00 1.000000000000000000e+00 1.000000000000000000e+00 1.000000000000000000e+00 1.000000000000000000e+00 1.000000000000000000e+00 1.000000000000000000e+00 1.000000000000000000e+00 1.000000000000000000e+00 1.000000000000000000e+00 1.000000000000000000e+00 1.000000000000000000e+00 1.000000000000000000e+00 1.000000000000000000e+00 1.000000000000000000e+00 1.000000000000000000e+00 1.000000000000000000e+00 1.000000000000000000e+00 1.000000000000000000e+00 1.000000000000000000e+00 1.000000000000000000e+00 1.000000000000000000e+00 1.000000000000000000e+00 1.000000000000000000e+00 1.000000000000000000e+00 1.000000000000000000e+00 1.000000000000000000e+00 1.000000000000000000e+00 1.000000000000000000e+00 1.000000000000000000e+00 1.000000000000000000e+00 1.000000000000000000e+00 1.000000000000000000e+00 1.000000000000000000e+00 1.000000000000000000e+00 1.000000000000000000e+00 1.000000000000000000e+00 1.000000000000000000e+00 1.000000000000000000e+00 1.000000000000000000e+00 1.000000000000000000e+00 1.000000000000000000e+00 1.000000000000000000e+00 1.000000000000000000e+00 1.000000000000000000e+00 1.000000000000000000e+00 1.000000000000000000e+00 1.000000000000000000e+00 1.000000000000000000e+00 1.000000000000000000e+00 1.000000000000000000e+00 1.000000000000000000e+00 1.000000000000000000e+00 1.000000000000000000e+00 1.000000000000000000e+00 1.000000000000000000e+00 1.000000000000000000e+00 1.000000000000000000e+00 1.000000000000000000e+00 1.000000000000000000e+00 1.000000000000000000e+00 1.000000000000000000e+00 1.000000000000000000e+00 1.000000000000000000e+00 1.000000000000000000e+00 1.000000000000000000e+00 1.000000000000000000e+00 1.000000000000000000e+00 1.000000000000000000e+00 1.000000000000000000e+00 1.000000000000000000e+00 1.000000000000000000e+00 1.000000000000000000e+00 1.000000000000000000e+00 1.000000000000000000e+00 1.000000000000000000e+00 1.000000000000000000e+00 1.000000000000000000e+00 1.000000000000000000e+00 1.000000000000000000e+00 1.000000000000000000e+00 1.000000000000000000e+00 1.000000000000000000e+00 1.000000000000000000e+00 1.000000000000000000e+00 1.000000000000000000e+00 1.000000000000000000e+00 1.000000000000000000e+00 1.000000000000000000e+00 1.000000000000000000e+00 1.000000000000000000e+00 1.000000000000000000e+00 1.000000000000000000e+00 1.000000000000000000e+00 1.000000000000000000e+00 1.000000000000000000e+00 1.000000000000000000e+00 1.000000000000000000e+00 1.000000000000000000e+00 1.000000000000000000e+00 1.000000000000000000e+00 1.000000000000000000e+00 1.000000000000000000e+00 1.000000000000000000e+00 1.000000000000000000e+00 1.000000000000000000e+00 1.000000000000000000e+00 1.000000000000000000e+00 1.000000000000000000e+00 1.000000000000000000e+00 1.000000000000000000e+00 1.000000000000000000e+00 1.000000000000000000e+00 1.000000000000000000e+00 1.000000000000000000e+00 1.000000000000000000e+00 1.000000000000000000e+00 1.000000000000000000e+00 1.000000000000000000e+00 1.000000000000000000e+00 1.000000000000000000e+00 1.000000000000000000e+00 1.000000000000000000e+00 1.000000000000000000e+00 1.000000000000000000e+00 1.000000000000000000e+00 1.000000000000000000e+00 1.000000000000000000e+00 1.000000000000000000e+00 1.000000000000000000e+00 1.000000000000000000e+00 1.000000000000000000e+00 1.000000000000000000e+00 1.000000000000000000e+00 1.000000000000000000e+00 1.000000000000000000e+00 1.000000000000000000e+00 1.000000000000000000e+00 1.000000000000000000e+00 1.000000000000000000e+00 1.000000000000000000e+00 1.000000000000000000e+00 1.000000000000000000e+00 1.000000000000000000e+00 1.000000000000000000e+00 1.000000000000000000e+00 1.000000000000000000e+00 1.000000000000000000e+00 1.000000000000000000e+00 1.000000000000000000e+00 1.000000000000000000e+00 1.000000000000000000e+00 1.000000000000000000e+00 1.000000000000000000e+00 1.000000000000000000e+00 1.000000000000000000e+00 1.000000000000000000e+00 1.000000000000000000e+00 1.000000000000000000e+00 1.000000000000000000e+00 1.000000000000000000e+00 1.000000000000000000e+00 1.000000000000000000e+00 1.000000000000000000e+00 1.000000000000000000e+00 1.000000000000000000e+00 1.000000000000000000e+00 1.000000000000000000e+00 1.000000000000000000e+00 1.000000000000000000e+00 1.000000000000000000e+00 1.000000000000000000e+00 1.000000000000000000e+00 1.000000000000000000e+00 1.000000000000000000e+00 1.000000000000000000e+00 1.000000000000000000e+00 1.000000000000000000e+00 1.000000000000000000e+00 1.000000000000000000e+00 1.000000000000000000e+00 1.000000000000000000e+00 1.000000000000000000e+00 1.000000000000000000e+00 1.000000000000000000e+00 1.000000000000000000e+00 1.000000000000000000e+00 1.000000000000000000e+00 1.000000000000000000e+00 1.000000000000000000e+00 1.000000000000000000e+00 1.000000000000000000e+00 1.000000000000000000e+00 1.000000000000000000e+00 1.000000000000000000e+00 1.000000000000000000e+00 1.000000000000000000e+00 1.000000000000000000e+00 1.000000000000000000e+00 1.000000000000000000e+00 1.000000000000000000e+00 1.000000000000000000e+00 1.000000000000000000e+00 1.000000000000000000e+00 1.000000000000000000e+00 1.000000000000000000e+00 1.000000000000000000e+00 1.000000000000000000e+00 1.000000000000000000e+00 1.000000000000000000e+00 1.000000000000000000e+00 1.000000000000000000e+00 1.000000000000000000e+00 1.000000000000000000e+00 1.000000000000000000e+00 1.000000000000000000e+00 1.000000000000000000e+00 1.000000000000000000e+00 1.000000000000000000e+00 1.000000000000000000e+00 1.000000000000000000e+00 1.000000000000000000e+00 1.000000000000000000e+00 1.000000000000000000e+00 1.000000000000000000e+00 1.000000000000000000e+00 1.000000000000000000e+00 1.000000000000000000e+00 1.000000000000000000e+00 1.000000000000000000e+00 1.000000000000000000e+00 1.000000000000000000e+00 1.000000000000000000e+00 1.000000000000000000e+00 1.000000000000000000e+00 1.000000000000000000e+00 1.000000000000000000e+00 1.000000000000000000e+00 1.000000000000000000e+00 1.000000000000000000e+00 1.000000000000000000e+00 1.000000000000000000e+00 1.000000000000000000e+00 1.000000000000000000e+00 1.000000000000000000e+00 1.000000000000000000e+00 1.000000000000000000e+00 1.000000000000000000e+00 1.000000000000000000e+00 1.000000000000000000e+00 1.000000000000000000e+00 1.000000000000000000e+00 1.000000000000000000e+00 1.000000000000000000e+00 1.000000000000000000e+00 1.000000000000000000e+00 1.000000000000000000e+00 1.000000000000000000e+00 1.000000000000000000e+00 1.000000000000000000e+00 1.000000000000000000e+00 1.000000000000000000e+00 1.000000000000000000e+00 1.000000000000000000e+00 1.000000000000000000e+00 1.000000000000000000e+00 1.000000000000000000e+00 1.000000000000000000e+00 1.000000000000000000e+00 1.000000000000000000e+00 1.000000000000000000e+00 1.000000000000000000e+00 1.000000000000000000e+00 1.000000000000000000e+00 1.000000000000000000e+00 1.000000000000000000e+00 1.000000000000000000e+00 1.000000000000000000e+00 1.000000000000000000e+00 1.000000000000000000e+00 1.000000000000000000e+00 1.000000000000000000e+00 1.000000000000000000e+00 1.000000000000000000e+00 1.000000000000000000e+00 1.000000000000000000e+00 1.000000000000000000e+00 1.000000000000000000e+00 1.000000000000000000e+00 1.000000000000000000e+00 1.000000000000000000e+00 1.000000000000000000e+00 1.000000000000000000e+00 1.000000000000000000e+00 1.000000000000000000e+00 1.000000000000000000e+00 1.000000000000000000e+00 1.000000000000000000e+00 1.000000000000000000e+00 1.000000000000000000e+00 1.000000000000000000e+00 1.000000000000000000e+00 1.000000000000000000e+00 1.000000000000000000e+00 1.000000000000000000e+00 1.000000000000000000e+00 1.000000000000000000e+00 1.000000000000000000e+00 1.000000000000000000e+00 1.000000000000000000e+00 1.000000000000000000e+00 1.000000000000000000e+00 1.000000000000000000e+00 1.000000000000000000e+00 1.000000000000000000e+00 1.000000000000000000e+00 1.000000000000000000e+00 1.000000000000000000e+00 1.000000000000000000e+00 1.000000000000000000e+00 1.000000000000000000e+00 1.000000000000000000e+00 1.000000000000000000e+00 1.000000000000000000e+00 1.000000000000000000e+00 1.000000000000000000e+00 1.000000000000000000e+00 1.000000000000000000e+00 1.000000000000000000e+00 1.000000000000000000e+00 1.000000000000000000e+00 1.000000000000000000e+00 1.000000000000000000e+00 1.000000000000000000e+00 1.000000000000000000e+00 1.000000000000000000e+00 1.000000000000000000e+00 1.000000000000000000e+00 1.000000000000000000e+00 1.000000000000000000e+00 1.000000000000000000e+00 1.000000000000000000e+00 1.000000000000000000e+00 1.000000000000000000e+00 1.000000000000000000e+00 1.000000000000000000e+00 1.000000000000000000e+00 1.000000000000000000e+00 1.000000000000000000e+00 1.000000000000000000e+00 1.000000000000000000e+00 1.000000000000000000e+00 1.000000000000000000e+00 1.000000000000000000e+00 1.000000000000000000e+00 1.000000000000000000e+00 1.000000000000000000e+00 1.000000000000000000e+00 1.000000000000000000e+00 1.000000000000000000e+00 1.000000000000000000e+00 1.000000000000000000e+00 1.000000000000000000e+00 1.000000000000000000e+00 1.000000000000000000e+00 1.000000000000000000e+00 1.000000000000000000e+00 1.000000000000000000e+00 1.000000000000000000e+00 1.000000000000000000e+00 1.000000000000000000e+00 1.000000000000000000e+00 1.000000000000000000e+00 1.000000000000000000e+00 1.000000000000000000e+00 1.000000000000000000e+00 1.000000000000000000e+00 1.000000000000000000e+00 1.000000000000000000e+00 1.000000000000000000e+00 1.000000000000000000e+00 1.000000000000000000e+00 1.000000000000000000e+00 1.000000000000000000e+00 1.000000000000000000e+00 1.000000000000000000e+00 1.000000000000000000e+00 1.000000000000000000e+00 1.000000000000000000e+00 1.000000000000000000e+00 1.000000000000000000e+00 1.000000000000000000e+00 1.000000000000000000e+00 1.000000000000000000e+00 1.000000000000000000e+00 1.000000000000000000e+00 1.000000000000000000e+00 1.000000000000000000e+00 1.000000000000000000e+00 1.000000000000000000e+00 1.000000000000000000e+00 1.000000000000000000e+00 1.000000000000000000e+00 1.000000000000000000e+00 1.000000000000000000e+00 1.000000000000000000e+00 1.000000000000000000e+00 1.000000000000000000e+00 1.000000000000000000e+00 1.000000000000000000e+00 1.000000000000000000e+00 1.000000000000000000e+00 1.000000000000000000e+00 1.000000000000000000e+00 1.000000000000000000e+00 1.000000000000000000e+00 1.000000000000000000e+00 1.000000000000000000e+00 1.000000000000000000e+00 1.000000000000000000e+00 1.000000000000000000e+00 1.000000000000000000e+00 1.000000000000000000e+00 1.000000000000000000e+00 1.000000000000000000e+00 1.000000000000000000e+00 1.000000000000000000e+00 1.000000000000000000e+00 1.000000000000000000e+00 1.000000000000000000e+00 1.000000000000000000e+00 1.000000000000000000e+00 1.000000000000000000e+00 1.000000000000000000e+00 1.000000000000000000e+00 1.000000000000000000e+00 1.000000000000000000e+00 1.000000000000000000e+00 1.000000000000000000e+00 1.000000000000000000e+00 1.000000000000000000e+00 1.000000000000000000e+00 1.000000000000000000e+00 1.000000000000000000e+00 1.000000000000000000e+00 1.000000000000000000e+00 1.000000000000000000e+00 1.000000000000000000e+00 1.000000000000000000e+00 1.000000000000000000e+00 1.000000000000000000e+00 1.000000000000000000e+00 1.000000000000000000e+00 1.000000000000000000e+00 1.000000000000000000e+00 1.000000000000000000e+00 1.000000000000000000e+00 1.000000000000000000e+00 1.000000000000000000e+00 1.000000000000000000e+00 1.000000000000000000e+00 1.000000000000000000e+00 1.000000000000000000e+00 1.000000000000000000e+00 1.000000000000000000e+00 1.000000000000000000e+00 1.000000000000000000e+00 1.000000000000000000e+00 1.000000000000000000e+00 1.000000000000000000e+00 1.000000000000000000e+00 1.000000000000000000e+00 1.000000000000000000e+00 1.000000000000000000e+00 1.000000000000000000e+00 1.000000000000000000e+00 1.000000000000000000e+00 1.000000000000000000e+00 1.000000000000000000e+00 1.000000000000000000e+00 1.000000000000000000e+00 1.000000000000000000e+00 1.000000000000000000e+00 1.000000000000000000e+00 1.000000000000000000e+00 1.000000000000000000e+00 1.000000000000000000e+00 1.000000000000000000e+00 1.000000000000000000e+00 1.000000000000000000e+00 1.000000000000000000e+00 1.000000000000000000e+00 1.000000000000000000e+00 1.000000000000000000e+00 1.000000000000000000e+00 1.000000000000000000e+00 1.000000000000000000e+00 1.000000000000000000e+00 1.000000000000000000e+00 1.000000000000000000e+00 1.000000000000000000e+00 1.000000000000000000e+00 1.000000000000000000e+00 1.000000000000000000e+00 1.000000000000000000e+00 1.000000000000000000e+00 1.000000000000000000e+00 1.000000000000000000e+00 1.000000000000000000e+00 1.000000000000000000e+00 1.000000000000000000e+00 1.000000000000000000e+00 1.000000000000000000e+00 1.000000000000000000e+00 1.000000000000000000e+00 1.000000000000000000e+00 1.000000000000000000e+00 1.000000000000000000e+00 1.000000000000000000e+00 1.000000000000000000e+00 1.000000000000000000e+00 1.000000000000000000e+00 1.000000000000000000e+00 1.000000000000000000e+00 1.000000000000000000e+00 1.000000000000000000e+00 1.000000000000000000e+00 1.000000000000000000e+00 1.000000000000000000e+00 1.000000000000000000e+00 1.000000000000000000e+00 1.000000000000000000e+00 1.000000000000000000e+00 1.000000000000000000e+00 1.000000000000000000e+00 1.000000000000000000e+00 1.000000000000000000e+00 1.000000000000000000e+00 1.000000000000000000e+00 1.000000000000000000e+00 1.000000000000000000e+00 1.000000000000000000e+00 1.000000000000000000e+00 1.000000000000000000e+00 1.000000000000000000e+00 1.000000000000000000e+00 1.000000000000000000e+00 1.000000000000000000e+00 1.000000000000000000e+00 1.000000000000000000e+00 1.000000000000000000e+00 1.000000000000000000e+00 1.000000000000000000e+00 1.000000000000000000e+00 1.000000000000000000e+00 1.000000000000000000e+00 1.000000000000000000e+00 1.000000000000000000e+00 1.000000000000000000e+00 1.000000000000000000e+00 1.000000000000000000e+00 1.000000000000000000e+00 1.000000000000000000e+00 1.000000000000000000e+00 1.000000000000000000e+00 1.000000000000000000e+00 1.000000000000000000e+00 1.000000000000000000e+00 1.000000000000000000e+00 1.000000000000000000e+00 1.000000000000000000e+00 1.000000000000000000e+00 1.000000000000000000e+00 1.000000000000000000e+00 1.000000000000000000e+00 1.000000000000000000e+00 1.000000000000000000e+00 1.000000000000000000e+00 1.000000000000000000e+00 1.000000000000000000e+00 1.000000000000000000e+00 1.000000000000000000e+00 1.000000000000000000e+00 1.000000000000000000e+00 1.000000000000000000e+00 1.000000000000000000e+00 1.000000000000000000e+00 1.000000000000000000e+00 1.000000000000000000e+00 1.000000000000000000e+00 1.000000000000000000e+00 1.000000000000000000e+00 1.000000000000000000e+00 1.000000000000000000e+00 1.000000000000000000e+00 1.000000000000000000e+00 1.000000000000000000e+00 1.000000000000000000e+00 1.000000000000000000e+00 1.000000000000000000e+00 1.000000000000000000e+00 1.000000000000000000e+00 1.000000000000000000e+00 1.000000000000000000e+00 1.000000000000000000e+00 1.000000000000000000e+00 1.000000000000000000e+00 1.000000000000000000e+00 1.000000000000000000e+00 1.000000000000000000e+00 1.000000000000000000e+00 1.000000000000000000e+00 1.000000000000000000e+00 1.000000000000000000e+00 1.000000000000000000e+00 1.000000000000000000e+00 1.000000000000000000e+00 1.000000000000000000e+00 1.000000000000000000e+00 1.000000000000000000e+00 1.000000000000000000e+00 1.000000000000000000e+00 1.000000000000000000e+00 1.000000000000000000e+00 1.000000000000000000e+00 1.000000000000000000e+00 1.000000000000000000e+00 1.000000000000000000e+00 1.000000000000000000e+00 1.000000000000000000e+00 1.000000000000000000e+00 1.000000000000000000e+00 1.000000000000000000e+00 1.000000000000000000e+00 1.000000000000000000e+00 1.000000000000000000e+00 1.000000000000000000e+00 1.000000000000000000e+00 1.000000000000000000e+00 1.000000000000000000e+00 1.000000000000000000e+00 1.000000000000000000e+00 1.000000000000000000e+00 1.000000000000000000e+00 1.000000000000000000e+00 1.000000000000000000e+00 1.000000000000000000e+00 1.000000000000000000e+00 1.000000000000000000e+00 1.000000000000000000e+00 1.000000000000000000e+00 1.000000000000000000e+00 1.000000000000000000e+00 1.000000000000000000e+00 1.000000000000000000e+00 1.000000000000000000e+00 1.000000000000000000e+00 1.000000000000000000e+00 1.000000000000000000e+00 1.000000000000000000e+00 1.000000000000000000e+00 1.000000000000000000e+00 1.000000000000000000e+00 1.000000000000000000e+00 1.000000000000000000e+00 1.000000000000000000e+00 1.000000000000000000e+00 1.000000000000000000e+00 1.000000000000000000e+00 1.000000000000000000e+00 1.000000000000000000e+00 1.000000000000000000e+00 1.000000000000000000e+00 1.000000000000000000e+00 1.000000000000000000e+00 1.000000000000000000e+00 1.000000000000000000e+00 1.000000000000000000e+00 1.000000000000000000e+00 1.000000000000000000e+00 1.000000000000000000e+00 1.000000000000000000e+00 1.000000000000000000e+00 1.000000000000000000e+00 1.000000000000000000e+00 1.000000000000000000e+00 1.000000000000000000e+00 1.000000000000000000e+00 1.000000000000000000e+00 1.000000000000000000e+00 1.000000000000000000e+00 1.000000000000000000e+00 1.000000000000000000e+00 1.000000000000000000e+00 1.000000000000000000e+00 1.000000000000000000e+00 1.000000000000000000e+00 1.000000000000000000e+00 1.000000000000000000e+00 1.000000000000000000e+00 1.000000000000000000e+00 1.000000000000000000e+00 1.000000000000000000e+00 1.000000000000000000e+00 1.000000000000000000e+00 1.000000000000000000e+00 1.000000000000000000e+00 1.000000000000000000e+00 1.000000000000000000e+00 1.000000000000000000e+00 1.000000000000000000e+00 1.000000000000000000e+00 1.000000000000000000e+00 1.000000000000000000e+00 1.000000000000000000e+00 1.000000000000000000e+00 1.000000000000000000e+00 1.000000000000000000e+00 1.000000000000000000e+00 1.000000000000000000e+00 1.000000000000000000e+00 1.000000000000000000e+00 1.000000000000000000e+00 1.000000000000000000e+00 1.000000000000000000e+00 1.000000000000000000e+00 1.000000000000000000e+00 1.000000000000000000e+00 1.000000000000000000e+00 1.000000000000000000e+00 1.000000000000000000e+00 1.000000000000000000e+00 1.000000000000000000e+00 1.000000000000000000e+00 1.000000000000000000e+00 1.000000000000000000e+00 1.000000000000000000e+00 1.000000000000000000e+00 1.000000000000000000e+00 1.000000000000000000e+00 1.000000000000000000e+00 1.000000000000000000e+00 1.000000000000000000e+00 1.000000000000000000e+00 1.000000000000000000e+00 1.000000000000000000e+00 1.000000000000000000e+00 1.000000000000000000e+00 1.000000000000000000e+00 1.000000000000000000e+00 1.000000000000000000e+00 1.000000000000000000e+00 1.000000000000000000e+00 1.000000000000000000e+00 1.000000000000000000e+00 1.000000000000000000e+00 1.000000000000000000e+00 1.000000000000000000e+00 1.000000000000000000e+00 1.000000000000000000e+00 1.000000000000000000e+00 1.000000000000000000e+00 1.000000000000000000e+00 1.000000000000000000e+00 1.000000000000000000e+00 1.000000000000000000e+00 1.000000000000000000e+00 1.000000000000000000e+00 1.000000000000000000e+00 1.000000000000000000e+00 1.000000000000000000e+00 1.000000000000000000e+00 1.000000000000000000e+00 1.000000000000000000e+00 1.000000000000000000e+00 1.000000000000000000e+00 1.000000000000000000e+00 1.000000000000000000e+00 1.000000000000000000e+00 1.000000000000000000e+00 1.000000000000000000e+00 1.000000000000000000e+00 1.000000000000000000e+00 1.000000000000000000e+00 1.000000000000000000e+00 1.000000000000000000e+00 1.000000000000000000e+00 1.000000000000000000e+00 1.000000000000000000e+00 1.000000000000000000e+00 1.000000000000000000e+00 1.000000000000000000e+00 1.000000000000000000e+00 1.000000000000000000e+00 1.000000000000000000e+00 1.000000000000000000e+00 1.000000000000000000e+00 1.000000000000000000e+00 1.000000000000000000e+00 1.000000000000000000e+00 1.000000000000000000e+00 1.000000000000000000e+00 1.000000000000000000e+00 1.000000000000000000e+00 1.000000000000000000e+00 1.000000000000000000e+00 1.000000000000000000e+00 1.000000000000000000e+00 1.000000000000000000e+00 1.000000000000000000e+00 1.000000000000000000e+00 1.000000000000000000e+00 1.000000000000000000e+00 1.000000000000000000e+00 1.000000000000000000e+00 1.000000000000000000e+00 1.000000000000000000e+00 1.000000000000000000e+00 1.000000000000000000e+00 1.000000000000000000e+00 1.000000000000000000e+00 1.000000000000000000e+00 1.000000000000000000e+00 1.000000000000000000e+00 1.000000000000000000e+00 1.000000000000000000e+00 1.000000000000000000e+00 1.000000000000000000e+00 1.000000000000000000e+00 1.000000000000000000e+00 1.000000000000000000e+00 1.000000000000000000e+00 1.000000000000000000e+00 1.000000000000000000e+00 1.000000000000000000e+00 1.000000000000000000e+00 1.000000000000000000e+00 1.000000000000000000e+00 1.000000000000000000e+00 1.000000000000000000e+00 1.000000000000000000e+00 1.000000000000000000e+00 1.000000000000000000e+00 1.000000000000000000e+00 1.000000000000000000e+00 1.000000000000000000e+00 1.000000000000000000e+00 1.000000000000000000e+00 1.000000000000000000e+00 1.000000000000000000e+00 1.000000000000000000e+00 1.000000000000000000e+00 1.000000000000000000e+00 1.000000000000000000e+00 1.000000000000000000e+00 1.000000000000000000e+00 1.000000000000000000e+00 1.000000000000000000e+00 1.000000000000000000e+00 1.000000000000000000e+00 1.000000000000000000e+00 1.000000000000000000e+00 1.000000000000000000e+00 1.000000000000000000e+00 1.000000000000000000e+00 1.000000000000000000e+00 1.000000000000000000e+00 1.000000000000000000e+00 1.000000000000000000e+00 1.000000000000000000e+00 1.000000000000000000e+00 1.000000000000000000e+00 1.000000000000000000e+00 1.000000000000000000e+00 1.000000000000000000e+00 1.000000000000000000e+00 1.000000000000000000e+00 1.000000000000000000e+00 1.000000000000000000e+00 1.000000000000000000e+00 1.000000000000000000e+00 1.000000000000000000e+00 1.000000000000000000e+00 1.000000000000000000e+00 1.000000000000000000e+00 1.000000000000000000e+00 1.000000000000000000e+00 1.000000000000000000e+00 1.000000000000000000e+00 1.000000000000000000e+00 1.000000000000000000e+00 1.000000000000000000e+00 1.000000000000000000e+00 1.000000000000000000e+00 1.000000000000000000e+00 1.000000000000000000e+00 1.000000000000000000e+00 1.000000000000000000e+00 1.000000000000000000e+00 1.000000000000000000e+00 1.000000000000000000e+00 1.000000000000000000e+00 1.000000000000000000e+00 1.000000000000000000e+00 1.000000000000000000e+00 1.000000000000000000e+00 1.000000000000000000e+00 1.000000000000000000e+00 1.000000000000000000e+00 1.000000000000000000e+00 1.000000000000000000e+00 1.000000000000000000e+00 1.000000000000000000e+00 1.000000000000000000e+00 1.000000000000000000e+00 1.000000000000000000e+00 1.000000000000000000e+00 1.000000000000000000e+00 1.000000000000000000e+00 1.000000000000000000e+00 1.000000000000000000e+00 1.000000000000000000e+00 1.000000000000000000e+00 1.000000000000000000e+00 1.000000000000000000e+00 1.000000000000000000e+00 1.000000000000000000e+00 1.000000000000000000e+00 1.000000000000000000e+00 1.000000000000000000e+00 1.000000000000000000e+00 1.000000000000000000e+00 1.000000000000000000e+00 1.000000000000000000e+00 1.000000000000000000e+00 1.000000000000000000e+00 1.000000000000000000e+00 1.000000000000000000e+00 1.000000000000000000e+00 1.000000000000000000e+00 1.000000000000000000e+00 1.000000000000000000e+00 1.000000000000000000e+00 1.000000000000000000e+00 1.000000000000000000e+00 1.000000000000000000e+00 1.000000000000000000e+00 1.000000000000000000e+00 1.000000000000000000e+00 1.000000000000000000e+00 1.000000000000000000e+00 1.000000000000000000e+00 1.000000000000000000e+00 1.000000000000000000e+00 1.000000000000000000e+00 1.000000000000000000e+00 1.000000000000000000e+00 1.000000000000000000e+00 1.000000000000000000e+00 1.000000000000000000e+00 1.000000000000000000e+00 1.000000000000000000e+00 1.000000000000000000e+00 1.000000000000000000e+00 1.000000000000000000e+00
-9.987828144837776131e-03 4.854057340658053943e-01 6.754242862931780778e-01 4.622930967775304434e-01 5.245151637354400487e-01 5.089845402980230915e-01 7.447134905378151037e-01 2.149771850560155961e-01 5.730016548740194393e-01 5.102497117417216232e-01 1.029775722475240407e+00 -3.931570303645684494e-01 1.223896937724940903e+00 5.145035692107036152e-01 4.724689228244835504e-01 6.823199044546196523e-01 1.002149617944321669e+00 7.082192327581311453e-01 1.844850896014973429e-01 5.104928198225676672e-01 3.627286390596453636e-01 8.944783116689634106e-01 4.111036255837284825e-01 5.176877141257326675e-01 6.688789050597433450e-01 7.773492455220998298e-01 4.347968060416124714e-01 6.559803371829071583e-01 5.401663964827019271e-01 1.099961703243566236e+00 4.560400555262711375e-01 3.082950478463000743e-01 8.138781365258216383e-01 5.201615818319910156e-01 7.559365256502553754e-01 4.961269655278974788e-01 4.888792146361090607e-01 1.164667173941546618e+00 7.661898547122851511e-02 5.087426924028997099e-01 3.011501722253533964e-01 -4.544335738066288544e-01 7.550553551453725865e-01 1.943136925835954321e-01 2.332750993612384416e-01 4.793925498595122403e-01 4.633722593933298217e-01 5.076692733701828608e-01 5.610941871480631393e-01 -4.739790015579016177e-04 1.903587034549182599e-02 3.856453414906028665e-01 5.602723788788492865e-01 5.779189968927694876e-01 5.166390944043199873e-01 -1.629005271975109137e-02 5.496187081852583756e-01 4.558904532163660650e-01 1.556217800652270611e-01 5.225983549250329263e-01 7.943332994116505397e-01 5.291920022845111315e-01 4.569447538316702140e-01 4.111032725623637307e-01 6.405859785272193241e-01 6.241665622147506420e-01 5.104894580924215219e-01 7.054862609410186280e-01 5.234435247151832948e-01 -2.006962551590092680e-02 5.366051690696067578e-01 5.905299944507835797e-01 4.875174111825671952e-01 3.008517444063519425e-02 1.332305820458728807e+00 6.286987504720074060e-01 6.029390156587621785e-01 7.882651709758893288e-01 5.056979735784716823e-01 1.308975129588478392e+00 5.007641936054489928e-01 1.563382634569261409e-01 1.001960110269487725e+00 5.532804175527686885e-01 4.218226467888995801e-01 7.453710940470831270e-01 8.471545986324641175e-01 5.044091763414659813e-01 3.239926982218691576e-01 5.680344967448626159e-01 2.326913510076847602e-01 1.673751288103215717e+00 4.675883659703087836e-01 8.900481551143386155e-03 3.453732880762831470e-01 5.244632822469573741e-01 4.850117924385566881e-01 4.879522058064397205e-01 2.115424050708344939e-01 7.870193715174040872e-01 1.149120601604934677e+00 5.699480237320474485e-01 5.213801624513142441e-01 1.080030254464090733e+00 2.051406856223668695e-01 -1.388258915798378457e+00 -9.250686573170264770e-01 5.611620888502614202e-01 5.356217907652508492e-01 9.443439631820667035e-01 5.361486508165974607e-01 5.433805670830567092e-01 7.283713164234262294e-01 5.031016008716887589e-01 4.673959286978749406e-01 6.594873742964991736e-01 3.699994957394540096e-01 5.740589344591431331e-01 5.103151410541951760e-01 5.585170029239353573e-01 1.161257922205013893e+00 3.392477060838144931e-01 4.682628136416974729e-01 5.544566888899440382e-01 5.299526889331629409e-01 1.669450441705700117e+00 5.166018022912500784e-01 4.991722373875038254e-01 5.696796607697452997e-01 4.974054821014107231e-01 5.064540183639814064e-01 4.914921407846271628e-01 4.178227927018248744e-01 1.335702794042459562e-01 4.681025998134292210e-01 -5.720676427982487877e-02 7.043334279656001673e-01 2.898567632656389587e-02 9.038117664539740970e-01 5.062122266400086446e-01 5.111399667075575692e-01 7.413516557605335233e-01 6.065284535665890209e-01 5.755160598943246386e-01 5.386329826345824801e-01 1.170670565992821578e-02 4.908922133573921931e-01 5.243031212477302638e-01 5.496486934081837861e-01 -5.650530104663317177e-01 7.315871556006510179e-01 -1.945061733914005553e-01 4.793852975958020068e-01 5.025923602071054042e-01 8.155490835632940305e-01 5.212883663832448278e-01 1.118382621202426153e+00 4.816655498728015239e-01 8.146895553300611548e-01 7.758710393958401230e-01 5.142650765312160033e-01 4.326832047963340977e-01 4.896351197000824995e-01 5.222221531193864674e-01 1.141537727613338937e+00 -1.048803458066652622e-01 7.615947510222722538e-01 5.473422130640421823e-01 4.629601603703426549e-01 4.167874225752285500e-01 4.784977648933670391e-01 4.625082066106155909e-01 4.794011994498842966e-01 5.136038852557641698e-01 4.236086416049552050e-01 8.081121986218131603e-02 1.353930404048996061e-01 3.850408939056737534e-02 6.406071706915009711e-01 1.081744671994942397e+00 5.642280949966627102e-01 5.423544756734438588e-01 -2.374210768050871168e-01 4.331799610617323437e-01 6.213853971760783246e-01 4.184887778909126554e-01 5.295309872776814419e-01 5.114959587390692786e-01 2.067488610748873690e+00 8.387150466982447039e-01 5.955883791552668560e-01 -4.965994629577520358e-01 4.842104040362159578e-01 5.280999426241073103e-01 1.153526456537939948e-01 5.386832328235239276e-01 8.251077537183344468e-01 5.067873462165142229e-01 5.443846177073107251e-01 4.696977555945779925e-01 4.779567159088001227e-01 4.825837344603911561e-01 1.064252764825104558e+00 5.757539557881692360e-01 5.418007803543837264e-01 5.443846848451117104e-01 5.130887781934573288e-01 1.158226323399198954e+00 5.293183156074345863e-01 5.809731166155670534e-01 3.828080999972036658e-01 6.710201757230307984e-02 4.865795057396149481e-01 2.891430078241022938e-01 5.167633920483110099e-01 4.850914760864186714e-01 5.497769872543551983e-01 5.068197935013066813e-01 5.359265479599482074e-01 5.305050320039068623e-01 4.966716510348221925e-01 5.019925832859825077e-01 -4.941678650278520379e-01 4.896302678575394918e-01 3.961782262911603958e-01 5.604255204871815277e-01 5.241120144070683384e-01 8.892631990237077622e-01 8.362778786125342201e-01 7.829711447380701683e-01 -1.118845389382762678e-01 9.397797465884958346e-01 5.131022892311929429e-01 6.704084935000290679e-01 -4.714898601970343717e-02 4.805907566022149524e-01 4.463556960898186210e-01 3.639590597980378872e-01 -4.744666746195135704e-02 -1.857360297866249566e-01 3.798264093867376734e-01 5.168342044422257198e-01 1.000363137865535948e-02 5.439931522467339464e-01 4.888597855270827575e-01 1.011513670521141162e+00 -1.198232058694884278e-01 5.254513896241590487e-01 -1.398763869584533692e+00 5.420480872389408233e-01 9.613140003908879350e-02 5.042939781167682378e-01 4.884719094586235655e-01 4.111028294487453216e-01 4.863352617045229032e-01 4.973136415171095503e-01 5.570703700749308762e-01 5.184552302203411234e-01 6.285964312308318647e-01 1.530643982292123617e+00 5.102533642299045269e-01 5.146030378020335361e-01 5.064516918766579501e-01 7.840188359556859998e-01 7.966446269420150994e-01 5.279857338068212336e-01 2.064700665054653328e+00 5.481835413399644974e-01 3.461142970865285773e-01 7.555357305837130388e-01 5.375477604699311351e-01 7.952168055434745142e-01 5.391700828988047478e-01 5.016347390401779682e-01 5.158830687663210623e-01 5.484456541796713935e-01 2.280579359513175419e-01 8.875674813368277238e-01 8.523595976681033193e-01 -7.194412991506181354e-02 6.236017800234382458e-01 4.889854719627508284e-01 5.341957058231526778e-01 -4.560132364322664889e-01 3.510026819901276851e-01 8.638655295344974672e-01 5.259088288363484853e-01 5.008341818547474844e-01 6.594872810970503485e-01 6.303578888755039245e-01 4.989957456165957095e-01 1.598074524962056486e-02 4.735930344267223480e-01 5.257652674048093333e-01 4.679679413669061983e-02 5.031941818032492630e-01 1.697734957914089904e+00 7.200121480937294871e-01 5.175966285479960405e-01 5.495678703017594646e-01 -2.538786292330505123e+00 4.396030513166661602e-01 1.562910024679029508e+00 4.622096610947308837e-01 5.291215660363371986e-01 -5.772027996605367806e-01 5.110265089234740099e-01 5.001434241456605978e-01 7.464374338884631754e-01 5.197706068928547030e-01 6.672619040564828907e-01 5.695257896174411583e-01 3.261558156848701762e-01 5.312591401136100844e-01 4.784392377258265272e-01 5.128997393399816751e-01 5.228753198568978355e-01 4.627489770959387072e-01 5.178865759910981081e-01 1.061774696377422389e+00 2.909496162986024981e-03 1.987517149003904526e+00 2.171688542424691892e+00 5.033160343211879884e-01 -3.332839319715945325e-03 5.004716632679856447e-01 4.924561283255599609e-01 5.879387132511779690e-01 1.179281753705172298e+00 5.625817317333210443e-01 1.021112678521337136e+00 5.239822080975956586e-01 2.689919911660289542e-01 1.182744903946294057e+00 5.184402580857753184e-01 4.441680867230758389e-01 5.032508338439452000e-01 4.564301734248167319e-01 -2.493681906656251002e+00 1.373192170846188276e+00 4.933536527288516771e-01 6.538952186761869401e-01 5.055837754323508904e-01 1.164667207380394975e+00 3.954005246271312113e-01 5.491154029582302476e-01 2.544408473371153612e-01 4.237815774280221381e-01 1.386949272019225798e+00 4.294859149583547531e-01 5.443845718134179279e-01 5.439968705106084101e-01 5.757539930473618561e-01 5.461734317433589725e-01 4.710179453352615342e-01 7.695209395086654025e-01 5.025339209457253542e-01 4.639962285788895024e-01 4.947776851134388920e-01 4.587319307510486777e-01 5.245203401156069978e-01 4.028246568816956641e-01 5.491150661277984790e-01 4.817552399407494246e-01 5.173381883011537452e-01 4.203919274723817989e-01 1.085406825971021005e+00 9.165794870959907970e-01 5.165431415472603316e-01 6.362813661046879954e-01 8.040381903325177770e-01 -7.292766690911872685e-02 8.677940861229780367e-01 5.325627227606425373e-01 4.300944706465939689e-03 5.728960035530900052e-01 1.129989526335384742e+00 5.313211593197567639e-01 4.467975011920568007e-01 2.326215872167975152e-01 -2.554057821841952403e-01 -1.865398522191294983e+00 4.021966205814832551e-01 5.757539557890509752e-01 5.757539557881666825e-01 4.882022704761096454e-01 4.247152253256064602e-01 -3.388450712915213464e-02 4.911255101836863868e-01 5.213985805985433819e-01 1.534604995349210521e-01 5.023760591675315856e-01 1.156258565713194075e+00 5.443847047215008006e-01 5.261703726044453244e-01 5.230313634855366933e-01 5.886588285106775231e-01 5.583244034212460072e-01 5.059206248192293920e-01 5.154075496355177144e-01 6.602048293971017889e-01 3.877259732094885392e-01 4.425223627179801500e-02 5.757539563184274067e-01 5.911432711913694460e-01 5.224445953992838954e-01 8.115226042625277580e-01 7.850160718514479496e-01 4.945751570833397670e-01 5.539874883035160735e-01 1.251501116067529562e+00 4.423918736741446200e-01 -1.863607265382764222e+00 4.628646443501069352e-01 1.292432953719521382e+00 4.982404115290646751e-01 -6.406645012638135794e-01 4.771920651273670599e-01 3.229777725175229652e-01 6.231944938642770548e-01 5.175605571263940385e-01 6.482116486161249025e-01 4.999446395149659272e-01 9.922280144545715386e-01 4.427148069510891681e-01 1.572421708390779882e-01 5.106762746832581579e-01 4.863409328472297344e-01 7.146905373059804223e-01 5.056364642014697930e-01 8.064180953644893846e-01 -1.642157315138998430e-01 5.231342923680989410e-01 5.267248956845627106e-01 3.858423988598151944e-01 5.055553790142096604e-01 7.309255631236043493e-01 5.211610252335259208e-01 4.898382758212752597e-01 9.090370843210564544e-01 5.044055885693311536e-01 3.506253476065673835e-01 8.986209914836332247e-02 1.255478085133724109e-01 8.539196579150657440e-01 4.960397182496319446e-01 2.616577249496013557e+00 6.170341832078040101e-01 4.266257467532419967e-01 5.926266809690683424e-01 7.860212718008032784e-01 2.762813020517694562e-02 4.977195199271085002e-01 5.415708737789979299e-01 5.703600803220463256e-01 1.113342013559444288e+00 7.312585795828643320e-01 5.186273243429684321e-01 3.963682925146141955e-01 9.891786956813332088e-01 4.658132448816666438e-01 4.933578716646813689e-01 5.122536960763997005e-01 5.738681918953172367e-01 5.154889301470014784e-01 7.646002366116662063e-01 5.020250407341034782e-01 5.203452588378331134e-01 1.267952750145816092e-02 5.239948749383372961e-01 3.599879223091664165e-02 5.311731056278616858e-01 5.236188398528123233e-01 5.103689679941294521e-01 6.974701068006713411e-01 5.158863142762760701e-01 5.792712917344672308e-01 4.693155646960905925e-02 4.617976835351536580e-01 5.068717432168809989e-01 3.737263457683382417e-01 3.083590294317886237e-03 5.080969899560410230e-01 7.052741133931583750e-01 5.155588520712484080e-01 5.958103425122150965e-01 9.531500361256877163e-01 3.638010337471723199e-01 5.130084973396368264e-01 5.553181834109498505e-01 4.341310053994787421e-01 4.939098444206729277e-01 8.949194219575624665e-01 3.922831638209615668e-01 6.977552148630536966e-01 5.937561307861181081e-01 1.641776194148832468e+00 5.017190940920801534e-01 5.770183509903176189e-01 5.321989540241407468e-01 4.731462599861684937e-01 5.034086735573953808e-01 4.853446801843093183e-01 -4.224564684657106106e-01 6.677901569085461508e-01 6.095606535223754285e-01 5.286764852085190647e-01 3.943015046589896655e-01 -3.133380856833533623e-01 4.172616476228013238e-01 5.100171148186298797e-01 4.876064945791196981e-01 6.091501466770065099e-01 4.450826501988812689e-01 5.053582336201875025e-01 4.811023031501603930e-01 -3.352333756346686511e-01 5.959497029652597311e-01 9.485988380628013195e-01 5.763318326806516900e-01 1.052239805136403750e-01 5.826026727549759032e-01 -1.437695421429215359e-01 4.375700078869423915e-01 6.833853972176932023e-01 9.898725859054143816e-01 8.362102397038898571e-01 5.186727434967641770e-01 5.117273931250060359e-01 1.512814230854806208e-01 4.632791864092414280e-01 3.901791375057888089e-01 6.519826264583116204e-01 1.867327578103122193e-02 6.357842630807487572e-01 6.095109213073239829e-01 5.375417050034989597e-01 4.567261743209580782e-01 5.799781087514246369e-01 4.737441672335451215e-01 -1.210766923252380306e-01 -1.234395784473868857e-01 4.860091021326530814e-01 5.159090915388411247e-01 5.869123597271159731e-01 5.302619145067550832e-01 -5.411207921120455566e-01 2.570901261607706711e+00 2.331100097991677111e-01 4.244186681117558813e-01 9.563405302707890243e-01 5.148039981169870716e-01 5.265683465320095680e-01 4.834750913686986507e-01 5.117385681122874619e-01 4.305479036555596717e-01 5.188103749312177326e-01 6.289736340986487040e-01 4.386032335742487409e-01 5.206767931984366271e-01 5.042049909163468513e-01 4.130626273029641693e-01 5.831453170493244853e-01 4.907931909515841351e-01 5.210008739803462241e-01 8.311160326139710453e-01 1.969594392274377270e+00 3.723145678248422352e-01 4.825166508348965322e-01 5.663130647138344687e-01 4.230379161263764232e-01 5.272087223981610782e-01 5.156407099370901026e-01 5.273354965251021431e-01 3.139966606849632913e-01 5.486374933532620624e-01 5.062007904628678112e-01 4.635929198610669322e-01 5.724694515528369054e-01 3.788072803691751034e-01 9.566748375585872877e-01 9.029224289360918698e-01 2.322302211220534096e-01 7.956695404951336092e-01 4.982424841995790055e-01 4.837984699692236545e-01 1.793381673403371179e+00 2.296532870859407938e-01 5.035825525198260877e-01 5.224138429558570218e-01 3.765297935704162852e-02 5.338081621050194681e-01 1.290527941861995931e+00 5.190587848564416351e-01 9.423717003605703857e-01 5.020502951979787243e-01 5.012475401993600199e-01 5.044954811548363338e-01 4.168216872836492115e-01 5.205417326386603261e-01 5.211445063557922364e-01 5.007517920902626596e-01 3.488564700022803722e-01 -1.695153298895069049e-01 4.854038019113841584e-01 5.162870625646800438e-01 4.971665147714244837e-01 5.495727193217344597e-01 7.956661299029218481e-01 6.041468671998867501e-01 6.233299768261513218e-01 9.582852198902250818e-01 -2.741716032115546486e-01 5.076950669156702345e-01 8.452159121764609706e-01 9.961865613573728240e-01 5.027171027573638096e-01 5.178445919720386925e-01 6.406587521903460425e-02 -1.206618338438072424e+00 3.620125498851523016e-01 5.345973324657457004e-01 5.835799433886155185e-01 5.307596130215336272e-01 5.752700141796925903e-01 5.285276411019489418e-01 -1.872827712258131883e-01 7.711590974871576076e-01 6.594873849313308556e-01 6.909128077011491564e-01 5.030141103517209444e-01 -1.265877529694231785e-01 -1.838391570923916807e-01 1.310555355616160433e+00 4.568285884651881457e-01 4.541579411935908750e-01 5.225360827125458130e-01 3.948262411853197262e-01 5.823134051117840881e-01 6.470448608714437500e-01 7.103184564826613423e-01 5.274973020628427323e-01 5.055022633592223258e-01 5.776291350636126865e-01 4.823008571610433171e-01 4.939254720273217325e-01 4.513201507535211099e-01 5.130290047776978613e-01 5.076650208241366702e-01 9.126396738510991202e-01 4.151098798029595471e-01 4.995755157314956674e-01 5.047360427679501438e-01 5.107222668641888674e-01 4.535036466018332879e-01 1.760638901315680210e-02 5.491154011138534852e-01 6.599121872705762115e-01 5.032237048724097495e-01 6.068593365015489960e-01 1.203475191981950410e+00 4.853114897716233611e-01 -5.920446420481545458e-02 4.964236075083957589e-01 5.082268589206926368e-01 4.942603432726832002e-01 6.012949136012348816e-01 4.306927291954454895e-01 4.678935810715369459e-01 5.053402215544083864e-01 7.512874268004386957e-01 -5.177799628497828932e-01 1.718864187586252035e+00 4.423559143741044308e-01 7.944732541257784053e-01 5.165557350742011611e-01 4.354558569013867730e-01 2.943375062399885000e-01 1.543725447191946765e-01 5.118643139767506955e-01 5.080360338161247213e-01 4.164428284431744010e-02 5.319304546375144271e-01 5.608052215657749473e-01 4.974841169787357908e-01 1.049379310230007079e+00 5.066363665967406060e-01 3.688584803943685264e-01 2.423115415160601305e-01 5.462151960329370004e-01 1.743391629417343769e-01 5.277073564600247568e-01 6.236137958786249769e-01 4.928348497594877697e-01 -4.419304699013428261e-01 4.561146289578046353e-01 5.954989299379974677e-01 5.293672824446744585e-01 4.633091106237626766e-01 7.989740049561219193e-01 7.574109487900330118e-01 -3.862668609254963359e-01 1.021970219103743638e+00 1.164667179630243909e+00 5.984318557564133334e-01 4.646053433742968197e-01 9.609025386663071489e-01 4.970576120362397710e-01 4.625697720903152454e-01 5.277240052032360351e-01 1.230588523776886323e+00 5.138564834714808294e-01 5.439961626986320464e-01 1.167043915857632674e+00 -4.657338310356548550e-02 7.185270978353427429e-01 -8.126225152763100201e-02 -6.481141065975865034e-01 -1.842050525531170879e-01 6.996003120778043760e-01 4.984301583662071322e-01 4.368035851053364005e-01 -3.359014356681386815e-01 4.937093867888025511e-01 -1.695798272847788210e-02 1.298177116766348616e-01 5.055597621585836698e-01 5.185825043448804017e-01 5.066066539258764490e-01 5.152452584032343186e-01 5.301348030257088118e-01 8.074297849984932718e-01 -3.523751721362278905e-02 5.179886270493763156e-01 4.383610451864140556e-01 6.267255271566493091e-01 1.057855865786803129e+00 3.187196049013997778e-01 6.355511551091773681e-01 5.160881359985975969e-01 6.507248877838124612e-02 6.475792333806781320e-01 4.965509304105586996e-01 4.938304607797083801e-01 5.067258018871642067e-01 4.687247170618729086e-01 5.827999767969200828e-01 5.148553261542507808e-01 5.110259719924030719e-01 2.701855102518436746e-01 3.106748291187055311e-01 7.980529315622792996e-01 2.086326031090768307e+00 -1.437752224481953500e-01 6.410989767606978251e-01 5.019316256302777113e-01 5.402422293703712519e-01 7.352077169409428903e-01 1.248681810377345464e-01 -9.000784506377031979e-01 5.125661028348474924e-01 2.148678972531159914e+00 5.254293206918715375e-01 1.592683172743373787e-01 3.211303430431652339e-01 6.594873614756275870e-01 6.649005901554989606e-01 1.243631222120793467e+00 4.433229398676993283e-01 9.373938402713725970e-02 6.489958402133380044e-01 1.190808964346121490e+00 4.562071681135838608e-01 5.358112466414343134e-01 5.099122556027186892e-01 8.190656153145117191e-01 6.150998502640093735e-01 4.454163246093204021e-01 -2.153302236809054651e-02 5.232719150337691305e-01 5.455143250371180530e-01 -4.219337516849881453e-01 5.523497375053464387e-01 1.057665453564291758e+00 2.370512395321411336e-01 2.892149671522643017e-01 8.171116200038445188e-01 5.028446186865673795e-01 1.774385540818131046e+00 5.055415221944757898e-01 2.394927062189946762e-02 6.632446275927584844e-01 5.141598782694657421e-01 7.127120634504272578e-01 5.195603919595764841e-01 7.077282621252020678e-02 4.907015510790346258e-01 -7.847538351017378788e-02 5.061192873100001099e-01 5.032237832772098463e-01 -2.880759135434427659e-02 -1.033005372621030454e-01 5.941022991726528923e-01 5.775146931958732299e-01 5.395579522648222826e-01 4.850688453527041699e-01 6.312258348783292838e-01 5.068859019828094725e-01 4.878317080419862783e-01 6.292096228996938434e-01 5.070510731043458286e-01 7.254207665686163153e-01 9.641915283585765772e-01 2.579277121491398539e+00 3.404612951302414259e-01 5.118645004853172864e-01 5.396578048209496048e-01 1.605119178680211867e-01 5.174215603852690970e-01 5.775339594511944563e-01 4.776716541174935715e-01 1.284945116792472364e+00 3.997160518538749319e-01 -3.996218537059386677e-01 5.533968318609127496e-02 5.572401454679799526e-01 5.852555221884644387e-01 5.243174946573374573e-01 4.892065152345368984e-01 3.922203427815694476e-02 5.183720505511908438e-01 3.982698276308004326e-01 -2.055731943746492707e+00 4.815258128517848624e-01 4.960308394435777868e-01 9.956048067551316327e-01 4.648053285708986793e-01 5.362780040636632162e-01 7.768731124234702357e-01 -5.844055864549870805e-01 -4.737940714558770972e-01 2.318348035021755571e-02 5.046302004385093687e-01 5.067579540846071096e-01 8.951473068241452280e-01 5.169866624508504538e-01 -1.984800925503763525e-01 8.949652227199822452e-01 4.855561156541865486e-01 6.658251717083726318e-01 5.135523629330600581e-01 4.470497585877938329e-01 2.717883872144848945e-01 -4.371694666928080397e-01 3.461296955259757779e-01 5.160852084263032324e-01 2.404206757787713533e-01 5.165012970740863185e-01 4.299422298960649536e-01 5.277520783841170848e-01 5.073715616427384445e-01 5.034107173471704666e-01 4.604822325587784593e-01 5.602423741629489751e-01 1.164667173600688610e+00 5.039426963843690599e-01 5.120574130389904388e-01 6.033184111405210520e-02 4.980690816091701278e-01 5.375210706036759323e-01 5.249272490412213443e-01 4.666204260879028842e-01 5.094276656100272804e-01 6.931897527851631491e-01 3.753106301634231423e-01 5.508253947021798380e-01 4.997559612284208641e-01 5.455026989397634418e-01 5.250652938295651273e-01 4.940112605661892142e-01 5.163191952381337435e-01 1.022090859872690549e+00 5.160556107377137769e-01 -3.282661830067867825e-01 3.564238632664513129e-01 8.544776254656556436e-01 4.757778080935181619e-01 1.881459371596515551e-01 4.996721335585433965e-01 1.978819085466657357e-01 -3.455473467686803746e-02 7.818649516629508911e-01 3.491548804510314907e-01 5.164954315640370996e-01 5.205289612318629855e-01 5.395544706775434740e-01 3.733333052458157608e-01 1.264182445660932741e+00 5.646976004280602757e-01 4.950752527269183800e-01 -3.962781790659222064e-02 3.682312856839732862e-01 1.053904666268104195e+00 3.976225583587923995e-01 5.924640911190002246e-01 3.957854810921255795e-01 -2.123238042774154288e-01 5.244996032560743648e-01 1.167654896002176201e+00 -7.173279958808753687e-01 4.801751452868444070e-01 5.056347782566018578e-01 -1.970568349642327632e-01 4.820658837691701448e-01 4.159177985933467658e-01 4.567123366853332866e-01 5.075768281526105152e-01 6.103281515436101978e-01 2.958053324632626269e-01 5.417938273686500050e-01 4.952182284270452151e-01 5.208116060059065910e-01 5.337449390513554492e-02 9.145565643966577785e-01 5.224164341535256773e-01 9.964804346480785613e-01 4.558848326922139149e-01 -4.195415674100148595e-01 7.003580102024182796e-01 5.161109853574376016e-01 3.228455298569509191e-01 4.967245065326626394e-03 5.998953539299349824e-01 5.019429289234463853e-01 5.267496575106169754e-01 4.504000459027219239e-01 -2.470066755828146093e-03 5.018782180075131993e-01 3.786234376022131753e-01 5.073121724489244588e-01 1.817893424114552348e+00 4.329383097675769121e-01 3.464103003844732909e-01 5.208785862736975414e-01 1.545359356029261555e+00 2.026865817466999842e-01 5.085781436587049065e-01 4.051404661552299724e-01 5.491154027515415814e-01 5.073873960335760769e-01 5.230840115899885179e-01 4.616756352969063615e-01 5.337745904279379561e-01 5.140501763764749876e-01 4.203894818345214057e-01 -1.714648334083543890e-01 4.882119523218217405e-01 4.224530630188444436e-01 5.270226243455699011e-01 4.427425404952369803e-01 5.256334689716914976e-01 -1.159512706947979643e-01 4.692944082155404706e-01 -7.005143877484498738e-01 -2.881156777719035000e-01 4.902004490457025354e-01 5.006083885731140715e-01 6.058075488622105542e-01 5.072071947911144241e-01 3.580834232137163342e-01 4.632063756499149587e-01 5.491154036588723475e-01 5.062138864552848672e-01 4.962790928074090058e-01 5.137512354216717814e-01 5.042133325084908746e-01 8.109162596775398857e-01 4.967964466148215852e-01 5.197286540459673532e-01 1.836053145379880069e-01 5.180080493498080418e-01 5.212420002325336421e-01 4.972882692396753956e-01 4.093871698849027574e-01 4.942803511081294010e-01 6.643122668365371020e-01 6.598163417921641960e-01 4.939385921042164229e-01 5.717592021978125105e-01 1.314279994035314203e-01 6.798238096356560289e-01 1.770022844294534714e+00 4.841950676829667177e-01 2.805642186553164441e-01 6.646171766841206807e-01 5.075919234575179129e-01 1.026727455794272714e+00 5.068081260859905735e-01 7.904753439829329542e-01 5.292696908368348385e-01
7.302695049963655594e-01 3.576874495749159943e-01 3.523213609443835437e-01 4.641192827606991922e-01 2.887846468590419269e-01 3.173037237740412575e-01 3.478424980599110206e-01 5.357482203495471662e-01 3.356542059293782798e-01 3.043856787214869186e-01 1.720019114654769643e+00 1.478865744591203013e+00 -1.055579579507505805e+00 3.058109291109183947e-01 3.044164296527162583e-01 2.577447092333409184e-01 1.894627306406889145e-01 3.745446097731259805e-01 1.895379161334797002e-01 3.006160074560398909e-01 4.069596761804722407e-01 1.693349286686853361e+00 2.178413126205536732e-01 2.950014819489976681e-01 2.444222270587089185e-01 -5.600711707406281770e-01 3.791044948285232641e-01 1.917875280812271210e-01 2.668503141593375205e-01 -3.428249140349771684e-01 3.535188358702940348e-01 4.382488491406810738e-01 3.656464191226516114e-01 3.018175804878952539e-01 -3.116337023469093470e-01 3.326477293016389947e-01 4.115354203213096307e-01 3.391460339611841734e-02 -2.474643050224034191e+00 3.002383373508206721e-01 5.834901002458572350e-01 1.210347925777392891e-01 -9.974921906131241356e-02 7.189227788477797754e-01 8.895133871571508921e-01 3.626118069227790564e-01 4.637609259966479214e-01 2.999755557249337845e-01 2.474032161677572339e-01 7.656719804758317371e-01 7.529431259996542947e-01 1.770392208285985480e-01 -6.490655177992454838e-01 2.150888769216836027e-01 2.859281695760628184e-01 7.023630026290570427e-01 2.256191034544467733e-01 3.266039834505066741e-01 3.682406233232305426e-01 2.867333573647147249e-01 3.576114789311349851e-01 2.907433317019929575e-01 3.471703440190923584e-01 2.178414752841799085e-01 -8.975715405614995146e-02 2.897448615777328818e-01 3.069479094612163061e-01 2.186399405929159712e-01 3.799906734158768895e-01 8.209626573520303339e-01 2.163206640864145103e-01 2.544114738734947756e-01 3.283546968374975172e-01 8.027846664640919672e-01 1.593507986332718396e+00 2.122353006125270447e-01 4.068790940464132588e-01 4.113768230365114631e-01 3.103132638524949694e-01 -1.050127440608327856e+00 3.487125108454992573e-01 9.173543768986520686e-01 1.454661142931682694e+00 2.096872939083806453e-01 4.398709591779381700e-01 -6.584058588530904421e-01 -3.457036912403177020e-03 3.414908698938080023e-01 -4.515683746624889472e-01 -5.701305217714858209e-01 8.867015718431660032e-01 1.176530376823216040e+00 3.548472528562644501e-01 8.054601076402466697e-01 5.124562566173292977e-01 2.730780429338378612e-01 2.651871939792009303e-01 2.988645130650006143e-01 7.775932656484889627e-01 -5.529352691443401024e-01 -2.874516721340664854e-02 1.693595836231353013e-01 2.903776429432610162e-01 2.745274487966321564e-01 3.438329232572818750e-01 2.352559786086257709e+00 -1.821632160356588259e-01 -5.111752078795407384e-01 2.334493913530568676e-01 7.273776984015828395e-01 2.575199123204900409e-01 2.447604415639123843e-01 4.094285532808287775e-01 3.282037927435231817e-01 -5.570166903774370626e-01 2.022820610270759933e-01 5.810686502103690199e-01 9.864691561664386266e-02 -1.450796237574802083e-01 2.981005162321803126e-01 -1.159993069729351012e+00 3.041208941835749635e-01 3.544707576614433697e-01 2.071918531550095699e-01 2.736380520999703858e-01 1.740592498032950575e+00 2.496626987481785076e-01 3.674936576854319070e-01 2.626503477215124671e-01 3.142478483519761667e-01 3.166947681282715754e-01 3.435335058055124513e-01 4.004242777979670764e-01 1.661866287812899246e-01 3.362748756930915017e-01 9.268244885804968192e-01 1.174412109695023021e-01 7.710209118534332440e-01 -2.521811489485769608e-01 3.196267455819653547e-01 3.046291125724364668e-01 3.184054666395412792e-01 3.550035590297033194e-01 3.151307894901129170e-01 3.085267086349459120e-01 7.375627643941242706e-01 6.383432030663769297e-01 2.972587374756572309e-01 2.790638837395281735e-01 3.497366114988339492e-01 -5.062532201148858269e-01 4.388873922859697768e-02 3.626190000241130695e-01 3.411755285488471956e-01 5.029190136230891062e-01 2.730736626669402201e-01 -8.242079656438893176e-01 3.229853166113847429e-01 -5.017411511303039306e-01 -5.458816016707419561e-01 2.833060411732120087e-01 3.689819489850729717e-01 3.370697586069646978e-01 2.980130885996112866e-01 2.198665772445177261e-02 -1.085118174506886912e-01 3.854562934224851634e-01 2.329589246523646184e-01 4.303140714524513744e-01 3.509367718984637841e-01 7.045149060615416570e-01 4.624233634250158875e-01 3.626498026920349504e-01 3.036738577915982784e-01 -2.018949915992756416e+00 7.088611109469376004e-01 8.125071849650945532e-01 1.048501244472860749e+00 -3.663569529110257683e-01 1.082250323372991652e+00 2.256660438204858843e-01 2.922793995270331346e-01 1.061062827261366248e+00 3.343256669877911480e-01 3.161834863844084076e-01 4.731364957567613105e-01 2.811209234221859754e-01 3.096756314945214306e-01 -2.126550804547188145e-01 1.444027184216493120e-01 4.978352920523078651e-01 6.535182859493935403e-01 3.268377484997881388e-01 3.498510696888916804e-01 1.025270151268316832e-01 3.487561812583854226e-01 -1.103072885514207568e+00 3.065827431334379183e-01 2.040653125776423771e-01 3.569318161690800961e-01 3.782518042145273096e-01 3.373968650988172224e-01 2.399901090095767908e-01 5.234469028566907101e-02 -9.324600412514828518e-01 2.040648557679478892e-01 3.174592555655229575e-01 -3.798672263323084053e-01 2.824624320784770992e-01 3.977351919052602436e-01 4.254534825258171060e-01 -2.479282249179621367e+00 3.433485596182647148e-01 8.868815256852019546e-01 2.758143561752507411e-01 3.231505076837010160e-01 2.457966846572735842e-01 3.100111083899964037e-01 3.118714655422887838e-01 2.888833875782165217e-01 3.330359743594621946e-01 2.742907532947962412e-01 5.617836767847546042e-01 4.115022817590328619e-01 3.355920495215923838e-01 2.157907771214079007e-01 3.140988915695400174e-01 -1.465211563231750558e-01 1.683534275752014198e+00 -5.180792534985687037e-02 1.084248661246685064e+00 -1.215468494203466809e+00 3.005180798656899577e-01 2.293349209816074319e-01 2.717874280329490300e-01 6.241361501107696164e-01 -2.063529280820802225e-01 5.554153555651193397e-01 2.267057367987741767e-01 5.995910917382311078e-01 5.979116008196847520e-01 2.930026778974811341e-01 -9.206007504720223888e-01 2.598243865568714006e-01 3.576135182108041710e-01 4.601805965737382209e-02 1.052187097333458832e+00 2.092843541512966477e-01 2.243022454563891710e+00 4.462774775072189670e-01 6.523088637168993342e-01 3.484232088772098446e-01 3.158419608826157354e-01 2.178425992481639595e-01 3.611273580600311006e-01 3.308717540773423171e-01 4.144022331191887787e-01 3.023441893643005196e-01 3.833260215407901517e-01 5.361485519569924030e-01 2.683679350746364101e-01 3.224279672015528120e-01 3.660566851367905716e-01 4.287715387946690049e-01 3.550440605410132844e-01 3.236864635549259739e-01 2.385060496225657634e+00 3.291913060433686034e-01 6.705279156143045816e-01 7.523503297677876234e-03 2.829030494642963967e-01 3.509008013402261095e-01 2.670946046267582141e-01 3.362729347515411860e-01 3.128393626362008795e-01 2.368028362556279798e-01 2.629026077921989279e-01 2.837227702935338769e-01 9.842268165953576772e-04 8.778728817691289210e-02 1.272086173366155926e+00 2.888346176250690678e-01 7.121841794806391124e-02 1.772490197376711540e+00 3.837178122693835070e-01 7.050693405393514412e-01 2.693104514568421815e-01 2.884597466044417358e-01 2.022824334935267587e-01 -1.740025968660155797e+00 3.455923369554609326e-01 7.399375332840316677e-01 4.573580134009261888e-01 -3.767640811000887990e-01 7.464503459376691241e-01 3.126439711322923087e-01 -5.640417063752044546e-01 1.689951689549056280e-01 2.913616813417924667e-01 2.793978287408143690e-01 -2.328505343342047451e-01 3.740288803157901243e-01 -8.287646859812161093e-01 4.631298399829854029e-01 2.836297260202459980e-01 6.451793980033997400e-01 2.947548310002320315e-01 3.308344083185997819e-01 2.507525597594438826e-01 3.362409826967563964e-01 -5.303809669237385949e-02 -6.037098240870698573e-01 6.370385772026510018e-02 2.633010311217234833e-01 3.497473291171172560e-01 2.984086940930086307e-01 2.970248335913949211e-01 4.629994591393475911e-01 2.858126848909876561e-01 1.957282381738203014e+00 7.734432195527819465e-01 2.429877244425306115e-01 -8.338029869413856598e-01 3.169316397927957607e-01 3.423363741108072400e+00 3.151326179529013172e-01 2.766348051956177834e-01 5.316683968891101619e-01 -4.234395293941707550e+00 3.215167661372983487e-01 1.174210174514926264e+00 2.935384961809083815e-01 5.837220439914311276e-01 -3.643448178891372513e-01 4.432778796973789737e-01 4.187057192593374166e-01 3.015726248995412861e-01 3.009885101446893585e-01 2.156757560106774996e+00 -2.488205016782682466e-01 3.324774080143017563e-01 -1.643633588291704584e+00 3.056481454756402871e-01 3.391458481726132568e-02 5.920025232095780243e-01 2.417545955147555881e-01 4.458327361474146988e-01 3.295074594782939070e-01 1.343626271893333168e+00 3.712656038135804248e-01 2.040656416974789833e-01 2.598199957479592204e-01 5.234504153601842596e-02 1.361498320081042379e-01 4.194100335876149721e-01 -4.690884613493560562e-01 3.313504176236545806e-01 4.902747604223088862e-01 3.213716832839074722e-01 4.282291330266428941e-01 2.864500583436480063e-01 1.018626179156344180e-01 2.417552755005442644e-01 4.324373368169453502e-01 2.994215054988151326e-01 3.006933753502671336e-01 7.085351906779923103e-01 2.199945897306069931e+00 3.005074303631082300e-01 4.818092624297593551e-01 3.584628811003032767e-01 9.478986452087461156e-01 3.836715994212321346e-01 1.961932257054093132e-01 7.832385797450102105e-01 1.212721512891554998e-01 1.462855943894330324e-01 3.061654244838622474e-01 2.286946579314347860e-01 8.777355045135225575e-01 6.366715652057539643e-01 7.199022555929457390e-01 4.081628999350928044e-01 5.234469027304458622e-02 5.234469028554253334e-02 3.291215623681542080e-01 5.085431084159416359e-01 1.105857892196715486e+00 -1.162841341517888982e-01 3.098309111162175777e-01 4.389437214302074897e-01 2.950159675313867580e-01 8.969236125405589677e-01 2.040647009827111780e-01 2.982893278352667377e-01 2.937722855569291913e-01 2.677683385089267842e-01 -5.061349202039976403e-01 5.035840064078916933e-01 2.704669246669404448e-01 3.088929312663318272e-01 4.212107704013404730e-01 7.765138692147099952e-01 5.234468885994532361e-02 -2.877319574950856218e-01 2.953817946659518245e-01 -3.559056279895447122e-02 -4.721337632513468718e-01 3.219829256818034779e-01 -2.688537416139116676e+00 1.230749652579806064e+00 3.745876630671720053e-01 -1.982286417025729275e-01 4.637521052048589887e-01 1.617340720060324699e+00 3.209270355149596576e-01 5.191998078287374252e-01 8.073817546639626697e-01 5.294904579621911855e-01 1.913763156209368488e-01 3.112626224508961981e-01 5.111593067635349374e-01 3.209132913665360132e-01 1.648049669686178387e+00 3.063781334897566766e-01 1.272601298743188114e-03 2.845701227022586211e-01 3.589894268310609426e-01 -1.191997193048104808e+00 3.176020304573072828e-01 2.244489112428740829e-02 3.931643450758360303e-01 1.587731499640030464e-01 2.840733564095672126e-01 3.209586352586374924e-01 3.103639956964250324e-01 -1.407703205425743509e-01 2.925661606456820274e-01 4.113898794134482895e-01 3.411289656076588184e-01 3.179985663420976105e-01 6.851969775152686459e-01 6.901019108110224565e-01 8.459329508638487871e-01 -9.639199898889575513e-01 5.017177261293462864e-01 -2.613477070324757290e-02 -2.992368140085600592e-01 3.192771773356982701e-01 3.588072850707414441e-01 3.336236060174523343e-01 8.063010791965319335e-01 3.092416282880467437e-01 3.647847450043804063e-01 1.869932788403712021e-01 1.018198375926113453e-01 -1.414838655967209091e-01 2.941965907743440134e-01 4.411883011684030742e-01 4.427388415051056181e-01 3.492440011832452229e-01 3.307599249250404716e-01 3.138260900095969363e-01 4.912843490525629075e-01 3.012245307792003057e-01 4.838476613131667547e-01 3.307919449828597980e-01 2.896594669280241341e-01 7.849173239843356686e-01 2.957635341747136826e-01 8.128945424621436544e-01 1.470992551286551819e-01 2.917577578533204763e-01 3.038533921618066236e-01 -1.205570714748389172e+00 3.155058335194727559e-01 1.602588051303465988e-01 5.262455769699398989e-01 3.889000205965008061e-01 3.170750879007442902e-01 5.557918209907238838e-01 7.615425472353862801e-01 3.005918148266721879e-01 2.089600237683753858e-01 3.141934728012505951e-01 -1.152337883456680881e-02 4.180047437241414254e-01 2.173861094961284379e-01 2.982451402443065391e-01 1.840449321049799636e-01 3.454936315877735753e-01 9.631486740097502941e-02 1.270545716903401789e+00 3.624398271204246624e-01 2.497242389132770524e-01 2.927236628006332220e-01 -5.791812880656048712e-01 3.764032376386237111e-01 1.568672183506731599e-01 2.134611140597085510e-01 4.578879387604182782e-01 3.492988759943935206e-01 2.283713362753594933e-01 8.252565990158803322e-01 3.796721827895765955e-01 1.422528764340553475e-01 2.306863640185371489e-01 3.977626952390744264e-01 7.362021845782469320e-01 2.396295053082815318e+00 3.141884757959230723e-01 4.126252968254903175e-01 5.988953398836432962e-01 3.329610299575770926e-01 3.078389493961307677e-01 3.873429282174996047e-01 8.224987916876648208e-01 1.848406410299893998e-01 -9.680265205061774902e-02 2.980316311849167676e-01 4.033162761289901810e-02 2.770456789274637344e-01 7.450757970979313694e-01 3.656653072514071123e-01 4.385353046423724477e-01 1.454937000901958433e+00 4.752503673470044321e-01 2.934387303578878670e-01 1.996704296015762714e-01 3.828645589775414027e-01 4.633488738077577995e-01 3.737388299687759985e-01 2.055143157813655863e-01 8.036743558724344094e-01 1.497976949680187575e-01 3.250272015691621497e-01 3.254359141141311973e-01 3.488136218705877312e-01 2.349279889510947350e-01 2.763522332489128375e-01 9.749436246562691588e-01 4.146239419276970262e-01 3.552956482032885721e-01 2.991340356011189527e-01 1.810051598847624288e-01 3.022049256151349006e-01 5.350450877690826612e-01 6.324744146257373911e-01 3.394644997711213086e-01 3.168137936096616647e-01 3.684979436781714579e-01 2.944469396274748685e-01 4.737419706665801922e-01 3.902536193775205664e-01 3.590020844684700951e-01 -3.378105520537494355e-03 2.874742466685450970e-01 4.032165888845513635e-01 5.382227392649415743e-01 4.371090098338573648e-01 3.057228147542215835e-01 1.311116263555338612e+00 4.131118518139840212e-01 3.274843006336850548e-01 2.903658645205526856e-01 1.056046747002691077e+00 9.879129724655949518e-01 1.819757162079289059e-01 -3.208919332524892143e-01 -1.825358739416600706e-01 4.927441710503004391e-01 4.119084453930410561e-01 2.926122671252687213e-01 2.862226548620263600e-01 3.878201011785448737e-01 2.287621443556293321e-01 4.059183436222147390e-01 4.633406713330625593e-01 2.704171707788668444e-01 3.858695880514814158e-01 7.622704706615925918e-01 5.542195944069208853e-03 7.137378264803838634e-01 3.564023327803585439e-01 3.214592339443660407e-01 1.043909638234528092e-01 4.697889837996331308e-01 8.841325586621696653e-01 3.607649511896084404e-01 6.123609935992927467e-01 1.302420527941724471e+00 2.599358180464954038e-01 1.635805170978302137e+00 5.892855218828169095e-01 1.083316710570260966e-01 2.927658018089197567e-01 3.248728595012738141e-01 2.837080258194979998e-01 3.509551565188758770e-01 3.432809408902670056e-01 3.046418888227057087e-01 3.027025259001571156e-01 3.664970744995682539e-01 1.137798784286583320e-01 3.997998031240565520e-01 4.795193132834223437e-01 3.293968406397171367e-01 2.799382732003656837e-01 3.564129781677467523e-01 2.217154453177453965e-01 2.829939591799128795e-01 -5.477470230417674779e-01 1.587538421222749241e+00 2.999212871427568983e-01 -2.365174668871486141e-01 3.047384768686412504e-01 2.771624386290820752e-01 2.928687713710374507e-01 -3.652394602606825469e+00 2.816877224213878872e+00 5.330523604686449035e-01 2.963421752421478428e-01 2.120840480005672934e-01 2.946046969399149229e-01 2.448279734077981606e-01 2.073874515843044719e+00 5.254234608896458658e-01 3.761083580460067299e-01 2.022821377305264456e-01 6.968561665256663984e-01 3.233661343048992443e-01 9.362314173663921490e-01 -3.611655711997253659e-01 -6.251680657320459744e-01 -8.163494312138021014e-01 5.184152312511204619e-02 2.951887036160965594e-01 5.087419651925509934e-01 2.119820428836189652e-01 1.663054024767251227e-01 2.375259739338395903e-01 2.725293035329810487e-01 3.104214804087817026e-01 3.497924305698271730e-01 4.208600484611276782e-01 3.347149180072227503e-01 5.129497006195983255e-01 2.957028761058169142e-01 1.797031134708537425e-01 1.299788690932719148e-01 4.719854453720141452e-01 3.283613627606185026e-01 3.453908150473947725e-01 2.866847823459413580e-01 3.091872876856036623e-01 7.561361443438407992e-01 2.417545896392004900e-01 3.339021210307072107e-01 3.143478564276681042e-01 2.652008283530858379e-01 1.963130778615147787e-01 2.283890823435677508e-01 1.205684498634290058e+00 3.387392583225223852e-01 3.052312735125005672e-01 3.376053403135922393e-01 2.211006582757864269e-01 2.047513250784300798e-01 1.623754433527762331e-01 3.008736156029294118e-01 2.707023322114145425e-01 6.688910462135476687e-01 6.830806884859008665e-01 3.666183949785833951e-01 1.511032610923383368e+00 3.782162096028290899e-01 2.998455083949875810e-01 3.290378880216407453e-02 -3.900127580467487309e-01 3.055185269587879504e-01 3.406092941674798147e-01 8.001173388573357137e-01 3.005584471645995626e-01 2.269838227497096572e-01 3.261659543051458887e-01 2.949613890134946681e-01 3.153368956792749755e-01 6.455384600743125922e-01 8.157338172416167543e-01 2.716365282221862021e-01 5.417214461416174354e-01 2.846784371364119992e-01 6.833675281132947643e-03 3.400664583424783949e-01 3.505414323277791788e-01 -2.791338336965065725e-01 2.195910801600987616e-01 2.873401613356929563e-01 4.643516780113875475e-01 3.563694131754812089e-01 1.170401583617002306e+00 7.843340853542359881e-01 -7.437805680974115541e-01 3.391460534573710606e-02 2.431210274578078090e-01 -2.562995970819773373e+00 1.389892755370624622e+00 3.241045381423006133e-01 4.639608306847078367e-01 3.019679126274947278e-01 6.591982279247665666e-01 2.943463812898953758e-01 2.598211656789566892e-01 -3.425667219370976957e-01 6.750650945134860637e-01 4.577698648644570184e-03 9.145622039942868930e-01 1.742208733736311244e+00 -3.609344553358636021e-01 -1.177898833713979077e+00 3.300592400625127487e-01 4.993271872086747498e-01 9.126008717866244124e-01 3.229937756740937083e-01 7.567705056799144403e-01 4.465313094233150371e-01 3.866116876159059745e-01 2.899601708525626487e-01 3.212339998046947476e-01 3.136023370607092797e-01 1.636588615901087562e-01 1.048228820496696967e+00 1.115458244328015214e+00 3.000061538772085257e-01 3.932520386139936042e-01 -1.931025110102268239e-01 -9.780027704403956856e-02 5.036198602760471044e-01 3.104205238021944258e-01 2.917072745310428927e-01 7.055333106352764672e-01 5.116606476102195655e-01 3.378773891424007303e-01 2.995736971533299320e-01 3.149173729365767893e-01 2.888740081695596595e-01 4.471375396020015880e-01 3.051632046461296710e-01 3.156740233719959043e-01 2.676815061732756851e-03 4.116002081729214224e-01 4.746464995421761368e-01 9.176693301556940741e-01 1.004532995917539973e+00 7.833220620312725258e-01 3.036625182534140044e-01 2.409079055130323166e-01 -2.550821609193200737e-02 2.030865990279012712e-01 -1.354780220357973741e+00 3.013017546430480920e-01 5.827353558110345277e-01 2.803238511783006093e-01 7.962846171570537868e-01 1.158266206817062827e+00 2.022820449421239286e-01 3.180530521809171035e-02 3.483163596197854650e-01 4.359063338744973981e-01 6.611524608121973623e-01 2.090695485020312439e-01 -3.089042687189050840e-01 5.325722202555539520e-01 4.391204200691875004e-01 3.180508809637657697e-01 3.344572600979747179e-01 2.306437678453667484e-01 3.013684718701929999e-01 2.694956176824051530e-01 3.122419453237153530e-01 2.567199015025140585e-01 8.274791250307386159e-01 2.894092973143098102e-01 -1.438864496894277645e-01 7.992085045966806911e-01 4.229473860996661450e-01 2.091774364580568091e-01 3.229225206125394543e-01 1.128830541245450680e+00 2.278432408450666025e-02 8.098671024257335649e-01 3.319139048027495154e-01 3.426802732669186335e-01 5.924204289559914516e-02 3.118164797724679582e-01 6.608294930615455920e-01 2.944119006752204948e-01 8.385180296377060527e-01 3.179585125015542690e-01 3.292145393660311781e-01 8.035412644252782899e-01 -1.327967189100025258e-02 -1.704875201311849109e+00 4.171183014835042613e-01 2.662284697623869545e-01 3.464512551676832697e-01 5.634070144425950000e-01 3.167587770840974426e-01 3.345796330551540909e-01 2.000978414649636772e-01 3.245283671927419733e-01 4.035609530919088972e-02 -1.427108045348178811e+00 6.773401381040162761e-01 3.516653561237604864e-01 3.091746362592288633e-01 2.662572003320253233e-01 7.495709777112353756e-01 2.863174773442421772e-01 1.877941189367453301e-01 3.395841584166027216e-01 1.025124174113678510e+00 3.059532072362725619e-01 4.045101517477235897e-01 1.084634350660556246e+00 2.680570496888751708e-01 1.936192962174783760e+00 2.871843170108143717e-01 3.578526723985503977e-01 7.278763223917280589e-01 3.042655900386904144e-01 3.903902837319647712e-01 -1.162605129575374319e+00 3.282272647489809514e-01 3.330204518144609382e-01 4.690510843130046292e-01 3.330365279775458487e-01 2.261763000886870267e-01 -5.463049839872480273e-01 1.655295906370853665e+00 -4.736150574352860354e-01 5.917814359394162338e-01 3.474813058359778051e-01 1.068423636666318011e-01 3.242564753526121502e-01 2.955342747064247377e-01 1.080443611823147743e+00 -6.430441371626118008e-02 3.460715053251852691e-01 -7.154913893254950530e-01 5.681537830483708307e-01 3.962603451709386104e-01 -2.449087445349719339e+00 2.273084155111167348e+00 3.235190692170286098e-01 3.054938370603924591e-01 -1.073104965907572650e+00 3.326784420029843536e-01 -3.546109346033839843e-02 2.896129010725596031e-01 3.785295815319499879e-01 5.934088790784473044e-01 4.601984184978452630e-01 2.404747162293847940e-01 3.391459744387133324e-02 2.932722183496666579e-02 3.132957281179321596e-01 -9.708482959954366498e-01 3.279990807408789122e-01 -5.154282034361814535e-01 2.992009391870065205e-01 2.258319482181899152e-01 3.790727258332013960e-01 2.817000826051586082e-01 3.171206359777866690e-01 -5.627157497881153658e-03 3.279809197820037214e-01 3.644764230225090440e-01 3.061080247289543754e-01 2.990462244054318264e-01 2.971496809663153882e-01 -7.439254532848275092e-01 4.596291026295853954e-01 1.360107201466193239e+00 -2.468733933157423593e-03 2.720438485901743864e-01 4.034270497724863347e-01 1.225352301049969395e+00 3.332882092765451776e-01 2.648248486635300103e-01 9.175495966004969528e-01 1.619646411152368959e-01 1.429487943155023366e+00 4.028357562129114000e-01 2.949590334759237265e-01 2.661530910549349538e-01 6.275211201734680611e-01 1.236391047428313961e+00 2.833408232898121937e-01 4.494137796453180345e-01 6.257284818130970372e-01 4.639870333910816602e-01 4.598271098984409166e-02 -2.164749811583182582e-01 3.303682504038595869e-01 4.442840672196302632e-01 1.550709033863917341e-01 4.974119646071247236e-01 -1.083989591215295256e-01 1.266485090619791087e+00 3.675810308977864871e-01 3.264307529488531534e-01 -2.158089263784965350e+00 2.503532892731576975e-01 3.454943182754754427e-01 3.557994944921963332e-01 -1.318413460436688445e-01 2.742937466862196416e-01 -4.826136182263507379e-01 1.746636248173561168e-01 3.408134212264753438e-01 3.148822464943416555e-01 1.121829466531098607e+00 2.233122505946774083e-01 2.973635128479129031e-01 -1.151415218743355950e+00 3.351418974667045303e-01 8.282256248120536402e-01 6.554949190373452472e-01 2.909466983379314642e-01 -1.616431456398174371e-01 7.426819852375182718e-01 7.962139726623576608e-02 3.030055178140752536e-01 2.923503567251751756e-01 4.824691503586748254e-01 7.646239996964224739e-01 3.180291513077367904e-01 6.813641516270575460e-01 2.910163642061994738e-01 6.308401150120148682e-01 2.446254136355459352e-01 -1.379556849239933713e+00 2.948682861335792937e-01 2.537072516846958919e-02 4.326485152736076478e-01 3.204456457172246142e-01 2.833130898068622616e-01 2.417545977284705216e-01 3.051627351816837419e-01 2.842373812933811639e-01 3.962133888401780379e-01 3.061592926863158093e-01 3.023950312164115917e-01 4.391429978278927337e-01 -4.285838153269960760e-01 3.264851285851059215e-01 3.199889131804181108e-01 3.339923402577956169e-01 3.563417348267913232e-01 2.983286505934313326e-01 5.181030818419100070e-01 3.541910868038438132e-01 8.181542938512009755e-01 4.980311522479439201e-01 3.465480404460741237e-01 2.974916641187724808e-01 -1.710723899460324660e+00 3.437103873340079385e-01 3.663247770032328487e-01 3.431500720259839099e-01 2.417545941859292613e-01 3.096657887514375207e-01 2.982045726876006997e-01 3.881243262061404020e-01 2.911647220396132441e-01 2.401406046787352977e-01 2.979610283588797759e-01 2.997394100230356129e-01 4.249051628559652460e-01 2.864986425773223266e-01 2.918702703821908773e-01 3.325782876509955632e-01 9.834789703176281817e-02 3.343804156388168747e-01 1.801959757398651218e-01 1.938195071360576949e-01 3.347293466061631029e-01 1.527589472220340916e-01 -2.341340245746501708e-02 -3.084967655741842618e-01 3.031417735910104216e+00 3.442698219273473415e-01 6.310033928657526880e-01 1.588170235776860117e-01 3.174222355485121772e-01 1.284749845527658474e+00 3.198455396179065713e-01 7.484596347185319409e-01 2.925019768075967641e-01
