# 
#                 ----------------------------------------------------
#                 Data from a 3D direct N-body simulation. 
# 
#                 rows are i-particle; 
#                 coumns are :mass, tag, x ,y, z, vx, vy, vz, ax, ay, az
# 
#                 NTHU, Computational Physics 
# 
#                 ----------------------------------------------------
#                 Time = 0.0
0.000000000000000000e+00 1.000000000000000000e+00 2.000000000000000000e+00 3.000000000000000000e+00 4.000000000000000000e+00 5.000000000000000000e+00 6.000000000000000000e+00 7.000000000000000000e+00 8.000000000000000000e+00 9.000000000000000000e+00 1.000000000000000000e+01 1.100000000000000000e+01 1.200000000000000000e+01 1.300000000000000000e+01 1.400000000000000000e+01 1.500000000000000000e+01 1.600000000000000000e+01 1.700000000000000000e+01 1.800000000000000000e+01 1.900000000000000000e+01 2.000000000000000000e+01 2.100000000000000000e+01 2.200000000000000000e+01 2.300000000000000000e+01 2.400000000000000000e+01 2.500000000000000000e+01 2.600000000000000000e+01 2.700000000000000000e+01 2.800000000000000000e+01 2.900000000000000000e+01 3.000000000000000000e+01 3.100000000000000000e+01 3.200000000000000000e+01 3.300000000000000000e+01 3.400000000000000000e+01 3.500000000000000000e+01 3.600000000000000000e+01 3.700000000000000000e+01 3.800000000000000000e+01 3.900000000000000000e+01 4.000000000000000000e+01 4.100000000000000000e+01 4.200000000000000000e+01 4.300000000000000000e+01 4.400000000000000000e+01 4.500000000000000000e+01 4.600000000000000000e+01 4.700000000000000000e+01 4.800000000000000000e+01 4.900000000000000000e+01 5.000000000000000000e+01 5.100000000000000000e+01 5.200000000000000000e+01 5.300000000000000000e+01 5.400000000000000000e+01 5.500000000000000000e+01 5.600000000000000000e+01 5.700000000000000000e+01 5.800000000000000000e+01 5.900000000000000000e+01 6.000000000000000000e+01 6.100000000000000000e+01 6.200000000000000000e+01 6.300000000000000000e+01 6.400000000000000000e+01 6.500000000000000000e+01 6.600000000000000000e+01 6.700000000000000000e+01 6.800000000000000000e+01 6.900000000000000000e+01 7.000000000000000000e+01 7.100000000000000000e+01 7.200000000000000000e+01 7.300000000000000000e+01 7.400000000000000000e+01 7.500000000000000000e+01 7.600000000000000000e+01 7.700000000000000000e+01 7.800000000000000000e+01 7.900000000000000000e+01 8.000000000000000000e+01 8.100000000000000000e+01 8.200000000000000000e+01 8.300000000000000000e+01 8.400000000000000000e+01 8.500000000000000000e+01 8.600000000000000000e+01 8.700000000000000000e+01 8.800000000000000000e+01 8.900000000000000000e+01 9.000000000000000000e+01 9.100000000000000000e+01 9.200000000000000000e+01 9.300000000000000000e+01 9.400000000000000000e+01 9.500000000000000000e+01 9.600000000000000000e+01 9.700000000000000000e+01 9.800000000000000000e+01 9.900000000000000000e+01 1.000000000000000000e+02 1.010000000000000000e+02 1.020000000000000000e+02 1.030000000000000000e+02 1.040000000000000000e+02 1.050000000000000000e+02 1.060000000000000000e+02 1.070000000000000000e+02 1.080000000000000000e+02 1.090000000000000000e+02 1.100000000000000000e+02 1.110000000000000000e+02 1.120000000000000000e+02 1.130000000000000000e+02 1.140000000000000000e+02 1.150000000000000000e+02 1.160000000000000000e+02 1.170000000000000000e+02 1.180000000000000000e+02 1.190000000000000000e+02 1.200000000000000000e+02 1.210000000000000000e+02 1.220000000000000000e+02 1.230000000000000000e+02 1.240000000000000000e+02 1.250000000000000000e+02 1.260000000000000000e+02 1.270000000000000000e+02 1.280000000000000000e+02 1.290000000000000000e+02 1.300000000000000000e+02 1.310000000000000000e+02 1.320000000000000000e+02 1.330000000000000000e+02 1.340000000000000000e+02 1.350000000000000000e+02 1.360000000000000000e+02 1.370000000000000000e+02 1.380000000000000000e+02 1.390000000000000000e+02 1.400000000000000000e+02 1.410000000000000000e+02 1.420000000000000000e+02 1.430000000000000000e+02 1.440000000000000000e+02 1.450000000000000000e+02 1.460000000000000000e+02 1.470000000000000000e+02 1.480000000000000000e+02 1.490000000000000000e+02 1.500000000000000000e+02 1.510000000000000000e+02 1.520000000000000000e+02 1.530000000000000000e+02 1.540000000000000000e+02 1.550000000000000000e+02 1.560000000000000000e+02 1.570000000000000000e+02 1.580000000000000000e+02 1.590000000000000000e+02 1.600000000000000000e+02 1.610000000000000000e+02 1.620000000000000000e+02 1.630000000000000000e+02 1.640000000000000000e+02 1.650000000000000000e+02 1.660000000000000000e+02 1.670000000000000000e+02 1.680000000000000000e+02 1.690000000000000000e+02 1.700000000000000000e+02 1.710000000000000000e+02 1.720000000000000000e+02 1.730000000000000000e+02 1.740000000000000000e+02 1.750000000000000000e+02 1.760000000000000000e+02 1.770000000000000000e+02 1.780000000000000000e+02 1.790000000000000000e+02 1.800000000000000000e+02 1.810000000000000000e+02 1.820000000000000000e+02 1.830000000000000000e+02 1.840000000000000000e+02 1.850000000000000000e+02 1.860000000000000000e+02 1.870000000000000000e+02 1.880000000000000000e+02 1.890000000000000000e+02 1.900000000000000000e+02 1.910000000000000000e+02 1.920000000000000000e+02 1.930000000000000000e+02 1.940000000000000000e+02 1.950000000000000000e+02 1.960000000000000000e+02 1.970000000000000000e+02 1.980000000000000000e+02 1.990000000000000000e+02 2.000000000000000000e+02 2.010000000000000000e+02 2.020000000000000000e+02 2.030000000000000000e+02 2.040000000000000000e+02 2.050000000000000000e+02 2.060000000000000000e+02 2.070000000000000000e+02 2.080000000000000000e+02 2.090000000000000000e+02 2.100000000000000000e+02 2.110000000000000000e+02 2.120000000000000000e+02 2.130000000000000000e+02 2.140000000000000000e+02 2.150000000000000000e+02 2.160000000000000000e+02 2.170000000000000000e+02 2.180000000000000000e+02 2.190000000000000000e+02 2.200000000000000000e+02 2.210000000000000000e+02 2.220000000000000000e+02 2.230000000000000000e+02 2.240000000000000000e+02 2.250000000000000000e+02 2.260000000000000000e+02 2.270000000000000000e+02 2.280000000000000000e+02 2.290000000000000000e+02 2.300000000000000000e+02 2.310000000000000000e+02 2.320000000000000000e+02 2.330000000000000000e+02 2.340000000000000000e+02 2.350000000000000000e+02 2.360000000000000000e+02 2.370000000000000000e+02 2.380000000000000000e+02 2.390000000000000000e+02 2.400000000000000000e+02 2.410000000000000000e+02 2.420000000000000000e+02 2.430000000000000000e+02 2.440000000000000000e+02 2.450000000000000000e+02 2.460000000000000000e+02 2.470000000000000000e+02 2.480000000000000000e+02 2.490000000000000000e+02 2.500000000000000000e+02 2.510000000000000000e+02 2.520000000000000000e+02 2.530000000000000000e+02 2.540000000000000000e+02 2.550000000000000000e+02 2.560000000000000000e+02 2.570000000000000000e+02 2.580000000000000000e+02 2.590000000000000000e+02 2.600000000000000000e+02 2.610000000000000000e+02 2.620000000000000000e+02 2.630000000000000000e+02 2.640000000000000000e+02 2.650000000000000000e+02 2.660000000000000000e+02 2.670000000000000000e+02 2.680000000000000000e+02 2.690000000000000000e+02 2.700000000000000000e+02 2.710000000000000000e+02 2.720000000000000000e+02 2.730000000000000000e+02 2.740000000000000000e+02 2.750000000000000000e+02 2.760000000000000000e+02 2.770000000000000000e+02 2.780000000000000000e+02 2.790000000000000000e+02 2.800000000000000000e+02 2.810000000000000000e+02 2.820000000000000000e+02 2.830000000000000000e+02 2.840000000000000000e+02 2.850000000000000000e+02 2.860000000000000000e+02 2.870000000000000000e+02 2.880000000000000000e+02 2.890000000000000000e+02 2.900000000000000000e+02 2.910000000000000000e+02 2.920000000000000000e+02 2.930000000000000000e+02 2.940000000000000000e+02 2.950000000000000000e+02 2.960000000000000000e+02 2.970000000000000000e+02 2.980000000000000000e+02 2.990000000000000000e+02 3.000000000000000000e+02 3.010000000000000000e+02 3.020000000000000000e+02 3.030000000000000000e+02 3.040000000000000000e+02 3.050000000000000000e+02 3.060000000000000000e+02 3.070000000000000000e+02 3.080000000000000000e+02 3.090000000000000000e+02 3.100000000000000000e+02 3.110000000000000000e+02 3.120000000000000000e+02 3.130000000000000000e+02 3.140000000000000000e+02 3.150000000000000000e+02 3.160000000000000000e+02 3.170000000000000000e+02 3.180000000000000000e+02 3.190000000000000000e+02 3.200000000000000000e+02 3.210000000000000000e+02 3.220000000000000000e+02 3.230000000000000000e+02 3.240000000000000000e+02 3.250000000000000000e+02 3.260000000000000000e+02 3.270000000000000000e+02 3.280000000000000000e+02 3.290000000000000000e+02 3.300000000000000000e+02 3.310000000000000000e+02 3.320000000000000000e+02 3.330000000000000000e+02 3.340000000000000000e+02 3.350000000000000000e+02 3.360000000000000000e+02 3.370000000000000000e+02 3.380000000000000000e+02 3.390000000000000000e+02 3.400000000000000000e+02 3.410000000000000000e+02 3.420000000000000000e+02 3.430000000000000000e+02 3.440000000000000000e+02 3.450000000000000000e+02 3.460000000000000000e+02 3.470000000000000000e+02 3.480000000000000000e+02 3.490000000000000000e+02 3.500000000000000000e+02 3.510000000000000000e+02 3.520000000000000000e+02 3.530000000000000000e+02 3.540000000000000000e+02 3.550000000000000000e+02 3.560000000000000000e+02 3.570000000000000000e+02 3.580000000000000000e+02 3.590000000000000000e+02 3.600000000000000000e+02 3.610000000000000000e+02 3.620000000000000000e+02 3.630000000000000000e+02 3.640000000000000000e+02 3.650000000000000000e+02 3.660000000000000000e+02 3.670000000000000000e+02 3.680000000000000000e+02 3.690000000000000000e+02 3.700000000000000000e+02 3.710000000000000000e+02 3.720000000000000000e+02 3.730000000000000000e+02 3.740000000000000000e+02 3.750000000000000000e+02 3.760000000000000000e+02 3.770000000000000000e+02 3.780000000000000000e+02 3.790000000000000000e+02 3.800000000000000000e+02 3.810000000000000000e+02 3.820000000000000000e+02 3.830000000000000000e+02 3.840000000000000000e+02 3.850000000000000000e+02 3.860000000000000000e+02 3.870000000000000000e+02 3.880000000000000000e+02 3.890000000000000000e+02 3.900000000000000000e+02 3.910000000000000000e+02 3.920000000000000000e+02 3.930000000000000000e+02 3.940000000000000000e+02 3.950000000000000000e+02 3.960000000000000000e+02 3.970000000000000000e+02 3.980000000000000000e+02 3.990000000000000000e+02 4.000000000000000000e+02 4.010000000000000000e+02 4.020000000000000000e+02 4.030000000000000000e+02 4.040000000000000000e+02 4.050000000000000000e+02 4.060000000000000000e+02 4.070000000000000000e+02 4.080000000000000000e+02 4.090000000000000000e+02 4.100000000000000000e+02 4.110000000000000000e+02 4.120000000000000000e+02 4.130000000000000000e+02 4.140000000000000000e+02 4.150000000000000000e+02 4.160000000000000000e+02 4.170000000000000000e+02 4.180000000000000000e+02 4.190000000000000000e+02 4.200000000000000000e+02 4.210000000000000000e+02 4.220000000000000000e+02 4.230000000000000000e+02 4.240000000000000000e+02 4.250000000000000000e+02 4.260000000000000000e+02 4.270000000000000000e+02 4.280000000000000000e+02 4.290000000000000000e+02 4.300000000000000000e+02 4.310000000000000000e+02 4.320000000000000000e+02 4.330000000000000000e+02 4.340000000000000000e+02 4.350000000000000000e+02 4.360000000000000000e+02 4.370000000000000000e+02 4.380000000000000000e+02 4.390000000000000000e+02 4.400000000000000000e+02 4.410000000000000000e+02 4.420000000000000000e+02 4.430000000000000000e+02 4.440000000000000000e+02 4.450000000000000000e+02 4.460000000000000000e+02 4.470000000000000000e+02 4.480000000000000000e+02 4.490000000000000000e+02 4.500000000000000000e+02 4.510000000000000000e+02 4.520000000000000000e+02 4.530000000000000000e+02 4.540000000000000000e+02 4.550000000000000000e+02 4.560000000000000000e+02 4.570000000000000000e+02 4.580000000000000000e+02 4.590000000000000000e+02 4.600000000000000000e+02 4.610000000000000000e+02 4.620000000000000000e+02 4.630000000000000000e+02 4.640000000000000000e+02 4.650000000000000000e+02 4.660000000000000000e+02 4.670000000000000000e+02 4.680000000000000000e+02 4.690000000000000000e+02 4.700000000000000000e+02 4.710000000000000000e+02 4.720000000000000000e+02 4.730000000000000000e+02 4.740000000000000000e+02 4.750000000000000000e+02 4.760000000000000000e+02 4.770000000000000000e+02 4.780000000000000000e+02 4.790000000000000000e+02 4.800000000000000000e+02 4.810000000000000000e+02 4.820000000000000000e+02 4.830000000000000000e+02 4.840000000000000000e+02 4.850000000000000000e+02 4.860000000000000000e+02 4.870000000000000000e+02 4.880000000000000000e+02 4.890000000000000000e+02 4.900000000000000000e+02 4.910000000000000000e+02 4.920000000000000000e+02 4.930000000000000000e+02 4.940000000000000000e+02 4.950000000000000000e+02 4.960000000000000000e+02 4.970000000000000000e+02 4.980000000000000000e+02 4.990000000000000000e+02 5.000000000000000000e+02 5.010000000000000000e+02 5.020000000000000000e+02 5.030000000000000000e+02 5.040000000000000000e+02 5.050000000000000000e+02 5.060000000000000000e+02 5.070000000000000000e+02 5.080000000000000000e+02 5.090000000000000000e+02 5.100000000000000000e+02 5.110000000000000000e+02 5.120000000000000000e+02 5.130000000000000000e+02 5.140000000000000000e+02 5.150000000000000000e+02 5.160000000000000000e+02 5.170000000000000000e+02 5.180000000000000000e+02 5.190000000000000000e+02 5.200000000000000000e+02 5.210000000000000000e+02 5.220000000000000000e+02 5.230000000000000000e+02 5.240000000000000000e+02 5.250000000000000000e+02 5.260000000000000000e+02 5.270000000000000000e+02 5.280000000000000000e+02 5.290000000000000000e+02 5.300000000000000000e+02 5.310000000000000000e+02 5.320000000000000000e+02 5.330000000000000000e+02 5.340000000000000000e+02 5.350000000000000000e+02 5.360000000000000000e+02 5.370000000000000000e+02 5.380000000000000000e+02 5.390000000000000000e+02 5.400000000000000000e+02 5.410000000000000000e+02 5.420000000000000000e+02 5.430000000000000000e+02 5.440000000000000000e+02 5.450000000000000000e+02 5.460000000000000000e+02 5.470000000000000000e+02 5.480000000000000000e+02 5.490000000000000000e+02 5.500000000000000000e+02 5.510000000000000000e+02 5.520000000000000000e+02 5.530000000000000000e+02 5.540000000000000000e+02 5.550000000000000000e+02 5.560000000000000000e+02 5.570000000000000000e+02 5.580000000000000000e+02 5.590000000000000000e+02 5.600000000000000000e+02 5.610000000000000000e+02 5.620000000000000000e+02 5.630000000000000000e+02 5.640000000000000000e+02 5.650000000000000000e+02 5.660000000000000000e+02 5.670000000000000000e+02 5.680000000000000000e+02 5.690000000000000000e+02 5.700000000000000000e+02 5.710000000000000000e+02 5.720000000000000000e+02 5.730000000000000000e+02 5.740000000000000000e+02 5.750000000000000000e+02 5.760000000000000000e+02 5.770000000000000000e+02 5.780000000000000000e+02 5.790000000000000000e+02 5.800000000000000000e+02 5.810000000000000000e+02 5.820000000000000000e+02 5.830000000000000000e+02 5.840000000000000000e+02 5.850000000000000000e+02 5.860000000000000000e+02 5.870000000000000000e+02 5.880000000000000000e+02 5.890000000000000000e+02 5.900000000000000000e+02 5.910000000000000000e+02 5.920000000000000000e+02 5.930000000000000000e+02 5.940000000000000000e+02 5.950000000000000000e+02 5.960000000000000000e+02 5.970000000000000000e+02 5.980000000000000000e+02 5.990000000000000000e+02 6.000000000000000000e+02 6.010000000000000000e+02 6.020000000000000000e+02 6.030000000000000000e+02 6.040000000000000000e+02 6.050000000000000000e+02 6.060000000000000000e+02 6.070000000000000000e+02 6.080000000000000000e+02 6.090000000000000000e+02 6.100000000000000000e+02 6.110000000000000000e+02 6.120000000000000000e+02 6.130000000000000000e+02 6.140000000000000000e+02 6.150000000000000000e+02 6.160000000000000000e+02 6.170000000000000000e+02 6.180000000000000000e+02 6.190000000000000000e+02 6.200000000000000000e+02 6.210000000000000000e+02 6.220000000000000000e+02 6.230000000000000000e+02 6.240000000000000000e+02 6.250000000000000000e+02 6.260000000000000000e+02 6.270000000000000000e+02 6.280000000000000000e+02 6.290000000000000000e+02 6.300000000000000000e+02 6.310000000000000000e+02 6.320000000000000000e+02 6.330000000000000000e+02 6.340000000000000000e+02 6.350000000000000000e+02 6.360000000000000000e+02 6.370000000000000000e+02 6.380000000000000000e+02 6.390000000000000000e+02 6.400000000000000000e+02 6.410000000000000000e+02 6.420000000000000000e+02 6.430000000000000000e+02 6.440000000000000000e+02 6.450000000000000000e+02 6.460000000000000000e+02 6.470000000000000000e+02 6.480000000000000000e+02 6.490000000000000000e+02 6.500000000000000000e+02 6.510000000000000000e+02 6.520000000000000000e+02 6.530000000000000000e+02 6.540000000000000000e+02 6.550000000000000000e+02 6.560000000000000000e+02 6.570000000000000000e+02 6.580000000000000000e+02 6.590000000000000000e+02 6.600000000000000000e+02 6.610000000000000000e+02 6.620000000000000000e+02 6.630000000000000000e+02 6.640000000000000000e+02 6.650000000000000000e+02 6.660000000000000000e+02 6.670000000000000000e+02 6.680000000000000000e+02 6.690000000000000000e+02 6.700000000000000000e+02 6.710000000000000000e+02 6.720000000000000000e+02 6.730000000000000000e+02 6.740000000000000000e+02 6.750000000000000000e+02 6.760000000000000000e+02 6.770000000000000000e+02 6.780000000000000000e+02 6.790000000000000000e+02 6.800000000000000000e+02 6.810000000000000000e+02 6.820000000000000000e+02 6.830000000000000000e+02 6.840000000000000000e+02 6.850000000000000000e+02 6.860000000000000000e+02 6.870000000000000000e+02 6.880000000000000000e+02 6.890000000000000000e+02 6.900000000000000000e+02 6.910000000000000000e+02 6.920000000000000000e+02 6.930000000000000000e+02 6.940000000000000000e+02 6.950000000000000000e+02 6.960000000000000000e+02 6.970000000000000000e+02 6.980000000000000000e+02 6.990000000000000000e+02 7.000000000000000000e+02 7.010000000000000000e+02 7.020000000000000000e+02 7.030000000000000000e+02 7.040000000000000000e+02 7.050000000000000000e+02 7.060000000000000000e+02 7.070000000000000000e+02 7.080000000000000000e+02 7.090000000000000000e+02 7.100000000000000000e+02 7.110000000000000000e+02 7.120000000000000000e+02 7.130000000000000000e+02 7.140000000000000000e+02 7.150000000000000000e+02 7.160000000000000000e+02 7.170000000000000000e+02 7.180000000000000000e+02 7.190000000000000000e+02 7.200000000000000000e+02 7.210000000000000000e+02 7.220000000000000000e+02 7.230000000000000000e+02 7.240000000000000000e+02 7.250000000000000000e+02 7.260000000000000000e+02 7.270000000000000000e+02 7.280000000000000000e+02 7.290000000000000000e+02 7.300000000000000000e+02 7.310000000000000000e+02 7.320000000000000000e+02 7.330000000000000000e+02 7.340000000000000000e+02 7.350000000000000000e+02 7.360000000000000000e+02 7.370000000000000000e+02 7.380000000000000000e+02 7.390000000000000000e+02 7.400000000000000000e+02 7.410000000000000000e+02 7.420000000000000000e+02 7.430000000000000000e+02 7.440000000000000000e+02 7.450000000000000000e+02 7.460000000000000000e+02 7.470000000000000000e+02 7.480000000000000000e+02 7.490000000000000000e+02 7.500000000000000000e+02 7.510000000000000000e+02 7.520000000000000000e+02 7.530000000000000000e+02 7.540000000000000000e+02 7.550000000000000000e+02 7.560000000000000000e+02 7.570000000000000000e+02 7.580000000000000000e+02 7.590000000000000000e+02 7.600000000000000000e+02 7.610000000000000000e+02 7.620000000000000000e+02 7.630000000000000000e+02 7.640000000000000000e+02 7.650000000000000000e+02 7.660000000000000000e+02 7.670000000000000000e+02 7.680000000000000000e+02 7.690000000000000000e+02 7.700000000000000000e+02 7.710000000000000000e+02 7.720000000000000000e+02 7.730000000000000000e+02 7.740000000000000000e+02 7.750000000000000000e+02 7.760000000000000000e+02 7.770000000000000000e+02 7.780000000000000000e+02 7.790000000000000000e+02 7.800000000000000000e+02 7.810000000000000000e+02 7.820000000000000000e+02 7.830000000000000000e+02 7.840000000000000000e+02 7.850000000000000000e+02 7.860000000000000000e+02 7.870000000000000000e+02 7.880000000000000000e+02 7.890000000000000000e+02 7.900000000000000000e+02 7.910000000000000000e+02 7.920000000000000000e+02 7.930000000000000000e+02 7.940000000000000000e+02 7.950000000000000000e+02 7.960000000000000000e+02 7.970000000000000000e+02 7.980000000000000000e+02 7.990000000000000000e+02 8.000000000000000000e+02 8.010000000000000000e+02 8.020000000000000000e+02 8.030000000000000000e+02 8.040000000000000000e+02 8.050000000000000000e+02 8.060000000000000000e+02 8.070000000000000000e+02 8.080000000000000000e+02 8.090000000000000000e+02 8.100000000000000000e+02 8.110000000000000000e+02 8.120000000000000000e+02 8.130000000000000000e+02 8.140000000000000000e+02 8.150000000000000000e+02 8.160000000000000000e+02 8.170000000000000000e+02 8.180000000000000000e+02 8.190000000000000000e+02 8.200000000000000000e+02 8.210000000000000000e+02 8.220000000000000000e+02 8.230000000000000000e+02 8.240000000000000000e+02 8.250000000000000000e+02 8.260000000000000000e+02 8.270000000000000000e+02 8.280000000000000000e+02 8.290000000000000000e+02 8.300000000000000000e+02 8.310000000000000000e+02 8.320000000000000000e+02 8.330000000000000000e+02 8.340000000000000000e+02 8.350000000000000000e+02 8.360000000000000000e+02 8.370000000000000000e+02 8.380000000000000000e+02 8.390000000000000000e+02 8.400000000000000000e+02 8.410000000000000000e+02 8.420000000000000000e+02 8.430000000000000000e+02 8.440000000000000000e+02 8.450000000000000000e+02 8.460000000000000000e+02 8.470000000000000000e+02 8.480000000000000000e+02 8.490000000000000000e+02 8.500000000000000000e+02 8.510000000000000000e+02 8.520000000000000000e+02 8.530000000000000000e+02 8.540000000000000000e+02 8.550000000000000000e+02 8.560000000000000000e+02 8.570000000000000000e+02 8.580000000000000000e+02 8.590000000000000000e+02 8.600000000000000000e+02 8.610000000000000000e+02 8.620000000000000000e+02 8.630000000000000000e+02 8.640000000000000000e+02 8.650000000000000000e+02 8.660000000000000000e+02 8.670000000000000000e+02 8.680000000000000000e+02 8.690000000000000000e+02 8.700000000000000000e+02 8.710000000000000000e+02 8.720000000000000000e+02 8.730000000000000000e+02 8.740000000000000000e+02 8.750000000000000000e+02 8.760000000000000000e+02 8.770000000000000000e+02 8.780000000000000000e+02 8.790000000000000000e+02 8.800000000000000000e+02 8.810000000000000000e+02 8.820000000000000000e+02 8.830000000000000000e+02 8.840000000000000000e+02 8.850000000000000000e+02 8.860000000000000000e+02 8.870000000000000000e+02 8.880000000000000000e+02 8.890000000000000000e+02 8.900000000000000000e+02 8.910000000000000000e+02 8.920000000000000000e+02 8.930000000000000000e+02 8.940000000000000000e+02 8.950000000000000000e+02 8.960000000000000000e+02 8.970000000000000000e+02 8.980000000000000000e+02 8.990000000000000000e+02 9.000000000000000000e+02 9.010000000000000000e+02 9.020000000000000000e+02 9.030000000000000000e+02 9.040000000000000000e+02 9.050000000000000000e+02 9.060000000000000000e+02 9.070000000000000000e+02 9.080000000000000000e+02 9.090000000000000000e+02 9.100000000000000000e+02 9.110000000000000000e+02 9.120000000000000000e+02 9.130000000000000000e+02 9.140000000000000000e+02 9.150000000000000000e+02 9.160000000000000000e+02 9.170000000000000000e+02 9.180000000000000000e+02 9.190000000000000000e+02 9.200000000000000000e+02 9.210000000000000000e+02 9.220000000000000000e+02 9.230000000000000000e+02 9.240000000000000000e+02 9.250000000000000000e+02 9.260000000000000000e+02 9.270000000000000000e+02 9.280000000000000000e+02 9.290000000000000000e+02 9.300000000000000000e+02 9.310000000000000000e+02 9.320000000000000000e+02 9.330000000000000000e+02 9.340000000000000000e+02 9.350000000000000000e+02 9.360000000000000000e+02 9.370000000000000000e+02 9.380000000000000000e+02 9.390000000000000000e+02 9.400000000000000000e+02 9.410000000000000000e+02 9.420000000000000000e+02 9.430000000000000000e+02 9.440000000000000000e+02 9.450000000000000000e+02 9.460000000000000000e+02 9.470000000000000000e+02 9.480000000000000000e+02 9.490000000000000000e+02 9.500000000000000000e+02 9.510000000000000000e+02 9.520000000000000000e+02 9.530000000000000000e+02 9.540000000000000000e+02 9.550000000000000000e+02 9.560000000000000000e+02 9.570000000000000000e+02 9.580000000000000000e+02 9.590000000000000000e+02 9.600000000000000000e+02 9.610000000000000000e+02 9.620000000000000000e+02 9.630000000000000000e+02 9.640000000000000000e+02 9.650000000000000000e+02 9.660000000000000000e+02 9.670000000000000000e+02 9.680000000000000000e+02 9.690000000000000000e+02 9.700000000000000000e+02 9.710000000000000000e+02 9.720000000000000000e+02 9.730000000000000000e+02 9.740000000000000000e+02 9.750000000000000000e+02 9.760000000000000000e+02 9.770000000000000000e+02 9.780000000000000000e+02 9.790000000000000000e+02 9.800000000000000000e+02 9.810000000000000000e+02 9.820000000000000000e+02 9.830000000000000000e+02 9.840000000000000000e+02 9.850000000000000000e+02 9.860000000000000000e+02 9.870000000000000000e+02 9.880000000000000000e+02 9.890000000000000000e+02 9.900000000000000000e+02 9.910000000000000000e+02 9.920000000000000000e+02 9.930000000000000000e+02 9.940000000000000000e+02 9.950000000000000000e+02 9.960000000000000000e+02 9.970000000000000000e+02 9.980000000000000000e+02 9.990000000000000000e+02
1.000000000000000000e+00 1.000000000000000000e+00 1.000000000000000000e+00 1.000000000000000000e+00 1.000000000000000000e+00 1.000000000000000000e+00 1.000000000000000000e+00 1.000000000000000000e+00 1.000000000000000000e+00 1.000000000000000000e+00 1.000000000000000000e+00 1.000000000000000000e+00 1.000000000000000000e+00 1.000000000000000000e+00 1.000000000000000000e+00 1.000000000000000000e+00 1.000000000000000000e+00 1.000000000000000000e+00 1.000000000000000000e+00 1.000000000000000000e+00 1.000000000000000000e+00 1.000000000000000000e+00 1.000000000000000000e+00 1.000000000000000000e+00 1.000000000000000000e+00 1.000000000000000000e+00 1.000000000000000000e+00 1.000000000000000000e+00 1.000000000000000000e+00 1.000000000000000000e+00 1.000000000000000000e+00 1.000000000000000000e+00 1.000000000000000000e+00 1.000000000000000000e+00 1.000000000000000000e+00 1.000000000000000000e+00 1.000000000000000000e+00 1.000000000000000000e+00 1.000000000000000000e+00 1.000000000000000000e+00 1.000000000000000000e+00 1.000000000000000000e+00 1.000000000000000000e+00 1.000000000000000000e+00 1.000000000000000000e+00 1.000000000000000000e+00 1.000000000000000000e+00 1.000000000000000000e+00 1.000000000000000000e+00 1.000000000000000000e+00 1.000000000000000000e+00 1.000000000000000000e+00 1.000000000000000000e+00 1.000000000000000000e+00 1.000000000000000000e+00 1.000000000000000000e+00 1.000000000000000000e+00 1.000000000000000000e+00 1.000000000000000000e+00 1.000000000000000000e+00 1.000000000000000000e+00 1.000000000000000000e+00 1.000000000000000000e+00 1.000000000000000000e+00 1.000000000000000000e+00 1.000000000000000000e+00 1.000000000000000000e+00 1.000000000000000000e+00 1.000000000000000000e+00 1.000000000000000000e+00 1.000000000000000000e+00 1.000000000000000000e+00 1.000000000000000000e+00 1.000000000000000000e+00 1.000000000000000000e+00 1.000000000000000000e+00 1.000000000000000000e+00 1.000000000000000000e+00 1.000000000000000000e+00 1.000000000000000000e+00 1.000000000000000000e+00 1.000000000000000000e+00 1.000000000000000000e+00 1.000000000000000000e+00 1.000000000000000000e+00 1.000000000000000000e+00 1.000000000000000000e+00 1.000000000000000000e+00 1.000000000000000000e+00 1.000000000000000000e+00 1.000000000000000000e+00 1.000000000000000000e+00 1.000000000000000000e+00 1.000000000000000000e+00 1.000000000000000000e+00 1.000000000000000000e+00 1.000000000000000000e+00 1.000000000000000000e+00 1.000000000000000000e+00 1.000000000000000000e+00 1.000000000000000000e+00 1.000000000000000000e+00 1.000000000000000000e+00 1.000000000000000000e+00 1.000000000000000000e+00 1.000000000000000000e+00 1.000000000000000000e+00 1.000000000000000000e+00 1.000000000000000000e+00 1.000000000000000000e+00 1.000000000000000000e+00 1.000000000000000000e+00 1.000000000000000000e+00 1.000000000000000000e+00 1.000000000000000000e+00 1.000000000000000000e+00 1.000000000000000000e+00 1.000000000000000000e+00 1.000000000000000000e+00 1.000000000000000000e+00 1.000000000000000000e+00 1.000000000000000000e+00 1.000000000000000000e+00 1.000000000000000000e+00 1.000000000000000000e+00 1.000000000000000000e+00 1.000000000000000000e+00 1.000000000000000000e+00 1.000000000000000000e+00 1.000000000000000000e+00 1.000000000000000000e+00 1.000000000000000000e+00 1.000000000000000000e+00 1.000000000000000000e+00 1.000000000000000000e+00 1.000000000000000000e+00 1.000000000000000000e+00 1.000000000000000000e+00 1.000000000000000000e+00 1.000000000000000000e+00 1.000000000000000000e+00 1.000000000000000000e+00 1.000000000000000000e+00 1.000000000000000000e+00 1.000000000000000000e+00 1.000000000000000000e+00 1.000000000000000000e+00 1.000000000000000000e+00 1.000000000000000000e+00 1.000000000000000000e+00 1.000000000000000000e+00 1.000000000000000000e+00 1.000000000000000000e+00 1.000000000000000000e+00 1.000000000000000000e+00 1.000000000000000000e+00 1.000000000000000000e+00 1.000000000000000000e+00 1.000000000000000000e+00 1.000000000000000000e+00 1.000000000000000000e+00 1.000000000000000000e+00 1.000000000000000000e+00 1.000000000000000000e+00 1.000000000000000000e+00 1.000000000000000000e+00 1.000000000000000000e+00 1.000000000000000000e+00 1.000000000000000000e+00 1.000000000000000000e+00 1.000000000000000000e+00 1.000000000000000000e+00 1.000000000000000000e+00 1.000000000000000000e+00 1.000000000000000000e+00 1.000000000000000000e+00 1.000000000000000000e+00 1.000000000000000000e+00 1.000000000000000000e+00 1.000000000000000000e+00 1.000000000000000000e+00 1.000000000000000000e+00 1.000000000000000000e+00 1.000000000000000000e+00 1.000000000000000000e+00 1.000000000000000000e+00 1.000000000000000000e+00 1.000000000000000000e+00 1.000000000000000000e+00 1.000000000000000000e+00 1.000000000000000000e+00 1.000000000000000000e+00 1.000000000000000000e+00 1.000000000000000000e+00 1.000000000000000000e+00 1.000000000000000000e+00 1.000000000000000000e+00 1.000000000000000000e+00 1.000000000000000000e+00 1.000000000000000000e+00 1.000000000000000000e+00 1.000000000000000000e+00 1.000000000000000000e+00 1.000000000000000000e+00 1.000000000000000000e+00 1.000000000000000000e+00 1.000000000000000000e+00 1.000000000000000000e+00 1.000000000000000000e+00 1.000000000000000000e+00 1.000000000000000000e+00 1.000000000000000000e+00 1.000000000000000000e+00 1.000000000000000000e+00 1.000000000000000000e+00 1.000000000000000000e+00 1.000000000000000000e+00 1.000000000000000000e+00 1.000000000000000000e+00 1.000000000000000000e+00 1.000000000000000000e+00 1.000000000000000000e+00 1.000000000000000000e+00 1.000000000000000000e+00 1.000000000000000000e+00 1.000000000000000000e+00 1.000000000000000000e+00 1.000000000000000000e+00 1.000000000000000000e+00 1.000000000000000000e+00 1.000000000000000000e+00 1.000000000000000000e+00 1.000000000000000000e+00 1.000000000000000000e+00 1.000000000000000000e+00 1.000000000000000000e+00 1.000000000000000000e+00 1.000000000000000000e+00 1.000000000000000000e+00 1.000000000000000000e+00 1.000000000000000000e+00 1.000000000000000000e+00 1.000000000000000000e+00 1.000000000000000000e+00 1.000000000000000000e+00 1.000000000000000000e+00 1.000000000000000000e+00 1.000000000000000000e+00 1.000000000000000000e+00 1.000000000000000000e+00 1.000000000000000000e+00 1.000000000000000000e+00 1.000000000000000000e+00 1.000000000000000000e+00 1.000000000000000000e+00 1.000000000000000000e+00 1.000000000000000000e+00 1.000000000000000000e+00 1.000000000000000000e+00 1.000000000000000000e+00 1.000000000000000000e+00 1.000000000000000000e+00 1.000000000000000000e+00 1.000000000000000000e+00 1.000000000000000000e+00 1.000000000000000000e+00 1.000000000000000000e+00 1.000000000000000000e+00 1.000000000000000000e+00 1.000000000000000000e+00 1.000000000000000000e+00 1.000000000000000000e+00 1.000000000000000000e+00 1.000000000000000000e+00 1.000000000000000000e+00 1.000000000000000000e+00 1.000000000000000000e+00 1.000000000000000000e+00 1.000000000000000000e+00 1.000000000000000000e+00 1.000000000000000000e+00 1.000000000000000000e+00 1.000000000000000000e+00 1.000000000000000000e+00 1.000000000000000000e+00 1.000000000000000000e+00 1.000000000000000000e+00 1.000000000000000000e+00 1.000000000000000000e+00 1.000000000000000000e+00 1.000000000000000000e+00 1.000000000000000000e+00 1.000000000000000000e+00 1.000000000000000000e+00 1.000000000000000000e+00 1.000000000000000000e+00 1.000000000000000000e+00 1.000000000000000000e+00 1.000000000000000000e+00 1.000000000000000000e+00 1.000000000000000000e+00 1.000000000000000000e+00 1.000000000000000000e+00 1.000000000000000000e+00 1.000000000000000000e+00 1.000000000000000000e+00 1.000000000000000000e+00 1.000000000000000000e+00 1.000000000000000000e+00 1.000000000000000000e+00 1.000000000000000000e+00 1.000000000000000000e+00 1.000000000000000000e+00 1.000000000000000000e+00 1.000000000000000000e+00 1.000000000000000000e+00 1.000000000000000000e+00 1.000000000000000000e+00 1.000000000000000000e+00 1.000000000000000000e+00 1.000000000000000000e+00 1.000000000000000000e+00 1.000000000000000000e+00 1.000000000000000000e+00 1.000000000000000000e+00 1.000000000000000000e+00 1.000000000000000000e+00 1.000000000000000000e+00 1.000000000000000000e+00 1.000000000000000000e+00 1.000000000000000000e+00 1.000000000000000000e+00 1.000000000000000000e+00 1.000000000000000000e+00 1.000000000000000000e+00 1.000000000000000000e+00 1.000000000000000000e+00 1.000000000000000000e+00 1.000000000000000000e+00 1.000000000000000000e+00 1.000000000000000000e+00 1.000000000000000000e+00 1.000000000000000000e+00 1.000000000000000000e+00 1.000000000000000000e+00 1.000000000000000000e+00 1.000000000000000000e+00 1.000000000000000000e+00 1.000000000000000000e+00 1.000000000000000000e+00 1.000000000000000000e+00 1.000000000000000000e+00 1.000000000000000000e+00 1.000000000000000000e+00 1.000000000000000000e+00 1.000000000000000000e+00 1.000000000000000000e+00 1.000000000000000000e+00 1.000000000000000000e+00 1.000000000000000000e+00 1.000000000000000000e+00 1.000000000000000000e+00 1.000000000000000000e+00 1.000000000000000000e+00 1.000000000000000000e+00 1.000000000000000000e+00 1.000000000000000000e+00 1.000000000000000000e+00 1.000000000000000000e+00 1.000000000000000000e+00 1.000000000000000000e+00 1.000000000000000000e+00 1.000000000000000000e+00 1.000000000000000000e+00 1.000000000000000000e+00 1.000000000000000000e+00 1.000000000000000000e+00 1.000000000000000000e+00 1.000000000000000000e+00 1.000000000000000000e+00 1.000000000000000000e+00 1.000000000000000000e+00 1.000000000000000000e+00 1.000000000000000000e+00 1.000000000000000000e+00 1.000000000000000000e+00 1.000000000000000000e+00 1.000000000000000000e+00 1.000000000000000000e+00 1.000000000000000000e+00 1.000000000000000000e+00 1.000000000000000000e+00 1.000000000000000000e+00 1.000000000000000000e+00 1.000000000000000000e+00 1.000000000000000000e+00 1.000000000000000000e+00 1.000000000000000000e+00 1.000000000000000000e+00 1.000000000000000000e+00 1.000000000000000000e+00 1.000000000000000000e+00 1.000000000000000000e+00 1.000000000000000000e+00 1.000000000000000000e+00 1.000000000000000000e+00 1.000000000000000000e+00 1.000000000000000000e+00 1.000000000000000000e+00 1.000000000000000000e+00 1.000000000000000000e+00 1.000000000000000000e+00 1.000000000000000000e+00 1.000000000000000000e+00 1.000000000000000000e+00 1.000000000000000000e+00 1.000000000000000000e+00 1.000000000000000000e+00 1.000000000000000000e+00 1.000000000000000000e+00 1.000000000000000000e+00 1.000000000000000000e+00 1.000000000000000000e+00 1.000000000000000000e+00 1.000000000000000000e+00 1.000000000000000000e+00 1.000000000000000000e+00 1.000000000000000000e+00 1.000000000000000000e+00 1.000000000000000000e+00 1.000000000000000000e+00 1.000000000000000000e+00 1.000000000000000000e+00 1.000000000000000000e+00 1.000000000000000000e+00 1.000000000000000000e+00 1.000000000000000000e+00 1.000000000000000000e+00 1.000000000000000000e+00 1.000000000000000000e+00 1.000000000000000000e+00 1.000000000000000000e+00 1.000000000000000000e+00 1.000000000000000000e+00 1.000000000000000000e+00 1.000000000000000000e+00 1.000000000000000000e+00 1.000000000000000000e+00 1.000000000000000000e+00 1.000000000000000000e+00 1.000000000000000000e+00 1.000000000000000000e+00 1.000000000000000000e+00 1.000000000000000000e+00 1.000000000000000000e+00 1.000000000000000000e+00 1.000000000000000000e+00 1.000000000000000000e+00 1.000000000000000000e+00 1.000000000000000000e+00 1.000000000000000000e+00 1.000000000000000000e+00 1.000000000000000000e+00 1.000000000000000000e+00 1.000000000000000000e+00 1.000000000000000000e+00 1.000000000000000000e+00 1.000000000000000000e+00 1.000000000000000000e+00 1.000000000000000000e+00 1.000000000000000000e+00 1.000000000000000000e+00 1.000000000000000000e+00 1.000000000000000000e+00 1.000000000000000000e+00 1.000000000000000000e+00 1.000000000000000000e+00 1.000000000000000000e+00 1.000000000000000000e+00 1.000000000000000000e+00 1.000000000000000000e+00 1.000000000000000000e+00 1.000000000000000000e+00 1.000000000000000000e+00 1.000000000000000000e+00 1.000000000000000000e+00 1.000000000000000000e+00 1.000000000000000000e+00 1.000000000000000000e+00 1.000000000000000000e+00 1.000000000000000000e+00 1.000000000000000000e+00 1.000000000000000000e+00 1.000000000000000000e+00 1.000000000000000000e+00 1.000000000000000000e+00 1.000000000000000000e+00 1.000000000000000000e+00 1.000000000000000000e+00 1.000000000000000000e+00 1.000000000000000000e+00 1.000000000000000000e+00 1.000000000000000000e+00 1.000000000000000000e+00 1.000000000000000000e+00 1.000000000000000000e+00 1.000000000000000000e+00 1.000000000000000000e+00 1.000000000000000000e+00 1.000000000000000000e+00 1.000000000000000000e+00 1.000000000000000000e+00 1.000000000000000000e+00 1.000000000000000000e+00 1.000000000000000000e+00 1.000000000000000000e+00 1.000000000000000000e+00 1.000000000000000000e+00 1.000000000000000000e+00 1.000000000000000000e+00 1.000000000000000000e+00 1.000000000000000000e+00 1.000000000000000000e+00 1.000000000000000000e+00 1.000000000000000000e+00 1.000000000000000000e+00 1.000000000000000000e+00 1.000000000000000000e+00 1.000000000000000000e+00 1.000000000000000000e+00 1.000000000000000000e+00 1.000000000000000000e+00 1.000000000000000000e+00 1.000000000000000000e+00 1.000000000000000000e+00 1.000000000000000000e+00 1.000000000000000000e+00 1.000000000000000000e+00 1.000000000000000000e+00 1.000000000000000000e+00 1.000000000000000000e+00 1.000000000000000000e+00 1.000000000000000000e+00 1.000000000000000000e+00 1.000000000000000000e+00 1.000000000000000000e+00 1.000000000000000000e+00 1.000000000000000000e+00 1.000000000000000000e+00 1.000000000000000000e+00 1.000000000000000000e+00 1.000000000000000000e+00 1.000000000000000000e+00 1.000000000000000000e+00 1.000000000000000000e+00 1.000000000000000000e+00 1.000000000000000000e+00 1.000000000000000000e+00 1.000000000000000000e+00 1.000000000000000000e+00 1.000000000000000000e+00 1.000000000000000000e+00 1.000000000000000000e+00 1.000000000000000000e+00 1.000000000000000000e+00 1.000000000000000000e+00 1.000000000000000000e+00 1.000000000000000000e+00 1.000000000000000000e+00 1.000000000000000000e+00 1.000000000000000000e+00 1.000000000000000000e+00 1.000000000000000000e+00 1.000000000000000000e+00 1.000000000000000000e+00 1.000000000000000000e+00 1.000000000000000000e+00 1.000000000000000000e+00 1.000000000000000000e+00 1.000000000000000000e+00 1.000000000000000000e+00 1.000000000000000000e+00 1.000000000000000000e+00 1.000000000000000000e+00 1.000000000000000000e+00 1.000000000000000000e+00 1.000000000000000000e+00 1.000000000000000000e+00 1.000000000000000000e+00 1.000000000000000000e+00 1.000000000000000000e+00 1.000000000000000000e+00 1.000000000000000000e+00 1.000000000000000000e+00 1.000000000000000000e+00 1.000000000000000000e+00 1.000000000000000000e+00 1.000000000000000000e+00 1.000000000000000000e+00 1.000000000000000000e+00 1.000000000000000000e+00 1.000000000000000000e+00 1.000000000000000000e+00 1.000000000000000000e+00 1.000000000000000000e+00 1.000000000000000000e+00 1.000000000000000000e+00 1.000000000000000000e+00 1.000000000000000000e+00 1.000000000000000000e+00 1.000000000000000000e+00 1.000000000000000000e+00 1.000000000000000000e+00 1.000000000000000000e+00 1.000000000000000000e+00 1.000000000000000000e+00 1.000000000000000000e+00 1.000000000000000000e+00 1.000000000000000000e+00 1.000000000000000000e+00 1.000000000000000000e+00 1.000000000000000000e+00 1.000000000000000000e+00 1.000000000000000000e+00 1.000000000000000000e+00 1.000000000000000000e+00 1.000000000000000000e+00 1.000000000000000000e+00 1.000000000000000000e+00 1.000000000000000000e+00 1.000000000000000000e+00 1.000000000000000000e+00 1.000000000000000000e+00 1.000000000000000000e+00 1.000000000000000000e+00 1.000000000000000000e+00 1.000000000000000000e+00 1.000000000000000000e+00 1.000000000000000000e+00 1.000000000000000000e+00 1.000000000000000000e+00 1.000000000000000000e+00 1.000000000000000000e+00 1.000000000000000000e+00 1.000000000000000000e+00 1.000000000000000000e+00 1.000000000000000000e+00 1.000000000000000000e+00 1.000000000000000000e+00 1.000000000000000000e+00 1.000000000000000000e+00 1.000000000000000000e+00 1.000000000000000000e+00 1.000000000000000000e+00 1.000000000000000000e+00 1.000000000000000000e+00 1.000000000000000000e+00 1.000000000000000000e+00 1.000000000000000000e+00 1.000000000000000000e+00 1.000000000000000000e+00 1.000000000000000000e+00 1.000000000000000000e+00 1.000000000000000000e+00 1.000000000000000000e+00 1.000000000000000000e+00 1.000000000000000000e+00 1.000000000000000000e+00 1.000000000000000000e+00 1.000000000000000000e+00 1.000000000000000000e+00 1.000000000000000000e+00 1.000000000000000000e+00 1.000000000000000000e+00 1.000000000000000000e+00 1.000000000000000000e+00 1.000000000000000000e+00 1.000000000000000000e+00 1.000000000000000000e+00 1.000000000000000000e+00 1.000000000000000000e+00 1.000000000000000000e+00 1.000000000000000000e+00 1.000000000000000000e+00 1.000000000000000000e+00 1.000000000000000000e+00 1.000000000000000000e+00 1.000000000000000000e+00 1.000000000000000000e+00 1.000000000000000000e+00 1.000000000000000000e+00 1.000000000000000000e+00 1.000000000000000000e+00 1.000000000000000000e+00 1.000000000000000000e+00 1.000000000000000000e+00 1.000000000000000000e+00 1.000000000000000000e+00 1.000000000000000000e+00 1.000000000000000000e+00 1.000000000000000000e+00 1.000000000000000000e+00 1.000000000000000000e+00 1.000000000000000000e+00 1.000000000000000000e+00 1.000000000000000000e+00 1.000000000000000000e+00 1.000000000000000000e+00 1.000000000000000000e+00 1.000000000000000000e+00 1.000000000000000000e+00 1.000000000000000000e+00 1.000000000000000000e+00 1.000000000000000000e+00 1.000000000000000000e+00 1.000000000000000000e+00 1.000000000000000000e+00 1.000000000000000000e+00 1.000000000000000000e+00 1.000000000000000000e+00 1.000000000000000000e+00 1.000000000000000000e+00 1.000000000000000000e+00 1.000000000000000000e+00 1.000000000000000000e+00 1.000000000000000000e+00 1.000000000000000000e+00 1.000000000000000000e+00 1.000000000000000000e+00 1.000000000000000000e+00 1.000000000000000000e+00 1.000000000000000000e+00 1.000000000000000000e+00 1.000000000000000000e+00 1.000000000000000000e+00 1.000000000000000000e+00 1.000000000000000000e+00 1.000000000000000000e+00 1.000000000000000000e+00 1.000000000000000000e+00 1.000000000000000000e+00 1.000000000000000000e+00 1.000000000000000000e+00 1.000000000000000000e+00 1.000000000000000000e+00 1.000000000000000000e+00 1.000000000000000000e+00 1.000000000000000000e+00 1.000000000000000000e+00 1.000000000000000000e+00 1.000000000000000000e+00 1.000000000000000000e+00 1.000000000000000000e+00 1.000000000000000000e+00 1.000000000000000000e+00 1.000000000000000000e+00 1.000000000000000000e+00 1.000000000000000000e+00 1.000000000000000000e+00 1.000000000000000000e+00 1.000000000000000000e+00 1.000000000000000000e+00 1.000000000000000000e+00 1.000000000000000000e+00 1.000000000000000000e+00 1.000000000000000000e+00 1.000000000000000000e+00 1.000000000000000000e+00 1.000000000000000000e+00 1.000000000000000000e+00 1.000000000000000000e+00 1.000000000000000000e+00 1.000000000000000000e+00 1.000000000000000000e+00 1.000000000000000000e+00 1.000000000000000000e+00 1.000000000000000000e+00 1.000000000000000000e+00 1.000000000000000000e+00 1.000000000000000000e+00 1.000000000000000000e+00 1.000000000000000000e+00 1.000000000000000000e+00 1.000000000000000000e+00 1.000000000000000000e+00 1.000000000000000000e+00 1.000000000000000000e+00 1.000000000000000000e+00 1.000000000000000000e+00 1.000000000000000000e+00 1.000000000000000000e+00 1.000000000000000000e+00 1.000000000000000000e+00 1.000000000000000000e+00 1.000000000000000000e+00 1.000000000000000000e+00 1.000000000000000000e+00 1.000000000000000000e+00 1.000000000000000000e+00 1.000000000000000000e+00 1.000000000000000000e+00 1.000000000000000000e+00 1.000000000000000000e+00 1.000000000000000000e+00 1.000000000000000000e+00 1.000000000000000000e+00 1.000000000000000000e+00 1.000000000000000000e+00 1.000000000000000000e+00 1.000000000000000000e+00 1.000000000000000000e+00 1.000000000000000000e+00 1.000000000000000000e+00 1.000000000000000000e+00 1.000000000000000000e+00 1.000000000000000000e+00 1.000000000000000000e+00 1.000000000000000000e+00 1.000000000000000000e+00 1.000000000000000000e+00 1.000000000000000000e+00 1.000000000000000000e+00 1.000000000000000000e+00 1.000000000000000000e+00 1.000000000000000000e+00 1.000000000000000000e+00 1.000000000000000000e+00 1.000000000000000000e+00 1.000000000000000000e+00 1.000000000000000000e+00 1.000000000000000000e+00 1.000000000000000000e+00 1.000000000000000000e+00 1.000000000000000000e+00 1.000000000000000000e+00 1.000000000000000000e+00 1.000000000000000000e+00 1.000000000000000000e+00 1.000000000000000000e+00 1.000000000000000000e+00 1.000000000000000000e+00 1.000000000000000000e+00 1.000000000000000000e+00 1.000000000000000000e+00 1.000000000000000000e+00 1.000000000000000000e+00 1.000000000000000000e+00 1.000000000000000000e+00 1.000000000000000000e+00 1.000000000000000000e+00 1.000000000000000000e+00 1.000000000000000000e+00 1.000000000000000000e+00 1.000000000000000000e+00 1.000000000000000000e+00 1.000000000000000000e+00 1.000000000000000000e+00 1.000000000000000000e+00 1.000000000000000000e+00 1.000000000000000000e+00 1.000000000000000000e+00 1.000000000000000000e+00 1.000000000000000000e+00 1.000000000000000000e+00 1.000000000000000000e+00 1.000000000000000000e+00 1.000000000000000000e+00 1.000000000000000000e+00 1.000000000000000000e+00 1.000000000000000000e+00 1.000000000000000000e+00 1.000000000000000000e+00 1.000000000000000000e+00 1.000000000000000000e+00 1.000000000000000000e+00 1.000000000000000000e+00 1.000000000000000000e+00 1.000000000000000000e+00 1.000000000000000000e+00 1.000000000000000000e+00 1.000000000000000000e+00 1.000000000000000000e+00 1.000000000000000000e+00 1.000000000000000000e+00 1.000000000000000000e+00 1.000000000000000000e+00 1.000000000000000000e+00 1.000000000000000000e+00 1.000000000000000000e+00 1.000000000000000000e+00 1.000000000000000000e+00 1.000000000000000000e+00 1.000000000000000000e+00 1.000000000000000000e+00 1.000000000000000000e+00 1.000000000000000000e+00 1.000000000000000000e+00 1.000000000000000000e+00 1.000000000000000000e+00 1.000000000000000000e+00 1.000000000000000000e+00 1.000000000000000000e+00 1.000000000000000000e+00 1.000000000000000000e+00 1.000000000000000000e+00 1.000000000000000000e+00 1.000000000000000000e+00 1.000000000000000000e+00 1.000000000000000000e+00 1.000000000000000000e+00 1.000000000000000000e+00 1.000000000000000000e+00 1.000000000000000000e+00 1.000000000000000000e+00 1.000000000000000000e+00 1.000000000000000000e+00 1.000000000000000000e+00 1.000000000000000000e+00 1.000000000000000000e+00 1.000000000000000000e+00 1.000000000000000000e+00 1.000000000000000000e+00 1.000000000000000000e+00 1.000000000000000000e+00 1.000000000000000000e+00 1.000000000000000000e+00 1.000000000000000000e+00 1.000000000000000000e+00 1.000000000000000000e+00 1.000000000000000000e+00 1.000000000000000000e+00 1.000000000000000000e+00 1.000000000000000000e+00 1.000000000000000000e+00 1.000000000000000000e+00 1.000000000000000000e+00 1.000000000000000000e+00 1.000000000000000000e+00 1.000000000000000000e+00 1.000000000000000000e+00 1.000000000000000000e+00 1.000000000000000000e+00 1.000000000000000000e+00 1.000000000000000000e+00 1.000000000000000000e+00 1.000000000000000000e+00 1.000000000000000000e+00 1.000000000000000000e+00 1.000000000000000000e+00 1.000000000000000000e+00 1.000000000000000000e+00 1.000000000000000000e+00 1.000000000000000000e+00 1.000000000000000000e+00 1.000000000000000000e+00 1.000000000000000000e+00 1.000000000000000000e+00 1.000000000000000000e+00 1.000000000000000000e+00 1.000000000000000000e+00 1.000000000000000000e+00 1.000000000000000000e+00 1.000000000000000000e+00 1.000000000000000000e+00 1.000000000000000000e+00 1.000000000000000000e+00 1.000000000000000000e+00 1.000000000000000000e+00 1.000000000000000000e+00 1.000000000000000000e+00 1.000000000000000000e+00 1.000000000000000000e+00 1.000000000000000000e+00 1.000000000000000000e+00 1.000000000000000000e+00 1.000000000000000000e+00 1.000000000000000000e+00 1.000000000000000000e+00 1.000000000000000000e+00 1.000000000000000000e+00 1.000000000000000000e+00 1.000000000000000000e+00 1.000000000000000000e+00 1.000000000000000000e+00 1.000000000000000000e+00 1.000000000000000000e+00 1.000000000000000000e+00 1.000000000000000000e+00 1.000000000000000000e+00 1.000000000000000000e+00 1.000000000000000000e+00 1.000000000000000000e+00 1.000000000000000000e+00 1.000000000000000000e+00 1.000000000000000000e+00 1.000000000000000000e+00 1.000000000000000000e+00 1.000000000000000000e+00 1.000000000000000000e+00 1.000000000000000000e+00
-1.025573913307997395e-02 5.294556209689665893e-01 -1.588356810729537605e-01 6.907415175452020772e-01 5.100482003310800039e-01 6.076387629494932607e-01 6.651897966248812022e-01 2.308608118272280629e-01 5.211110252053132719e-01 5.314188091481969467e-01 1.072315268349663953e+00 -6.459691182517801611e-01 1.377222395211119110e+00 4.411867492863832951e-01 5.064231097175305729e-01 4.433523631309270185e-01 9.331569197272107097e-01 9.606014409630933004e-01 6.012787055448657325e-01 5.138312584029255392e-01 4.823305478071552299e-01 9.687859342176035060e-01 5.586470957427582817e-01 5.080386829273449978e-01 1.381039512587891593e-01 6.982133717295242459e-01 3.516000720610746311e-01 4.823679396045947865e-01 5.113645285554813125e-01 1.500498783891685228e+00 5.437391380965155285e-01 6.136296069401043773e-01 7.229549809360514834e-01 5.149323841391064693e-01 7.218142027970336772e-01 4.762085415724681692e-01 5.831218070867517644e-01 1.690867954270047768e+00 -5.674525520247018784e-02 5.229368014455437752e-01 -1.015828622669068815e-01 -5.555795524517961326e-01 7.525720479749334890e-01 2.202202369314315011e-01 2.576815948684770818e-01 5.121739513043991332e-01 6.910320239352698568e-01 5.083187761218106449e-01 4.776637068983951018e-01 2.875374642256169413e-02 2.796604590585072964e-02 8.603307072168241421e-01 6.617884907274599326e-01 5.221800437920756099e-01 4.463257193539749701e-01 7.112539593193091189e-03 5.364145195950110745e-01 5.541539703693150187e-01 1.803390101189825956e-01 5.446895704757760415e-01 9.014647971201531496e-01 5.541381144964727667e-01 4.657378314503236028e-01 5.586472697220383754e-01 6.843845648873737586e-01 4.720489933503561053e-01 5.173391671627717292e-01 2.737490825602681976e-01 5.166198818859538688e-01 -1.123934976746987849e-02 4.071817049197538063e-01 4.389118455853459055e-01 5.133759369446807552e-01 4.467151555148949488e-02 1.478540475838378443e+00 5.607519629981209119e-01 6.294301452182455847e-01 7.513058946063502219e-01 5.093598879536338497e-01 1.374524117569368764e+00 5.324117271540547147e-01 2.604210038540872851e-01 1.337785969338402436e+00 6.179595581034582619e-01 5.131266904476626811e-01 7.589439548184836459e-01 8.190590893776963366e-01 5.087838135998984379e-01 3.958990258521874472e-01 5.748889633307951996e-01 2.517388398127177185e-01 2.095420179939130101e+00 6.681997915890035555e-01 -7.508215033501726421e-02 5.262889547763608400e-01 6.235305321838223724e-01 5.039794066956569951e-01 4.671364613388459541e-01 1.898637401839958216e-01 7.044834781714413019e-01 1.546869809129316264e+00 6.831418730748683998e-01 5.080229983130115645e-01 8.263572205475284704e-01 8.526518403403849922e-01 -1.953944439951585732e+00 -1.169556469667132781e+00 5.538809963492802302e-01 5.150072723260555874e-01 9.738791111560854974e-01 5.006969810491557205e-01 5.479531054581397997e-01 1.732946515822493261e-01 4.567444754821143871e-01 5.131708211358023686e-01 5.290949063574270639e-01 5.159051333477393531e-01 4.976403820234900355e-01 8.154873915829617959e-01 5.243437471187485377e-01 1.280499271655229254e+00 5.708309532590971624e-01 4.942323323136406654e-01 -2.812175249205313143e-01 5.037755629963782678e-01 1.900213242002176006e+00 5.418983994128003800e-01 4.424944421030064245e-01 6.818163911047860903e-01 5.276382432761418384e-01 5.983220860910508643e-01 5.147403944711150814e-01 4.029289408580113974e-01 2.109391520475283888e-01 -1.472564154608896336e-01 -1.438202536343728133e-01 5.948017099256315277e-01 2.343399847080011172e-02 9.838918970084625792e-01 7.012040046023524376e-01 4.861331281349026145e-01 8.488284226259050769e-01 6.646506833696597116e-01 5.699532030048609643e-01 5.206755487175792618e-01 -8.705926011898918598e-03 8.210638483403560617e-01 2.173152417144105786e-01 5.076440903404427774e-01 -8.348019130682298172e-01 7.847381681430989353e-01 -3.009488364021490336e-01 5.121728402582162998e-01 5.020641713836159203e-01 5.434090712068511131e-01 5.144262626897311286e-01 1.809526325669927438e+00 -1.579671710376761087e-02 8.031862526097300892e-01 6.974217998705435351e-01 4.997333997143228457e-01 4.534596969364942387e-01 5.093165117398519293e-01 5.141804177887571159e-01 1.098765173009635054e+00 1.147413439850922950e-01 8.382863560587429097e-01 5.155017413345011068e-01 6.278458502290085175e-01 5.331911846837954494e-01 3.923180467489091883e-01 6.917563226481693306e-01 5.121618475058181685e-01 5.039781627060464508e-01 4.077111602171395455e-01 5.981647965494549420e-03 1.654027753340985840e-01 6.674077648013981845e-02 7.309992743405008264e-01 1.137492073224163791e+00 7.272676203150468810e-01 5.050506315717608885e-01 -1.929133308744772346e-01 4.948626275895380844e-01 6.829340893378591515e-01 5.172457066882861776e-01 5.132688975761012795e-01 5.442745219752673780e-01 2.673930646634923747e+00 4.966436302107533618e-01 4.898124215206071108e-01 -8.361404904982173703e-01 4.855349409777071079e-01 5.592842820614065680e-01 1.702759437407014576e-01 5.221182966602373465e-01 9.177859264037089293e-01 5.102879450418796869e-01 7.212909231788161568e-01 4.555105875589129938e-01 5.949003064564105658e-01 5.200799515613313551e-01 9.949350284311909709e-01 5.981826241835610514e-01 5.432718282961856993e-01 7.212909219797029037e-01 3.275984665476442959e-01 1.268075843495960697e+00 5.584826436082319656e-01 3.383897203692909916e-01 4.601228160397598521e-01 -4.753077700410632961e-02 4.661236843315668121e-01 1.694144636659039860e-01 4.875230896451780982e-01 5.255211814135217763e-01 5.103237952759314133e-01 5.209373976517113203e-01 5.268487210278233190e-01 5.147463015623655602e-01 4.767850370611315669e-01 5.998436435659475485e-01 -6.814723151776904686e-01 5.332618487790258266e-01 2.771566180086035835e-01 4.238817917004957803e-01 2.155119962498718844e-01 1.248040489700730671e+00 9.388492259015315256e-01 5.063838110451285290e-01 -1.055482568481806160e-01 1.037051145677478470e+00 5.157032387520190664e-01 4.775638624115533526e-01 3.906736860466527017e-01 4.220564758404314887e-01 5.047397297146277717e-01 2.143524738723426026e-01 -1.368376195062331324e-01 -1.390168882183816512e-01 2.709518034251847118e-01 4.978894104858093139e-01 -8.980679234989948079e-02 5.404311469551924541e-01 5.183648626576938812e-01 4.399400376126714196e-01 -1.084060340748265738e-01 7.333291383613047554e-01 -2.131101556129733510e+00 5.585699535178599850e-01 -4.942699599256164533e-01 4.964918854146060934e-01 5.090370505406394130e-01 5.586475496829409471e-01 4.817915055594854667e-01 4.977524781038024648e-01 4.968549420099750979e-01 7.049088261626695884e-01 5.219500987202458919e-01 1.671863901110731687e+00 6.642182709871504720e-01 6.982757900820295571e-01 5.381799160340599020e-01 3.715675232377120274e-01 9.014648224005527011e-01 3.545239644767156917e-01 2.574157295193474138e+00 5.890417047275856577e-01 2.519061039421817139e-01 6.305279178097330517e-01 4.856300080298801558e-01 9.023692004744556794e-01 5.249318560804434597e-01 4.955763435971310971e-01 5.091187747270066177e-01 1.018474795711542980e+00 7.458609790371352188e-01 8.708525472783794630e-01 8.179982007652796261e-01 2.749198962373977650e-01 6.697098151254528009e-01 5.702750890942120954e-01 4.071327023965374825e-01 -6.776487469826129040e-01 3.781313054196667744e-01 7.438994856700504865e-01 5.254283392482974602e-01 4.535360462980062013e-01 5.290949075963354842e-01 6.058652003456924673e-01 5.100924427241698700e-01 -7.006222627015484816e-01 6.523324017089480176e-01 5.087491719613417285e-01 5.945074982813540465e-02 5.249439599493764819e-01 1.831343902493942633e+00 4.855790037824148087e-01 5.209093292660345043e-01 5.076305097713749159e-01 -3.265338960354179587e+00 4.897169077421223982e-01 2.600204160761866667e+00 6.920589247239576913e-01 5.279160365669427479e-01 -5.853481927967802978e-01 5.280181202183069633e-01 5.177958700952631776e-01 4.361994490616422082e-01 4.854099644893712373e-01 4.064244813694332104e-01 6.290501858457433482e-01 3.154824010962401504e-01 5.140017315507143802e-01 5.098810298464273583e-01 3.992447689189460580e-01 5.184522753715351540e-01 6.919282969420332829e-01 5.091920726120808816e-01 1.175973063745921587e+00 2.212405694044912788e-02 2.182756924453909342e+00 2.561474903187929364e+00 5.732054903512999733e-01 -1.777378932014868906e-01 5.327065514255453493e-01 4.099994707724782250e-01 7.114368469150809116e-01 1.342780351367312663e+00 5.417528452162985175e-01 1.108639159788955553e+00 5.241387522485672079e-01 1.358146648673442536e-01 1.232771419099948584e+00 3.722944256056529011e-01 4.896324642714326991e-01 5.536121972555005932e-01 8.376320057688241283e-01 -3.506999338714194892e+00 1.588321590932044503e+00 5.336432706518434710e-01 6.417032452738068438e-01 5.193469427861044929e-01 1.690867957862598470e+00 3.175021349994103792e-01 5.203499914254511305e-01 4.447827093483672223e-01 4.426033366000895475e-01 1.386875324994778946e+00 6.606769166014828665e-01 7.212909246646947992e-01 5.404357813665698895e-01 5.981826228426396774e-01 7.011233652396221538e-01 5.523998894906120283e-01 8.799766415473073700e-01 5.151703288895780330e-01 4.117443488469427759e-01 2.909029858975100691e-01 6.115961568771127732e-01 5.066852395339088710e-01 5.536415596153450025e-01 5.203499939559940168e-01 6.440486642015302854e-01 5.153533460990299409e-01 9.576849721862089604e-01 1.025590526920086898e+00 1.099710767835611724e+00 5.462731232853562657e-01 2.669536081171807740e-01 9.014647169795075854e-01 -1.084648755092647993e-01 9.320140141969296410e-01 6.239988488701876390e-01 1.916668036238926981e-02 5.078896530686486388e-01 1.034449388637208145e+00 3.978146354522534844e-01 5.514518930859021451e-01 2.512777634285787709e-01 -3.234151191250347335e-01 -2.362633045999132264e+00 4.570015278223559241e-01 5.981826242303454055e-01 5.981827121730821650e-01 5.083530792034726131e-01 5.180346371983693965e-01 -1.893227168281261252e-01 3.752854283270062874e-01 5.232736350392731550e-01 5.753683868833678883e-01 5.081534023498420760e-01 1.077268142143028573e+00 7.212911250593831980e-01 5.109323275196909764e-01 4.620393967596224116e-01 2.684418224708925993e-01 6.364970232275404260e-01 4.931808919564881211e-01 5.121412497771008487e-01 5.636606571782142305e-01 2.546654953808148991e-01 3.222800106405023651e-02 5.981826227569262411e-01 6.517927899830846528e-01 5.023181884070433423e-01 5.305691399202899783e-01 8.551597647538691227e-01 5.608484638654966936e-01 5.621744172956358865e-01 1.754026297561862568e+00 5.379870437409591810e-01 -2.863771535137809465e+00 6.901400177613161713e-01 1.476790595157133623e+00 5.604886058148577099e-01 -9.989169441893758217e-01 6.259640134948092349e-01 5.071358760896538254e-01 5.052061611542831843e-01 5.221910722981469855e-01 -1.874233686913247821e-01 5.139190197058394194e-01 1.056682239245472443e+00 6.459259335549110137e-01 -2.775759074061526777e-01 5.480381227758616136e-01 5.014408667664960184e-01 7.549850379253719712e-01 5.175184575137731224e-01 5.206667139000930034e-01 -4.787287397065020933e-01 5.580020718474467678e-01 5.101327976953506926e-01 7.380847247699680036e-01 5.445837146424645780e-01 7.611861113794784472e-01 5.154199115975275358e-01 5.332929805031214610e-01 7.931252297456901079e-01 5.404830863665808227e-01 3.993010176033306435e-01 2.380284552887773630e-01 2.859621716228363253e-01 9.435834089085577414e-01 5.387175637509454829e-01 3.098427845384166712e+00 6.592693169575466472e-01 5.568991803282165032e-01 5.666459846456989302e-01 6.636468854166506226e-01 2.343559894677171157e-02 4.801938504072534863e-01 6.011217273604771982e-01 5.074947425333494744e-01 1.167373625207735133e+00 7.608922145084860977e-01 4.970373951406261703e-01 4.658644725328365266e-01 1.109458791032970071e+00 4.815835508178368807e-01 5.034143332126921333e-01 4.922684153031736676e-01 6.261064832094402899e-01 5.106257189557046328e-01 9.030858717054919271e-01 4.625938786288375515e-01 5.221016623079169916e-01 2.177704269023221159e-02 5.303159383365682045e-01 5.212045819998918639e-02 4.057602659803303258e-01 4.352058180484046912e-01 5.243656078588398994e-01 7.625422809627707688e-01 4.905536658496097435e-01 4.160048945217592609e-01 2.189899568759876708e-02 5.949989669436457351e-01 5.096804383052401244e-01 5.206469892332129534e-01 2.580361732669549796e-02 5.177491383520067547e-01 2.582729551661622769e-01 5.263138072355985075e-01 4.650181302530737026e-01 1.238427033482870643e+00 7.972405202843265704e-01 5.171606095900621591e-01 3.010465074839031030e-01 5.032747341428871479e-01 4.118221168166669721e-01 9.773273421983851295e-01 5.424814365398527016e-01 4.660725358838636589e-01 6.727486308232497603e-01 1.932419238778890547e+00 4.568887159225378802e-01 3.802937216190663272e-01 5.134782894292546640e-01 6.522397411797913325e-01 4.460210935248278274e-01 7.983635903281058877e-01 -5.497424673224720060e-01 3.007675862705413428e-01 5.462854478323994067e-01 4.779156105885439820e-01 4.027303769007347656e-01 -5.753897625504258428e-01 3.931125702323519655e-01 5.107279165395419707e-01 7.356524677048394967e-01 6.602283503956979382e-01 1.348202145524810325e+00 5.117065559612536951e-01 5.068721018473324458e-01 -6.514176454735213229e-01 5.019427041623960584e-01 1.172856756564052860e+00 6.742248774125408906e-01 2.340894797192137056e-01 3.123868786447321910e-01 -1.425972706978240412e+00 5.037581472489133239e-01 2.126869032897194534e-01 1.082214754308387095e+00 8.081318587888469684e-01 5.209733011976527273e-01 5.102932285384235156e-01 5.703482487091560138e-01 6.903184521571483767e-01 5.226169501869458722e-01 5.712443708560829281e-01 2.734924311237978828e-02 5.584094170982721872e-01 5.864339201628038234e-01 6.978459439816006027e-01 4.853135881293596521e-01 5.918332887751833749e-01 1.151417273529272922e+00 -1.159866505243498103e-01 -2.165362997855643790e-01 5.125846208884708988e-01 5.394506491405006710e-01 5.615618437978664446e-01 4.908295832674672843e-01 -8.009226717024187092e-01 3.062571577771409093e+00 5.661053274880120112e-01 4.769150240540726005e-01 4.352477888910801784e-01 5.153905445578655931e-01 5.208744553540453071e-01 6.637531419716926617e-01 3.328294611122854518e-01 5.595543301379647394e-01 5.137125292431498069e-01 6.729092098019889834e-01 4.035194966506983616e-01 6.269751281891372541e-01 5.180711228961116799e-01 4.068693085330746806e-01 4.390372708300872007e-01 5.088268701425447960e-01 6.233322546460750013e-01 9.850044439619005665e-01 2.259563162858479135e+00 6.126074513468258154e-01 4.909632874230032695e-01 5.775494952671818005e-01 5.397329292266757061e-01 3.699181497117390305e-01 5.181141761255546596e-01 5.220332818230052352e-01 5.717214049764908212e-01 5.581720714312864429e-01 5.257218392861198186e-01 6.905581238645870368e-01 3.766085771649857472e-01 6.503400696814630733e-01 5.919827566772285499e-01 6.213110995481477827e-01 1.363479147149577464e-01 9.014648186866212054e-01 5.265151328199578762e-01 1.814264372689257943e-01 1.901518249917435011e+00 2.512503577010437028e-01 5.220730546989900134e-01 5.783314577148493951e-01 5.773379534971504606e-02 5.782672208734567221e-01 1.479537733546894662e+00 7.105411742384285523e-01 8.241663847952802602e-01 5.111038898959533450e-01 5.097192135197828877e-01 5.420356366267492509e-01 5.332134837582689357e-01 5.053587300274544614e-01 5.120517495825864795e-01 -9.548322909491341326e-02 6.283941397185281996e-01 -1.250807024030945014e+00 4.976443608585406908e-01 4.803571101046727465e-01 5.359131952294640122e-01 5.076158940327929470e-01 9.014648188343308277e-01 2.412174868389658777e-01 5.524834203209920691e-01 1.277850536138231741e+00 -5.066499831406358068e-01 5.181899226402462144e-01 1.094057802480723929e+00 1.430869592179411898e+00 3.493140216503490825e-01 5.058047526724670506e-01 -3.373800891301245719e-02 -1.595673598433488216e+00 2.913603843157587803e-01 6.489539019677913467e-01 5.268303087043216815e-01 5.265420134675805608e-01 4.436116290386302174e-01 4.923502522352571353e-01 -3.687273881179061741e-01 7.990908647794181530e-01 5.290949008110512608e-01 3.625665685562669549e-01 5.060272526315311437e-01 -3.535765525630263362e-02 -1.806004790132745563e-01 1.710167189898775808e+00 4.202675072421663272e-01 4.037979866829166098e-01 5.125193546451649595e-01 3.385066198771889967e-01 6.203290802247539704e-01 4.620595554512253733e-02 -8.263409190452857267e-01 5.115413276910161233e-01 4.963317661487967047e-01 4.619539571465155481e-01 4.959503343941171760e-01 5.341709740265938589e-01 5.363946273480828530e-01 5.059882007002781679e-01 5.861352145436183880e-01 1.015012026451412863e+00 7.279804105205457398e-01 5.338148274077774147e-01 5.097333542604319812e-01 5.452502239185151867e-01 4.682175033250721707e-01 -9.832073655428470380e-03 5.203499923511554215e-01 6.156452007379079605e-01 4.742914550485328173e-01 7.136708694679857468e-01 1.018675543982431764e+00 7.983456435905668114e-01 -4.261175938002638164e-01 5.344414963097828819e-01 5.881101226999908560e-01 5.020322692695177169e-01 5.413217932195401039e-01 8.816539247080861230e-01 5.272425367111004402e-01 5.107904368304998499e-01 -1.447532227246977610e-01 -8.060740707282834094e-01 2.198820952055676958e+00 5.353664168256915268e-01 8.779283550206414821e-01 5.428231593930805676e-01 5.545394259894750322e-01 3.435902554651845131e-01 1.475882904799168671e-01 5.114693060199998476e-01 5.094853024983472256e-01 1.607580504512070088e-02 5.113734592869303430e-01 4.348762986157030386e-01 5.261885191995058220e-01 8.229819031419034481e-01 4.847558228293785687e-01 5.624035482193942004e-01 3.679549513812906958e-01 5.791301513272983925e-01 2.957138673834719400e-01 5.133549371370598191e-01 5.398349772505682820e-01 4.741406430591081911e-01 -3.134637536787005518e-01 5.009864493716810196e-01 6.429309598242818335e-01 4.837924980300560285e-01 6.911435363864828485e-01 9.014650969209296871e-01 7.393409338670624553e-01 -5.604626310319075211e-01 9.996620884797468021e-01 1.690867954231380699e+00 4.607171535954886488e-01 4.639424153110132121e-01 1.057500073821176167e+00 5.027773209095793838e-01 6.909649363558802992e-01 5.097031937339899788e-01 1.729012071097197012e+00 5.076976503226934279e-01 5.404319952193148424e-01 1.235273737880326905e+00 -3.934032975398828874e-02 5.077660329443194343e-01 -1.673117817907936455e-01 -9.054452189670331164e-01 -1.803921032255716428e-01 7.788703187633004843e-01 4.936569924941164866e-01 5.993736818688528700e-01 -3.413653297285283439e-01 4.970636707122874087e-01 -2.156364208877858263e-02 -3.114883846786212773e-01 4.332923078874003076e-01 5.176012893691867012e-01 5.226988755356627436e-01 5.586922174540408514e-01 5.600412053500557485e-01 8.920138392485492673e-01 -3.461754383065102081e-01 5.123916901341283303e-01 5.048656414962785499e-01 6.395617091433433155e-01 1.148485413197598337e+00 5.389301930567399479e-01 5.689380210241228308e-01 5.066993395195389382e-01 9.845709865084047163e-03 -1.881765163905788352e-01 4.789359630204821916e-01 5.096716898026495413e-01 6.299879086336097611e-01 5.275130104070544501e-01 3.324802037736710458e-01 5.072536124604399843e-01 5.232600172400854177e-01 3.062818271496722256e-01 5.032966407359107386e-01 8.345200299151130929e-01 2.473966721304018179e+00 -2.271829378636952834e-01 6.716079942980035522e-01 3.742821225742233859e-01 2.396072477517172672e-01 6.989130649361265935e-01 -5.310714901887744754e-02 -1.423336326293321186e+00 4.890566853498839461e-01 2.533882462936467572e+00 5.069577366297070009e-01 1.371575985908745909e-01 1.946649259116372821e-01 5.290949064357500786e-01 5.126486831301592106e-01 1.508354945567778271e+00 4.931808558354009997e-01 1.247253830915782680e-01 4.616982595041239645e-01 1.619243493115855692e+00 5.379679814511946212e-01 6.432599899547533084e-01 5.054742544217417644e-01 7.465391166738426509e-01 4.477949020101169020e-01 5.594180817542953044e-01 3.557964411582834920e-03 5.113226653255286136e-01 6.203060754336681137e-01 -5.499666630054890204e-01 1.149178482578443183e-02 1.158797024590672242e+00 2.328218805754984078e-01 5.024813326634340882e-01 6.370497733605858803e-01 5.106833052134561735e-01 1.965194718244638095e+00 7.171287676487072549e-01 2.201938509717553394e-02 2.303158125291780156e-01 4.260386701848955515e-01 1.066329447166285638e+00 5.222891769824133945e-01 -9.001575969987810066e-03 5.236328417275671887e-01 -3.172520784175116709e-02 5.137083183752750859e-01 5.103094577632683038e-01 2.132007944961542348e-02 -8.939983473653724533e-02 6.576939152174494652e-01 5.891856979559659813e-01 4.956929727685727705e-01 3.674215786964805663e-01 5.784506868558532133e-01 4.834776568569473798e-01 5.436809399768165463e-01 5.378174056122544400e-01 4.867818732317215069e-01 6.666863799416306025e-01 1.008436512184490041e+00 3.029751359981861736e+00 8.402813576218860492e-01 5.154109975653665687e-01 6.646210297088483987e-01 2.070067267806858513e-01 5.222127205369551106e-01 8.190330336981251902e-01 4.747211539540358571e-01 1.314535164530453715e+00 5.797782005449469978e-01 -5.469159526173599239e-01 -1.742926461255770235e-03 4.536404905989227521e-01 6.082134078744848571e-01 5.889033538149036628e-01 5.145354707392665317e-01 -1.632614829148127875e-02 4.983426952412487454e-01 4.092197357841602101e-01 -3.393640735974555511e+00 5.361365399999565851e-01 5.327688452698123855e-01 1.105193339033764710e+00 4.993146519045278398e-01 6.031982957716911509e-01 6.843741742904015934e-01 -8.317755446251058338e-01 -5.089862455248215234e-01 6.908345313624907058e-02 5.273353284203634583e-01 4.015511276295855025e-01 2.373494935635293013e-01 4.989430558315697817e-01 -3.201515905049401312e-01 6.965069328217613487e-01 5.939570210047949717e-01 6.912905355692318121e-01 5.273128747726033572e-01 4.837267538697491154e-01 1.765966616908998255e-01 -6.995111822717070549e-01 6.350351821069791791e-01 5.742565224942540736e-01 1.729198288183551036e-01 5.167523290871420816e-01 5.794527608703188282e-01 5.248845941255253500e-01 6.604679106358306573e-01 5.590313025809726666e-01 5.293248394500776888e-01 4.942189650796393052e-01 1.690867954597281564e+00 3.836298810678533400e-01 5.516734788581075799e-01 -8.682624409823834488e-02 5.128948445602524719e-01 6.121586511610819237e-01 5.018300371891942779e-01 5.121027438213858751e-01 3.482814872386650329e-01 8.608436832913142212e-01 1.143511326652024485e+00 5.567635616642210294e-01 5.208649833093992321e-01 5.934300534769697544e-01 5.462891564524609000e-01 4.843794754986663342e-01 5.142342995588168320e-01 9.996786867771836338e-01 7.395929150902795790e-01 -4.378688397320346093e-01 4.324891689816521279e-01 9.249931985139960844e-01 4.753532074596232282e-01 1.802473546574081403e-02 5.347474928742740330e-01 1.023399109071968516e+00 -1.386854933213998997e-01 4.774000767754826846e-01 2.621074597740807866e-01 5.188891368351216116e-01 7.750595581316910287e-01 5.114904222660956457e-01 3.636230548269319129e-01 1.377351812640049245e+00 5.701081577118970456e-01 5.066842752993978571e-01 -5.602887623926764427e-01 4.743833350770728652e-01 1.046265848172955204e+00 5.617539442533571181e-01 1.399852646379817489e-01 9.142341859724172348e-01 -8.489083486517094712e-02 4.431477840875890362e-01 1.545153741704285766e+00 -8.383193905790706779e-01 4.869519856094875476e-01 5.118283528141607253e-01 -4.104431997969901769e-01 3.834987838483603917e-01 4.971954759668023582e-01 4.515666015816958145e-01 5.378586811178057703e-01 3.328522727147850691e-01 2.653108817918993223e-01 3.568580974985456344e-01 4.906104388006724548e-01 5.028578292925928173e-01 -8.567241221449886819e-04 2.152346594797599488e-03 5.115992127690711655e-01 1.052548660039765327e+00 3.445955742647218711e-01 -5.502872689654109140e-01 5.184421450689679078e-01 5.159255754982390307e-01 4.415395534629418250e-01 1.030773585557930375e-02 3.574507471129505509e-01 5.119780939872716763e-01 5.299095134362874493e-01 4.615238322739806942e-01 5.189819254642481089e-02 4.851643374106403561e-01 4.894216038792238432e-01 6.729222334083300172e-01 2.039562274118817520e+00 4.857222930701711461e-02 3.774287514514546027e-01 5.268926727125761156e-01 1.782628662722308688e+00 4.623677861926637211e-01 5.910580715902491455e-01 1.655271879390412398e-02 5.203499952910659587e-01 5.278407139663556791e-01 4.637708775462277000e-01 3.924285795693647771e-01 4.976479879220108149e-01 5.564776638443480472e-01 5.023792844473681241e-01 -4.740751361451206458e-01 5.223128921810983316e-01 5.153657758013715506e-01 5.447108785548547827e-01 8.095534888321505029e-01 5.106773195847704727e-01 -2.322446071743876350e-01 9.976939590243082412e-01 -1.165538729280693575e+00 -4.805086742709899772e-01 4.903209326579169303e-01 5.202457102217510343e-01 6.467753485383099799e-01 5.138706851850599611e-01 3.214890316849930429e-01 6.512640451622051518e-01 5.203499893247697239e-01 5.131805779919453858e-01 6.304359368417364884e-01 5.518483762250416813e-01 5.191172580254620472e-01 2.745606199205767872e-01 4.813021097458073383e-01 4.343014141917982407e-01 3.396212759333432363e-01 5.080528412607352440e-01 5.179608615737496535e-01 5.082195750029181447e-01 6.149897277676912299e-01 5.082298460292190567e-01 6.086760025018985720e-01 4.571643744844725021e-01 5.075066576146676223e-01 5.511177532924927958e-01 2.930344922175667777e-01 5.150642568373883234e-01 2.299834491068525111e+00 6.143860432298740015e-01 5.269542619736850009e-01 3.631534877267605932e-01 5.476969001479221610e-01 1.096395624400898772e+00 6.221378587247350378e-01 7.258539447157601465e-01 5.147074487838123602e-01
6.974019843818421993e-01 2.389605671211331162e-01 3.850535672335856363e-01 1.003790173680610132e-01 3.183925466729698450e-01 2.564626692220352000e-01 5.177028352735146832e-01 4.750223781784885246e-01 2.353356143848862603e-01 3.042939369182942611e-01 1.993065895740840476e+00 1.673435394171538082e+00 -1.378876874221890203e+00 6.091809987033089957e-01 3.213413068483684243e-01 3.155218098188919962e-01 1.280346240342032371e-01 4.092925755941542176e-01 4.454309294003924169e-01 3.087990024185907623e-01 4.611755132986721240e-01 2.039129731288639391e+00 4.051430352643993205e-01 2.968750654699961466e-01 6.761412807644413547e-01 -3.045093523776281619e-01 4.860415841073467136e-01 3.339443061059183537e-01 3.131028940684689732e-01 -7.862535078277962386e-01 2.178513148205594996e-01 -5.340134643327586195e-02 2.907068909468517037e-01 3.181538637285537541e-01 -4.320919230926016374e-01 3.390634883831342705e-01 3.190084266262557811e-01 -2.896143734975892836e-01 -3.103320902031077466e+00 3.220533413214864416e-01 1.060408216545775106e+00 1.353792596591700814e-01 -1.592905560205643556e-01 7.903867713151897512e-01 6.951202373860997374e-01 2.803513552117483099e-01 1.003282047054467052e-01 3.183114613448240204e-01 3.389840381578295148e-01 7.563099958237217146e-01 7.208894438949408068e-01 4.154299410254416736e-01 -3.347646064270249355e-01 1.990145414764560305e-01 5.996459396359747895e-01 7.416904320720710819e-01 2.600619320782200372e-01 3.173215988028042500e-01 3.496874284647193964e-01 2.891023948750761630e-01 4.181955255649768000e-01 2.599854207939994999e-01 3.382719384665736628e-01 4.051430178406877913e-01 -3.412582072401652011e-01 2.985000160441156347e-01 3.229169714983557982e-01 3.561021328512637418e-01 3.607895789468997805e-01 7.229734362768803768e-01 1.347111376281645845e-01 3.701424924990483478e-01 3.096398010289713176e-01 6.919531041286025586e-01 1.859821339000516049e+00 5.405959525386171416e-01 4.603869564089608790e-01 4.752025570460240433e-01 3.075799196219912157e-01 -1.291516661131087318e+00 2.695356842055507962e-01 6.877053759639102370e-01 2.170005294255918038e+00 1.831742215055927048e-01 3.073186744147909932e-01 -4.638167476598733519e-01 1.034078400126551001e-01 3.032720698389707592e-01 -5.599592677694807952e-01 -8.360445772934785857e-01 6.957035119824777070e-01 1.506330080676589578e+00 1.593023501565614675e-01 7.243803429066392185e-01 3.468423411344340734e-01 2.634854491277916488e-01 3.517544423772885898e-01 6.881121037305119037e-01 7.401334042421071624e-01 -2.979311177210894335e-01 -1.552617847839590781e-01 6.070555105595012990e-02 3.031269861295694534e-01 2.208520629516734501e-01 5.994501944608268684e-02 2.967646908528109861e+00 -2.675787792092239048e-01 -2.867892207488778600e-02 3.173268543933649433e-01 8.024412787979398054e-01 2.238130657903970588e-01 2.660422362054413181e-01 1.825274857531893891e-01 5.037254464470891646e-01 -5.038275494651672792e-01 2.496021597634221489e-01 4.385309415795371479e-01 2.691751416584214351e-01 8.435789274859741838e-01 2.884982286273481411e-01 -1.400362807072001115e+00 3.386634739228470692e-01 3.689651854827448729e-01 1.192634940108213470e+00 3.421498268548922028e-01 2.089938175025795264e+00 1.376971464703521941e-01 3.756009919262979779e-01 2.838377160796243248e-01 2.951679737433983153e-01 2.230733568075169704e-01 3.027284232705126366e-01 6.612511805084435590e-01 3.761327348003874471e-01 1.976852362695708520e-01 9.030105095774259016e-01 6.697566699375155919e-01 7.277930154866724122e-01 -3.208251412647437628e-01 1.918098917747564636e-01 2.750716220399246348e-01 3.208901815241215760e-01 1.685564255571287973e-01 3.610286918243308385e-01 2.948830226019596434e-01 7.130644752788155571e-01 -6.914609715369413045e-02 3.172834926820156665e-01 4.125429852126170638e-01 3.899523197760390025e-01 -3.271530507664071608e-01 1.767984539275066491e-02 2.803472689523788253e-01 3.298682646262042772e-01 4.085645029711241771e-01 3.140739393291639425e-01 -2.084313752430184241e+00 4.307266450990553386e-01 -5.691929367946604312e-01 -2.974318064077296486e-01 4.335353422682246549e-01 1.342721378525705278e-01 2.688807607544040357e-01 2.959061545445526575e-01 9.664434712869231225e-02 3.012133950088783513e-02 3.128872550020910803e-01 3.208892655888606615e-01 2.105093913053522614e-01 3.750676791416881484e-01 2.318058768416617343e-01 1.013886959452897918e-01 2.803217253393518460e-01 3.188052468646567772e-01 -2.414775241154397012e+00 7.162430237213336381e-01 6.644191359158193588e-01 1.002412797271560629e+00 -4.462664294648766572e-01 1.162962382916220561e+00 -4.022876753503239200e-02 3.258271131619753236e-01 1.212820697220126975e+00 2.258712770374383672e-01 2.998350514156318258e-01 2.580323110656819185e-01 3.148563745234908007e-01 3.462246689797133792e-01 -4.307274531412922380e-01 4.170058849018065672e-01 1.486794689145382597e-01 7.877290150854961981e-01 3.347290115983332925e-01 2.050625859571901244e-01 2.069311301616990895e-01 2.925378973343241151e-01 -1.558572541527114552e+00 3.221401851408861594e-01 1.271235648210216895e-01 3.292224962024393187e-01 2.029269189095651571e-01 3.292606919382760622e-01 3.643234900862786785e-01 1.153718961067329296e-01 -8.260430392419964019e-01 1.271235681128722872e-01 4.182547987969147951e-01 -4.896511241661908875e-01 2.619501998493845019e-01 1.517491004938769095e-01 2.855703758476528797e-01 -3.098626058502135017e+00 3.976312334171587248e-01 9.465054055963624258e-01 3.111900383167851003e-01 2.874747545161843165e-01 3.253585138515914243e-01 2.951551511352643598e-01 2.906939692369548411e-01 2.995195593423212732e-01 2.949336918679918984e-01 2.967291133062449071e-01 6.478586253449739596e-01 2.146807284290824513e-01 5.410671007011008671e-01 3.933111799198228398e-01 3.647539467517228462e-01 -5.889309149685086897e-01 2.174026196368204822e+00 3.566302249796651225e-01 1.211774928275182184e+00 -1.360725545802828007e+00 3.035942049068695581e-01 2.033138654323882466e-01 3.366629660735032670e-01 1.108645261722872588e+00 4.053295202808323561e-01 7.650649195421208582e-01 2.720119704401225968e-01 6.698935841634660049e-01 3.983648359870016753e-01 3.565857785114981970e-01 -1.116575702148968618e+00 2.598272847633473215e-01 3.031987435918928053e-01 4.118236344012869976e-01 9.396228755758361251e-01 -3.050568018345017340e-01 2.980197401873657004e+00 3.940970664507492671e-01 1.157271338263009319e+00 3.228777336192195646e-02 3.182972738903497301e-01 4.051428177582839796e-01 2.867434262174156645e-01 3.204301308556900540e-01 3.070737686112585130e-01 -3.110436433851778565e-02 2.171138294183759809e-01 5.590442740813217348e-01 3.130931059034980923e-01 9.125744365168192429e-02 3.153781920549085238e-01 2.358703198641773913e-01 4.181955239879768249e-01 2.834126854499872672e-01 3.072689551099765382e+00 3.788744729349307616e-01 6.584846070128450579e-01 5.392888278138796565e-01 3.782268081731914866e-01 4.174312773442873103e-01 2.889685677431541033e-01 3.471831944442104745e-01 3.071740864182810338e-01 -4.329339310829758980e-01 4.974737580812519377e-01 2.856313834592689171e-01 1.035134228352446867e-01 2.027850175743665662e-01 1.484994714286116624e+00 2.219655887727619015e-01 2.547766991687592797e-01 1.956005365591792611e+00 4.787829083731678370e-01 4.122253611553982067e-01 3.006061696164903929e-01 3.193474270309380469e-01 2.496021607264549136e-01 -2.018557383564902441e+00 3.017761486085462352e-01 1.391297433540449768e+00 6.962771219299945802e-02 1.238677513072425906e-01 7.223994112818804547e-01 2.406120229967613489e-01 -6.977863093065489464e-01 4.642490327207573486e-01 2.948411243715748364e-01 4.124990405444556862e-01 -3.610392338306600557e-01 3.433783310816425072e-01 -1.972112008409569350e+00 1.016585767492246273e-01 3.039498505490746405e-01 6.121457401693967126e-01 3.105780737579288964e-01 2.995443590573700909e-01 3.872736230152432624e-01 2.632145775674014643e-01 -1.414610599745724506e-01 -7.358895505301991102e-01 1.176019560208273716e-02 6.676476873063430517e-01 3.142687773209267288e-01 4.391209933236249752e-01 3.126892777251345512e-01 1.016404221407792435e-01 3.362396599429514632e-01 2.348469430707346373e+00 7.034289486527475210e-01 2.461199408867374983e-01 -1.098312592283719802e+00 2.621125520407335818e-01 4.442452599228555954e+00 3.068384977306457539e-01 -5.342824293680485670e-02 5.654981888794934353e-01 -5.322347672660229456e+00 4.813098445553952165e-01 1.473745032162068203e+00 2.908965566113006496e-01 5.514185993336641056e-01 -4.191834649074108743e-01 2.718743379350651024e-01 2.296593812990618821e-01 3.802368465146547249e-01 2.768791895832020122e-01 2.781194213174179364e+00 -3.490973215823862108e-01 2.349264754964707214e-01 -1.861994011764598334e+00 3.261693972563388111e-01 -2.896143719593091692e-01 7.266388891286845730e-01 5.720808301261122164e-01 4.042563990291498377e-01 3.804850010134062654e-01 1.298066682192731358e+00 1.292229348732156224e-01 1.271235629569283099e-01 2.598208043225552211e-01 1.153718987194920081e-01 2.112706598654654211e-01 4.031064592167022398e-01 -5.804389966601113393e-01 3.084738090643692199e-01 4.997714788895173399e-01 3.444458590632587525e-01 1.975535465896674781e-01 3.234697853607281792e-01 3.627683722281951351e-01 5.720808300042284911e-01 2.615289087566005088e-01 3.019435991444669454e-01 2.286923839632819533e-01 4.921927412386489786e-01 3.185584178346234641e+00 2.537368815863689786e-01 2.079154015068577221e-01 4.181958354520972088e-01 8.644639918597342154e-01 4.575001051638841743e-01 -1.803322714287832473e-01 7.143751999112191164e-01 2.062840571003847490e-01 1.080730108163712178e-01 3.688895676146809466e-01 6.227577033356419545e-01 6.945220828535667579e-01 7.570040097040949822e-01 7.966770847603884542e-01 3.900409723832254927e-01 1.153718960038251362e-01 1.153717542032763055e-01 3.773369066596666821e-01 8.212632767357340435e-02 1.119859165694979009e+00 4.263004363814910103e-01 3.106036891975207936e-01 4.236813662698600269e-01 3.234687780867831486e-01 8.045967066121290090e-01 1.271230145676266465e-01 3.050538385383866347e-01 4.016129915273468076e-01 3.589161636203813122e-01 -6.223292349807401092e-01 3.254840469395095526e-01 3.106487654409645360e-01 3.226704020652434446e-01 7.105939968383730987e-01 7.533979611187006098e-01 1.153718986644137467e-01 -3.754552182139311856e-03 3.189564207672120344e-01 2.813798475968065649e-01 -5.858306131679372752e-01 2.606087546064865257e-01 -3.353356236561716663e+00 1.825316532302530881e+00 5.890546320074724340e-01 -4.108775375705914223e-01 1.001586643663234244e-01 1.987631261866817711e+00 2.999225964241994391e-01 6.177171066761480978e-01 1.382233953388710967e-01 2.214180289586095696e-01 4.857433134458137847e-01 3.071230352285528320e-01 -3.306431079995027500e-01 3.636360260972015257e-01 1.979228670420895453e+00 3.205690442578112975e-01 -3.542071388229218187e-01 2.046251304490316059e-01 3.276182797744563446e-01 -1.409904528824161840e+00 2.698107347251437749e-01 1.838602106972631878e-01 4.021497156502921722e-01 3.007871205131630865e-01 3.022480904357050524e-01 2.736125229568799888e-01 2.794986277933063090e-01 -1.590590802865617381e-01 3.133723332931865335e-01 2.146916533897105239e-01 3.534635360439021268e-01 2.484045318585816620e-01 5.363688250313170675e-02 4.807551602825826387e-01 6.843409874280833582e-01 -1.306046217513316066e+00 -3.800042657645845146e-01 -9.550616133172924738e-02 -4.100098270019537916e-03 3.874794297764071471e-01 4.172115042084331704e-01 3.612165743725866407e-01 6.892828332298475136e-01 -5.608725747136140971e-02 3.176091042983689716e-01 3.257511438541541016e-01 9.040991290946082115e-02 -1.589635803443620043e-01 2.881796290324616372e-01 3.888466055018975354e-01 4.771101778152704864e-01 3.341699126826032651e-01 3.307533372138005690e-01 2.920051735443326413e-01 2.682528240272129549e-01 3.162335877872775591e-01 5.233110496181787585e-01 3.906531580238401524e-01 3.069475842032685087e-01 7.139518466250814877e-01 2.609639968185141212e-01 6.862165420472481348e-01 1.847797795656000441e-01 4.210697054002008333e-01 2.310345680526884604e-01 -1.409865407298864559e+00 3.386665044158262972e-01 6.239505719311410070e-01 4.117693397726920890e-01 2.454797126560719078e-01 2.994923529923567140e-01 4.109674152228838806e-01 7.314453206388864537e-01 3.026345564777379593e-01 3.237470833398734538e-01 3.035646892710615607e-01 3.162026545989705673e-01 2.445882265070491168e-01 5.408995293443038532e-01 3.330233100390728729e-01 3.327640571213684173e-01 3.252042733913333983e-01 2.121656337528982431e-02 1.569165886919980935e+00 4.121990302783947180e-01 3.752210917550524161e-01 3.631644938452398552e-01 -7.927391188157352220e-01 4.604346421684136770e-01 4.021227367512584250e-01 5.847114617266708780e-01 6.908264572128888781e-02 3.492729211063816397e-01 1.381414018671866639e+00 8.803313666096996837e-01 3.313780539969052863e-01 2.921820563082059286e-01 4.090721999277820431e-01 3.022100226716876725e-01 8.913168794357348990e-01 2.913124657634694525e+00 3.139286860952176794e-01 9.625581055090345894e-02 6.001121854766922059e-01 -1.188579372726146915e-01 3.133853316836133218e-01 3.055406671535409457e-01 1.030336978661683833e+00 3.227252444838835110e-01 -2.829807927602505102e-01 3.562858843712263801e-01 1.016461064644952061e-01 6.778491953987020313e-01 1.576639085988264632e+00 3.638270386115749488e-01 2.167455098128928115e-01 1.623786992135797025e+00 4.282299028712766020e-01 3.006513020238893441e-01 3.624346980034977017e-01 4.374206774881886917e-01 1.010946272964710624e-01 2.835301900708144807e-01 2.287893048137485397e-01 6.881306726440501453e-01 4.237788705069347461e-01 3.941828891444463245e-01 2.951201273851459250e-01 4.291683088293449244e-01 2.514428631551390847e-01 2.458233865362791648e-01 9.435776425480325580e-01 4.915060898029666170e-01 2.851884877224745152e-01 2.881473991852632754e-01 3.322932705454500479e-01 3.278233383400173673e-01 5.771576459064987619e-01 7.545847309994523355e-01 2.505883574964016813e-01 2.582994798962613414e-01 2.798143928486981347e-01 3.043368298796972349e-01 7.574535052533389878e-01 2.024761668409939264e-01 4.107648633168210495e-01 -3.148862966192817470e-01 3.040725492344056313e-01 1.739338755934448921e-01 3.786325760217387759e-01 3.119755088162308732e-01 2.868862001007294049e-01 1.694500401636734654e+00 2.274943650971891218e-01 3.055341743300517554e-01 -9.959414454198588229e-02 1.542354172708989779e+00 1.120922357460524266e+00 1.337754573184220530e-01 -4.688900392151247876e-01 1.713752399816696748e-01 2.217360916649741276e-01 4.988630991162849027e-01 3.088405700923399499e-01 2.962452232650820694e-01 2.589268499549217672e-01 2.733761565407288874e-01 2.891151582077600701e-01 1.009868681487400832e-01 -1.224519591872631624e-01 3.756446825001635292e-01 4.374051532668451481e-01 1.650860591410833189e-01 8.401120272510200770e-01 4.181955216277957188e-01 2.143057516270506502e-01 7.939311664212331809e-01 4.765288996043508529e-01 6.954822341703059685e-01 3.477376901513945517e-01 6.767397642765463628e-01 1.441271176947453325e+00 2.878680404240616664e-01 1.976462372310632043e+00 9.258279035578881322e-03 1.219500469726487041e-01 3.194510269031435867e-01 3.025862512819984529e-01 2.827417793245586841e-01 3.750703560748869236e-01 2.854813856447374065e-01 3.192866726541702671e-01 3.429078018865721056e-01 1.892496340264836763e-01 -2.348607610922360811e-01 3.423960512815771295e-01 -6.966008272626904307e-02 2.351548177485532909e-01 4.124201221413628660e-01 4.181955215652521929e-01 1.844782991708935893e-01 3.523345920336544701e-01 -1.118434954327613751e+00 1.884711233607198277e+00 2.993351696249317850e-01 -6.485955242328482750e-01 2.987666425354166821e-01 3.231470083447414154e-01 3.148518601617586454e-01 -4.548501080935285046e+00 3.389476109602806542e+00 6.086784159934190974e-01 1.750091786582199105e-01 3.756793732871354652e-01 2.982961178113133771e-01 3.759714219194093543e-01 2.507833906043050565e+00 6.039290784280381130e-01 3.223855053788072800e-01 2.496021776982436657e-01 2.111124943779025820e-01 3.056984299916607473e-01 8.852567529206261110e-01 -3.815004552898505485e-01 -1.080225162628832170e+00 -1.147208274656609905e+00 3.334772336463897036e-01 3.068878408895790999e-01 6.823863564261289927e-01 2.877196409135212574e-01 1.132790966803096433e+00 4.442113788869054281e-01 3.019747646068848823e-01 3.846395003551210112e-01 2.909646193069383990e-01 2.888048299126426133e-01 2.358051410444272911e-01 6.555510854687766065e-01 3.208678219830637945e-01 5.977480786330073848e-01 2.043510943556410275e-01 9.392599929501792982e-03 2.354141638967786054e-01 3.100862791577361222e-01 2.952604001772385911e-01 4.041770310104395025e-01 7.474630176354084554e-01 5.720808365620374536e-01 5.260855700942719260e-01 3.873338289147289504e-01 3.267813483673097652e-01 2.432963499999917789e-01 1.381402586609630445e+00 1.750978765287371619e+00 2.366225653593043432e-01 2.736882696946009719e-01 3.181329692614537907e-01 2.586354864986268320e-01 2.498891372511963804e-01 1.699808761316587147e-01 3.113419196655622390e-01 3.164400025739520506e-01 7.743344723033311894e-01 8.439229440635148682e-01 3.080512034066096305e-01 1.794454342945362324e+00 1.246356088788994204e-01 -7.193195855820841422e-02 -2.629561577944716233e-01 -3.346844470133157889e-01 3.186814829329108201e-01 3.039455680625418044e-01 7.002379028687117923e-01 3.176316899772032576e-01 4.206066001776849750e-01 3.405722984321650215e-01 3.798551011024886570e-01 3.848515193329178352e-01 1.199280431025820104e-01 1.022382690502166902e+00 3.059457696081194222e-01 5.357259589309785186e-01 3.102820619930401480e-01 3.075041034503813164e-01 3.337253835720948580e-01 3.809289099629475372e-01 -1.421504922800344850e-01 2.245547863378542508e-01 3.420898401834019942e-01 1.000583184312470453e-01 4.181951618929973802e-01 1.132069786230781361e+00 9.236900038350274178e-01 -7.467786247809420352e-01 -2.896143735096297078e-01 6.136731399176243995e-01 -3.168502802879241020e+00 1.533588747096380711e+00 3.298592279898053259e-01 9.927696919653829222e-02 3.132083379911741461e-01 8.453349846472434370e-01 3.113961484037927607e-01 2.598269360251801441e-01 -4.321185935629361374e-01 8.291020909491785273e-01 2.993383485258226950e-01 8.937690684488214243e-01 2.019352412605439628e+00 -3.813178358627633546e-01 -1.398107151028918249e+00 3.219564577107111858e-01 1.925691677399558877e-01 7.966988444508128486e-01 3.202117133840787777e-01 6.965710849128132764e-01 4.686288728685185090e-01 9.818865971332027542e-02 2.930660016595943995e-01 2.859638212278003411e-01 2.560362230297242858e-01 3.947074253620255213e-01 1.336544254716156344e+00 1.530245150061746218e+00 3.138250289457800157e-01 3.184755411449782248e-01 -4.888868885514896512e-02 -2.217920590177025197e-01 1.863684016744887040e-01 7.265772406047869836e-02 3.299689002893445577e-01 6.979917651696466718e-01 -3.293764364343407802e-01 3.600466626882020127e-01 2.756382943513736028e-01 1.813722413934751865e-01 2.942014047357641715e-01 3.304738864877498905e-01 3.297692927817259534e-01 2.945298446710680751e-01 -6.017467887416352162e-02 2.242835367138422131e-01 4.468437104308325414e-01 1.080092352033657388e+00 1.086986889171022597e+00 9.466053719939295785e-01 2.120448849634272992e-01 7.399875886370035349e-01 1.004204766476501642e-01 4.246943125146752096e-01 -1.971102018844071768e+00 3.372752608332139634e-01 6.420934109221984043e-01 3.848731952336822415e-01 9.591169653517803706e-01 1.334283330084892194e+00 2.496021604279466399e-01 3.368560130441547451e-01 3.694746843333744368e-01 1.302110302863464242e-01 5.638960999452067302e-01 6.944869146611116761e-01 -6.987420433088737948e-01 1.494811458619613176e-01 2.046924400434746438e-01 3.388467613551096047e-01 3.457789573997013810e-01 7.560923988024945697e-01 -7.001691453566541434e-02 3.728973760502978796e-01 3.104863975558439515e-01 2.357914075110065510e-01 8.798677071567572172e-01 4.136494563311100547e-01 -1.946858356056539452e-01 8.582916848360153672e-01 -2.964197483779076880e-02 5.627388624962518238e-01 3.034711589599756731e-01 1.255894303990893190e+00 4.888821987924003021e-01 6.899536863406307008e-01 4.228900826258567558e-01 4.551577193875818717e-01 -4.617369387801489311e-01 3.151131957097959013e-01 7.566768386361512055e-01 3.217646741858939952e-01 6.676096190633559191e-01 3.513708624764074195e-01 3.140944774304625375e-01 7.318554920213339310e-01 9.942222706861830739e-02 -1.976167023220195329e+00 3.885397623844034087e-01 3.585746864434974368e-01 6.101001525333770159e-01 2.896186227154920467e-01 3.359506066345896436e-01 2.275757629107297841e-01 2.446691227546534120e-01 3.390750356152561484e-01 -8.258671348261364606e-03 -1.587579888043461285e+00 7.299349732448290329e-01 2.814847669285253096e-01 3.085935129284261835e-01 1.760494373336950191e-01 8.234597934254518359e-01 3.017282606176294180e-01 -1.075167780960669256e-01 2.998593632246928098e-01 1.105473719846895353e+00 3.081625437393476497e-01 4.132731416358523813e-01 1.072465234532597345e+00 2.474662874223990672e-01 2.614718566785029008e+00 2.607134502148061861e-01 3.035064030015438008e-01 7.022389895357291634e-01 3.080003126962903570e-01 2.642849574302260640e-01 -1.914452228443501491e+00 2.828301632049170511e-01 2.788213791988297663e-01 5.070747253163234713e-01 3.366075573797293052e-01 4.371158025670555114e-01 -3.053360092645466262e-01 1.973609858608254219e+00 -5.201648914337378971e-01 8.193720964530037953e-01 3.003113252603699102e-01 4.377011029045432267e-01 6.911349352314758443e-01 3.004987775973335662e-01 1.291782083989642782e+00 1.221806370118139334e-01 2.559708829029762600e-01 -8.678894591383559121e-01 -1.100639819237937411e-01 -6.030430974010370093e-02 -3.651398718208942462e+00 2.819011075724684900e+00 1.425164754492565244e-01 2.439590501459323046e-01 -1.525620924950177093e+00 2.945100190913849669e-01 1.013409133599012385e-01 2.956090163669830018e-01 1.142228858333122488e-01 6.336886661908240903e-01 5.824189582347965022e-01 9.092005163148484392e-01 -2.896143735862473090e-01 -1.954292445986045013e-01 2.186226514959486167e-01 -1.153230281593826234e+00 3.124755299224001859e-01 -6.097366133434177771e-01 2.862870762150235282e-01 4.990792650900035543e-01 1.823764135493537511e-02 3.886354685140891996e-01 2.803368458180636180e-01 -1.440558099832067451e-01 2.314734483575166535e-01 3.162858173020072217e-01 2.862374704276748894e-01 3.194313240973812307e-01 3.086547822053626877e-01 -7.470282498795032256e-01 6.175589645586249121e-01 1.509850065657702967e+00 4.329525647330165899e-02 2.461451797147190534e-01 3.821722707701356025e-01 1.219921244883728217e+00 2.765279451074151851e-01 2.039627857498489683e-01 8.987296062113079298e-01 3.569687310225012067e-01 1.786973971842498177e+00 4.072419576006300890e-01 1.066430551135592264e+00 2.993664519941410251e-01 7.356382305523866405e-01 1.329576943100615027e+00 3.441699908677722797e-01 3.588726999046947808e-01 8.762804792823645217e-01 -1.708854704994490770e-01 -3.704734308058393877e-02 9.828336087544549404e-02 2.907144439611487607e-01 3.317370935368916807e-01 1.399302944606707066e-01 3.438878412644171823e-01 -3.220536389519322307e-01 1.291884302930885076e+00 3.580835663083109521e-01 3.145104507702510266e-01 -2.979883698755433130e+00 4.108445790159556688e-01 4.098536192949175927e-01 4.827356083358831373e-01 4.098345814287387423e-01 5.140959406618147431e-01 -9.793462750089831914e-01 5.499785964695377283e-01 3.531378215239348584e-01 3.207718578526961850e-01 1.062536404546520208e+00 4.268805776806891550e-01 3.167460020522303021e-01 -1.355145976003819364e+00 4.962132712925636513e-01 8.797581285780493587e-01 2.715377069205229255e-01 3.113629643023113625e-01 2.182386187749609796e-01 7.019438532515962503e-01 -9.947184142646456340e-02 3.186244030163800089e-01 2.928956897462026698e-01 5.925236263739672854e-02 7.477832050317487766e-01 3.281679979001717595e-01 7.598492979757460741e-01 1.975988512373370865e-01 6.785268738307039804e-01 -1.770297994231244954e-01 -1.490901983676322873e+00 2.948621183876312113e-01 -1.037072758818572207e-02 3.308049130070450650e-01 2.468701805644812064e-01 6.191257512926832268e-02 5.720808333830300629e-01 2.926983496420678121e-01 9.522721966708204422e-02 4.503771841674074072e-01 3.767779915221103337e-01 2.473968574374230123e-01 3.094946765554273949e-01 -7.641037623573889714e-01 2.888776735244998894e-01 2.318162955306905526e-01 3.515228377104402946e-01 5.938496898699333060e-02 3.138035911141255352e-01 7.634720586384415864e-01 -4.061049843168214601e-01 1.056349385952106035e+00 5.889859376295714100e-01 3.816865800242511542e-01 2.970286052483931405e-01 -1.983315563025451089e+00 3.096112583625159065e-01 1.761198855650903394e-01 2.048072334832175545e-01 5.720808405590709356e-01 3.002712809908544278e-01 2.661189346518226251e-01 1.986897260112164831e-01 3.015349373655873411e-01 4.296996289944560177e-01 4.193653483603351773e-01 4.040577514101763579e-01 3.168625830129359056e-01 3.017137143038570168e-01 3.004966134479674644e-01 3.051003479557983789e-01 -3.282265951659046888e-02 3.123172411876707355e-01 5.333831247716894763e-01 2.664139715254638108e-01 2.705881995718685262e-01 -9.915253534569283544e-02 8.934665212363668285e-02 3.386532088283949471e-01 4.178856932709005712e+00 2.241517850104577936e-01 1.982458313533508043e-01 4.572915361591036176e-01 2.664461284323756396e-01 1.501672930342181189e+00 2.332034038789492503e-01 6.768441855832166842e-01 3.107580139194930369e-01
