# # time,tag,mass,x,y,z,vx,vy,vz,ax,ay,az
# # s,,kg,m,m,m,m/s,m/s,m/s,m/s^2,m/s^2,m/s^2
# 
0.0
0.0
0.0
0.0
0.0
0.0
0.0
0.0
0.0
0.0
0.0
0.0
0.0
0.0
0.0
0.0
0.0
0.0
0.0
0.0
0.0
0.0
0.0
0.0
0.0
0.0
0.0
0.0
0.0
0.0
0.0
0.0
0.0
0.0
0.0
0.0
0.0
0.0
0.0
0.0
0.0
0.0
0.0
0.0
0.0
0.0
0.0
0.0
0.0
0.0
0.0
0.0
0.0
0.0
0.0
0.0
0.0
0.0
0.0
0.0
0.0
0.0
0.0
0.0
0.0
0.0
0.0
0.0
0.0
0.0
0.0
0.0
0.0
0.0
0.0
0.0
0.0
0.0
0.0
0.0
0.0
0.0
0.0
0.0
0.0
0.0
0.0
0.0
0.0
0.0
0.0
0.0
0.0
0.0
0.0
0.0
0.0
0.0
0.0
0.0
0.0
0.0
0.0
0.0
0.0
0.0
0.0
0.0
0.0
0.0
0.0
0.0
0.0
0.0
0.0
0.0
0.0
0.0
0.0
0.0
1.0
2.0
3.0
4.0
5.0
6.0
7.0
8.0
9.0
10.0
11.0
12.0
13.0
14.0
15.0
16.0
17.0
18.0
19.0
20.0
21.0
22.0
23.0
24.0
25.0
26.0
27.0
28.0
29.0
30.0
31.0
32.0
33.0
34.0
35.0
36.0
37.0
38.0
39.0
40.0
41.0
42.0
43.0
44.0
45.0
46.0
47.0
48.0
49.0
50.0
51.0
52.0
53.0
54.0
55.0
56.0
57.0
58.0
59.0
60.0
61.0
62.0
63.0
64.0
65.0
66.0
67.0
68.0
69.0
70.0
71.0
72.0
73.0
74.0
75.0
76.0
77.0
78.0
79.0
80.0
81.0
82.0
83.0
84.0
85.0
86.0
87.0
88.0
89.0
90.0
91.0
92.0
93.0
94.0
95.0
96.0
97.0
98.0
99.0
100.0
1.0
1.0
1.0
1.0
1.0
1.0
1.0
1.0
1.0
1.0
1.0
1.0
1.0
1.0
1.0
1.0
1.0
1.0
1.0
1.0
1.0
1.0
1.0
1.0
1.0
1.0
1.0
1.0
1.0
1.0
1.0
1.0
1.0
1.0
1.0
1.0
1.0
1.0
1.0
1.0
1.0
1.0
1.0
1.0
1.0
1.0
1.0
1.0
1.0
1.0
1.0
1.0
1.0
1.0
1.0
1.0
1.0
1.0
1.0
1.0
1.0
1.0
1.0
1.0
1.0
1.0
1.0
1.0
1.0
1.0
1.0
1.0
1.0
1.0
1.0
1.0
1.0
1.0
1.0
1.0
1.0
1.0
1.0
1.0
1.0
1.0
1.0
1.0
1.0
1.0
1.0
1.0
1.0
1.0
1.0
1.0
1.0
1.0
1.0
1.0
1.0
1.0
1.0
1.0
1.0
1.0
1.0
1.0
1.0
1.0
1.0
1.0
1.0
1.0
1.0
1.0
1.0
1.0
1.0
1.0
0.4174253364645807
0.6984655933303628
0.9081496956835121
0.5682113600453811
0.07749829258591334
0.17279462528201672
0.2886646489112986
0.6397969437116292
0.024155807449408484
0.6111522265519778
0.3194396288771877
0.6309450815531804
0.9090842195940677
0.5812604900793875
0.8236814851179747
0.6811190144151301
0.1886030755641176
0.5903906679986693
0.5167534764597559
0.04867018044005822
0.6619630449780362
0.8134688317663615
0.3282741209285992
0.41012517452472197
0.9595391234263182
0.06461253441772441
0.240102908639641
0.835165062929525
0.24784004942947202
0.12359340646778028
0.26220548301803126
0.710658137640289
0.34456920844992
0.16928840403555379
0.7369354809621032
0.38437922985019135
0.26990775822182567
0.4362547828953971
0.8534199283243602
0.8656649312723206
0.57786510102904
0.19061320720221875
0.3147178077079922
0.20982946025202065
0.050731029561951746
0.4687053804355059
0.29199658798546213
0.47912031276241795
0.9868428893317501
0.6732088332844361
0.7218149603690585
0.06251210114754457
0.427243157553844
0.29431423460816364
0.382348389549806
0.17104454709179218
0.5704509402222971
0.031046891963213752
0.0732908235180817
0.3476333772907534
0.4626326161773504
0.16061418396329974
0.5955441317588903
0.9903234556219044
0.17638435688433873
0.885170623615917
0.5857995253545871
0.5198493649314342
0.6497819593302412
0.35280694671112256
0.9244813113822452
0.8153111865336313
0.2774098871396481
0.2927885854869252
0.2926443311619016
0.42799441648983627
0.6818092885701109
0.9775685124557607
0.2792334782747248
0.9133514193530916
0.5022408939919003
0.6151493065412286
0.28349557134058234
0.590735552734889
0.5058716241048042
0.8001673596548712
0.8567584312801546
0.4854854638238929
0.12648568629302703
0.7878219931392664
0.7792626345408286
0.6839939830347482
0.250863850427008
0.8665782977902217
0.7259473557677418
0.5775349842477238
0.6729180726185514
0.3888408466959249
0.2941663948127988
0.34883148388551677
0.7462357231824436
0.5117117639433025
0.40663697170285784
0.0839016388384467
0.11713028075663479
0.8669536237322228
0.7976203908329125
0.9273885134998251
0.13176271990174848
0.0607747682914177
0.686198650815313
0.2350137319973543
0.5844984245577648
0.7456723490669754
0.8778054365747151
0.8250060163435309
0.20596564388630667
0.8806789866929378
0.7114906262087866
0.8735103984233438
0.7229014170915655
0.879758011771583
0.6293665009082803
0.6234900953163642
0.6176693485459626
0.8842764740048639
0.696520312056371
0.03943855135208907
0.5734171076190319
0.6502820233200224
0.7151968352902697
0.532816748636272
0.899803220047787
0.19857998966117463
0.9497764919176103
0.12354185464925327
0.41246412027131785
0.5299232352575199
0.4544986853373931
0.018316942613212372
0.2072851204439109
0.7414213094078597
0.11588530881078463
0.40132141035671387
0.14297489236378724
0.8613728224024223
0.6801599478284391
0.41001483948328143
0.0042602541635038405
0.30789701050520735
0.09306683525517545
0.41445059711074606
0.4758077001331894
0.9308801350253614
0.05811417515900563
0.9969199430614982
0.6076568846936002
0.992976880276054
0.7296757522396298
0.5483571009524921
0.2542518798381881
0.14188896923960392
0.6824256240297083
0.7294259506983352
0.3344097908150093
0.4697973403689937
0.6647899269351389
0.718748077031266
0.9451329052492936
0.9467600363137786
0.8435670687092027
0.8429338710934586
0.4471686286900235
0.2543923021912523
0.6191439665171308
0.4963013741883009
0.7305359360425766
0.7016043565460592
0.49401792514646725
0.38400240362834814
0.05562373152909239
0.32058335162426077
0.832843648255383
0.9256576729847653
0.7063433847430708
0.7845160781303283
0.45551046229918346
0.15763001675937838
0.01926371654788317
0.775875534791684
0.06236081203505439
0.8825933277489957
0.27405444157336944
0.03311957766073781
0.5974681806007541
0.33706795777050913
0.0014538539957139607
0.8696334925346886
0.772801855420069
0.35177790765438244
0.059404821939511576
0.346579339641941
0.4124852899899837
0.4584663393524234
0.6956860609702409
0.2762538187598008
0.06887846089882887
0.47347396909367767
0.46766848307959996
0.16926217031933521
0.6088391300423361
0.9977675003883751
0.34218886924684455
0.4546244696524264
0.11002666682884377
0.9223514346832672
0.3553947578693841
0.969236481366974
0.9987007174558157
0.0980158121801139
0.46767888244366285
0.9731079386475635
0.08573623570249167
0.3174746275011092
0.7738571027133258
0.36688482182551485
0.7595659556992773
0.29382325117753016
0.2341945585520704
0.8012403887004299
0.6087430727017563
0.07124252078563587
0.14239698708539805
0.22957358918399895
0.7942456229923512
0.6427656166880219
0.3029627291061404
0.734536272594675
0.8046455968637808
0.07997415257555807
0.11877784544394976
0.6918325073521873
0.48756099078315107
0.39048956271199897
0.9708039334659803
0.9058698535561958
0.46231194977044743
0.8165072224691597
0.8115437173709562
0.8653190762061684
0.8854455805329083
0.8106139880143783
0.45287427197870145
0.9617327769536138
0.47052073091857904
0.13023816765038976
0.7584601801935017
0.46563580080211675
0.3080489533611199
0.6305477961931387
0.1643021411667791
0.34722763156602765
0.19778214613805534
0.9750243971779051
0.5447778681421216
0.3837764242181311
0.03331314124753337
0.7817598569806299
0.17334556087709463
0.7023225298255124
0.8811995233965844
0.5591548057577476
0.6313367242469237
0.7658076760242964
0.36754983410452147
0.5807447519668516
0.6008678349261765
0.7360727822917117
0.7389624794562256
0.9546409960661659
0.5864435807071117
0.04830411527462031
0.20286241074735412
0.03307177630477731
0.9014400921551868
0.22230773181719132
0.049543861105273534
0.7877303623980507
0.8426765693636646
0.22013763613927184
0.7549252674963485
0.7420503216840705
0.22498127191117245
0.11758783739504253
0.9222982297701905
0.9602827683403437
0.8659547950079384
0.5141663111729
0.34721686008731656
0.4839232838956795
0.2616942754548892
0.23496431405698381
0.19219551895052156
0.9531520514057711
0.8320650215997877
0.6959330604122577
0.0038050884938821694
0.1667329557619771
0.4264224036616915
0.04160154542233019
0.4358477340771678
0.4091934048861511
0.9879446498537182
0.07613951164867494
0.3027326718432698
0.4451284943573258
0.8520222553120373
0.949870560120965
0.6799479627369489
0.13347955900637876
0.15538864969471977
0.23695747147573765
0.14933939868919588
0.09856742311624755
0.8121079285162347
0.08587546566856818
0.6615871330685119
0.10201211983911018
0.9358901712185976
0.9221554562074147
0.005761950172850749
0.5629125122457089
0.7048537998829881
0.22993555203100835
0.7240184410802264
0.21180058314145855
0.8748581850226983
0.9363302785597154
0.02270221755299706
0.2232825611219641
0.11190023231419777
0.11912091348761644
0.5954939826662403
0.9232562992128985
0.1386168655186707
0.15969769161469105
0.10050665376185519
0.4576010952468784
0.6137314663930197
0.9792791071924837
0.21804176114988427
0.5515711613754595
0.9556162647652602
0.2039086585612231
0.16250905212987576
0.544270221838366
0.5534789044589853
0.15392776973103806
0.7673727732013514
0.065637213777755
0.9433569870222379
0.479966384265595
0.23303603638337822
0.8451982723307404
0.04823239110738797
0.08181762888399224
0.06713498105094806
0.1647794023827568
0.029652431119215228
0.39051684622562954
0.0625706779960773
0.8336324688586787
0.707151438965596
0.07977867537229855
0.2667328789669452
0.896917792198736
0.8922477385826066
0.9375021062325952
0.36873133349251264
0.7090642152350378
0.40220178630934444
0.3574057939337155
0.05176746822196665
0.7516411868385805
0.889789167464025
0.7935853664641962
0.909431492915559
0.15311714329251447
0.03955950980073131
0.4134569517227191
0.24402797392617948
0.9490718861114881
0.5662956976391615
0.6149978698417856
0.47242820694332843
0.6475224942477223
0.5886146291252066
0.27737032482360724
0.49097026487664075
0.7648224166763675
0.1601594816233023
0.19020977327999333
0.6046398986736814
0.9211875311635239
0.43883637215183
0.9077442607504331
0.5040448003108277
0.5518522586073344
0.6781483583281548
0.02781222893647639
0.12430869813870582
0.7161286728777994
0.29851135601927115
0.6059768849230049
0.8792792919573699
0.7893134175706596
0.7008653700516624
0.4435183459420351
0.07653082604700834
0.5585940918576492
0.0373096272502893
0.005012267667153236
0.29568113849841604
0.021178179733644997
0.8630318026640513
0.15199673106930756
0.9287156201421904
0.33282415555569544
0.549435490507733
0.8392558713106154
0.08780109493027621
0.22760772871763235
0.9775560956134751
0.5055002583009466
0.24315266331990049
0.205286793360268
0.9992183334754541
0.756879382254506
0.6602739079772529
0.7772322687632526
0.6605487359206947
0.71089944846411
0.30103647803903566
0.8990718358560655
0.683933077654699
0.2952643756990895
0.9338119422798303
0.06269344878446481
0.9650469253404534
0.9785864052381887
0.2318639065808873
0.9773083896628402
0.549789774898604
0.4805373248745589
0.7213221217713909
0.7836420113496684
0.5633276341934572
0.8419397985181855
0.49920167646596825
0.8145114915515606
0.34555628466313215
0.45906606846738807
0.06324305613357484
0.48540686053128
0.9954633617172469
0.6474789024250737
0.7666309449299283
0.020403466575965368
0.5568855665845439
0.9008524180016305
0.6015161095149992
0.18090466705967478
0.8770530284874062
0.8611525307243968
0.42289211184816644
0.41313631570172915
0.7332135788535787
0.32198782162019846
0.15967848455530254
0.15573730096367167
0.7414754173132232
0.24227297654550484
0.865845117290828
0.3216129912757537
0.1746320632994932
0.5160221808152132
0.5908597024582937
0.8847117868596032
0.8766805063377252
0.5830200262715365
0.3002912502444729
0.46704876905862847
0.06333220497561065
0.8424065183234272
0.46150454248788975
0.2226800471414686
0.274522266825989
0.017109939585587597
0.19421818069900376
0.18591358618826137
0.11857084163021803
0.7777071123923547
0.7388360235676897
0.4797565751269709
0.8108666126192869
0.2297542716022375
0.1704497989287702
0.48467303055439437
0.927290093147477
0.7448813985288146
0.8487725114122947
0.9960324084318627
0.554217019366147
0.10733912988575678
0.022663704413413588
0.37316467412799326
0.6445121172971052
0.6906314097600798
0.9381785433298813
0.4744055390412011
0.6673117657091238
0.02389286977621019
0.7685601759550985
0.569635874247752
0.9453827088743932
0.10094487979246025
0.8420454991217644
0.7123925555282433
0.3045167590146687
0.6622756408554127
0.14028645841017118
0.3110987775756028
0.009713392936584686
0.9489947985639408
0.5767295033362664
0.1360354981884757
0.8123685080686301
0.005694999256937172
0.8790877983620315
0.6801581723565807
0.6053855623816994
0.6082524687456584
0.6625872930761515
0.9162571770114203
0.8708670152935435
0.9866227095981993
0.10377304948436628
0.1857221949560518
0.9460475791865026
0.6655801036431541
0.7573324105295034
0.6002570941112828
0.92434779616901
0.7293381565455269
0.6703350974893
0.7990216556203352
0.3171487053238985
0.4700496536127191
0.750207099766913
0.1919568539328399
0.914791550780315
0.8665734596675905
0.804165386113179
0.4435657497462212
0.5401133197808026
0.0021728875300255357
0.4102324009496022
0.19069466527135226
0.6857019284595325
0.7371290092123516
0.1105917808690956
0.8009245209635634
0.16055690819671964
0.9947412904186022
0.025631725310868325
0.9255629041524829
0.829335692708381
0.8836879737552215
0.562108232077145
0.9787805776940861
0.9451603046815278
0.2872082169585405
0.8575674544127989
0.9823366633601568
0.4601431018528025
0.10589771832654915
0.08733673086499949
0.7492944718012658
0.21528960024582167
0.057663029747300865
0.21285514609259093
0.35094026990584604
0.4663159873595921
0.9473655861617947
0.5669332983667676
0.31162198922308215
0.8714252024383277
0.8047321335283094
0.43694077247004603
0.1330926801932052
0.1160129141775823
0.42473335506170484
0.5723719741807711
0.7792723679786205
0.86367399651912
0.10805377132253491
0.7395850201015717
0.5127066152074738
0.8358248564931035
0.20906488516835586
0.5486631540397893
0.2655572544391276
0.04538874158352224
0.7658234366919535
0.9353344536339155
0.6819539636869261
0.08175218037020948
0.2722897660223791
0.6615047145133359
0.8771496640661833
0.8760023912801281
0.2211963442562278
0.8075552300112394
0.9157565592092459
0.6087177091067913
0.7811487009364879
0.1764018368557536
0.39620197681920977
0.20798411446038012
0.9159297889721856
0.24546563708113045
0.6942039677550563
0.8506450577431931
0.33419842496931507
0.5934152479354187
0.17675457714570908
0.9494414365480719
0.9058066756677365
0.6206914422845875
0.0014785759427047296
0.5687724812076965
0.9111989569211337
0.8378658642152664
0.6960771603005813
0.5441068185288488
0.27819314067996403
0.14134518917888916
0.3371120394536078
0.8554387918629524
0.6978670331175143
0.26810435638774055
0.5953418030634124
0.09981925778955414
0.037811109156233424
0.5655215743765861
0.2896829844955878
0.3103409022806465
0.5217622825733759
0.013061889589244147
0.5389743852110428
0.6795018736596529
0.27912755065885575
0.5498865788609648
0.7381651365829344
0.23605205540483998
0.9816233229678577
0.14456889997118416
0.7661013713269358
0.8089959454848837
0.4860930435895834
0.22807998961196918
0.9534053566832159
0.055580515492392735
0.2540666964713044
0.6796483424710622
0.7888317415155424
0.9580970400942433
0.7723850897950116
0.1770741140808173
0.42868953348925176
0.22760634638854893
0.17713793085520624
0.21967051222042344
0.31252810375753104
0.8044618954730381
0.6850309229053905
0.9061804093028033
0.7067820653126731
0.9144251006816788
0.38438384454149066
0.7557812764005217
0.7421300816260443
0.7135666534141275
0.5879532085673437
0.001975767097918135
0.7097322915010704
0.29164829245040114
0.7858626610696794
0.25182215405534003
0.205655490662788
0.9168668009102572
0.3751485831029159
0.6889840838944267
0.3946569696422465
0.20533803923040495
0.9847198733464656
0.4681155114266131
0.06305749345891076
0.3963926582904277
0.2810204657348081
0.4609935065216727
0.7006454614283842
0.5816757859515106
0.8267289570017262
0.20876858846675772
0.7136123377268062
0.5821614682762937
0.6972467761850355
0.33033714177962104
0.15541092843162507
0.5647462686100607
0.5307901772285629
0.26706504209749193
0.9179885653354657
0.6922462655771926
0.5896996682035475
0.4333343591591331
0.052473705172014884
0.850092214202295
0.8812030894427786
0.2613248134247641
0.4380123222049124
0.954292202579637
0.4020966450390647
0.10791993909967579
0.6742407177468678
0.48693067977522186
0.08290202991771134
0.7967036782618525
0.204062164751864
0.03671611675685327
0.10072221927236114
0.39558202950340515
0.34096315471550076
0.10855985191917139
0.0389170042130631
0.4228350276103675
0.7789916338297004
0.8787219600754976
0.869316045597791
0.4650301410578007
0.4271127090783642
0.8350103778920016
0.8558813708015935
0.6949950446426605
0.7137486784725474
0.7198074401103443
0.20381062325447608
0.1904780578491616
0.6729287806377781
0.5507286439841175
0.5382979714108559
0.23214331160134893
0.8226692485521158
0.7485154652050592
0.9982131708823047
0.9769273495787582
0.9604266539282948
0.16523905771392422
0.4493022525508569
0.38807644939216634
0.16866665905577416
0.7077819571550936
0.2614103784308983
0.6388449090962671
0.620372852882254
0.11441339725571908
0.5642567935533603
0.04490949432442437
0.7045799610351857
0.5877866598933409
0.9065509235262829
0.569326761500216
0.8789346890122726
0.9751695437520944
0.5203077219983252
0.10797553074640964
0.9290231047681744
0.8361627284546019
0.2752523759162677
0.2514526062138829
0.22805766629263957
0.41999681198860883
0.8198258522333587
0.09894523021696133
0.6900749898446079
0.7730457507076862
0.08267924650336511
0.3716466056935994
0.0353969385305728
0.7002808589157871
0.7884126206799326
0.36243931808176955
0.23477325612132194
0.7102313720401027
0.9769517426276314
0.6447791457842885
0.6298146777763431
0.863625962812033
0.9586821247887504
0.864880298676035
0.8368727427344658
0.8596541090837213
0.31512918832274706
0.2979759362645815
0.6130396807635767
0.40573950416080595
0.14800998154842504
0.5216109718581202
0.11317250555068104
0.8848299836205156
0.619613105775752
0.5290200911583148
0.814077132092949
0.1931266312193871
0.3674327328154897
0.33699636645451714
0.720682790103011
0.7711837199204726
0.47118475208127786
0.028436013240780156
0.36433214191150476
0.5534742966490015
0.4305063195546769
0.33860626621995404
0.2712665766674618
0.2398235978241463
0.7802298727195127
0.3701341365940788
0.3891783580129442
0.7819622468277818
0.4079779120844004
0.6164460249870977
0.8970462362645163
0.037061026365129424
0.34393291895961775
0.27796839012555463
0.7786676950670077
0.6825898608713465
0.13144028208624492
0.7409167720378113
0.6600090588407631
0.9306472249513638
0.9523276253126517
0.8532720332124574
0.8688250454250296
0.4651797354216173
0.5718825687687688
0.1114837768774859
0.8594456423684403
0.9394623988152778
0.8309203613735059
0.8994278993876053
0.46764995534278964
0.16394726063562604
0.8610933609660799
0.9226877794934275
0.38666700095072193
0.16395738948806848
0.16872675860955355
0.15955931065529383
0.21596338801522574
0.1563131338728726
0.5284514580951624
0.5999060063469271
0.8720075467702703
0.8950450410572427
0.4748881584388659
0.8229388827574393
0.4708348446827223
0.28554755580311786
0.518432934879549
0.8846255496271037
0.37474809738350734
0.8006371869391161
0.18153659355138285
0.6358839633756282
0.47919262119832307
0.0344912286571184
0.7123430815127202
0.7080629841637708
0.944877047197428
0.027114768270092626
0.9828560360783134
0.8639790939509652
0.4188659747122351
0.5605993006058729
0.7700512004092432
0.09089703585306808
0.610804514854995
0.0528762065148809
0.5888074850564907
0.03888520774715298
0.7568494494430319
0.6481562502830597
0.6971832840870519
0.44654369678965256
0.4679933020496322
0.820007822405692
0.9007767650161705
0.9639006591056993
0.3081292429142952
0.43140422994353
0.8421213175762459
0.25943128864270604
0.28205190281096304
0.6219596624147463
0.0612917664023952
0.321472168743976
0.08174000609913445
0.4938664995417412
0.12210592454454572
0.5668567755651527
0.877565296966247
0.5710271425278721
0.01687657432958456
0.6763059885474373
0.6281644541050533
0.985414310042467
0.8509741006804087
0.2559003924838662
0.7680487209906881
0.9855252499238035
0.8499248375974958
0.9113342026656929
0.7299240593560018
0.058378684653353496
0.39797713706179816
0.6186793387192664
0.5839538215053055
0.8545999379159502
0.07535767712055164
0.4506484201814638
0.6889759353404024
0.26698084621247364
0.5370043977847846
0.009134186083659568
0.15048352679503085
0.9537883014274813
0.01115816029677752
0.9294836006526881
0.0870435562132924
0.5898856234034369
0.5716986191244638
0.8548034001552411
0.22746592940883092
0.413897564153773
0.43255800418512835
0.2857134559952509
0.7745616169925298
0.7990397644975259
0.6281692085685175
0.02606686789461954
0.6494963351998202
0.09400517374020056
0.7721814804919657
0.2998872899351325
0.5197809811085712
0.7697920968280894
0.901516516153456
0.9178722114869313
0.9340167235931753
0.3610980231699097
0.32044389307009546
0.3020878272815811
0.6505344191533535
0.11600268307029504
0.7135907703524207
0.27817195562812647
0.900047868939117
0.6613614323452337
0.10335227372341826
0.3318416145849561
0.5327988837053371
0.24661819892980175
0.19230317124530527
0.10923203969772499
0.7758702927448502
0.456547789167986
0.3530145369524871
0.5707326080577664
0.20022588868989133
0.9481280755930621
0.4262876350459437
0.05178268395855279
0.52395737915682
0.5096297973696817
0.914964637061389
0.812714191118504
0.034756609969440966
0.5591592830851203
0.4537907086237801
0.6352191306559832
0.6504655361486678
0.22370864762873743
0.424061457379588
0.6874552657632698
0.7291120547573453
0.7213505419738605
0.2482605191807179
0.7076770866899225
0.8249460795829814
0.8149436293759961
0.508334914351859
0.5569198432026746
0.367399986831097
0.37526732413286357
0.03912526939591088
0.3163498523027989
0.1386520879105897
0.5781146762704882
0.08875466054744652
0.7168748876200913
0.278336398933149
0.8574404655148412
0.8780098094612327
0.4951296503943554
0.3198534689297525
0.558840886028234
0.255834464960923
0.2783582379427785
0.806034687843869
0.07869005214624158
0.971386028590506
0.8610154275108063
0.11895164816921555
0.943602789468359
0.42840967157451326
0.9270175880832375
0.3356153649036804
0.9080207941763723
0.06745814017043394
0.3121208872475648
0.6307034445652793
0.6541826477167583
0.7502673208707902
0.5430327878063457
0.7710564404991201
0.5964522191789402
0.7316354133928672
0.9693401699938962
0.33356489816060253
0.4280566369475538
0.7679827763143497
0.24466286813504623
0.763733676429238
0.18562513728227348
0.10114347498638887
0.24129993541785222
0.7263776568427491
0.853592631231202
0.0007517290505903995
0.7542423949758964
0.47791741450109415
0.45564096130899123
0.939047060553434
0.19963641905816842
0.01605792757025548
0.17582715711240415
0.9554110733976878
0.6264623584994466
0.8167066888450799
0.5629813117145337
0.9307978227005731
0.6062276650516801
0.36039649090084047
0.057019169110577694
0.8981310026721685
0.2564579321377155
0.37742366054071386
